acc,accuracy,average_response_time,avg_rt,background,block,canvas_backend,clock_backend,color_backend,compensation,coordinates,correct,correct_Instruction1,correct_new_keyboard_response,correct_response,count_Instruction1,count_correctFeedback,count_expSequence,count_experiment,count_experimentLoop,count_fixation,count_incorrectFeedback,count_instructions2,count_isi,count_logger,count_memorySet,count_new_keyboard_response,count_practiceLoop,count_probe,count_thankYou,datetime,description,disable_garbage_collection,experiment_file,experiment_path,font_bold,font_family,font_italic,font_size,font_underline,foreground,form_clicks,fullscreen,height,keyboard_backend,live_row,live_row_practiceLoop,logfile,mouse_backend,numberSet,opensesame_codename,opensesame_version,posInSet,present,repeat_cycle,response,response_Instruction1,response_instructions2,response_new_keyboard_response,response_thankYou,response_time,response_time_Instruction1,response_time_instructions2,response_time_new_keyboard_response,response_time_thankYou,round_decimals,sampler_backend,setSize,sound_buf_size,sound_channels,sound_freq,sound_sample_size,start,subject_nr,subject_parity,target,time_Instruction1,time_correctFeedback,time_expSequence,time_experiment,time_experimentLoop,time_fixation,time_incorrectFeedback,time_instructions2,time_isi,time_logger,time_memorySet,time_new_keyboard_response,time_practiceLoop,time_probe,time_thankYou,title,total_correct,total_response_time,total_responses,uniform_coordinates,width
0,0,2000,2000,black,practice,legacy,legacy,legacy,0,uniform,0,undefined,0,left,0,0,0,0,0,0,0,0,0,0,0,0,0,0,0,Mon Oct 21 12:04:32 2019,The main experiment item,yes,Sternbergtask.osexp,/Users/KrisBow/Dropbox/GradSchoolTarleton/Fall2019/AdvQuant/Lab3,no,mono,no,18,no,white,no,yes,768,legacy,0,0,/Users/KrisBow/Dropbox/GradSchoolTarleton/Fall2019/AdvQuant/Lab3/KB-subject-2.csv,legacy,1 5 2 9,Kafkaesque Koffka,3.2.6,2,y,0,None,right,NA,None,NA,2000,52280,NA,2000,NA,2,legacy,4,1024,2,48000,-16,experiment,2,even,5,1821,NA,54639,1809,NA,54650,NA,NA,56874,60885,55661,58885,54103,58884,NA,Sternberg task,0,2000,1,yes,1024
0,0,1325.5,1325.5,black,practice,legacy,legacy,legacy,0,uniform,0,undefined,0,right,0,1,1,0,0,1,1,0,1,1,1,1,0,1,0,Mon Oct 21 12:04:32 2019,The main experiment item,yes,Sternbergtask.osexp,/Users/KrisBow/Dropbox/GradSchoolTarleton/Fall2019/AdvQuant/Lab3,no,mono,no,18,no,white,no,yes,768,legacy,1,1,/Users/KrisBow/Dropbox/GradSchoolTarleton/Fall2019/AdvQuant/Lab3/KB-subject-2.csv,legacy,3 1 9 4,Kafkaesque Koffka,3.2.6,0,n,0,left,right,NA,left,NA,651,52280,NA,651,NA,2,legacy,4,1024,2,48000,-16,experiment,2,even,6,1821,NA,62068,1809,NA,62081,60953,NA,64304,66968,63093,66316,54103,66316,NA,Sternberg task,0,2651,2,yes,1024
33.33333333,33.33333333,1090.666667,1090.666667,black,practice,legacy,legacy,legacy,0,uniform,1,undefined,1,right,0,2,2,0,0,2,2,0,2,2,2,2,0,2,0,Mon Oct 21 12:04:32 2019,The main experiment item,yes,Sternbergtask.osexp,/Users/KrisBow/Dropbox/GradSchoolTarleton/Fall2019/AdvQuant/Lab3,no,mono,no,18,no,white,no,yes,768,legacy,2,2,/Users/KrisBow/Dropbox/GradSchoolTarleton/Fall2019/AdvQuant/Lab3/KB-subject-2.csv,legacy,2 1,Kafkaesque Koffka,3.2.6,0,n,0,right,right,NA,right,NA,621,52280,NA,621,NA,2,legacy,2,1024,2,48000,-16,experiment,2,even,5,1821,NA,68087,1809,NA,68098,66981,NA,70321,72956,69109,72333,54103,72332,NA,Sternberg task,1,3272,3,yes,1024
50,50,967.5,967.5,black,practice,legacy,legacy,legacy,0,uniform,1,undefined,1,left,0,3,3,0,0,3,3,0,3,3,3,3,0,3,0,Mon Oct 21 12:04:32 2019,The main experiment item,yes,Sternbergtask.osexp,/Users/KrisBow/Dropbox/GradSchoolTarleton/Fall2019/AdvQuant/Lab3,no,mono,no,18,no,white,no,yes,768,legacy,3,3,/Users/KrisBow/Dropbox/GradSchoolTarleton/Fall2019/AdvQuant/Lab3/KB-subject-2.csv,legacy,4 8,Kafkaesque Koffka,3.2.6,1,y,0,left,right,NA,left,NA,598,52280,NA,598,NA,2,legacy,2,1024,2,48000,-16,experiment,2,even,4,1821,72969,74076,1809,NA,74086,66981,NA,76310,78921,75098,78321,54103,78321,NA,Sternberg task,2,3870,4,yes,1024
60,60,906,906,black,practice,legacy,legacy,legacy,0,uniform,1,undefined,1,right,0,4,4,0,0,4,4,0,4,4,4,4,0,4,0,Mon Oct 21 12:04:32 2019,The main experiment item,yes,Sternbergtask.osexp,/Users/KrisBow/Dropbox/GradSchoolTarleton/Fall2019/AdvQuant/Lab3,no,mono,no,18,no,white,no,yes,768,legacy,4,4,/Users/KrisBow/Dropbox/GradSchoolTarleton/Fall2019/AdvQuant/Lab3/KB-subject-2.csv,legacy,5,Kafkaesque Koffka,3.2.6,0,n,0,right,right,NA,right,NA,660,52280,NA,660,NA,2,legacy,1,1024,2,48000,-16,experiment,2,even,3,1821,78934,80039,1809,NA,80050,66981,NA,82274,84946,81061,84285,54103,84284,NA,Sternberg task,3,4530,5,yes,1024
50,50,837,837,black,practice,legacy,legacy,legacy,0,uniform,0,undefined,0,left,0,5,5,0,0,5,5,0,5,5,5,5,0,5,0,Mon Oct 21 12:04:32 2019,The main experiment item,yes,Sternbergtask.osexp,/Users/KrisBow/Dropbox/GradSchoolTarleton/Fall2019/AdvQuant/Lab3,no,mono,no,18,no,white,no,yes,768,legacy,5,5,/Users/KrisBow/Dropbox/GradSchoolTarleton/Fall2019/AdvQuant/Lab3/KB-subject-2.csv,legacy,6,Kafkaesque Koffka,3.2.6,1,y,0,right,right,NA,right,NA,492,52280,NA,492,NA,2,legacy,1,1024,2,48000,-16,experiment,2,even,6,1821,84960,86065,1809,NA,86076,66981,NA,88298,90802,87087,90309,54103,90309,NA,Sternberg task,3,5022,6,yes,1024
57.14285714,57.14285714,818.7142857,818.7142857,black,practice,legacy,legacy,legacy,0,uniform,1,undefined,1,left,0,6,6,0,0,6,6,0,6,6,6,6,0,6,0,Mon Oct 21 12:04:32 2019,The main experiment item,yes,Sternbergtask.osexp,/Users/KrisBow/Dropbox/GradSchoolTarleton/Fall2019/AdvQuant/Lab3,no,mono,no,18,no,white,no,yes,768,legacy,6,6,/Users/KrisBow/Dropbox/GradSchoolTarleton/Fall2019/AdvQuant/Lab3/KB-subject-2.csv,legacy,4 3 1 7 9 8,Kafkaesque Koffka,3.2.6,1,y,0,left,right,NA,left,NA,709,52280,NA,709,NA,2,legacy,6,1024,2,48000,-16,experiment,2,even,4,1821,84960,91924,1809,NA,91936,90815,NA,94159,96882,92947,96171,54103,96170,NA,Sternberg task,4,5731,7,yes,1024
62.5,62.5,789.625,789.625,black,practice,legacy,legacy,legacy,0,uniform,1,undefined,1,right,0,7,7,0,0,7,7,0,7,7,7,7,0,7,0,Mon Oct 21 12:04:32 2019,The main experiment item,yes,Sternbergtask.osexp,/Users/KrisBow/Dropbox/GradSchoolTarleton/Fall2019/AdvQuant/Lab3,no,mono,no,18,no,white,no,yes,768,legacy,7,7,/Users/KrisBow/Dropbox/GradSchoolTarleton/Fall2019/AdvQuant/Lab3/KB-subject-2.csv,legacy,4 1 5,Kafkaesque Koffka,3.2.6,0,n,0,right,right,NA,right,NA,586,52280,NA,586,NA,2,legacy,3,1024,2,48000,-16,experiment,2,even,2,1821,96895,98001,1809,NA,98012,90815,NA,100234,102834,99023,102246,54103,102245,NA,Sternberg task,5,6317,8,yes,1024
66.66666667,66.66666667,781.4444444,781.4444444,black,practice,legacy,legacy,legacy,0,uniform,1,undefined,1,right,0,8,8,0,0,8,8,0,8,8,8,8,0,8,0,Mon Oct 21 12:04:32 2019,The main experiment item,yes,Sternbergtask.osexp,/Users/KrisBow/Dropbox/GradSchoolTarleton/Fall2019/AdvQuant/Lab3,no,mono,no,18,no,white,no,yes,768,legacy,8,8,/Users/KrisBow/Dropbox/GradSchoolTarleton/Fall2019/AdvQuant/Lab3/KB-subject-2.csv,legacy,5 7 8 4 1 2,Kafkaesque Koffka,3.2.6,0,n,0,right,right,NA,right,NA,716,52280,NA,716,NA,2,legacy,6,1024,2,48000,-16,experiment,2,even,6,1821,102848,103956,1809,NA,103967,90815,NA,106190,108919,104978,108202,54103,108201,NA,Sternberg task,6,7033,9,yes,1024
70,70,762.2,762.2,black,practice,legacy,legacy,legacy,0,uniform,1,undefined,1,right,0,9,9,0,0,9,9,0,9,9,9,9,0,9,0,Mon Oct 21 12:04:32 2019,The main experiment item,yes,Sternbergtask.osexp,/Users/KrisBow/Dropbox/GradSchoolTarleton/Fall2019/AdvQuant/Lab3,no,mono,no,18,no,white,no,yes,768,legacy,9,9,/Users/KrisBow/Dropbox/GradSchoolTarleton/Fall2019/AdvQuant/Lab3/KB-subject-2.csv,legacy,9 6 7 4 5,Kafkaesque Koffka,3.2.6,0,n,0,right,right,NA,right,NA,589,52280,NA,589,NA,2,legacy,5,1024,2,48000,-16,experiment,2,even,3,1821,108932,110038,1809,NA,110049,90815,NA,112273,114876,111060,114285,54103,114284,NA,Sternberg task,7,7622,10,yes,1024
72.72727273,72.72727273,769.5454545,769.5454545,black,practice,legacy,legacy,legacy,0,uniform,1,undefined,1,left,0,10,10,0,0,10,10,0,10,10,10,10,0,10,0,Mon Oct 21 12:04:32 2019,The main experiment item,yes,Sternbergtask.osexp,/Users/KrisBow/Dropbox/GradSchoolTarleton/Fall2019/AdvQuant/Lab3,no,mono,no,18,no,white,no,yes,768,legacy,10,10,/Users/KrisBow/Dropbox/GradSchoolTarleton/Fall2019/AdvQuant/Lab3/KB-subject-2.csv,legacy,1 7 9 8 5,Kafkaesque Koffka,3.2.6,4,y,0,left,right,NA,left,NA,843,52280,NA,843,NA,2,legacy,5,1024,2,48000,-16,experiment,2,even,8,1821,114890,115999,1809,NA,116008,90815,NA,118232,121088,117019,120243,54103,120243,NA,Sternberg task,8,8465,11,yes,1024
75,75,748.25,748.25,black,practice,legacy,legacy,legacy,0,uniform,1,undefined,1,left,0,11,11,0,0,11,11,0,11,11,11,11,0,11,0,Mon Oct 21 12:04:32 2019,The main experiment item,yes,Sternbergtask.osexp,/Users/KrisBow/Dropbox/GradSchoolTarleton/Fall2019/AdvQuant/Lab3,no,mono,no,18,no,white,no,yes,768,legacy,11,11,/Users/KrisBow/Dropbox/GradSchoolTarleton/Fall2019/AdvQuant/Lab3/KB-subject-2.csv,legacy,2 9 4,Kafkaesque Koffka,3.2.6,3,y,0,left,right,NA,left,NA,514,52280,NA,514,NA,2,legacy,3,1024,2,48000,-16,experiment,2,even,4,1821,121101,122210,1809,NA,122221,90815,NA,124443,126969,123232,126454,54103,126454,NA,Sternberg task,9,8979,12,yes,1024
76.92307692,76.92307692,749.1538462,749.1538462,black,experiment,legacy,legacy,legacy,0,uniform,1,undefined,1,left,0,12,12,0,0,12,12,0,12,12,12,12,0,12,0,Mon Oct 21 12:04:32 2019,The main experiment item,yes,Sternbergtask.osexp,/Users/KrisBow/Dropbox/GradSchoolTarleton/Fall2019/AdvQuant/Lab3,no,mono,no,18,no,white,no,yes,768,legacy,0,11,/Users/KrisBow/Dropbox/GradSchoolTarleton/Fall2019/AdvQuant/Lab3/KB-subject-2.csv,legacy,5 7 3 6 2,Kafkaesque Koffka,3.2.6,5,y,0,left,right,right,left,NA,760,52280,15900,760,NA,2,legacy,5,1024,2,48000,-16,experiment,2,even,2,1821,126982,144041,1809,143926,144052,90815,128025,146276,149050,145063,148289,54103,148289,NA,Sternberg task,10,9739,13,yes,1024
78.57142857,78.57142857,734.2857143,734.2857143,black,experiment,legacy,legacy,legacy,0,uniform,1,undefined,1,right,0,13,13,0,0,13,13,0,13,13,13,13,0,13,0,Mon Oct 21 12:04:32 2019,The main experiment item,yes,Sternbergtask.osexp,/Users/KrisBow/Dropbox/GradSchoolTarleton/Fall2019/AdvQuant/Lab3,no,mono,no,18,no,white,no,yes,768,legacy,1,11,/Users/KrisBow/Dropbox/GradSchoolTarleton/Fall2019/AdvQuant/Lab3/KB-subject-2.csv,legacy,6 9 4 5 2,Kafkaesque Koffka,3.2.6,0,n,0,right,right,right,right,NA,541,52280,15900,541,NA,2,legacy,5,1024,2,48000,-16,experiment,2,even,1,1821,149064,150173,1809,143926,150184,90815,128025,152407,154960,151195,154418,54103,154418,NA,Sternberg task,11,10280,14,yes,1024
80,80,719.4666667,719.4666667,black,experiment,legacy,legacy,legacy,0,uniform,1,undefined,1,left,0,14,14,0,0,14,14,0,14,14,14,14,0,14,0,Mon Oct 21 12:04:32 2019,The main experiment item,yes,Sternbergtask.osexp,/Users/KrisBow/Dropbox/GradSchoolTarleton/Fall2019/AdvQuant/Lab3,no,mono,no,18,no,white,no,yes,768,legacy,2,11,/Users/KrisBow/Dropbox/GradSchoolTarleton/Fall2019/AdvQuant/Lab3/KB-subject-2.csv,legacy,3 2 1 4 7,Kafkaesque Koffka,3.2.6,2,y,0,left,right,right,left,NA,512,52280,15900,512,NA,2,legacy,5,1024,2,48000,-16,experiment,2,even,2,1821,154973,156083,1809,143926,156094,90815,128025,158316,160840,157105,160327,54103,160327,NA,Sternberg task,12,10792,15,yes,1024
81.25,81.25,702.875,702.875,black,experiment,legacy,legacy,legacy,0,uniform,1,undefined,1,right,0,15,15,0,0,15,15,0,15,15,15,15,0,15,0,Mon Oct 21 12:04:32 2019,The main experiment item,yes,Sternbergtask.osexp,/Users/KrisBow/Dropbox/GradSchoolTarleton/Fall2019/AdvQuant/Lab3,no,mono,no,18,no,white,no,yes,768,legacy,3,11,/Users/KrisBow/Dropbox/GradSchoolTarleton/Fall2019/AdvQuant/Lab3/KB-subject-2.csv,legacy,7 8 6 1,Kafkaesque Koffka,3.2.6,0,n,0,right,right,right,right,NA,454,52280,15900,454,NA,2,legacy,4,1024,2,48000,-16,experiment,2,even,3,1821,160853,161961,1809,143926,161972,90815,128025,164195,166661,162983,166206,54103,166205,NA,Sternberg task,13,11246,16,yes,1024
82.35294118,82.35294118,694.0588235,694.0588235,black,experiment,legacy,legacy,legacy,0,uniform,1,undefined,1,right,0,16,16,0,0,16,16,0,16,16,16,16,0,16,0,Mon Oct 21 12:04:32 2019,The main experiment item,yes,Sternbergtask.osexp,/Users/KrisBow/Dropbox/GradSchoolTarleton/Fall2019/AdvQuant/Lab3,no,mono,no,18,no,white,no,yes,768,legacy,4,11,/Users/KrisBow/Dropbox/GradSchoolTarleton/Fall2019/AdvQuant/Lab3/KB-subject-2.csv,legacy,8 2 1 4 5 9,Kafkaesque Koffka,3.2.6,0,n,0,right,right,right,right,NA,553,52280,15900,553,NA,2,legacy,6,1024,2,48000,-16,experiment,2,even,7,1821,166674,167783,1809,143926,167794,90815,128025,170017,172585,168805,172030,54103,172030,NA,Sternberg task,14,11799,17,yes,1024
83.33333333,83.33333333,693.2222222,693.2222222,black,experiment,legacy,legacy,legacy,0,uniform,1,undefined,1,left,0,17,17,0,0,17,17,0,17,17,17,17,0,17,0,Mon Oct 21 12:04:32 2019,The main experiment item,yes,Sternbergtask.osexp,/Users/KrisBow/Dropbox/GradSchoolTarleton/Fall2019/AdvQuant/Lab3,no,mono,no,18,no,white,no,yes,768,legacy,5,11,/Users/KrisBow/Dropbox/GradSchoolTarleton/Fall2019/AdvQuant/Lab3/KB-subject-2.csv,legacy,2 3 7 4,Kafkaesque Koffka,3.2.6,1,y,0,left,right,right,left,NA,679,52280,15900,679,NA,2,legacy,4,1024,2,48000,-16,experiment,2,even,2,1821,172597,173705,1809,143926,173716,90815,128025,175941,178633,174727,177952,54103,177951,NA,Sternberg task,15,12478,18,yes,1024
84.21052632,84.21052632,689.4736842,689.4736842,black,experiment,legacy,legacy,legacy,0,uniform,1,undefined,1,left,0,18,18,0,0,18,18,0,18,18,18,18,0,18,0,Mon Oct 21 12:04:32 2019,The main experiment item,yes,Sternbergtask.osexp,/Users/KrisBow/Dropbox/GradSchoolTarleton/Fall2019/AdvQuant/Lab3,no,mono,no,18,no,white,no,yes,768,legacy,6,11,/Users/KrisBow/Dropbox/GradSchoolTarleton/Fall2019/AdvQuant/Lab3/KB-subject-2.csv,legacy,6 9 7 4 5 1,Kafkaesque Koffka,3.2.6,2,y,0,left,right,right,left,NA,622,52280,15900,622,NA,2,legacy,6,1024,2,48000,-16,experiment,2,even,9,1821,178646,179759,1809,143926,179770,90815,128025,181996,184631,180783,184007,54103,184007,NA,Sternberg task,16,13100,19,yes,1024
85,85,679.25,679.25,black,experiment,legacy,legacy,legacy,0,uniform,1,undefined,1,left,0,19,19,0,0,19,19,0,19,19,19,19,0,19,0,Mon Oct 21 12:04:32 2019,The main experiment item,yes,Sternbergtask.osexp,/Users/KrisBow/Dropbox/GradSchoolTarleton/Fall2019/AdvQuant/Lab3,no,mono,no,18,no,white,no,yes,768,legacy,7,11,/Users/KrisBow/Dropbox/GradSchoolTarleton/Fall2019/AdvQuant/Lab3/KB-subject-2.csv,legacy,8 1 6,Kafkaesque Koffka,3.2.6,3,y,0,left,right,right,left,NA,485,52280,15900,485,NA,2,legacy,3,1024,2,48000,-16,experiment,2,even,6,1821,184646,185753,1809,143926,185764,90815,128025,187989,190487,186776,190000,54103,189999,NA,Sternberg task,17,13585,20,yes,1024
85.71428571,85.71428571,668.8095238,668.8095238,black,experiment,legacy,legacy,legacy,0,uniform,1,undefined,1,right,0,20,20,0,0,20,20,0,20,20,20,20,0,20,0,Mon Oct 21 12:04:32 2019,The main experiment item,yes,Sternbergtask.osexp,/Users/KrisBow/Dropbox/GradSchoolTarleton/Fall2019/AdvQuant/Lab3,no,mono,no,18,no,white,no,yes,768,legacy,8,11,/Users/KrisBow/Dropbox/GradSchoolTarleton/Fall2019/AdvQuant/Lab3/KB-subject-2.csv,legacy,8 9,Kafkaesque Koffka,3.2.6,0,n,0,right,right,right,right,NA,460,52280,15900,460,NA,2,legacy,2,1024,2,48000,-16,experiment,2,even,5,1821,190499,191608,1809,143926,191618,90815,128025,193842,196315,192631,195853,54103,195853,NA,Sternberg task,18,14045,21,yes,1024
86.36363636,86.36363636,668.3636364,668.3636364,black,experiment,legacy,legacy,legacy,0,uniform,1,undefined,1,right,0,21,21,0,0,21,21,0,21,21,21,21,0,21,0,Mon Oct 21 12:04:32 2019,The main experiment item,yes,Sternbergtask.osexp,/Users/KrisBow/Dropbox/GradSchoolTarleton/Fall2019/AdvQuant/Lab3,no,mono,no,18,no,white,no,yes,768,legacy,9,11,/Users/KrisBow/Dropbox/GradSchoolTarleton/Fall2019/AdvQuant/Lab3/KB-subject-2.csv,legacy,1,Kafkaesque Koffka,3.2.6,0,n,0,right,right,right,right,NA,659,52280,15900,659,NA,2,legacy,1,1024,2,48000,-16,experiment,2,even,7,1821,196328,197435,1809,143926,197446,90815,128025,199671,202342,198458,201682,54103,201681,NA,Sternberg task,19,14704,22,yes,1024
86.95652174,86.95652174,664.826087,664.826087,black,experiment,legacy,legacy,legacy,0,uniform,1,undefined,1,right,0,22,22,0,0,22,22,0,22,22,22,22,0,22,0,Mon Oct 21 12:04:32 2019,The main experiment item,yes,Sternbergtask.osexp,/Users/KrisBow/Dropbox/GradSchoolTarleton/Fall2019/AdvQuant/Lab3,no,mono,no,18,no,white,no,yes,768,legacy,10,11,/Users/KrisBow/Dropbox/GradSchoolTarleton/Fall2019/AdvQuant/Lab3/KB-subject-2.csv,legacy,2 8 6 3 1,Kafkaesque Koffka,3.2.6,0,n,0,right,right,right,right,NA,587,52280,15900,587,NA,2,legacy,5,1024,2,48000,-16,experiment,2,even,7,1821,202355,203463,1809,143926,203474,90815,128025,205696,208296,204485,207707,54103,207707,NA,Sternberg task,20,15291,23,yes,1024
87.5,87.5,662.0416667,662.0416667,black,experiment,legacy,legacy,legacy,0,uniform,1,undefined,1,right,0,23,23,0,0,23,23,0,23,23,23,23,0,23,0,Mon Oct 21 12:04:32 2019,The main experiment item,yes,Sternbergtask.osexp,/Users/KrisBow/Dropbox/GradSchoolTarleton/Fall2019/AdvQuant/Lab3,no,mono,no,18,no,white,no,yes,768,legacy,11,11,/Users/KrisBow/Dropbox/GradSchoolTarleton/Fall2019/AdvQuant/Lab3/KB-subject-2.csv,legacy,6 8 4,Kafkaesque Koffka,3.2.6,0,n,0,right,right,right,right,NA,598,52280,15900,598,NA,2,legacy,3,1024,2,48000,-16,experiment,2,even,1,1821,208309,209416,1809,143926,209427,90815,128025,211651,214261,210438,213662,54103,213662,NA,Sternberg task,21,15889,24,yes,1024
88,88,659.68,659.68,black,experiment,legacy,legacy,legacy,0,uniform,1,undefined,1,left,0,24,24,0,0,24,24,0,24,24,24,24,0,24,0,Mon Oct 21 12:04:32 2019,The main experiment item,yes,Sternbergtask.osexp,/Users/KrisBow/Dropbox/GradSchoolTarleton/Fall2019/AdvQuant/Lab3,no,mono,no,18,no,white,no,yes,768,legacy,12,11,/Users/KrisBow/Dropbox/GradSchoolTarleton/Fall2019/AdvQuant/Lab3/KB-subject-2.csv,legacy,6 8 9 3 4 9,Kafkaesque Koffka,3.2.6,5,y,0,left,right,right,left,NA,603,52280,15900,603,NA,2,legacy,6,1024,2,48000,-16,experiment,2,even,4,1821,214274,215382,1809,143926,215393,90815,128025,217615,220230,216404,219626,54103,219626,NA,Sternberg task,22,16492,25,yes,1024
88.46153846,88.46153846,658.1923077,658.1923077,black,experiment,legacy,legacy,legacy,0,uniform,1,undefined,1,right,0,25,25,0,0,25,25,0,25,25,25,25,0,25,0,Mon Oct 21 12:04:32 2019,The main experiment item,yes,Sternbergtask.osexp,/Users/KrisBow/Dropbox/GradSchoolTarleton/Fall2019/AdvQuant/Lab3,no,mono,no,18,no,white,no,yes,768,legacy,13,11,/Users/KrisBow/Dropbox/GradSchoolTarleton/Fall2019/AdvQuant/Lab3/KB-subject-2.csv,legacy,8 6 3 4 7,Kafkaesque Koffka,3.2.6,0,n,0,right,right,right,right,NA,621,52280,15900,621,NA,2,legacy,5,1024,2,48000,-16,experiment,2,even,1,1821,220243,221355,1809,143926,221365,90815,128025,223589,226225,222376,225602,54103,225602,NA,Sternberg task,23,17113,26,yes,1024
88.88888889,88.88888889,652.3703704,652.3703704,black,experiment,legacy,legacy,legacy,0,uniform,1,undefined,1,right,0,26,26,0,0,26,26,0,26,26,26,26,0,26,0,Mon Oct 21 12:04:32 2019,The main experiment item,yes,Sternbergtask.osexp,/Users/KrisBow/Dropbox/GradSchoolTarleton/Fall2019/AdvQuant/Lab3,no,mono,no,18,no,white,no,yes,768,legacy,14,11,/Users/KrisBow/Dropbox/GradSchoolTarleton/Fall2019/AdvQuant/Lab3/KB-subject-2.csv,legacy,2 8 9 4 1,Kafkaesque Koffka,3.2.6,0,n,0,right,right,right,right,NA,501,52280,15900,501,NA,2,legacy,5,1024,2,48000,-16,experiment,2,even,5,1821,226238,227346,1809,143926,227356,90815,128025,229580,232093,228368,231590,54103,231590,NA,Sternberg task,24,17614,27,yes,1024
89.28571429,89.28571429,647.4285714,647.4285714,black,experiment,legacy,legacy,legacy,0,uniform,1,undefined,1,left,0,27,27,0,0,27,27,0,27,27,27,27,0,27,0,Mon Oct 21 12:04:32 2019,The main experiment item,yes,Sternbergtask.osexp,/Users/KrisBow/Dropbox/GradSchoolTarleton/Fall2019/AdvQuant/Lab3,no,mono,no,18,no,white,no,yes,768,legacy,15,11,/Users/KrisBow/Dropbox/GradSchoolTarleton/Fall2019/AdvQuant/Lab3/KB-subject-2.csv,legacy,2 4 8 5 1 3,Kafkaesque Koffka,3.2.6,1,y,0,left,right,right,left,NA,514,52280,15900,514,NA,2,legacy,6,1024,2,48000,-16,experiment,2,even,2,1821,232106,233214,1809,143926,233225,90815,128025,235447,237974,234236,237458,54103,237458,NA,Sternberg task,25,18128,28,yes,1024
89.65517241,89.65517241,643.8965517,643.8965517,black,experiment,legacy,legacy,legacy,0,uniform,1,undefined,1,left,0,28,28,0,0,28,28,0,28,28,28,28,0,28,0,Mon Oct 21 12:04:32 2019,The main experiment item,yes,Sternbergtask.osexp,/Users/KrisBow/Dropbox/GradSchoolTarleton/Fall2019/AdvQuant/Lab3,no,mono,no,18,no,white,no,yes,768,legacy,16,11,/Users/KrisBow/Dropbox/GradSchoolTarleton/Fall2019/AdvQuant/Lab3/KB-subject-2.csv,legacy,4 7 6 8 2 3,Kafkaesque Koffka,3.2.6,6,y,0,left,right,right,left,NA,545,52280,15900,545,NA,2,legacy,6,1024,2,48000,-16,experiment,2,even,3,1821,237987,239094,1809,143926,239105,90815,128025,241329,243889,240117,243342,54103,243341,NA,Sternberg task,26,18673,29,yes,1024
90,90,641.1333333,641.1333333,black,experiment,legacy,legacy,legacy,0,uniform,1,undefined,1,left,0,29,29,0,0,29,29,0,29,29,29,29,0,29,0,Mon Oct 21 12:04:32 2019,The main experiment item,yes,Sternbergtask.osexp,/Users/KrisBow/Dropbox/GradSchoolTarleton/Fall2019/AdvQuant/Lab3,no,mono,no,18,no,white,no,yes,768,legacy,17,11,/Users/KrisBow/Dropbox/GradSchoolTarleton/Fall2019/AdvQuant/Lab3/KB-subject-2.csv,legacy,3 4 9 6 2 9,Kafkaesque Koffka,3.2.6,5,y,0,left,right,right,left,NA,561,52280,15900,561,NA,2,legacy,6,1024,2,48000,-16,experiment,2,even,2,1821,243908,245016,1809,143926,245027,90815,128025,247251,249825,246038,249262,54103,249261,NA,Sternberg task,27,19234,30,yes,1024
90.32258065,90.32258065,642.516129,642.516129,black,experiment,legacy,legacy,legacy,0,uniform,1,undefined,1,right,0,30,30,0,0,30,30,0,30,30,30,30,0,30,0,Mon Oct 21 12:04:32 2019,The main experiment item,yes,Sternbergtask.osexp,/Users/KrisBow/Dropbox/GradSchoolTarleton/Fall2019/AdvQuant/Lab3,no,mono,no,18,no,white,no,yes,768,legacy,18,11,/Users/KrisBow/Dropbox/GradSchoolTarleton/Fall2019/AdvQuant/Lab3/KB-subject-2.csv,legacy,7 9 1 6,Kafkaesque Koffka,3.2.6,0,n,0,right,right,right,right,NA,684,52280,15900,684,NA,2,legacy,4,1024,2,48000,-16,experiment,2,even,4,1821,249838,250947,1809,143926,250958,90815,128025,253181,255878,251969,255193,54103,255193,NA,Sternberg task,28,19918,31,yes,1024
90.625,90.625,645.59375,645.59375,black,experiment,legacy,legacy,legacy,0,uniform,1,undefined,1,left,0,31,31,0,0,31,31,0,31,31,31,31,0,31,0,Mon Oct 21 12:04:32 2019,The main experiment item,yes,Sternbergtask.osexp,/Users/KrisBow/Dropbox/GradSchoolTarleton/Fall2019/AdvQuant/Lab3,no,mono,no,18,no,white,no,yes,768,legacy,19,11,/Users/KrisBow/Dropbox/GradSchoolTarleton/Fall2019/AdvQuant/Lab3/KB-subject-2.csv,legacy,8 7 3,Kafkaesque Koffka,3.2.6,1,y,0,left,right,right,left,NA,741,52280,15900,741,NA,2,legacy,3,1024,2,48000,-16,experiment,2,even,8,1821,255892,257002,1809,143926,257013,90815,128025,259238,261992,258025,261249,54103,261249,NA,Sternberg task,29,20659,32,yes,1024
90.90909091,90.90909091,644.9393939,644.9393939,black,experiment,legacy,legacy,legacy,0,uniform,1,undefined,1,right,0,32,32,0,0,32,32,0,32,32,32,32,0,32,0,Mon Oct 21 12:04:32 2019,The main experiment item,yes,Sternbergtask.osexp,/Users/KrisBow/Dropbox/GradSchoolTarleton/Fall2019/AdvQuant/Lab3,no,mono,no,18,no,white,no,yes,768,legacy,20,11,/Users/KrisBow/Dropbox/GradSchoolTarleton/Fall2019/AdvQuant/Lab3/KB-subject-2.csv,legacy,5 9 2 3,Kafkaesque Koffka,3.2.6,0,n,0,right,right,right,right,NA,624,52280,15900,624,NA,2,legacy,4,1024,2,48000,-16,experiment,2,even,8,1821,262004,263113,1809,143926,263124,90815,128025,265347,267985,264135,267359,54103,267359,NA,Sternberg task,30,21283,33,yes,1024
88.23529412,88.23529412,640.7941176,640.7941176,black,experiment,legacy,legacy,legacy,0,uniform,0,undefined,0,left,0,33,33,0,0,33,33,0,33,33,33,33,0,33,0,Mon Oct 21 12:04:32 2019,The main experiment item,yes,Sternbergtask.osexp,/Users/KrisBow/Dropbox/GradSchoolTarleton/Fall2019/AdvQuant/Lab3,no,mono,no,18,no,white,no,yes,768,legacy,21,11,/Users/KrisBow/Dropbox/GradSchoolTarleton/Fall2019/AdvQuant/Lab3/KB-subject-2.csv,legacy,6 9 3 1,Kafkaesque Koffka,3.2.6,4,y,0,right,right,right,right,NA,504,52280,15900,504,NA,2,legacy,4,1024,2,48000,-16,experiment,2,even,1,1821,267999,269106,1809,143926,269117,90815,128025,271341,273857,270128,273352,54103,273352,NA,Sternberg task,30,21787,34,yes,1024
88.57142857,88.57142857,642.1714286,642.1714286,black,experiment,legacy,legacy,legacy,0,uniform,1,undefined,1,right,0,34,34,0,0,34,34,0,34,34,34,34,0,34,0,Mon Oct 21 12:04:32 2019,The main experiment item,yes,Sternbergtask.osexp,/Users/KrisBow/Dropbox/GradSchoolTarleton/Fall2019/AdvQuant/Lab3,no,mono,no,18,no,white,no,yes,768,legacy,22,11,/Users/KrisBow/Dropbox/GradSchoolTarleton/Fall2019/AdvQuant/Lab3/KB-subject-2.csv,legacy,7 1 5 6 3,Kafkaesque Koffka,3.2.6,0,n,0,right,right,right,right,NA,689,52280,15900,689,NA,2,legacy,5,1024,2,48000,-16,experiment,2,even,8,1821,267999,274978,1809,143926,274988,273870,128025,277211,279913,275999,279222,54103,279222,NA,Sternberg task,31,22476,35,yes,1024
88.88888889,88.88888889,645.1944444,645.1944444,black,experiment,legacy,legacy,legacy,0,uniform,1,undefined,1,left,0,35,35,0,0,35,35,0,35,35,35,35,0,35,0,Mon Oct 21 12:04:32 2019,The main experiment item,yes,Sternbergtask.osexp,/Users/KrisBow/Dropbox/GradSchoolTarleton/Fall2019/AdvQuant/Lab3,no,mono,no,18,no,white,no,yes,768,legacy,23,11,/Users/KrisBow/Dropbox/GradSchoolTarleton/Fall2019/AdvQuant/Lab3/KB-subject-2.csv,legacy,9 5 8 1,Kafkaesque Koffka,3.2.6,2,y,0,left,right,right,left,NA,751,52280,15900,751,NA,2,legacy,4,1024,2,48000,-16,experiment,2,even,5,1821,279925,281033,1809,143926,281044,273870,128025,283265,286029,282055,285276,54103,285276,NA,Sternberg task,32,23227,36,yes,1024
89.18918919,89.18918919,648.7297297,648.7297297,black,experiment,legacy,legacy,legacy,0,uniform,1,undefined,1,left,0,36,36,0,0,36,36,0,36,36,36,36,0,36,0,Mon Oct 21 12:04:32 2019,The main experiment item,yes,Sternbergtask.osexp,/Users/KrisBow/Dropbox/GradSchoolTarleton/Fall2019/AdvQuant/Lab3,no,mono,no,18,no,white,no,yes,768,legacy,24,11,/Users/KrisBow/Dropbox/GradSchoolTarleton/Fall2019/AdvQuant/Lab3/KB-subject-2.csv,legacy,8 5 3 7 4 6,Kafkaesque Koffka,3.2.6,6,y,0,left,right,right,left,NA,776,52280,15900,776,NA,2,legacy,6,1024,2,48000,-16,experiment,2,even,6,1821,286045,287153,1809,143926,287163,273870,128025,289387,292176,288175,291398,54103,291398,NA,Sternberg task,33,24003,37,yes,1024
89.47368421,89.47368421,649.3684211,649.3684211,black,experiment,legacy,legacy,legacy,0,uniform,1,undefined,1,left,0,37,37,0,0,37,37,0,37,37,37,37,0,37,0,Mon Oct 21 12:04:32 2019,The main experiment item,yes,Sternbergtask.osexp,/Users/KrisBow/Dropbox/GradSchoolTarleton/Fall2019/AdvQuant/Lab3,no,mono,no,18,no,white,no,yes,768,legacy,25,11,/Users/KrisBow/Dropbox/GradSchoolTarleton/Fall2019/AdvQuant/Lab3/KB-subject-2.csv,legacy,9 5 3 8 4,Kafkaesque Koffka,3.2.6,1,y,0,left,right,right,left,NA,673,52280,15900,673,NA,2,legacy,5,1024,2,48000,-16,experiment,2,even,9,1821,292189,293296,1809,143926,293307,273870,128025,295531,298217,294318,297542,54103,297542,NA,Sternberg task,34,24676,38,yes,1024
89.74358974,89.74358974,648.7435897,648.7435897,black,experiment,legacy,legacy,legacy,0,uniform,1,undefined,1,left,0,38,38,0,0,38,38,0,38,38,38,38,0,38,0,Mon Oct 21 12:04:32 2019,The main experiment item,yes,Sternbergtask.osexp,/Users/KrisBow/Dropbox/GradSchoolTarleton/Fall2019/AdvQuant/Lab3,no,mono,no,18,no,white,no,yes,768,legacy,26,11,/Users/KrisBow/Dropbox/GradSchoolTarleton/Fall2019/AdvQuant/Lab3/KB-subject-2.csv,legacy,7 1 8 5 6 2,Kafkaesque Koffka,3.2.6,2,y,0,left,right,right,left,NA,625,52280,15900,625,NA,2,legacy,6,1024,2,48000,-16,experiment,2,even,1,1821,298230,299339,1809,143926,299350,273870,128025,301574,304212,300361,303585,54103,303585,NA,Sternberg task,35,25301,39,yes,1024
90,90,646.175,646.175,black,experiment,legacy,legacy,legacy,0,uniform,1,undefined,1,right,0,39,39,0,0,39,39,0,39,39,39,39,0,39,0,Mon Oct 21 12:04:32 2019,The main experiment item,yes,Sternbergtask.osexp,/Users/KrisBow/Dropbox/GradSchoolTarleton/Fall2019/AdvQuant/Lab3,no,mono,no,18,no,white,no,yes,768,legacy,27,11,/Users/KrisBow/Dropbox/GradSchoolTarleton/Fall2019/AdvQuant/Lab3/KB-subject-2.csv,legacy,1 5 3 2 8,Kafkaesque Koffka,3.2.6,0,n,0,right,right,right,right,NA,546,52280,15900,546,NA,2,legacy,5,1024,2,48000,-16,experiment,2,even,4,1821,304225,305333,1809,143926,305344,273870,128025,307567,310126,306355,309578,54103,309578,NA,Sternberg task,36,25847,40,yes,1024
90.24390244,90.24390244,643,643,black,experiment,legacy,legacy,legacy,0,uniform,1,undefined,1,left,0,40,40,0,0,40,40,0,40,40,40,40,0,40,0,Mon Oct 21 12:04:32 2019,The main experiment item,yes,Sternbergtask.osexp,/Users/KrisBow/Dropbox/GradSchoolTarleton/Fall2019/AdvQuant/Lab3,no,mono,no,18,no,white,no,yes,768,legacy,28,11,/Users/KrisBow/Dropbox/GradSchoolTarleton/Fall2019/AdvQuant/Lab3/KB-subject-2.csv,legacy,4 6 5 8,Kafkaesque Koffka,3.2.6,1,y,0,left,right,right,left,NA,516,52280,15900,516,NA,2,legacy,4,1024,2,48000,-16,experiment,2,even,4,1821,310139,311247,1809,143926,311258,273870,128025,313479,316008,312269,315490,54103,315490,NA,Sternberg task,37,26363,41,yes,1024
90.47619048,90.47619048,643.9761905,643.9761905,black,experiment,legacy,legacy,legacy,0,uniform,1,undefined,1,left,0,41,41,0,0,41,41,0,41,41,41,41,0,41,0,Mon Oct 21 12:04:32 2019,The main experiment item,yes,Sternbergtask.osexp,/Users/KrisBow/Dropbox/GradSchoolTarleton/Fall2019/AdvQuant/Lab3,no,mono,no,18,no,white,no,yes,768,legacy,29,11,/Users/KrisBow/Dropbox/GradSchoolTarleton/Fall2019/AdvQuant/Lab3/KB-subject-2.csv,legacy,9 3 1 2 5,Kafkaesque Koffka,3.2.6,4,y,0,left,right,right,left,NA,684,52280,15900,684,NA,2,legacy,5,1024,2,48000,-16,experiment,2,even,2,1821,316025,317133,1809,143926,317143,273870,128025,319367,322064,318155,321378,54103,321378,NA,Sternberg task,38,27047,42,yes,1024
90.69767442,90.69767442,638.7674419,638.7674419,black,experiment,legacy,legacy,legacy,0,uniform,1,undefined,1,left,0,42,42,0,0,42,42,0,42,42,42,42,0,42,0,Mon Oct 21 12:04:32 2019,The main experiment item,yes,Sternbergtask.osexp,/Users/KrisBow/Dropbox/GradSchoolTarleton/Fall2019/AdvQuant/Lab3,no,mono,no,18,no,white,no,yes,768,legacy,30,11,/Users/KrisBow/Dropbox/GradSchoolTarleton/Fall2019/AdvQuant/Lab3/KB-subject-2.csv,legacy,9 4 2,Kafkaesque Koffka,3.2.6,1,y,0,left,right,right,left,NA,420,52280,15900,420,NA,2,legacy,3,1024,2,48000,-16,experiment,2,even,9,1821,322077,323184,1809,143926,323194,273870,128025,325417,327851,324206,327429,54103,327428,NA,Sternberg task,39,27467,43,yes,1024
90.90909091,90.90909091,637.4772727,637.4772727,black,experiment,legacy,legacy,legacy,0,uniform,1,undefined,1,right,0,43,43,0,0,43,43,0,43,43,43,43,0,43,0,Mon Oct 21 12:04:32 2019,The main experiment item,yes,Sternbergtask.osexp,/Users/KrisBow/Dropbox/GradSchoolTarleton/Fall2019/AdvQuant/Lab3,no,mono,no,18,no,white,no,yes,768,legacy,31,11,/Users/KrisBow/Dropbox/GradSchoolTarleton/Fall2019/AdvQuant/Lab3/KB-subject-2.csv,legacy,1 4 9 2 5,Kafkaesque Koffka,3.2.6,0,n,0,right,right,right,right,NA,582,52280,15900,582,NA,2,legacy,5,1024,2,48000,-16,experiment,2,even,7,1821,327865,328973,1809,143926,328984,273870,128025,331207,333802,329996,333218,54103,333218,NA,Sternberg task,40,28049,44,yes,1024
91.11111111,91.11111111,633.1111111,633.1111111,black,experiment,legacy,legacy,legacy,0,uniform,1,undefined,1,left,0,44,44,0,0,44,44,0,44,44,44,44,0,44,0,Mon Oct 21 12:04:32 2019,The main experiment item,yes,Sternbergtask.osexp,/Users/KrisBow/Dropbox/GradSchoolTarleton/Fall2019/AdvQuant/Lab3,no,mono,no,18,no,white,no,yes,768,legacy,32,11,/Users/KrisBow/Dropbox/GradSchoolTarleton/Fall2019/AdvQuant/Lab3/KB-subject-2.csv,legacy,6 7 9 3 1 2,Kafkaesque Koffka,3.2.6,1,y,0,left,right,right,left,NA,441,52280,15900,441,NA,2,legacy,6,1024,2,48000,-16,experiment,2,even,6,1821,333815,334924,1809,143926,334935,273870,128025,337158,339613,335946,339170,54103,339170,NA,Sternberg task,41,28490,45,yes,1024
89.13043478,89.13043478,630.8478261,630.8478261,black,experiment,legacy,legacy,legacy,0,uniform,0,undefined,0,left,0,45,45,0,0,45,45,0,45,45,45,45,0,45,0,Mon Oct 21 12:04:32 2019,The main experiment item,yes,Sternbergtask.osexp,/Users/KrisBow/Dropbox/GradSchoolTarleton/Fall2019/AdvQuant/Lab3,no,mono,no,18,no,white,no,yes,768,legacy,33,11,/Users/KrisBow/Dropbox/GradSchoolTarleton/Fall2019/AdvQuant/Lab3/KB-subject-2.csv,legacy,4 3 2 5 8,Kafkaesque Koffka,3.2.6,2,y,0,right,right,right,right,NA,529,52280,15900,529,NA,2,legacy,5,1024,2,48000,-16,experiment,2,even,3,1821,339626,340735,1809,143926,340746,273870,128025,342971,345513,341757,344982,54103,344982,NA,Sternberg task,41,29019,46,yes,1024
89.36170213,89.36170213,627.9787234,627.9787234,black,experiment,legacy,legacy,legacy,0,uniform,1,undefined,1,left,0,46,46,0,0,46,46,0,46,46,46,46,0,46,0,Mon Oct 21 12:04:32 2019,The main experiment item,yes,Sternbergtask.osexp,/Users/KrisBow/Dropbox/GradSchoolTarleton/Fall2019/AdvQuant/Lab3,no,mono,no,18,no,white,no,yes,768,legacy,34,11,/Users/KrisBow/Dropbox/GradSchoolTarleton/Fall2019/AdvQuant/Lab3/KB-subject-2.csv,legacy,3 4,Kafkaesque Koffka,3.2.6,1,y,0,left,right,right,left,NA,496,52280,15900,496,NA,2,legacy,2,1024,2,48000,-16,experiment,2,even,3,1821,339626,346633,1809,143926,346644,345526,128025,348868,351378,347655,350880,54103,350879,NA,Sternberg task,42,29515,47,yes,1024
89.58333333,89.58333333,625.625,625.625,black,experiment,legacy,legacy,legacy,0,uniform,1,undefined,1,left,0,47,47,0,0,47,47,0,47,47,47,47,0,47,0,Mon Oct 21 12:04:32 2019,The main experiment item,yes,Sternbergtask.osexp,/Users/KrisBow/Dropbox/GradSchoolTarleton/Fall2019/AdvQuant/Lab3,no,mono,no,18,no,white,no,yes,768,legacy,35,11,/Users/KrisBow/Dropbox/GradSchoolTarleton/Fall2019/AdvQuant/Lab3/KB-subject-2.csv,legacy,4 9 7 8 5 3,Kafkaesque Koffka,3.2.6,4,y,0,left,right,right,left,NA,515,52280,15900,515,NA,2,legacy,6,1024,2,48000,-16,experiment,2,even,8,1821,351391,352500,1809,143926,352511,345526,128025,354735,357263,353522,356746,54103,356746,NA,Sternberg task,43,30030,48,yes,1024
89.79591837,89.79591837,624.0612245,624.0612245,black,experiment,legacy,legacy,legacy,0,uniform,1,undefined,1,left,0,48,48,0,0,48,48,0,48,48,48,48,0,48,0,Mon Oct 21 12:04:32 2019,The main experiment item,yes,Sternbergtask.osexp,/Users/KrisBow/Dropbox/GradSchoolTarleton/Fall2019/AdvQuant/Lab3,no,mono,no,18,no,white,no,yes,768,legacy,36,11,/Users/KrisBow/Dropbox/GradSchoolTarleton/Fall2019/AdvQuant/Lab3/KB-subject-2.csv,legacy,3 5 7 1,Kafkaesque Koffka,3.2.6,3,y,0,left,right,right,left,NA,549,52280,15900,549,NA,2,legacy,4,1024,2,48000,-16,experiment,2,even,7,1821,357276,358383,1809,143926,358394,345526,128025,360617,363179,359405,362628,54103,362628,NA,Sternberg task,44,30579,49,yes,1024
90,90,628.62,628.62,black,experiment,legacy,legacy,legacy,0,uniform,1,undefined,1,right,0,49,49,0,0,49,49,0,49,49,49,49,0,49,0,Mon Oct 21 12:04:32 2019,The main experiment item,yes,Sternbergtask.osexp,/Users/KrisBow/Dropbox/GradSchoolTarleton/Fall2019/AdvQuant/Lab3,no,mono,no,18,no,white,no,yes,768,legacy,37,11,/Users/KrisBow/Dropbox/GradSchoolTarleton/Fall2019/AdvQuant/Lab3/KB-subject-2.csv,legacy,2 8 9,Kafkaesque Koffka,3.2.6,0,n,0,right,right,right,right,NA,852,52280,15900,852,NA,2,legacy,3,1024,2,48000,-16,experiment,2,even,6,1821,363192,364307,1809,143926,364318,345526,128025,366540,369405,365329,368551,54103,368551,NA,Sternberg task,45,31431,50,yes,1024
90.19607843,90.19607843,627.5294118,627.5294118,black,experiment,legacy,legacy,legacy,0,uniform,1,undefined,1,right,0,50,50,0,0,50,50,0,50,50,50,50,0,50,0,Mon Oct 21 12:04:32 2019,The main experiment item,yes,Sternbergtask.osexp,/Users/KrisBow/Dropbox/GradSchoolTarleton/Fall2019/AdvQuant/Lab3,no,mono,no,18,no,white,no,yes,768,legacy,38,11,/Users/KrisBow/Dropbox/GradSchoolTarleton/Fall2019/AdvQuant/Lab3/KB-subject-2.csv,legacy,2 7 5,Kafkaesque Koffka,3.2.6,0,n,0,right,right,right,right,NA,573,52280,15900,573,NA,2,legacy,3,1024,2,48000,-16,experiment,2,even,8,1821,369418,370527,1809,143926,370538,345526,128025,372762,375349,371549,374774,54103,374774,NA,Sternberg task,46,32004,51,yes,1024
88.46153846,88.46153846,629.6923077,629.6923077,black,experiment,legacy,legacy,legacy,0,uniform,0,undefined,0,left,0,51,51,0,0,51,51,0,51,51,51,51,0,51,0,Mon Oct 21 12:04:32 2019,The main experiment item,yes,Sternbergtask.osexp,/Users/KrisBow/Dropbox/GradSchoolTarleton/Fall2019/AdvQuant/Lab3,no,mono,no,18,no,white,no,yes,768,legacy,39,11,/Users/KrisBow/Dropbox/GradSchoolTarleton/Fall2019/AdvQuant/Lab3/KB-subject-2.csv,legacy,7 2 3,Kafkaesque Koffka,3.2.6,3,y,0,right,right,right,right,NA,740,52280,15900,740,NA,2,legacy,3,1024,2,48000,-16,experiment,2,even,3,1821,375362,376471,1809,143926,376482,345526,128025,378706,381459,377493,380717,54103,380716,NA,Sternberg task,46,32744,52,yes,1024
88.67924528,88.67924528,630.8490566,630.8490566,black,experiment,legacy,legacy,legacy,0,uniform,1,undefined,1,right,0,52,52,0,0,52,52,0,52,52,52,52,0,52,0,Mon Oct 21 12:04:32 2019,The main experiment item,yes,Sternbergtask.osexp,/Users/KrisBow/Dropbox/GradSchoolTarleton/Fall2019/AdvQuant/Lab3,no,mono,no,18,no,white,no,yes,768,legacy,40,11,/Users/KrisBow/Dropbox/GradSchoolTarleton/Fall2019/AdvQuant/Lab3/KB-subject-2.csv,legacy,6 9 4 5 3 2,Kafkaesque Koffka,3.2.6,0,n,0,right,right,right,right,NA,691,52280,15900,691,NA,2,legacy,6,1024,2,48000,-16,experiment,2,even,8,1821,375362,382580,1809,143926,382591,381472,128025,384816,387521,383602,386827,54103,386827,NA,Sternberg task,47,33435,53,yes,1024
88.88888889,88.88888889,630.2962963,630.2962963,black,experiment,legacy,legacy,legacy,0,uniform,1,undefined,1,left,0,53,53,0,0,53,53,0,53,53,53,53,0,53,0,Mon Oct 21 12:04:32 2019,The main experiment item,yes,Sternbergtask.osexp,/Users/KrisBow/Dropbox/GradSchoolTarleton/Fall2019/AdvQuant/Lab3,no,mono,no,18,no,white,no,yes,768,legacy,41,11,/Users/KrisBow/Dropbox/GradSchoolTarleton/Fall2019/AdvQuant/Lab3/KB-subject-2.csv,legacy,9 1 6 7 8,Kafkaesque Koffka,3.2.6,1,y,0,left,right,right,left,NA,601,52280,15900,601,NA,2,legacy,5,1024,2,48000,-16,experiment,2,even,9,1821,387536,388646,1809,143926,388656,381472,128025,390882,393496,389668,392894,54103,392894,NA,Sternberg task,48,34036,54,yes,1024
89.09090909,89.09090909,626.3272727,626.3272727,black,experiment,legacy,legacy,legacy,0,uniform,1,undefined,1,left,0,54,54,0,0,54,54,0,54,54,54,54,0,54,0,Mon Oct 21 12:04:32 2019,The main experiment item,yes,Sternbergtask.osexp,/Users/KrisBow/Dropbox/GradSchoolTarleton/Fall2019/AdvQuant/Lab3,no,mono,no,18,no,white,no,yes,768,legacy,42,11,/Users/KrisBow/Dropbox/GradSchoolTarleton/Fall2019/AdvQuant/Lab3/KB-subject-2.csv,legacy,8 3,Kafkaesque Koffka,3.2.6,2,y,0,left,right,right,left,NA,412,52280,15900,412,NA,2,legacy,2,1024,2,48000,-16,experiment,2,even,3,1821,393509,394616,1809,143926,394626,381472,128025,396851,399276,395637,398862,54103,398862,NA,Sternberg task,49,34448,55,yes,1024
89.28571429,89.28571429,625.75,625.75,black,experiment,legacy,legacy,legacy,0,uniform,1,undefined,1,right,0,55,55,0,0,55,55,0,55,55,55,55,0,55,0,Mon Oct 21 12:04:32 2019,The main experiment item,yes,Sternbergtask.osexp,/Users/KrisBow/Dropbox/GradSchoolTarleton/Fall2019/AdvQuant/Lab3,no,mono,no,18,no,white,no,yes,768,legacy,43,11,/Users/KrisBow/Dropbox/GradSchoolTarleton/Fall2019/AdvQuant/Lab3/KB-subject-2.csv,legacy,7 1 8 4 9 3,Kafkaesque Koffka,3.2.6,0,n,0,right,right,right,right,NA,594,52280,15900,594,NA,2,legacy,6,1024,2,48000,-16,experiment,2,even,6,1821,399289,400403,1809,143926,400414,381472,128025,402638,405244,401425,404649,54103,404648,NA,Sternberg task,50,35042,56,yes,1024
89.47368421,89.47368421,624.4736842,624.4736842,black,experiment,legacy,legacy,legacy,0,uniform,1,undefined,1,left,0,56,56,0,0,56,56,0,56,56,56,56,0,56,0,Mon Oct 21 12:04:32 2019,The main experiment item,yes,Sternbergtask.osexp,/Users/KrisBow/Dropbox/GradSchoolTarleton/Fall2019/AdvQuant/Lab3,no,mono,no,18,no,white,no,yes,768,legacy,44,11,/Users/KrisBow/Dropbox/GradSchoolTarleton/Fall2019/AdvQuant/Lab3/KB-subject-2.csv,legacy,7 4 2 6 3 5,Kafkaesque Koffka,3.2.6,6,y,0,left,right,right,left,NA,553,52280,15900,553,NA,2,legacy,6,1024,2,48000,-16,experiment,2,even,5,1821,405257,406365,1809,143926,406376,381472,128025,408598,411164,407387,410609,54103,410609,NA,Sternberg task,51,35595,57,yes,1024
89.65517241,89.65517241,630.1206897,630.1206897,black,experiment,legacy,legacy,legacy,0,uniform,1,undefined,1,right,0,57,57,0,0,57,57,0,57,57,57,57,0,57,0,Mon Oct 21 12:04:32 2019,The main experiment item,yes,Sternbergtask.osexp,/Users/KrisBow/Dropbox/GradSchoolTarleton/Fall2019/AdvQuant/Lab3,no,mono,no,18,no,white,no,yes,768,legacy,45,11,/Users/KrisBow/Dropbox/GradSchoolTarleton/Fall2019/AdvQuant/Lab3/KB-subject-2.csv,legacy,8 4 3 9,Kafkaesque Koffka,3.2.6,0,n,0,right,right,right,right,NA,952,52280,15900,952,NA,2,legacy,4,1024,2,48000,-16,experiment,2,even,5,1821,411177,412290,1809,143926,412303,381472,128025,414526,417491,413314,416537,54103,416537,NA,Sternberg task,52,36547,58,yes,1024
89.83050847,89.83050847,629.8135593,629.8135593,black,experiment,legacy,legacy,legacy,0,uniform,1,undefined,1,left,0,58,58,0,0,58,58,0,58,58,58,58,0,58,0,Mon Oct 21 12:04:32 2019,The main experiment item,yes,Sternbergtask.osexp,/Users/KrisBow/Dropbox/GradSchoolTarleton/Fall2019/AdvQuant/Lab3,no,mono,no,18,no,white,no,yes,768,legacy,46,11,/Users/KrisBow/Dropbox/GradSchoolTarleton/Fall2019/AdvQuant/Lab3/KB-subject-2.csv,legacy,9 3 8 2 1 4,Kafkaesque Koffka,3.2.6,3,y,0,left,right,right,left,NA,612,52280,15900,612,NA,2,legacy,6,1024,2,48000,-16,experiment,2,even,8,1821,417504,418612,1809,143926,418623,381472,128025,420848,423473,419634,422859,54103,422859,NA,Sternberg task,53,37159,59,yes,1024
90,90,630.6166667,630.6166667,black,experiment,legacy,legacy,legacy,0,uniform,1,undefined,1,right,0,59,59,0,0,59,59,0,59,59,59,59,0,59,0,Mon Oct 21 12:04:32 2019,The main experiment item,yes,Sternbergtask.osexp,/Users/KrisBow/Dropbox/GradSchoolTarleton/Fall2019/AdvQuant/Lab3,no,mono,no,18,no,white,no,yes,768,legacy,47,11,/Users/KrisBow/Dropbox/GradSchoolTarleton/Fall2019/AdvQuant/Lab3/KB-subject-2.csv,legacy,8 5 7 3 6,Kafkaesque Koffka,3.2.6,0,n,0,right,right,right,right,NA,678,52280,15900,678,NA,2,legacy,5,1024,2,48000,-16,experiment,2,even,9,1821,423486,424599,1809,143926,424609,381472,128025,426834,429526,425620,428846,54103,428846,NA,Sternberg task,54,37837,60,yes,1024
90.16393443,90.16393443,627.2131148,627.2131148,black,experiment,legacy,legacy,legacy,0,uniform,1,undefined,1,left,0,60,60,0,0,60,60,0,60,60,60,60,0,60,0,Mon Oct 21 12:04:32 2019,The main experiment item,yes,Sternbergtask.osexp,/Users/KrisBow/Dropbox/GradSchoolTarleton/Fall2019/AdvQuant/Lab3,no,mono,no,18,no,white,no,yes,768,legacy,48,11,/Users/KrisBow/Dropbox/GradSchoolTarleton/Fall2019/AdvQuant/Lab3/KB-subject-2.csv,legacy,8,Kafkaesque Koffka,3.2.6,1,y,0,left,right,right,left,NA,423,52280,15900,423,NA,2,legacy,1,1024,2,48000,-16,experiment,2,even,8,1821,429539,430646,1809,143926,430657,381472,128025,432882,435318,431668,434893,54103,434893,NA,Sternberg task,55,38260,61,yes,1024
90.32258065,90.32258065,626.8064516,626.8064516,black,experiment,legacy,legacy,legacy,0,uniform,1,undefined,1,right,0,61,61,0,0,61,61,0,61,61,61,61,0,61,0,Mon Oct 21 12:04:32 2019,The main experiment item,yes,Sternbergtask.osexp,/Users/KrisBow/Dropbox/GradSchoolTarleton/Fall2019/AdvQuant/Lab3,no,mono,no,18,no,white,no,yes,768,legacy,49,11,/Users/KrisBow/Dropbox/GradSchoolTarleton/Fall2019/AdvQuant/Lab3/KB-subject-2.csv,legacy,3 4 9 6 7 8,Kafkaesque Koffka,3.2.6,0,n,0,right,right,right,right,NA,602,52280,15900,602,NA,2,legacy,6,1024,2,48000,-16,experiment,2,even,2,1821,435331,436441,1809,143926,436453,381472,128025,438676,441291,437464,440687,54103,440687,NA,Sternberg task,56,38862,62,yes,1024
90.47619048,90.47619048,625.6507937,625.6507937,black,experiment,legacy,legacy,legacy,0,uniform,1,undefined,1,right,0,62,62,0,0,62,62,0,62,62,62,62,0,62,0,Mon Oct 21 12:04:32 2019,The main experiment item,yes,Sternbergtask.osexp,/Users/KrisBow/Dropbox/GradSchoolTarleton/Fall2019/AdvQuant/Lab3,no,mono,no,18,no,white,no,yes,768,legacy,50,11,/Users/KrisBow/Dropbox/GradSchoolTarleton/Fall2019/AdvQuant/Lab3/KB-subject-2.csv,legacy,8 4 3 5,Kafkaesque Koffka,3.2.6,0,n,0,right,right,right,right,NA,554,52280,15900,554,NA,2,legacy,4,1024,2,48000,-16,experiment,2,even,6,1821,441308,442415,1809,143926,442427,381472,128025,444652,447219,443439,446663,54103,446663,NA,Sternberg task,57,39416,63,yes,1024
90.625,90.625,623.796875,623.796875,black,experiment,legacy,legacy,legacy,0,uniform,1,undefined,1,right,0,63,63,0,0,63,63,0,63,63,63,63,0,63,0,Mon Oct 21 12:04:32 2019,The main experiment item,yes,Sternbergtask.osexp,/Users/KrisBow/Dropbox/GradSchoolTarleton/Fall2019/AdvQuant/Lab3,no,mono,no,18,no,white,no,yes,768,legacy,51,11,/Users/KrisBow/Dropbox/GradSchoolTarleton/Fall2019/AdvQuant/Lab3/KB-subject-2.csv,legacy,4 2 6 9,Kafkaesque Koffka,3.2.6,0,n,0,right,right,right,right,NA,507,52280,15900,507,NA,2,legacy,4,1024,2,48000,-16,experiment,2,even,7,1821,447232,448347,1809,143926,448357,381472,128025,450581,453101,449368,452592,54103,452591,NA,Sternberg task,58,39923,64,yes,1024
90.76923077,90.76923077,623.6153846,623.6153846,black,experiment,legacy,legacy,legacy,0,uniform,1,undefined,1,left,0,64,64,0,0,64,64,0,64,64,64,64,0,64,0,Mon Oct 21 12:04:32 2019,The main experiment item,yes,Sternbergtask.osexp,/Users/KrisBow/Dropbox/GradSchoolTarleton/Fall2019/AdvQuant/Lab3,no,mono,no,18,no,white,no,yes,768,legacy,52,11,/Users/KrisBow/Dropbox/GradSchoolTarleton/Fall2019/AdvQuant/Lab3/KB-subject-2.csv,legacy,2 4 6 9,Kafkaesque Koffka,3.2.6,3,y,0,left,right,right,left,NA,612,52280,15900,612,NA,2,legacy,4,1024,2,48000,-16,experiment,2,even,6,1821,453115,454223,1809,143926,454233,381472,128025,456457,459082,455244,458468,54103,458468,NA,Sternberg task,59,40535,65,yes,1024
90.90909091,90.90909091,623.7272727,623.7272727,black,experiment,legacy,legacy,legacy,0,uniform,1,undefined,1,right,0,65,65,0,0,65,65,0,65,65,65,65,0,65,0,Mon Oct 21 12:04:32 2019,The main experiment item,yes,Sternbergtask.osexp,/Users/KrisBow/Dropbox/GradSchoolTarleton/Fall2019/AdvQuant/Lab3,no,mono,no,18,no,white,no,yes,768,legacy,53,11,/Users/KrisBow/Dropbox/GradSchoolTarleton/Fall2019/AdvQuant/Lab3/KB-subject-2.csv,legacy,1 7 5 2 9,Kafkaesque Koffka,3.2.6,0,n,0,right,right,right,right,NA,631,52280,15900,631,NA,2,legacy,5,1024,2,48000,-16,experiment,2,even,3,1821,459095,460204,1809,143926,460216,381472,128025,462440,465084,461227,464451,54103,464451,NA,Sternberg task,60,41166,66,yes,1024
91.04477612,91.04477612,624.7014925,624.7014925,black,experiment,legacy,legacy,legacy,0,uniform,1,undefined,1,right,0,66,66,0,0,66,66,0,66,66,66,66,0,66,0,Mon Oct 21 12:04:32 2019,The main experiment item,yes,Sternbergtask.osexp,/Users/KrisBow/Dropbox/GradSchoolTarleton/Fall2019/AdvQuant/Lab3,no,mono,no,18,no,white,no,yes,768,legacy,54,11,/Users/KrisBow/Dropbox/GradSchoolTarleton/Fall2019/AdvQuant/Lab3/KB-subject-2.csv,legacy,6 9 7 3 8 2,Kafkaesque Koffka,3.2.6,0,n,0,right,right,right,right,NA,689,52280,15900,689,NA,2,legacy,6,1024,2,48000,-16,experiment,2,even,5,1821,465098,466206,1809,143926,466217,381472,128025,468440,471147,467228,470455,54103,470455,NA,Sternberg task,61,41855,67,yes,1024
91.17647059,91.17647059,622.5441176,622.5441176,black,experiment,legacy,legacy,legacy,0,uniform,1,undefined,1,right,0,67,67,0,0,67,67,0,67,67,67,67,0,67,0,Mon Oct 21 12:04:32 2019,The main experiment item,yes,Sternbergtask.osexp,/Users/KrisBow/Dropbox/GradSchoolTarleton/Fall2019/AdvQuant/Lab3,no,mono,no,18,no,white,no,yes,768,legacy,55,11,/Users/KrisBow/Dropbox/GradSchoolTarleton/Fall2019/AdvQuant/Lab3/KB-subject-2.csv,legacy,4 8 1 2,Kafkaesque Koffka,3.2.6,0,n,0,right,right,right,right,NA,478,52280,15900,478,NA,2,legacy,4,1024,2,48000,-16,experiment,2,even,7,1821,471159,472271,1809,143926,472282,381472,128025,474506,476997,473294,476517,54103,476517,NA,Sternberg task,62,42333,68,yes,1024
89.85507246,89.85507246,622.8115942,622.8115942,black,experiment,legacy,legacy,legacy,0,uniform,0,undefined,0,right,0,68,68,0,0,68,68,0,68,68,68,68,0,68,0,Mon Oct 21 12:04:32 2019,The main experiment item,yes,Sternbergtask.osexp,/Users/KrisBow/Dropbox/GradSchoolTarleton/Fall2019/AdvQuant/Lab3,no,mono,no,18,no,white,no,yes,768,legacy,56,11,/Users/KrisBow/Dropbox/GradSchoolTarleton/Fall2019/AdvQuant/Lab3/KB-subject-2.csv,legacy,8 5 4 2 9 6,Kafkaesque Koffka,3.2.6,0,n,0,left,right,right,left,NA,641,52280,15900,641,NA,2,legacy,6,1024,2,48000,-16,experiment,2,even,3,1821,477010,478117,1809,143926,478128,381472,128025,480352,483006,479139,482363,54103,482363,NA,Sternberg task,62,42974,69,yes,1024
90,90,622.4285714,622.4285714,black,experiment,legacy,legacy,legacy,0,uniform,1,undefined,1,left,0,69,69,0,0,69,69,0,69,69,69,69,0,69,0,Mon Oct 21 12:04:32 2019,The main experiment item,yes,Sternbergtask.osexp,/Users/KrisBow/Dropbox/GradSchoolTarleton/Fall2019/AdvQuant/Lab3,no,mono,no,18,no,white,no,yes,768,legacy,57,11,/Users/KrisBow/Dropbox/GradSchoolTarleton/Fall2019/AdvQuant/Lab3/KB-subject-2.csv,legacy,6 7 8 5,Kafkaesque Koffka,3.2.6,3,y,0,left,right,right,left,NA,596,52280,15900,596,NA,2,legacy,4,1024,2,48000,-16,experiment,2,even,8,1821,477010,484130,1809,143926,484141,483019,128025,486365,488974,485152,488376,54103,488375,NA,Sternberg task,63,43570,70,yes,1024
90.14084507,90.14084507,622.9014085,622.9014085,black,experiment,legacy,legacy,legacy,0,uniform,1,undefined,1,left,0,70,70,0,0,70,70,0,70,70,70,70,0,70,0,Mon Oct 21 12:04:32 2019,The main experiment item,yes,Sternbergtask.osexp,/Users/KrisBow/Dropbox/GradSchoolTarleton/Fall2019/AdvQuant/Lab3,no,mono,no,18,no,white,no,yes,768,legacy,58,11,/Users/KrisBow/Dropbox/GradSchoolTarleton/Fall2019/AdvQuant/Lab3/KB-subject-2.csv,legacy,2 8 5 1,Kafkaesque Koffka,3.2.6,4,y,0,left,right,right,left,NA,656,52280,15900,656,NA,2,legacy,4,1024,2,48000,-16,experiment,2,even,1,1821,488987,490094,1809,143926,490105,483019,128025,492328,494997,491116,494339,54103,494338,NA,Sternberg task,64,44226,71,yes,1024
90.27777778,90.27777778,621.4166667,621.4166667,black,experiment,legacy,legacy,legacy,0,uniform,1,undefined,1,left,0,71,71,0,0,71,71,0,71,71,71,71,0,71,0,Mon Oct 21 12:04:32 2019,The main experiment item,yes,Sternbergtask.osexp,/Users/KrisBow/Dropbox/GradSchoolTarleton/Fall2019/AdvQuant/Lab3,no,mono,no,18,no,white,no,yes,768,legacy,59,11,/Users/KrisBow/Dropbox/GradSchoolTarleton/Fall2019/AdvQuant/Lab3/KB-subject-2.csv,legacy,9 6 2 4 1,Kafkaesque Koffka,3.2.6,4,y,0,left,right,right,left,NA,516,52280,15900,516,NA,2,legacy,5,1024,2,48000,-16,experiment,2,even,4,1821,495009,496123,1809,143926,496133,483019,128025,498358,500887,497145,500369,54103,500368,NA,Sternberg task,65,44742,72,yes,1024
90.4109589,90.4109589,623.8493151,623.8493151,black,experiment,legacy,legacy,legacy,0,uniform,1,undefined,1,right,0,72,72,0,0,72,72,0,72,72,72,72,0,72,0,Mon Oct 21 12:04:32 2019,The main experiment item,yes,Sternbergtask.osexp,/Users/KrisBow/Dropbox/GradSchoolTarleton/Fall2019/AdvQuant/Lab3,no,mono,no,18,no,white,no,yes,768,legacy,60,11,/Users/KrisBow/Dropbox/GradSchoolTarleton/Fall2019/AdvQuant/Lab3/KB-subject-2.csv,legacy,7 9,Kafkaesque Koffka,3.2.6,0,n,0,right,right,right,right,NA,799,52280,15900,799,NA,2,legacy,2,1024,2,48000,-16,experiment,2,even,1,1821,500900,502006,1809,143926,502017,483019,128025,504240,507052,503028,506251,54103,506251,NA,Sternberg task,66,45541,73,yes,1024
90.54054054,90.54054054,622.4864865,622.4864865,black,experiment,legacy,legacy,legacy,0,uniform,1,undefined,1,left,0,73,73,0,0,73,73,0,73,73,73,73,0,73,0,Mon Oct 21 12:04:32 2019,The main experiment item,yes,Sternbergtask.osexp,/Users/KrisBow/Dropbox/GradSchoolTarleton/Fall2019/AdvQuant/Lab3,no,mono,no,18,no,white,no,yes,768,legacy,61,11,/Users/KrisBow/Dropbox/GradSchoolTarleton/Fall2019/AdvQuant/Lab3/KB-subject-2.csv,legacy,8 5 4 7 3 1,Kafkaesque Koffka,3.2.6,2,y,0,left,right,right,left,NA,523,52280,15900,523,NA,2,legacy,6,1024,2,48000,-16,experiment,2,even,5,1821,507065,508174,1809,143926,508185,483019,128025,510408,512944,509196,512419,54103,512419,NA,Sternberg task,67,46064,74,yes,1024
90.66666667,90.66666667,623.0933333,623.0933333,black,experiment,legacy,legacy,legacy,0,uniform,1,undefined,1,right,0,74,74,0,0,74,74,0,74,74,74,74,0,74,0,Mon Oct 21 12:04:32 2019,The main experiment item,yes,Sternbergtask.osexp,/Users/KrisBow/Dropbox/GradSchoolTarleton/Fall2019/AdvQuant/Lab3,no,mono,no,18,no,white,no,yes,768,legacy,62,11,/Users/KrisBow/Dropbox/GradSchoolTarleton/Fall2019/AdvQuant/Lab3/KB-subject-2.csv,legacy,2 3 8 5 6 7,Kafkaesque Koffka,3.2.6,0,n,0,right,right,right,right,NA,668,52280,15900,668,NA,2,legacy,6,1024,2,48000,-16,experiment,2,even,1,1821,512957,514065,1809,143926,514076,483019,128025,516300,518981,515087,518311,54103,518310,NA,Sternberg task,68,46732,75,yes,1024
90.78947368,90.78947368,622.9078947,622.9078947,black,experiment,legacy,legacy,legacy,0,uniform,1,undefined,1,left,0,75,75,0,0,75,75,0,75,75,75,75,0,75,0,Mon Oct 21 12:04:32 2019,The main experiment item,yes,Sternbergtask.osexp,/Users/KrisBow/Dropbox/GradSchoolTarleton/Fall2019/AdvQuant/Lab3,no,mono,no,18,no,white,no,yes,768,legacy,63,11,/Users/KrisBow/Dropbox/GradSchoolTarleton/Fall2019/AdvQuant/Lab3/KB-subject-2.csv,legacy,9 1 7 2,Kafkaesque Koffka,3.2.6,2,y,0,left,right,right,left,NA,609,52280,15900,609,NA,2,legacy,4,1024,2,48000,-16,experiment,2,even,1,1821,518994,520104,1809,143926,520115,483019,128025,522339,524962,521126,524350,54103,524350,NA,Sternberg task,69,47341,76,yes,1024
89.61038961,89.61038961,628.7402597,628.7402597,black,experiment,legacy,legacy,legacy,0,uniform,0,undefined,0,right,0,76,76,0,0,76,76,0,76,76,76,76,0,76,0,Mon Oct 21 12:04:32 2019,The main experiment item,yes,Sternbergtask.osexp,/Users/KrisBow/Dropbox/GradSchoolTarleton/Fall2019/AdvQuant/Lab3,no,mono,no,18,no,white,no,yes,768,legacy,64,11,/Users/KrisBow/Dropbox/GradSchoolTarleton/Fall2019/AdvQuant/Lab3/KB-subject-2.csv,legacy,6 2 9 3 8 4,Kafkaesque Koffka,3.2.6,0,n,0,left,right,right,left,NA,1072,52280,15900,1072,NA,2,legacy,6,1024,2,48000,-16,experiment,2,even,1,1821,524975,526082,1809,143926,526093,483019,128025,528316,531401,527104,530327,54103,530327,NA,Sternberg task,69,48413,77,yes,1024
89.74358974,89.74358974,627.9230769,627.9230769,black,experiment,legacy,legacy,legacy,0,uniform,1,undefined,1,right,0,77,77,0,0,77,77,0,77,77,77,77,0,77,0,Mon Oct 21 12:04:32 2019,The main experiment item,yes,Sternbergtask.osexp,/Users/KrisBow/Dropbox/GradSchoolTarleton/Fall2019/AdvQuant/Lab3,no,mono,no,18,no,white,no,yes,768,legacy,65,11,/Users/KrisBow/Dropbox/GradSchoolTarleton/Fall2019/AdvQuant/Lab3/KB-subject-2.csv,legacy,6 8,Kafkaesque Koffka,3.2.6,0,n,0,right,right,right,right,NA,565,52280,15900,565,NA,2,legacy,2,1024,2,48000,-16,experiment,2,even,9,1821,524975,532546,1809,143926,532559,531414,128025,534784,537363,533570,536795,54103,536794,NA,Sternberg task,70,48978,78,yes,1024
89.87341772,89.87341772,627.721519,627.721519,black,experiment,legacy,legacy,legacy,0,uniform,1,undefined,1,right,0,78,78,0,0,78,78,0,78,78,78,78,0,78,0,Mon Oct 21 12:04:32 2019,The main experiment item,yes,Sternbergtask.osexp,/Users/KrisBow/Dropbox/GradSchoolTarleton/Fall2019/AdvQuant/Lab3,no,mono,no,18,no,white,no,yes,768,legacy,66,11,/Users/KrisBow/Dropbox/GradSchoolTarleton/Fall2019/AdvQuant/Lab3/KB-subject-2.csv,legacy,6 3 1 7 9 8,Kafkaesque Koffka,3.2.6,0,n,0,right,right,right,right,NA,612,52280,15900,612,NA,2,legacy,6,1024,2,48000,-16,experiment,2,even,4,1821,537375,538483,1809,143926,538494,531414,128025,540718,543343,539505,542729,54103,542729,NA,Sternberg task,71,49590,79,yes,1024
90,90,633.1875,633.1875,black,experiment,legacy,legacy,legacy,0,uniform,1,undefined,1,left,0,79,79,0,0,79,79,0,79,79,79,79,0,79,0,Mon Oct 21 12:04:32 2019,The main experiment item,yes,Sternbergtask.osexp,/Users/KrisBow/Dropbox/GradSchoolTarleton/Fall2019/AdvQuant/Lab3,no,mono,no,18,no,white,no,yes,768,legacy,67,11,/Users/KrisBow/Dropbox/GradSchoolTarleton/Fall2019/AdvQuant/Lab3/KB-subject-2.csv,legacy,9 8 4,Kafkaesque Koffka,3.2.6,1,y,0,left,right,right,left,NA,1065,52280,15900,1065,NA,2,legacy,3,1024,2,48000,-16,experiment,2,even,9,1821,543357,544465,1809,143926,544476,531414,128025,546699,549778,545487,548710,54103,548710,NA,Sternberg task,72,50655,80,yes,1024
90.12345679,90.12345679,634.7160494,634.7160494,black,experiment,legacy,legacy,legacy,0,uniform,1,undefined,1,left,0,80,80,0,0,80,80,0,80,80,80,80,0,80,0,Mon Oct 21 12:04:32 2019,The main experiment item,yes,Sternbergtask.osexp,/Users/KrisBow/Dropbox/GradSchoolTarleton/Fall2019/AdvQuant/Lab3,no,mono,no,18,no,white,no,yes,768,legacy,68,11,/Users/KrisBow/Dropbox/GradSchoolTarleton/Fall2019/AdvQuant/Lab3/KB-subject-2.csv,legacy,4 6 2 5 1,Kafkaesque Koffka,3.2.6,5,y,0,left,right,right,left,NA,757,52280,15900,757,NA,2,legacy,5,1024,2,48000,-16,experiment,2,even,1,1821,549791,550899,1809,143926,550910,531414,128025,553133,555903,551921,555144,54103,555144,NA,Sternberg task,73,51412,81,yes,1024
90.24390244,90.24390244,634.4390244,634.4390244,black,experiment,legacy,legacy,legacy,0,uniform,1,undefined,1,right,0,81,81,0,0,81,81,0,81,81,81,81,0,81,0,Mon Oct 21 12:04:32 2019,The main experiment item,yes,Sternbergtask.osexp,/Users/KrisBow/Dropbox/GradSchoolTarleton/Fall2019/AdvQuant/Lab3,no,mono,no,18,no,white,no,yes,768,legacy,69,11,/Users/KrisBow/Dropbox/GradSchoolTarleton/Fall2019/AdvQuant/Lab3/KB-subject-2.csv,legacy,5 3 8 7 2 4,Kafkaesque Koffka,3.2.6,0,n,0,right,right,right,right,NA,612,52280,15900,612,NA,2,legacy,6,1024,2,48000,-16,experiment,2,even,9,1821,555919,557026,1809,143926,557037,531414,128025,559260,561885,558048,561271,54103,561271,NA,Sternberg task,74,52024,82,yes,1024
90.36144578,90.36144578,635.8192771,635.8192771,black,experiment,legacy,legacy,legacy,0,uniform,1,undefined,1,right,0,82,82,0,0,82,82,0,82,82,82,82,0,82,0,Mon Oct 21 12:04:32 2019,The main experiment item,yes,Sternbergtask.osexp,/Users/KrisBow/Dropbox/GradSchoolTarleton/Fall2019/AdvQuant/Lab3,no,mono,no,18,no,white,no,yes,768,legacy,70,11,/Users/KrisBow/Dropbox/GradSchoolTarleton/Fall2019/AdvQuant/Lab3/KB-subject-2.csv,legacy,1 6 4,Kafkaesque Koffka,3.2.6,0,n,0,right,right,right,right,NA,749,52280,15900,749,NA,2,legacy,3,1024,2,48000,-16,experiment,2,even,7,1821,561898,563007,1809,143926,563017,531414,128025,565240,568003,564028,567251,54103,567251,NA,Sternberg task,75,52773,83,yes,1024
90.47619048,90.47619048,635.5952381,635.5952381,black,experiment,legacy,legacy,legacy,0,uniform,1,undefined,1,left,0,83,83,0,0,83,83,0,83,83,83,83,0,83,0,Mon Oct 21 12:04:32 2019,The main experiment item,yes,Sternbergtask.osexp,/Users/KrisBow/Dropbox/GradSchoolTarleton/Fall2019/AdvQuant/Lab3,no,mono,no,18,no,white,no,yes,768,legacy,71,11,/Users/KrisBow/Dropbox/GradSchoolTarleton/Fall2019/AdvQuant/Lab3/KB-subject-2.csv,legacy,3 9 7 6 4,Kafkaesque Koffka,3.2.6,3,y,0,left,right,right,left,NA,617,52280,15900,617,NA,2,legacy,5,1024,2,48000,-16,experiment,2,even,7,1821,568020,569128,1809,143926,569139,531414,128025,571363,573993,570150,573373,54103,573373,NA,Sternberg task,76,53390,84,yes,1024
90.58823529,90.58823529,633.9411765,633.9411765,black,experiment,legacy,legacy,legacy,0,uniform,1,undefined,1,left,0,84,84,0,0,84,84,0,84,84,84,84,0,84,0,Mon Oct 21 12:04:32 2019,The main experiment item,yes,Sternbergtask.osexp,/Users/KrisBow/Dropbox/GradSchoolTarleton/Fall2019/AdvQuant/Lab3,no,mono,no,18,no,white,no,yes,768,legacy,72,11,/Users/KrisBow/Dropbox/GradSchoolTarleton/Fall2019/AdvQuant/Lab3/KB-subject-2.csv,legacy,7,Kafkaesque Koffka,3.2.6,1,y,0,left,right,right,left,NA,495,52280,15900,495,NA,2,legacy,1,1024,2,48000,-16,experiment,2,even,7,1821,574005,575111,1809,143926,575122,531414,128025,577345,579855,576133,579356,54103,579356,NA,Sternberg task,77,53885,85,yes,1024
90.69767442,90.69767442,633.4418605,633.4418605,black,experiment,legacy,legacy,legacy,0,uniform,1,undefined,1,left,0,85,85,0,0,85,85,0,85,85,85,85,0,85,0,Mon Oct 21 12:04:32 2019,The main experiment item,yes,Sternbergtask.osexp,/Users/KrisBow/Dropbox/GradSchoolTarleton/Fall2019/AdvQuant/Lab3,no,mono,no,18,no,white,no,yes,768,legacy,73,11,/Users/KrisBow/Dropbox/GradSchoolTarleton/Fall2019/AdvQuant/Lab3/KB-subject-2.csv,legacy,6 1 2,Kafkaesque Koffka,3.2.6,3,y,0,left,right,right,left,NA,591,52280,15900,591,NA,2,legacy,3,1024,2,48000,-16,experiment,2,even,2,1821,579868,580976,1809,143926,580987,531414,128025,583211,585815,581998,585222,54103,585222,NA,Sternberg task,78,54476,86,yes,1024
90.8045977,90.8045977,634,634,black,experiment,legacy,legacy,legacy,0,uniform,1,undefined,1,right,0,86,86,0,0,86,86,0,86,86,86,86,0,86,0,Mon Oct 21 12:04:32 2019,The main experiment item,yes,Sternbergtask.osexp,/Users/KrisBow/Dropbox/GradSchoolTarleton/Fall2019/AdvQuant/Lab3,no,mono,no,18,no,white,no,yes,768,legacy,74,11,/Users/KrisBow/Dropbox/GradSchoolTarleton/Fall2019/AdvQuant/Lab3/KB-subject-2.csv,legacy,1 8 7,Kafkaesque Koffka,3.2.6,0,n,0,right,right,right,right,NA,682,52280,15900,682,NA,2,legacy,3,1024,2,48000,-16,experiment,2,even,4,1821,585831,586939,1809,143926,586950,531414,128025,589175,591870,587962,591186,54103,591186,NA,Sternberg task,79,55158,87,yes,1024
90.90909091,90.90909091,632.9545455,632.9545455,black,experiment,legacy,legacy,legacy,0,uniform,1,undefined,1,left,0,87,87,0,0,87,87,0,87,87,87,87,0,87,0,Mon Oct 21 12:04:32 2019,The main experiment item,yes,Sternbergtask.osexp,/Users/KrisBow/Dropbox/GradSchoolTarleton/Fall2019/AdvQuant/Lab3,no,mono,no,18,no,white,no,yes,768,legacy,75,11,/Users/KrisBow/Dropbox/GradSchoolTarleton/Fall2019/AdvQuant/Lab3/KB-subject-2.csv,legacy,2 3,Kafkaesque Koffka,3.2.6,1,y,0,left,right,right,left,NA,542,52280,15900,542,NA,2,legacy,2,1024,2,48000,-16,experiment,2,even,2,1821,591883,592990,1809,143926,593000,531414,128025,595221,597777,594010,597232,54103,597232,NA,Sternberg task,80,55700,88,yes,1024
91.01123596,91.01123596,634.2921348,634.2921348,black,experiment,legacy,legacy,legacy,0,uniform,1,undefined,1,right,0,88,88,0,0,88,88,0,88,88,88,88,0,88,0,Mon Oct 21 12:04:32 2019,The main experiment item,yes,Sternbergtask.osexp,/Users/KrisBow/Dropbox/GradSchoolTarleton/Fall2019/AdvQuant/Lab3,no,mono,no,18,no,white,no,yes,768,legacy,76,11,/Users/KrisBow/Dropbox/GradSchoolTarleton/Fall2019/AdvQuant/Lab3/KB-subject-2.csv,legacy,1 6 4 3 9 7,Kafkaesque Koffka,3.2.6,0,n,0,right,right,right,right,NA,752,52280,15900,752,NA,2,legacy,6,1024,2,48000,-16,experiment,2,even,8,1821,597790,598899,1809,143926,598909,531414,128025,601132,603898,599920,603144,54103,603144,NA,Sternberg task,81,56452,89,yes,1024
91.11111111,91.11111111,634.7222222,634.7222222,black,experiment,legacy,legacy,legacy,0,uniform,1,undefined,1,right,0,89,89,0,0,89,89,0,89,89,89,89,0,89,0,Mon Oct 21 12:04:32 2019,The main experiment item,yes,Sternbergtask.osexp,/Users/KrisBow/Dropbox/GradSchoolTarleton/Fall2019/AdvQuant/Lab3,no,mono,no,18,no,white,no,yes,768,legacy,77,11,/Users/KrisBow/Dropbox/GradSchoolTarleton/Fall2019/AdvQuant/Lab3/KB-subject-2.csv,legacy,6 9 5,Kafkaesque Koffka,3.2.6,0,n,0,right,right,right,right,NA,673,52280,15900,673,NA,2,legacy,3,1024,2,48000,-16,experiment,2,even,8,1821,603911,605018,1809,143926,605029,531414,128025,607253,609940,606040,609264,54103,609263,NA,Sternberg task,82,57125,90,yes,1024
91.20879121,91.20879121,633.9120879,633.9120879,black,experiment,legacy,legacy,legacy,0,uniform,1,undefined,1,left,0,90,90,0,0,90,90,0,90,90,90,90,0,90,0,Mon Oct 21 12:04:32 2019,The main experiment item,yes,Sternbergtask.osexp,/Users/KrisBow/Dropbox/GradSchoolTarleton/Fall2019/AdvQuant/Lab3,no,mono,no,18,no,white,no,yes,768,legacy,78,11,/Users/KrisBow/Dropbox/GradSchoolTarleton/Fall2019/AdvQuant/Lab3/KB-subject-2.csv,legacy,2 6 1 7 4,Kafkaesque Koffka,3.2.6,2,y,0,left,right,right,left,NA,561,52280,15900,561,NA,2,legacy,5,1024,2,48000,-16,experiment,2,even,6,1821,609953,611060,1809,143926,611071,531414,128025,613294,615870,612082,615306,54103,615306,NA,Sternberg task,83,57686,91,yes,1024
91.30434783,91.30434783,632.7608696,632.7608696,black,experiment,legacy,legacy,legacy,0,uniform,1,undefined,1,right,0,91,91,0,0,91,91,0,91,91,91,91,0,91,0,Mon Oct 21 12:04:32 2019,The main experiment item,yes,Sternbergtask.osexp,/Users/KrisBow/Dropbox/GradSchoolTarleton/Fall2019/AdvQuant/Lab3,no,mono,no,18,no,white,no,yes,768,legacy,79,11,/Users/KrisBow/Dropbox/GradSchoolTarleton/Fall2019/AdvQuant/Lab3/KB-subject-2.csv,legacy,1 4 9 3,Kafkaesque Koffka,3.2.6,0,n,0,right,right,right,right,NA,528,52280,15900,528,NA,2,legacy,4,1024,2,48000,-16,experiment,2,even,5,1821,615884,616993,1809,143926,617003,531414,128025,619227,621768,618014,621238,54103,621238,NA,Sternberg task,84,58214,92,yes,1024
91.39784946,91.39784946,633.5806452,633.5806452,black,experiment,legacy,legacy,legacy,0,uniform,1,undefined,1,right,0,92,92,0,0,92,92,0,92,92,92,92,0,92,0,Mon Oct 21 12:04:32 2019,The main experiment item,yes,Sternbergtask.osexp,/Users/KrisBow/Dropbox/GradSchoolTarleton/Fall2019/AdvQuant/Lab3,no,mono,no,18,no,white,no,yes,768,legacy,80,11,/Users/KrisBow/Dropbox/GradSchoolTarleton/Fall2019/AdvQuant/Lab3/KB-subject-2.csv,legacy,5 7 3,Kafkaesque Koffka,3.2.6,0,n,0,right,right,right,right,NA,709,52280,15900,709,NA,2,legacy,3,1024,2,48000,-16,experiment,2,even,9,1821,621782,622889,1809,143926,622900,531414,128025,625123,627845,623911,627134,54103,627134,NA,Sternberg task,85,58923,93,yes,1024
91.4893617,91.4893617,635.1808511,635.1808511,black,experiment,legacy,legacy,legacy,0,uniform,1,undefined,1,right,0,93,93,0,0,93,93,0,93,93,93,93,0,93,0,Mon Oct 21 12:04:32 2019,The main experiment item,yes,Sternbergtask.osexp,/Users/KrisBow/Dropbox/GradSchoolTarleton/Fall2019/AdvQuant/Lab3,no,mono,no,18,no,white,no,yes,768,legacy,81,11,/Users/KrisBow/Dropbox/GradSchoolTarleton/Fall2019/AdvQuant/Lab3/KB-subject-2.csv,legacy,9 7 4 5 8,Kafkaesque Koffka,3.2.6,0,n,0,right,right,right,right,NA,784,52280,15900,784,NA,2,legacy,5,1024,2,48000,-16,experiment,2,even,6,1821,627858,628967,1809,143926,628979,531414,128025,631202,634000,629990,633213,54103,633212,NA,Sternberg task,86,59707,94,yes,1024
91.57894737,91.57894737,637.7368421,637.7368421,black,experiment,legacy,legacy,legacy,0,uniform,1,undefined,1,left,0,94,94,0,0,94,94,0,94,94,94,94,0,94,0,Mon Oct 21 12:04:32 2019,The main experiment item,yes,Sternbergtask.osexp,/Users/KrisBow/Dropbox/GradSchoolTarleton/Fall2019/AdvQuant/Lab3,no,mono,no,18,no,white,no,yes,768,legacy,82,11,/Users/KrisBow/Dropbox/GradSchoolTarleton/Fall2019/AdvQuant/Lab3/KB-subject-2.csv,legacy,2 5 4 8 7,Kafkaesque Koffka,3.2.6,3,y,0,left,right,right,left,NA,878,52280,15900,878,NA,2,legacy,5,1024,2,48000,-16,experiment,2,even,4,1821,634011,635120,1809,143926,635131,531414,128025,637355,640247,636142,639366,54103,639366,NA,Sternberg task,87,60585,95,yes,1024
91.66666667,91.66666667,636.09375,636.09375,black,experiment,legacy,legacy,legacy,0,uniform,1,undefined,1,right,0,95,95,0,0,95,95,0,95,95,95,95,0,95,0,Mon Oct 21 12:04:32 2019,The main experiment item,yes,Sternbergtask.osexp,/Users/KrisBow/Dropbox/GradSchoolTarleton/Fall2019/AdvQuant/Lab3,no,mono,no,18,no,white,no,yes,768,legacy,83,11,/Users/KrisBow/Dropbox/GradSchoolTarleton/Fall2019/AdvQuant/Lab3/KB-subject-2.csv,legacy,2 5 1 4,Kafkaesque Koffka,3.2.6,0,n,0,right,right,right,right,NA,480,52280,15900,480,NA,2,legacy,4,1024,2,48000,-16,experiment,2,even,6,1821,640260,641368,1809,143926,641379,531414,128025,643602,646097,642390,645615,54103,645615,NA,Sternberg task,88,61065,96,yes,1024
91.75257732,91.75257732,634.742268,634.742268,black,experiment,legacy,legacy,legacy,0,uniform,1,undefined,1,left,0,96,96,0,0,96,96,0,96,96,96,96,0,96,0,Mon Oct 21 12:04:32 2019,The main experiment item,yes,Sternbergtask.osexp,/Users/KrisBow/Dropbox/GradSchoolTarleton/Fall2019/AdvQuant/Lab3,no,mono,no,18,no,white,no,yes,768,legacy,84,11,/Users/KrisBow/Dropbox/GradSchoolTarleton/Fall2019/AdvQuant/Lab3/KB-subject-2.csv,legacy,5 7 8 2 3 8,Kafkaesque Koffka,3.2.6,5,y,0,left,right,right,left,NA,505,52280,15900,505,NA,2,legacy,6,1024,2,48000,-16,experiment,2,even,3,1821,646113,647221,1809,143926,647232,531414,128025,649454,651972,648243,651465,54103,651465,NA,Sternberg task,89,61570,97,yes,1024
91.83673469,91.83673469,634.9183673,634.9183673,black,experiment,legacy,legacy,legacy,0,uniform,1,undefined,1,right,0,97,97,0,0,97,97,0,97,97,97,97,0,97,0,Mon Oct 21 12:04:32 2019,The main experiment item,yes,Sternbergtask.osexp,/Users/KrisBow/Dropbox/GradSchoolTarleton/Fall2019/AdvQuant/Lab3,no,mono,no,18,no,white,no,yes,768,legacy,85,11,/Users/KrisBow/Dropbox/GradSchoolTarleton/Fall2019/AdvQuant/Lab3/KB-subject-2.csv,legacy,1 4 3 6 5,Kafkaesque Koffka,3.2.6,0,n,0,right,right,right,right,NA,652,52280,15900,652,NA,2,legacy,5,1024,2,48000,-16,experiment,2,even,8,1821,651985,653092,1809,143926,653103,531414,128025,655326,657992,654114,657337,54103,657337,NA,Sternberg task,90,62222,98,yes,1024
91.91919192,91.91919192,636.1414141,636.1414141,black,experiment,legacy,legacy,legacy,0,uniform,1,undefined,1,right,0,98,98,0,0,98,98,0,98,98,98,98,0,98,0,Mon Oct 21 12:04:32 2019,The main experiment item,yes,Sternbergtask.osexp,/Users/KrisBow/Dropbox/GradSchoolTarleton/Fall2019/AdvQuant/Lab3,no,mono,no,18,no,white,no,yes,768,legacy,86,11,/Users/KrisBow/Dropbox/GradSchoolTarleton/Fall2019/AdvQuant/Lab3/KB-subject-2.csv,legacy,7 4 2 8 1 9,Kafkaesque Koffka,3.2.6,0,n,0,right,right,right,right,NA,756,52280,15900,756,NA,2,legacy,6,1024,2,48000,-16,experiment,2,even,5,1821,658004,659113,1809,143926,659124,531414,128025,661347,664118,660135,663358,54103,663357,NA,Sternberg task,91,62978,99,yes,1024
92,92,635.52,635.52,black,experiment,legacy,legacy,legacy,0,uniform,1,undefined,1,right,0,99,99,0,0,99,99,0,99,99,99,99,0,99,0,Mon Oct 21 12:04:32 2019,The main experiment item,yes,Sternbergtask.osexp,/Users/KrisBow/Dropbox/GradSchoolTarleton/Fall2019/AdvQuant/Lab3,no,mono,no,18,no,white,no,yes,768,legacy,87,11,/Users/KrisBow/Dropbox/GradSchoolTarleton/Fall2019/AdvQuant/Lab3/KB-subject-2.csv,legacy,1 3 2 6 9,Kafkaesque Koffka,3.2.6,0,n,0,right,right,right,right,NA,574,52280,15900,574,NA,2,legacy,5,1024,2,48000,-16,experiment,2,even,5,1821,664130,665240,1809,143926,665251,531414,128025,667473,670060,666262,669484,54103,669484,NA,Sternberg task,92,63552,100,yes,1024
92.07920792,92.07920792,635.3366337,635.3366337,black,experiment,legacy,legacy,legacy,0,uniform,1,undefined,1,right,0,100,100,0,0,100,100,0,100,100,100,100,0,100,0,Mon Oct 21 12:04:32 2019,The main experiment item,yes,Sternbergtask.osexp,/Users/KrisBow/Dropbox/GradSchoolTarleton/Fall2019/AdvQuant/Lab3,no,mono,no,18,no,white,no,yes,768,legacy,88,11,/Users/KrisBow/Dropbox/GradSchoolTarleton/Fall2019/AdvQuant/Lab3/KB-subject-2.csv,legacy,7 3 2 8,Kafkaesque Koffka,3.2.6,0,n,0,right,right,right,right,NA,617,52280,15900,617,NA,2,legacy,4,1024,2,48000,-16,experiment,2,even,4,1821,670073,671182,1809,143926,671192,531414,128025,673417,676047,672204,675428,54103,675428,NA,Sternberg task,93,64169,101,yes,1024
92.15686275,92.15686275,637.245098,637.245098,black,experiment,legacy,legacy,legacy,0,uniform,1,undefined,1,left,0,101,101,0,0,101,101,0,101,101,101,101,0,101,0,Mon Oct 21 12:04:32 2019,The main experiment item,yes,Sternbergtask.osexp,/Users/KrisBow/Dropbox/GradSchoolTarleton/Fall2019/AdvQuant/Lab3,no,mono,no,18,no,white,no,yes,768,legacy,89,11,/Users/KrisBow/Dropbox/GradSchoolTarleton/Fall2019/AdvQuant/Lab3/KB-subject-2.csv,legacy,8 9 6 1,Kafkaesque Koffka,3.2.6,2,y,0,left,right,right,left,NA,830,52280,15900,830,NA,2,legacy,4,1024,2,48000,-16,experiment,2,even,9,1821,676064,677173,1809,143926,677184,531414,128025,679407,682252,678195,681419,54103,681419,NA,Sternberg task,94,64999,102,yes,1024
92.23300971,92.23300971,638.5728155,638.5728155,black,experiment,legacy,legacy,legacy,0,uniform,1,undefined,1,left,0,102,102,0,0,102,102,0,102,102,102,102,0,102,0,Mon Oct 21 12:04:32 2019,The main experiment item,yes,Sternbergtask.osexp,/Users/KrisBow/Dropbox/GradSchoolTarleton/Fall2019/AdvQuant/Lab3,no,mono,no,18,no,white,no,yes,768,legacy,90,11,/Users/KrisBow/Dropbox/GradSchoolTarleton/Fall2019/AdvQuant/Lab3/KB-subject-2.csv,legacy,8 9 5 7 1 6,Kafkaesque Koffka,3.2.6,4,y,0,left,right,right,left,NA,774,52280,15900,774,NA,2,legacy,6,1024,2,48000,-16,experiment,2,even,7,1821,682266,683374,1809,143926,683386,531414,128025,685610,688398,684397,687621,54103,687621,NA,Sternberg task,95,65773,103,yes,1024
92.30769231,92.30769231,639.1730769,639.1730769,black,experiment,legacy,legacy,legacy,0,uniform,1,undefined,1,right,0,103,103,0,0,103,103,0,103,103,103,103,0,103,0,Mon Oct 21 12:04:32 2019,The main experiment item,yes,Sternbergtask.osexp,/Users/KrisBow/Dropbox/GradSchoolTarleton/Fall2019/AdvQuant/Lab3,no,mono,no,18,no,white,no,yes,768,legacy,91,11,/Users/KrisBow/Dropbox/GradSchoolTarleton/Fall2019/AdvQuant/Lab3/KB-subject-2.csv,legacy,7 6 4 8 1 2,Kafkaesque Koffka,3.2.6,0,n,0,right,right,right,right,NA,701,52280,15900,701,NA,2,legacy,6,1024,2,48000,-16,experiment,2,even,9,1821,688411,689520,1809,143926,689531,531414,128025,691755,694469,690542,693766,54103,693766,NA,Sternberg task,96,66474,104,yes,1024
92.38095238,92.38095238,641.3333333,641.3333333,black,experiment,legacy,legacy,legacy,0,uniform,1,undefined,1,right,0,104,104,0,0,104,104,0,104,104,104,104,0,104,0,Mon Oct 21 12:04:32 2019,The main experiment item,yes,Sternbergtask.osexp,/Users/KrisBow/Dropbox/GradSchoolTarleton/Fall2019/AdvQuant/Lab3,no,mono,no,18,no,white,no,yes,768,legacy,92,11,/Users/KrisBow/Dropbox/GradSchoolTarleton/Fall2019/AdvQuant/Lab3/KB-subject-2.csv,legacy,9 8 2 7 4,Kafkaesque Koffka,3.2.6,0,n,0,right,right,right,right,NA,866,52280,15900,866,NA,2,legacy,5,1024,2,48000,-16,experiment,2,even,5,1821,694482,695590,1809,143926,695601,531414,128025,697825,700707,696612,699837,54103,699837,NA,Sternberg task,97,67340,105,yes,1024
91.50943396,91.50943396,654.1509434,654.1509434,black,experiment,legacy,legacy,legacy,0,uniform,0,undefined,0,right,0,105,105,0,0,105,105,0,105,105,105,105,0,105,0,Mon Oct 21 12:04:32 2019,The main experiment item,yes,Sternbergtask.osexp,/Users/KrisBow/Dropbox/GradSchoolTarleton/Fall2019/AdvQuant/Lab3,no,mono,no,18,no,white,no,yes,768,legacy,93,11,/Users/KrisBow/Dropbox/GradSchoolTarleton/Fall2019/AdvQuant/Lab3/KB-subject-2.csv,legacy,9,Kafkaesque Koffka,3.2.6,0,n,0,None,right,right,None,NA,2000,52280,15900,2000,NA,2,legacy,1,1024,2,48000,-16,experiment,2,even,6,1821,700724,701832,1809,143926,701843,531414,128025,704066,708078,702854,706077,54103,706076,NA,Sternberg task,97,69340,106,yes,1024
91.58878505,91.58878505,654.2523364,654.2523364,black,experiment,legacy,legacy,legacy,0,uniform,1,undefined,1,left,0,106,106,0,0,106,106,0,106,106,106,106,0,106,0,Mon Oct 21 12:04:32 2019,The main experiment item,yes,Sternbergtask.osexp,/Users/KrisBow/Dropbox/GradSchoolTarleton/Fall2019/AdvQuant/Lab3,no,mono,no,18,no,white,no,yes,768,legacy,94,11,/Users/KrisBow/Dropbox/GradSchoolTarleton/Fall2019/AdvQuant/Lab3/KB-subject-2.csv,legacy,4 1 5,Kafkaesque Koffka,3.2.6,2,y,0,left,right,right,left,NA,665,52280,15900,665,NA,2,legacy,3,1024,2,48000,-16,experiment,2,even,1,1821,700724,709199,1809,143926,709209,708091,128025,711433,714112,710220,713444,54103,713444,NA,Sternberg task,98,70005,107,yes,1024
91.66666667,91.66666667,653.9259259,653.9259259,black,experiment,legacy,legacy,legacy,0,uniform,1,undefined,1,right,0,107,107,0,0,107,107,0,107,107,107,107,0,107,0,Mon Oct 21 12:04:32 2019,The main experiment item,yes,Sternbergtask.osexp,/Users/KrisBow/Dropbox/GradSchoolTarleton/Fall2019/AdvQuant/Lab3,no,mono,no,18,no,white,no,yes,768,legacy,95,11,/Users/KrisBow/Dropbox/GradSchoolTarleton/Fall2019/AdvQuant/Lab3/KB-subject-2.csv,legacy,4 1,Kafkaesque Koffka,3.2.6,0,n,0,right,right,right,right,NA,619,52280,15900,619,NA,2,legacy,2,1024,2,48000,-16,experiment,2,even,6,1821,714125,715233,1809,143926,715244,708091,128025,717468,720100,716255,719479,54103,719478,NA,Sternberg task,99,70624,108,yes,1024
91.74311927,91.74311927,653.2110092,653.2110092,black,experiment,legacy,legacy,legacy,0,uniform,1,undefined,1,left,0,108,108,0,0,108,108,0,108,108,108,108,0,108,0,Mon Oct 21 12:04:32 2019,The main experiment item,yes,Sternbergtask.osexp,/Users/KrisBow/Dropbox/GradSchoolTarleton/Fall2019/AdvQuant/Lab3,no,mono,no,18,no,white,no,yes,768,legacy,96,11,/Users/KrisBow/Dropbox/GradSchoolTarleton/Fall2019/AdvQuant/Lab3/KB-subject-2.csv,legacy,3 5 4 7,Kafkaesque Koffka,3.2.6,1,y,0,left,right,right,left,NA,576,52280,15900,576,NA,2,legacy,4,1024,2,48000,-16,experiment,2,even,3,1821,720114,721222,1809,143926,721233,708091,128025,723457,726046,722244,725468,54103,725468,NA,Sternberg task,100,71200,109,yes,1024
91.81818182,91.81818182,652.0090909,652.0090909,black,experiment,legacy,legacy,legacy,0,uniform,1,undefined,1,right,0,109,109,0,0,109,109,0,109,109,109,109,0,109,0,Mon Oct 21 12:04:32 2019,The main experiment item,yes,Sternbergtask.osexp,/Users/KrisBow/Dropbox/GradSchoolTarleton/Fall2019/AdvQuant/Lab3,no,mono,no,18,no,white,no,yes,768,legacy,97,11,/Users/KrisBow/Dropbox/GradSchoolTarleton/Fall2019/AdvQuant/Lab3/KB-subject-2.csv,legacy,3 4 2,Kafkaesque Koffka,3.2.6,0,n,0,right,right,right,right,NA,521,52280,15900,521,NA,2,legacy,3,1024,2,48000,-16,experiment,2,even,5,1821,726059,727167,1809,143926,727178,708091,128025,729403,731937,728190,731413,54103,731413,NA,Sternberg task,101,71721,110,yes,1024
91.89189189,91.89189189,651.9009009,651.9009009,black,experiment,legacy,legacy,legacy,0,uniform,1,undefined,1,right,0,110,110,0,0,110,110,0,110,110,110,110,0,110,0,Mon Oct 21 12:04:32 2019,The main experiment item,yes,Sternbergtask.osexp,/Users/KrisBow/Dropbox/GradSchoolTarleton/Fall2019/AdvQuant/Lab3,no,mono,no,18,no,white,no,yes,768,legacy,98,11,/Users/KrisBow/Dropbox/GradSchoolTarleton/Fall2019/AdvQuant/Lab3/KB-subject-2.csv,legacy,3 9 8 1 6 4,Kafkaesque Koffka,3.2.6,0,n,0,right,right,right,right,NA,640,52280,15900,640,NA,2,legacy,6,1024,2,48000,-16,experiment,2,even,7,1821,731950,733057,1809,143926,733068,708091,128025,735289,737943,734078,737300,54103,737300,NA,Sternberg task,102,72361,111,yes,1024
91.96428571,91.96428571,651.7857143,651.7857143,black,experiment,legacy,legacy,legacy,0,uniform,1,undefined,1,right,0,111,111,0,0,111,111,0,111,111,111,111,0,111,0,Mon Oct 21 12:04:32 2019,The main experiment item,yes,Sternbergtask.osexp,/Users/KrisBow/Dropbox/GradSchoolTarleton/Fall2019/AdvQuant/Lab3,no,mono,no,18,no,white,no,yes,768,legacy,99,11,/Users/KrisBow/Dropbox/GradSchoolTarleton/Fall2019/AdvQuant/Lab3/KB-subject-2.csv,legacy,1 7 8 3 9,Kafkaesque Koffka,3.2.6,0,n,0,right,right,right,right,NA,639,52280,15900,639,NA,2,legacy,5,1024,2,48000,-16,experiment,2,even,2,1821,737956,739063,1809,143926,739074,708091,128025,741298,743950,740085,743309,54103,743309,NA,Sternberg task,103,73000,112,yes,1024
92.03539823,92.03539823,650.9734513,650.9734513,black,experiment,legacy,legacy,legacy,0,uniform,1,undefined,1,left,0,112,112,0,0,112,112,0,112,112,112,112,0,112,0,Mon Oct 21 12:04:32 2019,The main experiment item,yes,Sternbergtask.osexp,/Users/KrisBow/Dropbox/GradSchoolTarleton/Fall2019/AdvQuant/Lab3,no,mono,no,18,no,white,no,yes,768,legacy,100,11,/Users/KrisBow/Dropbox/GradSchoolTarleton/Fall2019/AdvQuant/Lab3/KB-subject-2.csv,legacy,7 8 6 3 1,Kafkaesque Koffka,3.2.6,5,y,0,left,right,right,left,NA,560,52280,15900,560,NA,2,legacy,5,1024,2,48000,-16,experiment,2,even,1,1821,743963,745071,1809,143926,745082,708091,128025,747303,749876,746092,749314,54103,749314,NA,Sternberg task,104,73560,113,yes,1024
92.10526316,92.10526316,650.7631579,650.7631579,black,experiment,legacy,legacy,legacy,0,uniform,1,undefined,1,left,0,113,113,0,0,113,113,0,113,113,113,113,0,113,0,Mon Oct 21 12:04:32 2019,The main experiment item,yes,Sternbergtask.osexp,/Users/KrisBow/Dropbox/GradSchoolTarleton/Fall2019/AdvQuant/Lab3,no,mono,no,18,no,white,no,yes,768,legacy,101,11,/Users/KrisBow/Dropbox/GradSchoolTarleton/Fall2019/AdvQuant/Lab3/KB-subject-2.csv,legacy,3 5 9 6 2 4,Kafkaesque Koffka,3.2.6,1,y,0,left,right,right,left,NA,627,52280,15900,627,NA,2,legacy,6,1024,2,48000,-16,experiment,2,even,3,1821,749889,750998,1809,143926,751007,708091,128025,753233,755874,752019,755244,54103,755243,NA,Sternberg task,105,74187,114,yes,1024
92.17391304,92.17391304,649.6347826,649.6347826,black,experiment,legacy,legacy,legacy,0,uniform,1,undefined,1,left,0,114,114,0,0,114,114,0,114,114,114,114,0,114,0,Mon Oct 21 12:04:32 2019,The main experiment item,yes,Sternbergtask.osexp,/Users/KrisBow/Dropbox/GradSchoolTarleton/Fall2019/AdvQuant/Lab3,no,mono,no,18,no,white,no,yes,768,legacy,102,11,/Users/KrisBow/Dropbox/GradSchoolTarleton/Fall2019/AdvQuant/Lab3/KB-subject-2.csv,legacy,7 8 4 6 9 5,Kafkaesque Koffka,3.2.6,4,y,0,left,right,right,left,NA,521,52280,15900,521,NA,2,legacy,6,1024,2,48000,-16,experiment,2,even,6,1821,755887,756995,1809,143926,757005,708091,128025,759229,761764,758016,761240,54103,761240,NA,Sternberg task,106,74708,115,yes,1024
91.37931034,91.37931034,650.8448276,650.8448276,black,experiment,legacy,legacy,legacy,0,uniform,0,undefined,0,right,0,115,115,0,0,115,115,0,115,115,115,115,0,115,0,Mon Oct 21 12:04:32 2019,The main experiment item,yes,Sternbergtask.osexp,/Users/KrisBow/Dropbox/GradSchoolTarleton/Fall2019/AdvQuant/Lab3,no,mono,no,18,no,white,no,yes,768,legacy,103,11,/Users/KrisBow/Dropbox/GradSchoolTarleton/Fall2019/AdvQuant/Lab3/KB-subject-2.csv,legacy,5 3 2 6 9 8,Kafkaesque Koffka,3.2.6,0,n,0,left,right,right,left,NA,790,52280,15900,790,NA,2,legacy,6,1024,2,48000,-16,experiment,2,even,4,1821,761779,762887,1809,143926,762898,708091,128025,765121,767925,763909,767132,54103,767132,NA,Sternberg task,106,75498,116,yes,1024
91.45299145,91.45299145,650.3162393,650.3162393,black,experiment,legacy,legacy,legacy,0,uniform,1,undefined,1,left,0,116,116,0,0,116,116,0,116,116,116,116,0,116,0,Mon Oct 21 12:04:32 2019,The main experiment item,yes,Sternbergtask.osexp,/Users/KrisBow/Dropbox/GradSchoolTarleton/Fall2019/AdvQuant/Lab3,no,mono,no,18,no,white,no,yes,768,legacy,104,11,/Users/KrisBow/Dropbox/GradSchoolTarleton/Fall2019/AdvQuant/Lab3/KB-subject-2.csv,legacy,3 9 6 2,Kafkaesque Koffka,3.2.6,4,y,0,left,right,right,left,NA,589,52280,15900,589,NA,2,legacy,4,1024,2,48000,-16,experiment,2,even,2,1821,761779,769045,1809,143926,769056,767939,128025,771278,773881,770067,773289,54103,773289,NA,Sternberg task,107,76087,117,yes,1024
91.52542373,91.52542373,648.8898305,648.8898305,black,experiment,legacy,legacy,legacy,0,uniform,1,undefined,1,left,0,117,117,0,0,117,117,0,117,117,117,117,0,117,0,Mon Oct 21 12:04:32 2019,The main experiment item,yes,Sternbergtask.osexp,/Users/KrisBow/Dropbox/GradSchoolTarleton/Fall2019/AdvQuant/Lab3,no,mono,no,18,no,white,no,yes,768,legacy,105,11,/Users/KrisBow/Dropbox/GradSchoolTarleton/Fall2019/AdvQuant/Lab3/KB-subject-2.csv,legacy,6 5,Kafkaesque Koffka,3.2.6,2,y,0,left,right,right,left,NA,482,52280,15900,482,NA,2,legacy,2,1024,2,48000,-16,experiment,2,even,5,1821,773894,775003,1809,143926,775014,767939,128025,777237,779734,776025,779249,54103,779248,NA,Sternberg task,108,76569,118,yes,1024
91.59663866,91.59663866,647.697479,647.697479,black,experiment,legacy,legacy,legacy,0,uniform,1,undefined,1,left,0,118,118,0,0,118,118,0,118,118,118,118,0,118,0,Mon Oct 21 12:04:32 2019,The main experiment item,yes,Sternbergtask.osexp,/Users/KrisBow/Dropbox/GradSchoolTarleton/Fall2019/AdvQuant/Lab3,no,mono,no,18,no,white,no,yes,768,legacy,106,11,/Users/KrisBow/Dropbox/GradSchoolTarleton/Fall2019/AdvQuant/Lab3/KB-subject-2.csv,legacy,4,Kafkaesque Koffka,3.2.6,1,y,0,left,right,right,left,NA,507,52280,15900,507,NA,2,legacy,1,1024,2,48000,-16,experiment,2,even,4,1821,779747,780855,1809,143926,780866,767939,128025,783091,785612,781879,785102,54103,785102,NA,Sternberg task,109,77076,119,yes,1024
91.66666667,91.66666667,646.3583333,646.3583333,black,experiment,legacy,legacy,legacy,0,uniform,1,undefined,1,right,0,119,119,0,0,119,119,0,119,119,119,119,0,119,0,Mon Oct 21 12:04:32 2019,The main experiment item,yes,Sternbergtask.osexp,/Users/KrisBow/Dropbox/GradSchoolTarleton/Fall2019/AdvQuant/Lab3,no,mono,no,18,no,white,no,yes,768,legacy,107,11,/Users/KrisBow/Dropbox/GradSchoolTarleton/Fall2019/AdvQuant/Lab3/KB-subject-2.csv,legacy,5,Kafkaesque Koffka,3.2.6,0,n,0,right,right,right,right,NA,487,52280,15900,487,NA,2,legacy,1,1024,2,48000,-16,experiment,2,even,8,1821,785625,786732,1809,143926,786742,767939,128025,788966,791468,787753,790978,54103,790978,NA,Sternberg task,110,77563,120,yes,1024
91.73553719,91.73553719,647.9917355,647.9917355,black,experiment,legacy,legacy,legacy,0,uniform,1,undefined,1,left,0,120,120,0,0,120,120,0,120,120,120,120,0,120,0,Mon Oct 21 12:04:32 2019,The main experiment item,yes,Sternbergtask.osexp,/Users/KrisBow/Dropbox/GradSchoolTarleton/Fall2019/AdvQuant/Lab3,no,mono,no,18,no,white,no,yes,768,legacy,108,11,/Users/KrisBow/Dropbox/GradSchoolTarleton/Fall2019/AdvQuant/Lab3/KB-subject-2.csv,legacy,5 2 9 6 1 7,Kafkaesque Koffka,3.2.6,3,y,0,left,right,right,left,NA,844,52280,15900,844,NA,2,legacy,6,1024,2,48000,-16,experiment,2,even,9,1821,791481,792589,1809,143926,792600,767939,128025,794822,797679,793611,796833,54103,796833,NA,Sternberg task,111,78407,121,yes,1024
91.80327869,91.80327869,648.647541,648.647541,black,experiment,legacy,legacy,legacy,0,uniform,1,undefined,1,left,0,121,121,0,0,121,121,0,121,121,121,121,0,121,0,Mon Oct 21 12:04:32 2019,The main experiment item,yes,Sternbergtask.osexp,/Users/KrisBow/Dropbox/GradSchoolTarleton/Fall2019/AdvQuant/Lab3,no,mono,no,18,no,white,no,yes,768,legacy,109,11,/Users/KrisBow/Dropbox/GradSchoolTarleton/Fall2019/AdvQuant/Lab3/KB-subject-2.csv,legacy,5 2 6,Kafkaesque Koffka,3.2.6,2,y,0,left,right,right,left,NA,728,52280,15900,728,NA,2,legacy,3,1024,2,48000,-16,experiment,2,even,2,1821,797693,798802,1809,143926,798813,767939,128025,801036,803779,799824,803048,54103,803047,NA,Sternberg task,112,79135,122,yes,1024
91.8699187,91.8699187,650.7317073,650.7317073,black,experiment,legacy,legacy,legacy,0,uniform,1,undefined,1,right,0,122,122,0,0,122,122,0,122,122,122,122,0,122,0,Mon Oct 21 12:04:32 2019,The main experiment item,yes,Sternbergtask.osexp,/Users/KrisBow/Dropbox/GradSchoolTarleton/Fall2019/AdvQuant/Lab3,no,mono,no,18,no,white,no,yes,768,legacy,110,11,/Users/KrisBow/Dropbox/GradSchoolTarleton/Fall2019/AdvQuant/Lab3/KB-subject-2.csv,legacy,4 2 7 6 1 3,Kafkaesque Koffka,3.2.6,0,n,0,right,right,right,right,NA,905,52280,15900,905,NA,2,legacy,6,1024,2,48000,-16,experiment,2,even,8,1821,803792,804900,1809,143926,804911,767939,128025,807134,810052,805922,809145,54103,809144,NA,Sternberg task,113,80040,123,yes,1024
91.93548387,91.93548387,650.4758065,650.4758065,black,experiment,legacy,legacy,legacy,0,uniform,1,undefined,1,left,0,123,123,0,0,123,123,0,123,123,123,123,0,123,0,Mon Oct 21 12:04:32 2019,The main experiment item,yes,Sternbergtask.osexp,/Users/KrisBow/Dropbox/GradSchoolTarleton/Fall2019/AdvQuant/Lab3,no,mono,no,18,no,white,no,yes,768,legacy,111,11,/Users/KrisBow/Dropbox/GradSchoolTarleton/Fall2019/AdvQuant/Lab3/KB-subject-2.csv,legacy,7 6,Kafkaesque Koffka,3.2.6,2,y,0,left,right,right,left,NA,619,52280,15900,619,NA,2,legacy,2,1024,2,48000,-16,experiment,2,even,6,1821,810066,811173,1809,143926,811184,767939,128025,813407,816042,812195,815420,54103,815419,NA,Sternberg task,114,80659,124,yes,1024
91.2,91.2,650.136,650.136,black,experiment,legacy,legacy,legacy,0,uniform,0,undefined,0,right,0,124,124,0,0,124,124,0,124,124,124,124,0,124,0,Mon Oct 21 12:04:32 2019,The main experiment item,yes,Sternbergtask.osexp,/Users/KrisBow/Dropbox/GradSchoolTarleton/Fall2019/AdvQuant/Lab3,no,mono,no,18,no,white,no,yes,768,legacy,112,11,/Users/KrisBow/Dropbox/GradSchoolTarleton/Fall2019/AdvQuant/Lab3/KB-subject-2.csv,legacy,9 5 3 2 8 6,Kafkaesque Koffka,3.2.6,0,n,0,left,right,right,left,NA,608,52280,15900,608,NA,2,legacy,6,1024,2,48000,-16,experiment,2,even,7,1821,816055,817163,1809,143926,817174,767939,128025,819396,822018,818185,821407,54103,821407,NA,Sternberg task,114,81267,125,yes,1024
91.26984127,91.26984127,651.9603175,651.9603175,black,experiment,legacy,legacy,legacy,0,uniform,1,undefined,1,left,0,125,125,0,0,125,125,0,125,125,125,125,0,125,0,Mon Oct 21 12:04:32 2019,The main experiment item,yes,Sternbergtask.osexp,/Users/KrisBow/Dropbox/GradSchoolTarleton/Fall2019/AdvQuant/Lab3,no,mono,no,18,no,white,no,yes,768,legacy,113,11,/Users/KrisBow/Dropbox/GradSchoolTarleton/Fall2019/AdvQuant/Lab3/KB-subject-2.csv,legacy,7 1 3,Kafkaesque Koffka,3.2.6,2,y,0,left,right,right,left,NA,880,52280,15900,880,NA,2,legacy,3,1024,2,48000,-16,experiment,2,even,1,1821,816055,823139,1809,143926,823150,822031,128025,825374,828268,824161,827385,54103,827385,NA,Sternberg task,115,82147,126,yes,1024
91.33858268,91.33858268,651.9055118,651.9055118,black,experiment,legacy,legacy,legacy,0,uniform,1,undefined,1,right,0,126,126,0,0,126,126,0,126,126,126,126,0,126,0,Mon Oct 21 12:04:32 2019,The main experiment item,yes,Sternbergtask.osexp,/Users/KrisBow/Dropbox/GradSchoolTarleton/Fall2019/AdvQuant/Lab3,no,mono,no,18,no,white,no,yes,768,legacy,114,11,/Users/KrisBow/Dropbox/GradSchoolTarleton/Fall2019/AdvQuant/Lab3/KB-subject-2.csv,legacy,2 8 7 9 5 3,Kafkaesque Koffka,3.2.6,0,n,0,right,right,right,right,NA,645,52280,15900,645,NA,2,legacy,6,1024,2,48000,-16,experiment,2,even,6,1821,828281,829389,1809,143926,829400,822031,128025,831623,834282,830411,833634,54103,833634,NA,Sternberg task,116,82792,127,yes,1024
91.40625,91.40625,650.984375,650.984375,black,experiment,legacy,legacy,legacy,0,uniform,1,undefined,1,left,0,127,127,0,0,127,127,0,127,127,127,127,0,127,0,Mon Oct 21 12:04:32 2019,The main experiment item,yes,Sternbergtask.osexp,/Users/KrisBow/Dropbox/GradSchoolTarleton/Fall2019/AdvQuant/Lab3,no,mono,no,18,no,white,no,yes,768,legacy,115,11,/Users/KrisBow/Dropbox/GradSchoolTarleton/Fall2019/AdvQuant/Lab3/KB-subject-2.csv,legacy,4 1 8 7 5,Kafkaesque Koffka,3.2.6,3,y,0,left,right,right,left,NA,534,52280,15900,534,NA,2,legacy,5,1024,2,48000,-16,experiment,2,even,8,1821,834295,835403,1809,143926,835414,822031,128025,837637,840185,836425,839648,54103,839648,NA,Sternberg task,117,83326,128,yes,1024
91.47286822,91.47286822,649.4883721,649.4883721,black,experiment,legacy,legacy,legacy,0,uniform,1,undefined,1,left,0,128,128,0,0,128,128,0,128,128,128,128,0,128,0,Mon Oct 21 12:04:32 2019,The main experiment item,yes,Sternbergtask.osexp,/Users/KrisBow/Dropbox/GradSchoolTarleton/Fall2019/AdvQuant/Lab3,no,mono,no,18,no,white,no,yes,768,legacy,116,11,/Users/KrisBow/Dropbox/GradSchoolTarleton/Fall2019/AdvQuant/Lab3/KB-subject-2.csv,legacy,1 4 9 3 2 5,Kafkaesque Koffka,3.2.6,3,y,0,left,right,right,left,NA,458,52280,15900,458,NA,2,legacy,6,1024,2,48000,-16,experiment,2,even,9,1821,840198,841306,1809,143926,841316,822031,128025,843538,846010,842327,845549,54103,845549,NA,Sternberg task,118,83784,129,yes,1024
91.53846154,91.53846154,651.9538462,651.9538462,black,experiment,legacy,legacy,legacy,0,uniform,1,undefined,1,right,0,129,129,0,0,129,129,0,129,129,129,129,0,129,0,Mon Oct 21 12:04:32 2019,The main experiment item,yes,Sternbergtask.osexp,/Users/KrisBow/Dropbox/GradSchoolTarleton/Fall2019/AdvQuant/Lab3,no,mono,no,18,no,white,no,yes,768,legacy,117,11,/Users/KrisBow/Dropbox/GradSchoolTarleton/Fall2019/AdvQuant/Lab3/KB-subject-2.csv,legacy,1 7 5 2,Kafkaesque Koffka,3.2.6,0,n,0,right,right,right,right,NA,970,52280,15900,970,NA,2,legacy,4,1024,2,48000,-16,experiment,2,even,3,1821,846023,847131,1809,143926,847142,822031,128025,849366,852350,848153,851377,54103,851377,NA,Sternberg task,119,84754,130,yes,1024
91.60305344,91.60305344,651.778626,651.778626,black,experiment,legacy,legacy,legacy,0,uniform,1,undefined,1,right,0,130,130,0,0,130,130,0,130,130,130,130,0,130,0,Mon Oct 21 12:04:32 2019,The main experiment item,yes,Sternbergtask.osexp,/Users/KrisBow/Dropbox/GradSchoolTarleton/Fall2019/AdvQuant/Lab3,no,mono,no,18,no,white,no,yes,768,legacy,118,11,/Users/KrisBow/Dropbox/GradSchoolTarleton/Fall2019/AdvQuant/Lab3/KB-subject-2.csv,legacy,6 7 5 9,Kafkaesque Koffka,3.2.6,0,n,0,right,right,right,right,NA,629,52280,15900,629,NA,2,legacy,4,1024,2,48000,-16,experiment,2,even,2,1821,852363,853473,1809,143926,853484,822031,128025,855707,858350,854495,857718,54103,857718,NA,Sternberg task,120,85383,131,yes,1024
91.66666667,91.66666667,650.0454545,650.0454545,black,experiment,legacy,legacy,legacy,0,uniform,1,undefined,1,right,0,131,131,0,0,131,131,0,131,131,131,131,0,131,0,Mon Oct 21 12:04:32 2019,The main experiment item,yes,Sternbergtask.osexp,/Users/KrisBow/Dropbox/GradSchoolTarleton/Fall2019/AdvQuant/Lab3,no,mono,no,18,no,white,no,yes,768,legacy,119,11,/Users/KrisBow/Dropbox/GradSchoolTarleton/Fall2019/AdvQuant/Lab3/KB-subject-2.csv,legacy,7 1,Kafkaesque Koffka,3.2.6,0,n,0,right,right,right,right,NA,423,52280,15900,423,NA,2,legacy,2,1024,2,48000,-16,experiment,2,even,8,1821,858363,859472,1809,143926,859482,822031,128025,861706,864142,860493,863717,54103,863717,NA,Sternberg task,121,85806,132,yes,1024
91.72932331,91.72932331,650.1503759,650.1503759,black,experiment,legacy,legacy,legacy,0,uniform,1,undefined,1,left,0,132,132,0,0,132,132,0,132,132,132,132,0,132,0,Mon Oct 21 12:04:32 2019,The main experiment item,yes,Sternbergtask.osexp,/Users/KrisBow/Dropbox/GradSchoolTarleton/Fall2019/AdvQuant/Lab3,no,mono,no,18,no,white,no,yes,768,legacy,120,11,/Users/KrisBow/Dropbox/GradSchoolTarleton/Fall2019/AdvQuant/Lab3/KB-subject-2.csv,legacy,6 2,Kafkaesque Koffka,3.2.6,1,y,0,left,right,right,left,NA,664,52280,15900,664,NA,2,legacy,2,1024,2,48000,-16,experiment,2,even,6,1821,864155,865272,1809,143926,865284,822031,128025,867506,870184,866295,869517,54103,869517,NA,Sternberg task,122,86470,133,yes,1024
91.79104478,91.79104478,649.619403,649.619403,black,experiment,legacy,legacy,legacy,0,uniform,1,undefined,1,right,0,133,133,0,0,133,133,0,133,133,133,133,0,133,0,Mon Oct 21 12:04:32 2019,The main experiment item,yes,Sternbergtask.osexp,/Users/KrisBow/Dropbox/GradSchoolTarleton/Fall2019/AdvQuant/Lab3,no,mono,no,18,no,white,no,yes,768,legacy,121,11,/Users/KrisBow/Dropbox/GradSchoolTarleton/Fall2019/AdvQuant/Lab3/KB-subject-2.csv,legacy,3 9 1,Kafkaesque Koffka,3.2.6,0,n,0,right,right,right,right,NA,579,52280,15900,579,NA,2,legacy,3,1024,2,48000,-16,experiment,2,even,7,1821,870197,871304,1809,143926,871315,822031,128025,873538,876131,872326,875549,54103,875549,NA,Sternberg task,123,87049,134,yes,1024
91.85185185,91.85185185,649.3851852,649.3851852,black,experiment,legacy,legacy,legacy,0,uniform,1,undefined,1,left,0,134,134,0,0,134,134,0,134,134,134,134,0,134,0,Mon Oct 21 12:04:32 2019,The main experiment item,yes,Sternbergtask.osexp,/Users/KrisBow/Dropbox/GradSchoolTarleton/Fall2019/AdvQuant/Lab3,no,mono,no,18,no,white,no,yes,768,legacy,122,11,/Users/KrisBow/Dropbox/GradSchoolTarleton/Fall2019/AdvQuant/Lab3/KB-subject-2.csv,legacy,8 9 5 6 7,Kafkaesque Koffka,3.2.6,1,y,0,left,right,right,left,NA,618,52280,15900,618,NA,2,legacy,5,1024,2,48000,-16,experiment,2,even,8,1821,876144,877251,1809,143926,877262,822031,128025,879482,882114,878272,881494,54103,881494,NA,Sternberg task,124,87667,135,yes,1024
91.91176471,91.91176471,648.1102941,648.1102941,black,experiment,legacy,legacy,legacy,0,uniform,1,undefined,1,right,0,135,135,0,0,135,135,0,135,135,135,135,0,135,0,Mon Oct 21 12:04:32 2019,The main experiment item,yes,Sternbergtask.osexp,/Users/KrisBow/Dropbox/GradSchoolTarleton/Fall2019/AdvQuant/Lab3,no,mono,no,18,no,white,no,yes,768,legacy,123,11,/Users/KrisBow/Dropbox/GradSchoolTarleton/Fall2019/AdvQuant/Lab3/KB-subject-2.csv,legacy,5 2,Kafkaesque Koffka,3.2.6,0,n,0,right,right,right,right,NA,476,52280,15900,476,NA,2,legacy,2,1024,2,48000,-16,experiment,2,even,7,1821,882127,883235,1809,143926,883245,822031,128025,885470,887959,884257,887481,54103,887481,NA,Sternberg task,125,88143,136,yes,1024
91.97080292,91.97080292,649.4452555,649.4452555,black,experiment,legacy,legacy,legacy,0,uniform,1,undefined,1,right,0,136,136,0,0,136,136,0,136,136,136,136,0,136,0,Mon Oct 21 12:04:32 2019,The main experiment item,yes,Sternbergtask.osexp,/Users/KrisBow/Dropbox/GradSchoolTarleton/Fall2019/AdvQuant/Lab3,no,mono,no,18,no,white,no,yes,768,legacy,124,11,/Users/KrisBow/Dropbox/GradSchoolTarleton/Fall2019/AdvQuant/Lab3/KB-subject-2.csv,legacy,2 6 4 3 9,Kafkaesque Koffka,3.2.6,0,n,0,right,right,right,right,NA,831,52280,15900,831,NA,2,legacy,5,1024,2,48000,-16,experiment,2,even,1,1821,887972,889080,1809,143926,889090,822031,128025,891315,894160,890102,893326,54103,893326,NA,Sternberg task,126,88974,137,yes,1024
92.02898551,92.02898551,649.6231884,649.6231884,black,experiment,legacy,legacy,legacy,0,uniform,1,undefined,1,left,0,137,137,0,0,137,137,0,137,137,137,137,0,137,0,Mon Oct 21 12:04:32 2019,The main experiment item,yes,Sternbergtask.osexp,/Users/KrisBow/Dropbox/GradSchoolTarleton/Fall2019/AdvQuant/Lab3,no,mono,no,18,no,white,no,yes,768,legacy,125,11,/Users/KrisBow/Dropbox/GradSchoolTarleton/Fall2019/AdvQuant/Lab3/KB-subject-2.csv,legacy,8 5 1 3 9,Kafkaesque Koffka,3.2.6,4,y,0,left,right,right,left,NA,674,52280,15900,674,NA,2,legacy,5,1024,2,48000,-16,experiment,2,even,3,1821,894174,895283,1809,143926,895293,822031,128025,897516,900204,896304,899527,54103,899527,NA,Sternberg task,127,89648,138,yes,1024