acc,accuracy,average_response_time,avg_rt,background,block,canvas_backend,clock_backend,color_backend,compensation,coordinates,correct,correct_instruction1,correct_keyboard_response,correct_response,count_ISI,count_correctFeedback,count_experiment,count_experimentLoop,count_fixation,count_incorrectFeedback,count_instruction1,count_instructions2,count_keyboard_response,count_logger,count_memorySet,count_memorySet_1,count_practiceLoop,count_probe,count_thankYou,datetime,description,disable_garbage_collection,experiment_file,experiment_path,font_bold,font_family,font_italic,font_size,font_underline,foreground,form_clicks,fullscreen,height,keyboard_backend,live_row,live_row_practiceLoop,logfile,mouse_backend,numberSet,opensesame_codename,opensesame_version,posInSet,present,repeat_cycle,response,response_instruction1,response_instructions2,response_keyboard_response,response_thankYou,response_time,response_time_instruction1,response_time_instructions2,response_time_keyboard_response,response_time_thankYou,round_decimals,sampler_backend,setSize,sound_buf_size,sound_channels,sound_freq,sound_sample_size,start,subject_nr,subject_parity,target,time_ISI,time_correctFeedback,time_experiment,time_experimentLoop,time_fixation,time_incorrectFeedback,time_instruction1,time_instructions2,time_keyboard_response,time_logger,time_memorySet,time_memorySet_1,time_practiceLoop,time_probe,time_thankYou,title,total_correct,total_response_time,total_responses,uniform_coordinates,width
100,100,775,775,black,practice,legacy,legacy,legacy,0,uniform,1,undefined,1,left,0,0,0,0,0,0,0,0,0,0,0,0,0,0,0,Sat Oct 26 21:08:59 2019,The main experiment item,yes,Sternbergtask.osexp,/Users/Linzi/Desktop,no,mono,no,18,no,white,no,yes,768,legacy,0,0,/Users/Linzi/Desktop/LM-subject-2M26.csv,legacy,4 8,Kafkaesque Koffka,3.2.8,1,y,0,left,space,NA,left,NA,775,52940,NA,775,NA,2,legacy,2,1024,2,48000,-16,experiment,2,even,4,61630,NA,5441,NA,59376,NA,5477,NA,63657,64435,59349,60404,58436,63657,NA,Sternberg task,1,775,1,yes,1024
100,100,706,706,black,practice,legacy,legacy,legacy,0,uniform,1,undefined,1,left,1,1,0,0,1,1,0,0,1,1,1,1,0,1,0,Sat Oct 26 21:08:59 2019,The main experiment item,yes,Sternbergtask.osexp,/Users/Linzi/Desktop,no,mono,no,18,no,white,no,yes,768,legacy,1,1,/Users/Linzi/Desktop/LM-subject-2M26.csv,legacy,1 7 9 8 5,Kafkaesque Koffka,3.2.8,4,y,0,left,space,NA,left,NA,637,52940,NA,637,NA,2,legacy,5,1024,2,48000,-16,experiment,2,even,8,68222,64633,5441,NA,65968,NA,5477,NA,70248,70888,65943,66995,58436,70248,NA,Sternberg task,2,1412,2,yes,1024
100,100,693.6666667,693.6666667,black,practice,legacy,legacy,legacy,0,uniform,1,undefined,1,right,2,2,0,0,2,2,0,0,2,2,2,2,0,2,0,Sat Oct 26 21:08:59 2019,The main experiment item,yes,Sternbergtask.osexp,/Users/Linzi/Desktop,no,mono,no,18,no,white,no,yes,768,legacy,2,2,/Users/Linzi/Desktop/LM-subject-2M26.csv,legacy,9 6 7 4 5,Kafkaesque Koffka,3.2.8,0,n,0,right,space,NA,right,NA,669,52940,NA,669,NA,2,legacy,5,1024,2,48000,-16,experiment,2,even,3,74479,70919,5441,NA,72228,NA,5477,NA,76506,77179,72202,73254,58436,76505,NA,Sternberg task,3,2081,3,yes,1024
100,100,740.25,740.25,black,practice,legacy,legacy,legacy,0,uniform,1,undefined,1,left,3,3,0,0,3,3,0,0,3,3,3,3,0,3,0,Sat Oct 26 21:08:59 2019,The main experiment item,yes,Sternbergtask.osexp,/Users/Linzi/Desktop,no,mono,no,18,no,white,no,yes,768,legacy,3,3,/Users/Linzi/Desktop/LM-subject-2M26.csv,legacy,2 9 4,Kafkaesque Koffka,3.2.8,3,y,0,left,space,NA,left,NA,880,52940,NA,880,NA,2,legacy,3,1024,2,48000,-16,experiment,2,even,4,80776,77211,5441,NA,78524,NA,5477,NA,82802,83685,78497,79550,58436,82802,NA,Sternberg task,4,2961,4,yes,1024
80,80,735.8,735.8,black,practice,legacy,legacy,legacy,0,uniform,0,undefined,0,left,4,4,0,0,4,4,0,0,4,4,4,4,0,4,0,Sat Oct 26 21:08:59 2019,The main experiment item,yes,Sternbergtask.osexp,/Users/Linzi/Desktop,no,mono,no,18,no,white,no,yes,768,legacy,4,4,/Users/Linzi/Desktop/LM-subject-2M26.csv,legacy,6,Kafkaesque Koffka,3.2.8,1,y,0,right,space,NA,right,NA,718,52940,NA,718,NA,2,legacy,1,1024,2,48000,-16,experiment,2,even,6,87274,83717,5441,NA,85021,NA,5477,NA,89301,90022,84996,86048,58436,89301,NA,Sternberg task,4,3679,5,yes,1024
83.33333333,83.33333333,753.5,753.5,black,practice,legacy,legacy,legacy,0,uniform,1,undefined,1,left,5,5,0,0,5,5,0,0,5,5,5,5,0,5,0,Sat Oct 26 21:08:59 2019,The main experiment item,yes,Sternbergtask.osexp,/Users/Linzi/Desktop,no,mono,no,18,no,white,no,yes,768,legacy,5,5,/Users/Linzi/Desktop/LM-subject-2M26.csv,legacy,1 5 2 9,Kafkaesque Koffka,3.2.8,2,y,0,left,space,NA,left,NA,842,52940,NA,842,NA,2,legacy,4,1024,2,48000,-16,experiment,2,even,5,93613,83717,5441,NA,91362,90054,5477,NA,95641,96486,91335,92388,58436,95640,NA,Sternberg task,5,4521,6,yes,1024
85.71428571,85.71428571,756.8571429,756.8571429,black,practice,legacy,legacy,legacy,0,uniform,1,undefined,1,right,6,6,0,0,6,6,0,0,6,6,6,6,0,6,0,Sat Oct 26 21:08:59 2019,The main experiment item,yes,Sternbergtask.osexp,/Users/Linzi/Desktop,no,mono,no,18,no,white,no,yes,768,legacy,6,6,/Users/Linzi/Desktop/LM-subject-2M26.csv,legacy,3 1 9 4,Kafkaesque Koffka,3.2.8,0,n,0,right,space,NA,right,NA,777,52940,NA,777,NA,2,legacy,4,1024,2,48000,-16,experiment,2,even,6,100077,96517,5441,NA,97825,90054,5477,NA,102105,102885,97798,98851,58436,102105,NA,Sternberg task,6,5298,7,yes,1024
87.5,87.5,779.375,779.375,black,practice,legacy,legacy,legacy,0,uniform,1,undefined,1,right,7,7,0,0,7,7,0,0,7,7,7,7,0,7,0,Sat Oct 26 21:08:59 2019,The main experiment item,yes,Sternbergtask.osexp,/Users/Linzi/Desktop,no,mono,no,18,no,white,no,yes,768,legacy,7,7,/Users/Linzi/Desktop/LM-subject-2M26.csv,legacy,4 1 5,Kafkaesque Koffka,3.2.8,0,n,0,right,space,NA,right,NA,937,52940,NA,937,NA,2,legacy,3,1024,2,48000,-16,experiment,2,even,2,106476,102916,5441,NA,104223,90054,5477,NA,108502,109442,104197,105249,58436,108501,NA,Sternberg task,7,6235,8,yes,1024
88.88888889,88.88888889,762.1111111,762.1111111,black,practice,legacy,legacy,legacy,0,uniform,1,undefined,1,left,8,8,0,0,8,8,0,0,8,8,8,8,0,8,0,Sat Oct 26 21:08:59 2019,The main experiment item,yes,Sternbergtask.osexp,/Users/Linzi/Desktop,no,mono,no,18,no,white,no,yes,768,legacy,8,8,/Users/Linzi/Desktop/LM-subject-2M26.csv,legacy,4 3 1 7 9 8,Kafkaesque Koffka,3.2.8,1,y,0,left,space,NA,left,NA,624,52940,NA,624,NA,2,legacy,6,1024,2,48000,-16,experiment,2,even,4,113034,109473,5441,NA,110782,90054,5477,NA,115061,115688,110756,111808,58436,115060,NA,Sternberg task,8,6859,9,yes,1024
90,90,747.7,747.7,black,practice,legacy,legacy,legacy,0,uniform,1,undefined,1,right,9,9,0,0,9,9,0,0,9,9,9,9,0,9,0,Sat Oct 26 21:08:59 2019,The main experiment item,yes,Sternbergtask.osexp,/Users/Linzi/Desktop,no,mono,no,18,no,white,no,yes,768,legacy,9,9,/Users/Linzi/Desktop/LM-subject-2M26.csv,legacy,5,Kafkaesque Koffka,3.2.8,0,n,0,right,space,NA,right,NA,618,52940,NA,618,NA,2,legacy,1,1024,2,48000,-16,experiment,2,even,3,119275,115721,5441,NA,117023,90054,5477,NA,121301,121922,116998,118049,58436,121301,NA,Sternberg task,9,7477,10,yes,1024
90.90909091,90.90909091,785.2727273,785.2727273,black,practice,legacy,legacy,legacy,0,uniform,1,undefined,1,right,10,10,0,0,10,10,0,0,10,10,10,10,0,10,0,Sat Oct 26 21:08:59 2019,The main experiment item,yes,Sternbergtask.osexp,/Users/Linzi/Desktop,no,mono,no,18,no,white,no,yes,768,legacy,10,10,/Users/Linzi/Desktop/LM-subject-2M26.csv,legacy,5 7 8 4 1 2,Kafkaesque Koffka,3.2.8,0,n,0,right,space,NA,right,NA,1161,52940,NA,1161,NA,2,legacy,6,1024,2,48000,-16,experiment,2,even,6,125513,121952,5441,NA,123261,90054,5477,NA,127540,128704,123234,124287,58436,127540,NA,Sternberg task,10,8638,11,yes,1024
91.66666667,91.66666667,784.3333333,784.3333333,black,practice,legacy,legacy,legacy,0,uniform,1,undefined,1,right,11,11,0,0,11,11,0,0,11,11,11,11,0,11,0,Sat Oct 26 21:08:59 2019,The main experiment item,yes,Sternbergtask.osexp,/Users/Linzi/Desktop,no,mono,no,18,no,white,no,yes,768,legacy,11,11,/Users/Linzi/Desktop/LM-subject-2M26.csv,legacy,2 1,Kafkaesque Koffka,3.2.8,0,n,0,right,space,NA,right,NA,774,52940,NA,774,NA,2,legacy,2,1024,2,48000,-16,experiment,2,even,5,132291,128735,5441,NA,130040,90054,5477,NA,134317,135095,130013,131066,58436,134317,NA,Sternberg task,11,9412,12,yes,1024
92.30769231,92.30769231,765.8461538,765.8461538,black,experiment,legacy,legacy,legacy,0,uniform,1,undefined,1,right,12,12,0,0,12,12,0,0,12,12,12,12,0,12,0,Sat Oct 26 21:08:59 2019,The main experiment item,yes,Sternbergtask.osexp,/Users/Linzi/Desktop,no,mono,no,18,no,white,no,yes,768,legacy,0,11,/Users/Linzi/Desktop/LM-subject-2M26.csv,legacy,3 4 2,Kafkaesque Koffka,3.2.8,0,n,0,right,space,space,right,NA,544,52940,11776,544,NA,2,legacy,3,1024,2,48000,-16,experiment,2,even,5,150627,135126,5441,147990,148372,90054,5477,136210,152653,153200,148346,149401,58436,152652,NA,Sternberg task,12,9956,13,yes,1024
92.85714286,92.85714286,767.5714286,767.5714286,black,experiment,legacy,legacy,legacy,0,uniform,1,undefined,1,right,13,13,0,0,13,13,0,0,13,13,13,13,0,13,0,Sat Oct 26 21:08:59 2019,The main experiment item,yes,Sternbergtask.osexp,/Users/Linzi/Desktop,no,mono,no,18,no,white,no,yes,768,legacy,1,11,/Users/Linzi/Desktop/LM-subject-2M26.csv,legacy,8 5 4 2 9 6,Kafkaesque Koffka,3.2.8,0,n,0,right,space,space,right,NA,790,52940,11776,790,NA,2,legacy,6,1024,2,48000,-16,experiment,2,even,3,156798,153232,5441,147990,154546,90054,5477,136210,158824,159617,154520,155571,58436,158824,NA,Sternberg task,13,10746,14,yes,1024
93.33333333,93.33333333,786.6666667,786.6666667,black,experiment,legacy,legacy,legacy,0,uniform,1,undefined,1,left,14,14,0,0,14,14,0,0,14,14,14,14,0,14,0,Sat Oct 26 21:08:59 2019,The main experiment item,yes,Sternbergtask.osexp,/Users/Linzi/Desktop,no,mono,no,18,no,white,no,yes,768,legacy,2,11,/Users/Linzi/Desktop/LM-subject-2M26.csv,legacy,3 5 7 1,Kafkaesque Koffka,3.2.8,3,y,0,left,space,space,left,NA,1054,52940,11776,1054,NA,2,legacy,4,1024,2,48000,-16,experiment,2,even,7,163204,159648,5441,147990,160953,90054,5477,136210,165230,166287,160927,161978,58436,165230,NA,Sternberg task,14,11800,15,yes,1024
93.75,93.75,789.375,789.375,black,experiment,legacy,legacy,legacy,0,uniform,1,undefined,1,left,15,15,0,0,15,15,0,0,15,15,15,15,0,15,0,Sat Oct 26 21:08:59 2019,The main experiment item,yes,Sternbergtask.osexp,/Users/Linzi/Desktop,no,mono,no,18,no,white,no,yes,768,legacy,3,11,/Users/Linzi/Desktop/LM-subject-2M26.csv,legacy,3 9 6 2,Kafkaesque Koffka,3.2.8,4,y,0,left,space,space,left,NA,830,52940,11776,830,NA,2,legacy,4,1024,2,48000,-16,experiment,2,even,2,169878,166318,5441,147990,167626,90054,5477,136210,171905,172739,167600,168652,58436,171904,NA,Sternberg task,15,12630,16,yes,1024
94.11764706,94.11764706,790.8235294,790.8235294,black,experiment,legacy,legacy,legacy,0,uniform,1,undefined,1,right,16,16,0,0,16,16,0,0,16,16,16,16,0,16,0,Sat Oct 26 21:08:59 2019,The main experiment item,yes,Sternbergtask.osexp,/Users/Linzi/Desktop,no,mono,no,18,no,white,no,yes,768,legacy,4,11,/Users/Linzi/Desktop/LM-subject-2M26.csv,legacy,7 9 1 6,Kafkaesque Koffka,3.2.8,0,n,0,right,space,space,right,NA,814,52940,11776,814,NA,2,legacy,4,1024,2,48000,-16,experiment,2,even,4,176330,172770,5441,147990,174078,90054,5477,136210,178356,179173,174052,175104,58436,178356,NA,Sternberg task,16,13444,17,yes,1024
94.44444444,94.44444444,785.6666667,785.6666667,black,experiment,legacy,legacy,legacy,0,uniform,1,undefined,1,left,17,17,0,0,17,17,0,0,17,17,17,17,0,17,0,Sat Oct 26 21:08:59 2019,The main experiment item,yes,Sternbergtask.osexp,/Users/Linzi/Desktop,no,mono,no,18,no,white,no,yes,768,legacy,5,11,/Users/Linzi/Desktop/LM-subject-2M26.csv,legacy,1 4 9 3 2 5,Kafkaesque Koffka,3.2.8,3,y,0,left,space,space,left,NA,698,52940,11776,698,NA,2,legacy,6,1024,2,48000,-16,experiment,2,even,9,182767,179205,5441,147990,180514,90054,5477,136210,184794,185496,180488,181540,58436,184793,NA,Sternberg task,17,14142,18,yes,1024
94.73684211,94.73684211,778,778,black,experiment,legacy,legacy,legacy,0,uniform,1,undefined,1,right,18,18,0,0,18,18,0,0,18,18,18,18,0,18,0,Sat Oct 26 21:08:59 2019,The main experiment item,yes,Sternbergtask.osexp,/Users/Linzi/Desktop,no,mono,no,18,no,white,no,yes,768,legacy,6,11,/Users/Linzi/Desktop/LM-subject-2M26.csv,legacy,7 8 6 1,Kafkaesque Koffka,3.2.8,0,n,0,right,space,space,right,NA,640,52940,11776,640,NA,2,legacy,4,1024,2,48000,-16,experiment,2,even,3,189083,185527,5441,147990,186832,90054,5477,136210,191110,191754,186807,187858,58436,191109,NA,Sternberg task,18,14782,19,yes,1024
95,95,768.4,768.4,black,experiment,legacy,legacy,legacy,0,uniform,1,undefined,1,left,19,19,0,0,19,19,0,0,19,19,19,19,0,19,0,Sat Oct 26 21:08:59 2019,The main experiment item,yes,Sternbergtask.osexp,/Users/Linzi/Desktop,no,mono,no,18,no,white,no,yes,768,legacy,7,11,/Users/Linzi/Desktop/LM-subject-2M26.csv,legacy,3 5 4 7,Kafkaesque Koffka,3.2.8,1,y,0,left,space,space,left,NA,586,52940,11776,586,NA,2,legacy,4,1024,2,48000,-16,experiment,2,even,3,195343,191785,5441,147990,193091,90054,5477,136210,197371,197960,193065,194117,58436,197370,NA,Sternberg task,19,15368,20,yes,1024
95.23809524,95.23809524,765.047619,765.047619,black,experiment,legacy,legacy,legacy,0,uniform,1,undefined,1,right,20,20,0,0,20,20,0,0,20,20,20,20,0,20,0,Sat Oct 26 21:08:59 2019,The main experiment item,yes,Sternbergtask.osexp,/Users/Linzi/Desktop,no,mono,no,18,no,white,no,yes,768,legacy,8,11,/Users/Linzi/Desktop/LM-subject-2M26.csv,legacy,5 2,Kafkaesque Koffka,3.2.8,0,n,0,right,space,space,right,NA,698,52940,11776,698,NA,2,legacy,2,1024,2,48000,-16,experiment,2,even,7,201548,197991,5441,147990,199295,90054,5477,136210,203574,204275,199269,200321,58436,203574,NA,Sternberg task,20,16066,21,yes,1024
95.45454545,95.45454545,764.3181818,764.3181818,black,experiment,legacy,legacy,legacy,0,uniform,1,undefined,1,right,21,21,0,0,21,21,0,0,21,21,21,21,0,21,0,Sat Oct 26 21:08:59 2019,The main experiment item,yes,Sternbergtask.osexp,/Users/Linzi/Desktop,no,mono,no,18,no,white,no,yes,768,legacy,9,11,/Users/Linzi/Desktop/LM-subject-2M26.csv,legacy,2 8 7 9 5 3,Kafkaesque Koffka,3.2.8,0,n,0,right,space,space,right,NA,749,52940,11776,749,NA,2,legacy,6,1024,2,48000,-16,experiment,2,even,6,207868,204307,5441,147990,205616,90054,5477,136210,209895,210647,205590,206641,58436,209894,NA,Sternberg task,21,16815,22,yes,1024
95.65217391,95.65217391,754.3913043,754.3913043,black,experiment,legacy,legacy,legacy,0,uniform,1,undefined,1,left,22,22,0,0,22,22,0,0,22,22,22,22,0,22,0,Sat Oct 26 21:08:59 2019,The main experiment item,yes,Sternbergtask.osexp,/Users/Linzi/Desktop,no,mono,no,18,no,white,no,yes,768,legacy,10,11,/Users/Linzi/Desktop/LM-subject-2M26.csv,legacy,9 5 3 8 4,Kafkaesque Koffka,3.2.8,1,y,0,left,space,space,left,NA,536,52940,11776,536,NA,2,legacy,5,1024,2,48000,-16,experiment,2,even,9,214237,210678,5441,147990,211985,90054,5477,136210,216263,216803,211959,213011,58436,216262,NA,Sternberg task,22,17351,23,yes,1024
95.83333333,95.83333333,757.9166667,757.9166667,black,experiment,legacy,legacy,legacy,0,uniform,1,undefined,1,left,23,23,0,0,23,23,0,0,23,23,23,23,0,23,0,Sat Oct 26 21:08:59 2019,The main experiment item,yes,Sternbergtask.osexp,/Users/Linzi/Desktop,no,mono,no,18,no,white,no,yes,768,legacy,11,11,/Users/Linzi/Desktop/LM-subject-2M26.csv,legacy,8 5 1 3 9,Kafkaesque Koffka,3.2.8,4,y,0,left,space,space,left,NA,839,52940,11776,839,NA,2,legacy,5,1024,2,48000,-16,experiment,2,even,3,220390,216834,5441,147990,218138,90054,5477,136210,222417,223260,218112,219164,58436,222417,NA,Sternberg task,23,18190,24,yes,1024
96,96,750.76,750.76,black,experiment,legacy,legacy,legacy,0,uniform,1,undefined,1,right,24,24,0,0,24,24,0,0,24,24,24,24,0,24,0,Sat Oct 26 21:08:59 2019,The main experiment item,yes,Sternbergtask.osexp,/Users/Linzi/Desktop,no,mono,no,18,no,white,no,yes,768,legacy,12,11,/Users/Linzi/Desktop/LM-subject-2M26.csv,legacy,9 8 2 7 4,Kafkaesque Koffka,3.2.8,0,n,0,right,space,space,right,NA,579,52940,11776,579,NA,2,legacy,5,1024,2,48000,-16,experiment,2,even,5,226853,223291,5441,147990,224601,90054,5477,136210,228879,229462,224574,225627,58436,228878,NA,Sternberg task,24,18769,25,yes,1024
96.15384615,96.15384615,746.7692308,746.7692308,black,experiment,legacy,legacy,legacy,0,uniform,1,undefined,1,right,25,25,0,0,25,25,0,0,25,25,25,25,0,25,0,Sat Oct 26 21:08:59 2019,The main experiment item,yes,Sternbergtask.osexp,/Users/Linzi/Desktop,no,mono,no,18,no,white,no,yes,768,legacy,13,11,/Users/Linzi/Desktop/LM-subject-2M26.csv,legacy,7 6 4 8 1 2,Kafkaesque Koffka,3.2.8,0,n,0,right,space,space,right,NA,647,52940,11776,647,NA,2,legacy,6,1024,2,48000,-16,experiment,2,even,9,233053,229492,5441,147990,230802,90054,5477,136210,235081,235732,230775,231827,58436,235080,NA,Sternberg task,25,19416,26,yes,1024
96.2962963,96.2962963,743.6296296,743.6296296,black,experiment,legacy,legacy,legacy,0,uniform,1,undefined,1,right,26,26,0,0,26,26,0,0,26,26,26,26,0,26,0,Sat Oct 26 21:08:59 2019,The main experiment item,yes,Sternbergtask.osexp,/Users/Linzi/Desktop,no,mono,no,18,no,white,no,yes,768,legacy,14,11,/Users/Linzi/Desktop/LM-subject-2M26.csv,legacy,6 9 4 5 3 2,Kafkaesque Koffka,3.2.8,0,n,0,right,space,space,right,NA,662,52940,11776,662,NA,2,legacy,6,1024,2,48000,-16,experiment,2,even,8,239324,235763,5441,147990,237072,90054,5477,136210,241350,242016,237045,238098,58436,241350,NA,Sternberg task,26,20078,27,yes,1024
96.42857143,96.42857143,749.5357143,749.5357143,black,experiment,legacy,legacy,legacy,0,uniform,1,undefined,1,right,27,27,0,0,27,27,0,0,27,27,27,27,0,27,0,Sat Oct 26 21:08:59 2019,The main experiment item,yes,Sternbergtask.osexp,/Users/Linzi/Desktop,no,mono,no,18,no,white,no,yes,768,legacy,15,11,/Users/Linzi/Desktop/LM-subject-2M26.csv,legacy,2 7 5,Kafkaesque Koffka,3.2.8,0,n,0,right,space,space,right,NA,909,52940,11776,909,NA,2,legacy,3,1024,2,48000,-16,experiment,2,even,8,245603,242047,5441,147990,243350,90054,5477,136210,247630,248543,243324,244376,58436,247630,NA,Sternberg task,27,20987,28,yes,1024
96.55172414,96.55172414,749.1724138,749.1724138,black,experiment,legacy,legacy,legacy,0,uniform,1,undefined,1,right,28,28,0,0,28,28,0,0,28,28,28,28,0,28,0,Sat Oct 26 21:08:59 2019,The main experiment item,yes,Sternbergtask.osexp,/Users/Linzi/Desktop,no,mono,no,18,no,white,no,yes,768,legacy,16,11,/Users/Linzi/Desktop/LM-subject-2M26.csv,legacy,4 1,Kafkaesque Koffka,3.2.8,0,n,0,right,space,space,right,NA,739,52940,11776,739,NA,2,legacy,2,1024,2,48000,-16,experiment,2,even,6,252133,248574,5441,147990,249881,90054,5477,136210,254160,254903,249855,250908,58436,254160,NA,Sternberg task,28,21726,29,yes,1024
96.66666667,96.66666667,741.4333333,741.4333333,black,experiment,legacy,legacy,legacy,0,uniform,1,undefined,1,right,29,29,0,0,29,29,0,0,29,29,29,29,0,29,0,Sat Oct 26 21:08:59 2019,The main experiment item,yes,Sternbergtask.osexp,/Users/Linzi/Desktop,no,mono,no,18,no,white,no,yes,768,legacy,17,11,/Users/Linzi/Desktop/LM-subject-2M26.csv,legacy,2 8 9,Kafkaesque Koffka,3.2.8,0,n,0,right,space,space,right,NA,517,52940,11776,517,NA,2,legacy,3,1024,2,48000,-16,experiment,2,even,6,258489,254933,5441,147990,256238,90054,5477,136210,260516,261037,256212,257263,58436,260515,NA,Sternberg task,29,22243,30,yes,1024
96.77419355,96.77419355,739.3225806,739.3225806,black,experiment,legacy,legacy,legacy,0,uniform,1,undefined,1,left,30,30,0,0,30,30,0,0,30,30,30,30,0,30,0,Sat Oct 26 21:08:59 2019,The main experiment item,yes,Sternbergtask.osexp,/Users/Linzi/Desktop,no,mono,no,18,no,white,no,yes,768,legacy,18,11,/Users/Linzi/Desktop/LM-subject-2M26.csv,legacy,7 1 8 5 6 2,Kafkaesque Koffka,3.2.8,2,y,0,left,space,space,left,NA,676,52940,11776,676,NA,2,legacy,6,1024,2,48000,-16,experiment,2,even,1,264627,261067,5441,147990,262376,90054,5477,136210,266653,267333,262349,263401,58436,266653,NA,Sternberg task,30,22919,31,yes,1024
96.875,96.875,738.09375,738.09375,black,experiment,legacy,legacy,legacy,0,uniform,1,undefined,1,left,31,31,0,0,31,31,0,0,31,31,31,31,0,31,0,Sat Oct 26 21:08:59 2019,The main experiment item,yes,Sternbergtask.osexp,/Users/Linzi/Desktop,no,mono,no,18,no,white,no,yes,768,legacy,19,11,/Users/Linzi/Desktop/LM-subject-2M26.csv,legacy,3 2 1 4 7,Kafkaesque Koffka,3.2.8,2,y,0,left,space,space,left,NA,700,52940,11776,700,NA,2,legacy,5,1024,2,48000,-16,experiment,2,even,2,270928,267364,5441,147990,268677,90054,5477,136210,272956,273659,268651,269703,58436,272956,NA,Sternberg task,31,23619,32,yes,1024
93.93939394,93.93939394,755.3030303,755.3030303,black,experiment,legacy,legacy,legacy,0,uniform,0,undefined,0,left,32,32,0,0,32,32,0,0,32,32,32,32,0,32,0,Sat Oct 26 21:08:59 2019,The main experiment item,yes,Sternbergtask.osexp,/Users/Linzi/Desktop,no,mono,no,18,no,white,no,yes,768,legacy,20,11,/Users/Linzi/Desktop/LM-subject-2M26.csv,legacy,8 9 5 7 1 6,Kafkaesque Koffka,3.2.8,4,y,0,right,space,space,right,NA,1306,52940,11776,1306,NA,2,legacy,6,1024,2,48000,-16,experiment,2,even,7,277250,273691,5441,147990,275000,90054,5477,136210,279277,280586,274975,276025,58436,279276,NA,Sternberg task,31,24925,33,yes,1024
94.11764706,94.11764706,754.9411765,754.9411765,black,experiment,legacy,legacy,legacy,0,uniform,1,undefined,1,right,33,33,0,0,33,33,0,0,33,33,33,33,0,33,0,Sat Oct 26 21:08:59 2019,The main experiment item,yes,Sternbergtask.osexp,/Users/Linzi/Desktop,no,mono,no,18,no,white,no,yes,768,legacy,21,11,/Users/Linzi/Desktop/LM-subject-2M26.csv,legacy,2 6 4 3 9,Kafkaesque Koffka,3.2.8,0,n,0,right,space,space,right,NA,743,52940,11776,743,NA,2,legacy,5,1024,2,48000,-16,experiment,2,even,1,284180,273691,5441,147990,281928,280617,5477,136210,286207,286954,281901,282954,58436,286207,NA,Sternberg task,32,25668,34,yes,1024
94.28571429,94.28571429,751.3428571,751.3428571,black,experiment,legacy,legacy,legacy,0,uniform,1,undefined,1,right,34,34,0,0,34,34,0,0,34,34,34,34,0,34,0,Sat Oct 26 21:08:59 2019,The main experiment item,yes,Sternbergtask.osexp,/Users/Linzi/Desktop,no,mono,no,18,no,white,no,yes,768,legacy,22,11,/Users/Linzi/Desktop/LM-subject-2M26.csv,legacy,1 7 8 3 9,Kafkaesque Koffka,3.2.8,0,n,0,right,space,space,right,NA,629,52940,11776,629,NA,2,legacy,5,1024,2,48000,-16,experiment,2,even,2,290545,286985,5441,147990,288293,280617,5477,136210,292572,293205,288267,289318,58436,292571,NA,Sternberg task,33,26297,35,yes,1024
94.44444444,94.44444444,753.0555556,753.0555556,black,experiment,legacy,legacy,legacy,0,uniform,1,undefined,1,left,35,35,0,0,35,35,0,0,35,35,35,35,0,35,0,Sat Oct 26 21:08:59 2019,The main experiment item,yes,Sternbergtask.osexp,/Users/Linzi/Desktop,no,mono,no,18,no,white,no,yes,768,legacy,23,11,/Users/Linzi/Desktop/LM-subject-2M26.csv,legacy,3 4 9 6 2 9,Kafkaesque Koffka,3.2.8,5,y,0,left,space,space,left,NA,813,52940,11776,813,NA,2,legacy,6,1024,2,48000,-16,experiment,2,even,2,296795,293237,5441,147990,294544,280617,5477,136210,298822,299639,294518,295569,58436,298822,NA,Sternberg task,34,27110,36,yes,1024
94.59459459,94.59459459,750.6216216,750.6216216,black,experiment,legacy,legacy,legacy,0,uniform,1,undefined,1,right,36,36,0,0,36,36,0,0,36,36,36,36,0,36,0,Sat Oct 26 21:08:59 2019,The main experiment item,yes,Sternbergtask.osexp,/Users/Linzi/Desktop,no,mono,no,18,no,white,no,yes,768,legacy,24,11,/Users/Linzi/Desktop/LM-subject-2M26.csv,legacy,6 7 5 9,Kafkaesque Koffka,3.2.8,0,n,0,right,space,space,right,NA,663,52940,11776,663,NA,2,legacy,4,1024,2,48000,-16,experiment,2,even,2,303229,299671,5441,147990,300978,280617,5477,136210,305256,305923,300952,302003,58436,305255,NA,Sternberg task,35,27773,37,yes,1024
94.73684211,94.73684211,746.2105263,746.2105263,black,experiment,legacy,legacy,legacy,0,uniform,1,undefined,1,right,37,37,0,0,37,37,0,0,37,37,37,37,0,37,0,Sat Oct 26 21:08:59 2019,The main experiment item,yes,Sternbergtask.osexp,/Users/Linzi/Desktop,no,mono,no,18,no,white,no,yes,768,legacy,25,11,/Users/Linzi/Desktop/LM-subject-2M26.csv,legacy,2 8 9 4 1,Kafkaesque Koffka,3.2.8,0,n,0,right,space,space,right,NA,583,52940,11776,583,NA,2,legacy,5,1024,2,48000,-16,experiment,2,even,5,309511,305954,5441,147990,307259,280617,5477,136210,311538,312125,307233,308285,58436,311538,NA,Sternberg task,36,28356,38,yes,1024
94.87179487,94.87179487,748.2307692,748.2307692,black,experiment,legacy,legacy,legacy,0,uniform,1,undefined,1,left,38,38,0,0,38,38,0,0,38,38,38,38,0,38,0,Sat Oct 26 21:08:59 2019,The main experiment item,yes,Sternbergtask.osexp,/Users/Linzi/Desktop,no,mono,no,18,no,white,no,yes,768,legacy,26,11,/Users/Linzi/Desktop/LM-subject-2M26.csv,legacy,4 1 8 7 5,Kafkaesque Koffka,3.2.8,3,y,0,left,space,space,left,NA,825,52940,11776,825,NA,2,legacy,5,1024,2,48000,-16,experiment,2,even,8,315717,312155,5441,147990,313465,280617,5477,136210,317743,318572,313439,314491,58436,317743,NA,Sternberg task,37,29181,39,yes,1024
95,95,749.5,749.5,black,experiment,legacy,legacy,legacy,0,uniform,1,undefined,1,left,39,39,0,0,39,39,0,0,39,39,39,39,0,39,0,Sat Oct 26 21:08:59 2019,The main experiment item,yes,Sternbergtask.osexp,/Users/Linzi/Desktop,no,mono,no,18,no,white,no,yes,768,legacy,27,11,/Users/Linzi/Desktop/LM-subject-2M26.csv,legacy,6 1 2,Kafkaesque Koffka,3.2.8,3,y,0,left,space,space,left,NA,799,52940,11776,799,NA,2,legacy,3,1024,2,48000,-16,experiment,2,even,2,322164,318603,5441,147990,319912,280617,5477,136210,324192,324996,319886,320938,58436,324191,NA,Sternberg task,38,29980,40,yes,1024
95.12195122,95.12195122,744.4878049,744.4878049,black,experiment,legacy,legacy,legacy,0,uniform,1,undefined,1,right,40,40,0,0,40,40,0,0,40,40,40,40,0,40,0,Sat Oct 26 21:08:59 2019,The main experiment item,yes,Sternbergtask.osexp,/Users/Linzi/Desktop,no,mono,no,18,no,white,no,yes,768,legacy,28,11,/Users/Linzi/Desktop/LM-subject-2M26.csv,legacy,1 5 3 2 8,Kafkaesque Koffka,3.2.8,0,n,0,right,space,space,right,NA,544,52940,11776,544,NA,2,legacy,5,1024,2,48000,-16,experiment,2,even,4,328588,325027,5441,147990,326336,280617,5477,136210,330616,331164,326310,327362,58436,330615,NA,Sternberg task,39,30524,41,yes,1024
95.23809524,95.23809524,745.1904762,745.1904762,black,experiment,legacy,legacy,legacy,0,uniform,1,undefined,1,left,41,41,0,0,41,41,0,0,41,41,41,41,0,41,0,Sat Oct 26 21:08:59 2019,The main experiment item,yes,Sternbergtask.osexp,/Users/Linzi/Desktop,no,mono,no,18,no,white,no,yes,768,legacy,29,11,/Users/Linzi/Desktop/LM-subject-2M26.csv,legacy,2 8 5 1,Kafkaesque Koffka,3.2.8,4,y,0,left,space,space,left,NA,774,52940,11776,774,NA,2,legacy,4,1024,2,48000,-16,experiment,2,even,1,334757,331195,5441,147990,332505,280617,5477,136210,336784,337563,332478,333530,58436,336783,NA,Sternberg task,40,31298,42,yes,1024
95.34883721,95.34883721,740.5813953,740.5813953,black,experiment,legacy,legacy,legacy,0,uniform,1,undefined,1,left,42,42,0,0,42,42,0,0,42,42,42,42,0,42,0,Sat Oct 26 21:08:59 2019,The main experiment item,yes,Sternbergtask.osexp,/Users/Linzi/Desktop,no,mono,no,18,no,white,no,yes,768,legacy,30,11,/Users/Linzi/Desktop/LM-subject-2M26.csv,legacy,4 6 5 8,Kafkaesque Koffka,3.2.8,1,y,0,left,space,space,left,NA,547,52940,11776,547,NA,2,legacy,4,1024,2,48000,-16,experiment,2,even,4,341155,337593,5441,147990,338903,280617,5477,136210,343182,343733,338876,339929,58436,343181,NA,Sternberg task,41,31845,43,yes,1024
95.45454545,95.45454545,746.3409091,746.3409091,black,experiment,legacy,legacy,legacy,0,uniform,1,undefined,1,right,43,43,0,0,43,43,0,0,43,43,43,43,0,43,0,Sat Oct 26 21:08:59 2019,The main experiment item,yes,Sternbergtask.osexp,/Users/Linzi/Desktop,no,mono,no,18,no,white,no,yes,768,legacy,31,11,/Users/Linzi/Desktop/LM-subject-2M26.csv,legacy,5,Kafkaesque Koffka,3.2.8,0,n,0,right,space,space,right,NA,994,52940,11776,994,NA,2,legacy,1,1024,2,48000,-16,experiment,2,even,8,347319,343764,5441,147990,345068,280617,5477,136210,349347,350345,345042,346093,58436,349346,NA,Sternberg task,42,32839,44,yes,1024
95.55555556,95.55555556,744.8666667,744.8666667,black,experiment,legacy,legacy,legacy,0,uniform,1,undefined,1,left,44,44,0,0,44,44,0,0,44,44,44,44,0,44,0,Sat Oct 26 21:08:59 2019,The main experiment item,yes,Sternbergtask.osexp,/Users/Linzi/Desktop,no,mono,no,18,no,white,no,yes,768,legacy,32,11,/Users/Linzi/Desktop/LM-subject-2M26.csv,legacy,9 6 2 4 1,Kafkaesque Koffka,3.2.8,4,y,0,left,space,space,left,NA,680,52940,11776,680,NA,2,legacy,5,1024,2,48000,-16,experiment,2,even,4,353938,350376,5441,147990,351686,280617,5477,136210,355965,356650,351660,352712,58436,355964,NA,Sternberg task,43,33519,45,yes,1024
95.65217391,95.65217391,750.7826087,750.7826087,black,experiment,legacy,legacy,legacy,0,uniform,1,undefined,1,left,45,45,0,0,45,45,0,0,45,45,45,45,0,45,0,Sat Oct 26 21:08:59 2019,The main experiment item,yes,Sternbergtask.osexp,/Users/Linzi/Desktop,no,mono,no,18,no,white,no,yes,768,legacy,33,11,/Users/Linzi/Desktop/LM-subject-2M26.csv,legacy,4 9 7 8 5 3,Kafkaesque Koffka,3.2.8,4,y,0,left,space,space,left,NA,1017,52940,11776,1017,NA,2,legacy,6,1024,2,48000,-16,experiment,2,even,8,360241,356682,5441,147990,357991,280617,5477,136210,362268,363290,357965,359015,58436,362268,NA,Sternberg task,44,34536,46,yes,1024
95.74468085,95.74468085,747.8085106,747.8085106,black,experiment,legacy,legacy,legacy,0,uniform,1,undefined,1,right,46,46,0,0,46,46,0,0,46,46,46,46,0,46,0,Sat Oct 26 21:08:59 2019,The main experiment item,yes,Sternbergtask.osexp,/Users/Linzi/Desktop,no,mono,no,18,no,white,no,yes,768,legacy,34,11,/Users/Linzi/Desktop/LM-subject-2M26.csv,legacy,4 2 6 9,Kafkaesque Koffka,3.2.8,0,n,0,right,space,space,right,NA,611,52940,11776,611,NA,2,legacy,4,1024,2,48000,-16,experiment,2,even,7,366880,363320,5441,147990,364629,280617,5477,136210,368907,369522,364602,365655,58436,368906,NA,Sternberg task,45,35147,47,yes,1024
95.83333333,95.83333333,748,748,black,experiment,legacy,legacy,legacy,0,uniform,1,undefined,1,left,47,47,0,0,47,47,0,0,47,47,47,47,0,47,0,Sat Oct 26 21:08:59 2019,The main experiment item,yes,Sternbergtask.osexp,/Users/Linzi/Desktop,no,mono,no,18,no,white,no,yes,768,legacy,35,11,/Users/Linzi/Desktop/LM-subject-2M26.csv,legacy,8 7 3,Kafkaesque Koffka,3.2.8,1,y,0,left,space,space,left,NA,757,52940,11776,757,NA,2,legacy,3,1024,2,48000,-16,experiment,2,even,8,373111,369553,5441,147990,370859,280617,5477,136210,375138,375899,370833,371885,58436,375138,NA,Sternberg task,46,35904,48,yes,1024
95.91836735,95.91836735,749.8163265,749.8163265,black,experiment,legacy,legacy,legacy,0,uniform,1,undefined,1,right,48,48,0,0,48,48,0,0,48,48,48,48,0,48,0,Sat Oct 26 21:08:59 2019,The main experiment item,yes,Sternbergtask.osexp,/Users/Linzi/Desktop,no,mono,no,18,no,white,no,yes,768,legacy,36,11,/Users/Linzi/Desktop/LM-subject-2M26.csv,legacy,1 6 4 3 9 7,Kafkaesque Koffka,3.2.8,0,n,0,right,space,space,right,NA,837,52940,11776,837,NA,2,legacy,6,1024,2,48000,-16,experiment,2,even,8,379490,375929,5441,147990,377238,280617,5477,136210,381516,382357,377211,378264,58436,381516,NA,Sternberg task,47,36741,49,yes,1024
96,96,748.34,748.34,black,experiment,legacy,legacy,legacy,0,uniform,1,undefined,1,left,49,49,0,0,49,49,0,0,49,49,49,49,0,49,0,Sat Oct 26 21:08:59 2019,The main experiment item,yes,Sternbergtask.osexp,/Users/Linzi/Desktop,no,mono,no,18,no,white,no,yes,768,legacy,37,11,/Users/Linzi/Desktop/LM-subject-2M26.csv,legacy,7 4 2 6 3 5,Kafkaesque Koffka,3.2.8,6,y,0,left,space,space,left,NA,676,52940,11776,676,NA,2,legacy,6,1024,2,48000,-16,experiment,2,even,5,385951,382388,5441,147990,383700,280617,5477,136210,387979,388660,383674,384726,58436,387979,NA,Sternberg task,48,37417,50,yes,1024
96.07843137,96.07843137,746.6666667,746.6666667,black,experiment,legacy,legacy,legacy,0,uniform,1,undefined,1,right,50,50,0,0,50,50,0,0,50,50,50,50,0,50,0,Sat Oct 26 21:08:59 2019,The main experiment item,yes,Sternbergtask.osexp,/Users/Linzi/Desktop,no,mono,no,18,no,white,no,yes,768,legacy,38,11,/Users/Linzi/Desktop/LM-subject-2M26.csv,legacy,9 5 3 2 8 6,Kafkaesque Koffka,3.2.8,0,n,0,right,space,space,right,NA,663,52940,11776,663,NA,2,legacy,6,1024,2,48000,-16,experiment,2,even,7,392250,388692,5441,147990,389999,280617,5477,136210,394277,394945,389973,391024,58436,394277,NA,Sternberg task,49,38080,51,yes,1024
96.15384615,96.15384615,746.4038462,746.4038462,black,experiment,legacy,legacy,legacy,0,uniform,1,undefined,1,left,51,51,0,0,51,51,0,0,51,51,51,51,0,51,0,Sat Oct 26 21:08:59 2019,The main experiment item,yes,Sternbergtask.osexp,/Users/Linzi/Desktop,no,mono,no,18,no,white,no,yes,768,legacy,39,11,/Users/Linzi/Desktop/LM-subject-2M26.csv,legacy,7 6,Kafkaesque Koffka,3.2.8,2,y,0,left,space,space,left,NA,733,52940,11776,733,NA,2,legacy,2,1024,2,48000,-16,experiment,2,even,6,398532,394976,5441,147990,396280,280617,5477,136210,400559,401296,396254,397305,58436,400559,NA,Sternberg task,50,38813,52,yes,1024
96.22641509,96.22641509,743.9622642,743.9622642,black,experiment,legacy,legacy,legacy,0,uniform,1,undefined,1,left,52,52,0,0,52,52,0,0,52,52,52,52,0,52,0,Sat Oct 26 21:08:59 2019,The main experiment item,yes,Sternbergtask.osexp,/Users/Linzi/Desktop,no,mono,no,18,no,white,no,yes,768,legacy,40,11,/Users/Linzi/Desktop/LM-subject-2M26.csv,legacy,9 8 4,Kafkaesque Koffka,3.2.8,1,y,0,left,space,space,left,NA,617,52940,11776,617,NA,2,legacy,3,1024,2,48000,-16,experiment,2,even,9,404887,401327,5441,147990,402635,280617,5477,136210,406913,407534,402609,403660,58436,406913,NA,Sternberg task,51,39430,53,yes,1024
96.2962963,96.2962963,739.1666667,739.1666667,black,experiment,legacy,legacy,legacy,0,uniform,1,undefined,1,left,53,53,0,0,53,53,0,0,53,53,53,53,0,53,0,Sat Oct 26 21:08:59 2019,The main experiment item,yes,Sternbergtask.osexp,/Users/Linzi/Desktop,no,mono,no,18,no,white,no,yes,768,legacy,41,11,/Users/Linzi/Desktop/LM-subject-2M26.csv,legacy,9 1 6 7 8,Kafkaesque Koffka,3.2.8,1,y,0,left,space,space,left,NA,485,52940,11776,485,NA,2,legacy,5,1024,2,48000,-16,experiment,2,even,9,411124,407565,5441,147990,408872,280617,5477,136210,413151,413641,408845,409898,58436,413150,NA,Sternberg task,52,39915,54,yes,1024
96.36363636,96.36363636,739.4545455,739.4545455,black,experiment,legacy,legacy,legacy,0,uniform,1,undefined,1,left,54,54,0,0,54,54,0,0,54,54,54,54,0,54,0,Sat Oct 26 21:08:59 2019,The main experiment item,yes,Sternbergtask.osexp,/Users/Linzi/Desktop,no,mono,no,18,no,white,no,yes,768,legacy,42,11,/Users/Linzi/Desktop/LM-subject-2M26.csv,legacy,2 6 1 7 4,Kafkaesque Koffka,3.2.8,2,y,0,left,space,space,left,NA,755,52940,11776,755,NA,2,legacy,5,1024,2,48000,-16,experiment,2,even,6,417231,413672,5441,147990,414979,280617,5477,136210,419257,420017,414953,416004,58436,419256,NA,Sternberg task,53,40670,55,yes,1024
96.42857143,96.42857143,737.3392857,737.3392857,black,experiment,legacy,legacy,legacy,0,uniform,1,undefined,1,right,55,55,0,0,55,55,0,0,55,55,55,55,0,55,0,Sat Oct 26 21:08:59 2019,The main experiment item,yes,Sternbergtask.osexp,/Users/Linzi/Desktop,no,mono,no,18,no,white,no,yes,768,legacy,43,11,/Users/Linzi/Desktop/LM-subject-2M26.csv,legacy,1 4 9 3,Kafkaesque Koffka,3.2.8,0,n,0,right,space,space,right,NA,621,52940,11776,621,NA,2,legacy,4,1024,2,48000,-16,experiment,2,even,5,423608,420047,5441,147990,421356,280617,5477,136210,425635,426261,421330,422382,58436,425635,NA,Sternberg task,54,41291,56,yes,1024
96.49122807,96.49122807,736.7368421,736.7368421,black,experiment,legacy,legacy,legacy,0,uniform,1,undefined,1,right,56,56,0,0,56,56,0,0,56,56,56,56,0,56,0,Sat Oct 26 21:08:59 2019,The main experiment item,yes,Sternbergtask.osexp,/Users/Linzi/Desktop,no,mono,no,18,no,white,no,yes,768,legacy,44,11,/Users/Linzi/Desktop/LM-subject-2M26.csv,legacy,5 3 8 7 2 4,Kafkaesque Koffka,3.2.8,0,n,0,right,space,space,right,NA,703,52940,11776,703,NA,2,legacy,6,1024,2,48000,-16,experiment,2,even,9,429855,426291,5441,147990,427603,280617,5477,136210,431882,432589,427577,428629,58436,431881,NA,Sternberg task,55,41994,57,yes,1024
96.55172414,96.55172414,736.1896552,736.1896552,black,experiment,legacy,legacy,legacy,0,uniform,1,undefined,1,right,57,57,0,0,57,57,0,0,57,57,57,57,0,57,0,Sat Oct 26 21:08:59 2019,The main experiment item,yes,Sternbergtask.osexp,/Users/Linzi/Desktop,no,mono,no,18,no,white,no,yes,768,legacy,45,11,/Users/Linzi/Desktop/LM-subject-2M26.csv,legacy,6 8,Kafkaesque Koffka,3.2.8,0,n,0,right,space,space,right,NA,705,52940,11776,705,NA,2,legacy,2,1024,2,48000,-16,experiment,2,even,9,436181,432620,5441,147990,433927,280617,5477,136210,438208,438918,433901,434954,58436,438208,NA,Sternberg task,56,42699,58,yes,1024
96.61016949,96.61016949,733.6101695,733.6101695,black,experiment,legacy,legacy,legacy,0,uniform,1,undefined,1,left,58,58,0,0,58,58,0,0,58,58,58,58,0,58,0,Sat Oct 26 21:08:59 2019,The main experiment item,yes,Sternbergtask.osexp,/Users/Linzi/Desktop,no,mono,no,18,no,white,no,yes,768,legacy,46,11,/Users/Linzi/Desktop/LM-subject-2M26.csv,legacy,2 5 4 8 7,Kafkaesque Koffka,3.2.8,3,y,0,left,space,space,left,NA,584,52940,11776,584,NA,2,legacy,5,1024,2,48000,-16,experiment,2,even,4,442513,438949,5441,147990,440260,280617,5477,136210,444539,445128,440234,441286,58436,444539,NA,Sternberg task,57,43283,59,yes,1024
96.66666667,96.66666667,732.0833333,732.0833333,black,experiment,legacy,legacy,legacy,0,uniform,1,undefined,1,right,59,59,0,0,59,59,0,0,59,59,59,59,0,59,0,Sat Oct 26 21:08:59 2019,The main experiment item,yes,Sternbergtask.osexp,/Users/Linzi/Desktop,no,mono,no,18,no,white,no,yes,768,legacy,47,11,/Users/Linzi/Desktop/LM-subject-2M26.csv,legacy,1 6 4,Kafkaesque Koffka,3.2.8,0,n,0,right,space,space,right,NA,642,52940,11776,642,NA,2,legacy,3,1024,2,48000,-16,experiment,2,even,7,448721,445160,5441,147990,446469,280617,5477,136210,450749,451396,446443,447495,58436,450748,NA,Sternberg task,58,43925,60,yes,1024
96.72131148,96.72131148,730.5737705,730.5737705,black,experiment,legacy,legacy,legacy,0,uniform,1,undefined,1,left,60,60,0,0,60,60,0,0,60,60,60,60,0,60,0,Sat Oct 26 21:08:59 2019,The main experiment item,yes,Sternbergtask.osexp,/Users/Linzi/Desktop,no,mono,no,18,no,white,no,yes,768,legacy,48,11,/Users/Linzi/Desktop/LM-subject-2M26.csv,legacy,5 7 3 6 2,Kafkaesque Koffka,3.2.8,5,y,0,left,space,space,left,NA,640,52940,11776,640,NA,2,legacy,5,1024,2,48000,-16,experiment,2,even,2,454990,451428,5441,147990,452738,280617,5477,136210,457016,457660,452711,453763,58436,457015,NA,Sternberg task,59,44565,61,yes,1024
96.77419355,96.77419355,728.5806452,728.5806452,black,experiment,legacy,legacy,legacy,0,uniform,1,undefined,1,right,61,61,0,0,61,61,0,0,61,61,61,61,0,61,0,Sat Oct 26 21:08:59 2019,The main experiment item,yes,Sternbergtask.osexp,/Users/Linzi/Desktop,no,mono,no,18,no,white,no,yes,768,legacy,49,11,/Users/Linzi/Desktop/LM-subject-2M26.csv,legacy,7 3 2 8,Kafkaesque Koffka,3.2.8,0,n,0,right,space,space,right,NA,607,52940,11776,607,NA,2,legacy,4,1024,2,48000,-16,experiment,2,even,4,461250,457692,5441,147990,458999,280617,5477,136210,463277,463889,458973,460024,58436,463277,NA,Sternberg task,60,45172,62,yes,1024
96.82539683,96.82539683,729.047619,729.047619,black,experiment,legacy,legacy,legacy,0,uniform,1,undefined,1,right,62,62,0,0,62,62,0,0,62,62,62,62,0,62,0,Sat Oct 26 21:08:59 2019,The main experiment item,yes,Sternbergtask.osexp,/Users/Linzi/Desktop,no,mono,no,18,no,white,no,yes,768,legacy,50,11,/Users/Linzi/Desktop/LM-subject-2M26.csv,legacy,8 2 1 4 5 9,Kafkaesque Koffka,3.2.8,0,n,0,right,space,space,right,NA,758,52940,11776,758,NA,2,legacy,6,1024,2,48000,-16,experiment,2,even,7,467478,463920,5441,147990,465226,280617,5477,136210,469504,470267,465200,466252,58436,469504,NA,Sternberg task,61,45930,63,yes,1024
96.875,96.875,726.90625,726.90625,black,experiment,legacy,legacy,legacy,0,uniform,1,undefined,1,right,63,63,0,0,63,63,0,0,63,63,63,63,0,63,0,Sat Oct 26 21:08:59 2019,The main experiment item,yes,Sternbergtask.osexp,/Users/Linzi/Desktop,no,mono,no,18,no,white,no,yes,768,legacy,51,11,/Users/Linzi/Desktop/LM-subject-2M26.csv,legacy,1 3 2 6 9,Kafkaesque Koffka,3.2.8,0,n,0,right,space,space,right,NA,592,52940,11776,592,NA,2,legacy,5,1024,2,48000,-16,experiment,2,even,5,473858,470297,5441,147990,471605,280617,5477,136210,475885,476482,471580,472632,58436,475885,NA,Sternberg task,62,46522,64,yes,1024
96.92307692,96.92307692,731.3846154,731.3846154,black,experiment,legacy,legacy,legacy,0,uniform,1,undefined,1,right,64,64,0,0,64,64,0,0,64,64,64,64,0,64,0,Sat Oct 26 21:08:59 2019,The main experiment item,yes,Sternbergtask.osexp,/Users/Linzi/Desktop,no,mono,no,18,no,white,no,yes,768,legacy,52,11,/Users/Linzi/Desktop/LM-subject-2M26.csv,legacy,6 9 4 5 2,Kafkaesque Koffka,3.2.8,0,n,0,right,space,space,right,NA,1018,52940,11776,1018,NA,2,legacy,5,1024,2,48000,-16,experiment,2,even,1,480080,476513,5441,147990,477828,280617,5477,136210,482106,483129,477801,478853,58436,482106,NA,Sternberg task,63,47540,65,yes,1024
96.96969697,96.96969697,729.030303,729.030303,black,experiment,legacy,legacy,legacy,0,uniform,1,undefined,1,right,65,65,0,0,65,65,0,0,65,65,65,65,0,65,0,Sat Oct 26 21:08:59 2019,The main experiment item,yes,Sternbergtask.osexp,/Users/Linzi/Desktop,no,mono,no,18,no,white,no,yes,768,legacy,53,11,/Users/Linzi/Desktop/LM-subject-2M26.csv,legacy,4 8 1 2,Kafkaesque Koffka,3.2.8,0,n,0,right,space,space,right,NA,576,52940,11776,576,NA,2,legacy,4,1024,2,48000,-16,experiment,2,even,7,486717,483159,5441,147990,484466,280617,5477,136210,488745,489326,484440,485492,58436,488744,NA,Sternberg task,64,48116,66,yes,1024
97.01492537,97.01492537,728.3283582,728.3283582,black,experiment,legacy,legacy,legacy,0,uniform,1,undefined,1,left,66,66,0,0,66,66,0,0,66,66,66,66,0,66,0,Sat Oct 26 21:08:59 2019,The main experiment item,yes,Sternbergtask.osexp,/Users/Linzi/Desktop,no,mono,no,18,no,white,no,yes,768,legacy,54,11,/Users/Linzi/Desktop/LM-subject-2M26.csv,legacy,7 1 3,Kafkaesque Koffka,3.2.8,2,y,0,left,space,space,left,NA,682,52940,11776,682,NA,2,legacy,3,1024,2,48000,-16,experiment,2,even,1,492921,489357,5441,147990,490669,280617,5477,136210,494947,495635,490643,491695,58436,494947,NA,Sternberg task,65,48798,67,yes,1024
97.05882353,97.05882353,729.5294118,729.5294118,black,experiment,legacy,legacy,legacy,0,uniform,1,undefined,1,right,67,67,0,0,67,67,0,0,67,67,67,67,0,67,0,Sat Oct 26 21:08:59 2019,The main experiment item,yes,Sternbergtask.osexp,/Users/Linzi/Desktop,no,mono,no,18,no,white,no,yes,768,legacy,55,11,/Users/Linzi/Desktop/LM-subject-2M26.csv,legacy,2 3 8 5 6 7,Kafkaesque Koffka,3.2.8,0,n,0,right,space,space,right,NA,810,52940,11776,810,NA,2,legacy,6,1024,2,48000,-16,experiment,2,even,1,499225,495665,5441,147990,496975,280617,5477,136210,501252,502067,496949,498000,58436,501252,NA,Sternberg task,66,49608,68,yes,1024
97.10144928,97.10144928,731.7391304,731.7391304,black,experiment,legacy,legacy,legacy,0,uniform,1,undefined,1,left,68,68,0,0,68,68,0,0,68,68,68,68,0,68,0,Sat Oct 26 21:08:59 2019,The main experiment item,yes,Sternbergtask.osexp,/Users/Linzi/Desktop,no,mono,no,18,no,white,no,yes,768,legacy,56,11,/Users/Linzi/Desktop/LM-subject-2M26.csv,legacy,5 7 8 2 3 8,Kafkaesque Koffka,3.2.8,5,y,0,left,space,space,left,NA,882,52940,11776,882,NA,2,legacy,6,1024,2,48000,-16,experiment,2,even,3,505662,502097,5441,147990,503408,280617,5477,136210,507688,508575,503382,504435,58436,507688,NA,Sternberg task,67,50490,69,yes,1024
97.14285714,97.14285714,739.8,739.8,black,experiment,legacy,legacy,legacy,0,uniform,1,undefined,1,left,69,69,0,0,69,69,0,0,69,69,69,69,0,69,0,Sat Oct 26 21:08:59 2019,The main experiment item,yes,Sternbergtask.osexp,/Users/Linzi/Desktop,no,mono,no,18,no,white,no,yes,768,legacy,57,11,/Users/Linzi/Desktop/LM-subject-2M26.csv,legacy,6 9 7 4 5 1,Kafkaesque Koffka,3.2.8,2,y,0,left,space,space,left,NA,1296,52940,11776,1296,NA,2,legacy,6,1024,2,48000,-16,experiment,2,even,9,512170,508607,5441,147990,509918,280617,5477,136210,514197,515498,509892,510944,58436,514196,NA,Sternberg task,68,51786,70,yes,1024
97.18309859,97.18309859,735.8169014,735.8169014,black,experiment,legacy,legacy,legacy,0,uniform,1,undefined,1,left,70,70,0,0,70,70,0,0,70,70,70,70,0,70,0,Sat Oct 26 21:08:59 2019,The main experiment item,yes,Sternbergtask.osexp,/Users/Linzi/Desktop,no,mono,no,18,no,white,no,yes,768,legacy,58,11,/Users/Linzi/Desktop/LM-subject-2M26.csv,legacy,2 4 8 5 1 3,Kafkaesque Koffka,3.2.8,1,y,0,left,space,space,left,NA,457,52940,11776,457,NA,2,legacy,6,1024,2,48000,-16,experiment,2,even,2,519092,515529,5441,147990,516840,280617,5477,136210,521118,521580,516814,517865,58436,521117,NA,Sternberg task,69,52243,71,yes,1024
97.22222222,97.22222222,733.1388889,733.1388889,black,experiment,legacy,legacy,legacy,0,uniform,1,undefined,1,right,71,71,0,0,71,71,0,0,71,71,71,71,0,71,0,Sat Oct 26 21:08:59 2019,The main experiment item,yes,Sternbergtask.osexp,/Users/Linzi/Desktop,no,mono,no,18,no,white,no,yes,768,legacy,59,11,/Users/Linzi/Desktop/LM-subject-2M26.csv,legacy,8 4 3 5,Kafkaesque Koffka,3.2.8,0,n,0,right,space,space,right,NA,543,52940,11776,543,NA,2,legacy,4,1024,2,48000,-16,experiment,2,even,6,525170,521610,5441,147990,522918,280617,5477,136210,527197,527746,522892,523944,58436,527197,NA,Sternberg task,70,52786,72,yes,1024
97.26027397,97.26027397,734.8493151,734.8493151,black,experiment,legacy,legacy,legacy,0,uniform,1,undefined,1,right,72,72,0,0,72,72,0,0,72,72,72,72,0,72,0,Sat Oct 26 21:08:59 2019,The main experiment item,yes,Sternbergtask.osexp,/Users/Linzi/Desktop,no,mono,no,18,no,white,no,yes,768,legacy,60,11,/Users/Linzi/Desktop/LM-subject-2M26.csv,legacy,7 4 2 8 1 9,Kafkaesque Koffka,3.2.8,0,n,0,right,space,space,right,NA,858,52940,11776,858,NA,2,legacy,6,1024,2,48000,-16,experiment,2,even,5,531335,527776,5441,147990,529085,280617,5477,136210,533361,534224,529059,530110,58436,533361,NA,Sternberg task,71,53644,73,yes,1024
97.2972973,97.2972973,740.1081081,740.1081081,black,experiment,legacy,legacy,legacy,0,uniform,1,undefined,1,left,73,73,0,0,73,73,0,0,73,73,73,73,0,73,0,Sat Oct 26 21:08:59 2019,The main experiment item,yes,Sternbergtask.osexp,/Users/Linzi/Desktop,no,mono,no,18,no,white,no,yes,768,legacy,61,11,/Users/Linzi/Desktop/LM-subject-2M26.csv,legacy,8 5 4 7 3 1,Kafkaesque Koffka,3.2.8,2,y,0,left,space,space,left,NA,1124,52940,11776,1124,NA,2,legacy,6,1024,2,48000,-16,experiment,2,even,5,537825,534256,5441,147990,535574,280617,5477,136210,539852,540981,535548,536599,58436,539851,NA,Sternberg task,72,54768,74,yes,1024
97.33333333,97.33333333,738.64,738.64,black,experiment,legacy,legacy,legacy,0,uniform,1,undefined,1,right,74,74,0,0,74,74,0,0,74,74,74,74,0,74,0,Sat Oct 26 21:08:59 2019,The main experiment item,yes,Sternbergtask.osexp,/Users/Linzi/Desktop,no,mono,no,18,no,white,no,yes,768,legacy,62,11,/Users/Linzi/Desktop/LM-subject-2M26.csv,legacy,8 6 3 4 7,Kafkaesque Koffka,3.2.8,0,n,0,right,space,space,right,NA,630,52940,11776,630,NA,2,legacy,5,1024,2,48000,-16,experiment,2,even,1,544571,541011,5441,147990,542317,280617,5477,136210,546597,547232,542291,543344,58436,546596,NA,Sternberg task,73,55398,75,yes,1024
96.05263158,96.05263158,737.4078947,737.4078947,black,experiment,legacy,legacy,legacy,0,uniform,0,undefined,0,left,75,75,0,0,75,75,0,0,75,75,75,75,0,75,0,Sat Oct 26 21:08:59 2019,The main experiment item,yes,Sternbergtask.osexp,/Users/Linzi/Desktop,no,mono,no,18,no,white,no,yes,768,legacy,63,11,/Users/Linzi/Desktop/LM-subject-2M26.csv,legacy,8 5 3 7 4 6,Kafkaesque Koffka,3.2.8,6,y,0,right,space,space,right,NA,645,52940,11776,645,NA,2,legacy,6,1024,2,48000,-16,experiment,2,even,6,550824,547263,5441,147990,548571,280617,5477,136210,552851,553501,548545,549597,58436,552850,NA,Sternberg task,73,56043,76,yes,1024
96.1038961,96.1038961,736.3636364,736.3636364,black,experiment,legacy,legacy,legacy,0,uniform,1,undefined,1,right,76,76,0,0,76,76,0,0,76,76,76,76,0,76,0,Sat Oct 26 21:08:59 2019,The main experiment item,yes,Sternbergtask.osexp,/Users/Linzi/Desktop,no,mono,no,18,no,white,no,yes,768,legacy,64,11,/Users/Linzi/Desktop/LM-subject-2M26.csv,legacy,1 7 5 2 9,Kafkaesque Koffka,3.2.8,0,n,0,right,space,space,right,NA,657,52940,11776,657,NA,2,legacy,5,1024,2,48000,-16,experiment,2,even,3,557093,547263,5441,147990,554840,553532,5477,136210,559119,559782,554814,555867,58436,559118,NA,Sternberg task,74,56700,77,yes,1024
96.15384615,96.15384615,734.4230769,734.4230769,black,experiment,legacy,legacy,legacy,0,uniform,1,undefined,1,left,77,77,0,0,77,77,0,0,77,77,77,77,0,77,0,Sat Oct 26 21:08:59 2019,The main experiment item,yes,Sternbergtask.osexp,/Users/Linzi/Desktop,no,mono,no,18,no,white,no,yes,768,legacy,65,11,/Users/Linzi/Desktop/LM-subject-2M26.csv,legacy,9 4 2,Kafkaesque Koffka,3.2.8,1,y,0,left,space,space,left,NA,585,52940,11776,585,NA,2,legacy,3,1024,2,48000,-16,experiment,2,even,9,563370,559813,5441,147990,561118,553532,5477,136210,565398,565989,561092,562145,58436,565398,NA,Sternberg task,75,57285,78,yes,1024
96.20253165,96.20253165,731.8607595,731.8607595,black,experiment,legacy,legacy,legacy,0,uniform,1,undefined,1,left,78,78,0,0,78,78,0,0,78,78,78,78,0,78,0,Sat Oct 26 21:08:59 2019,The main experiment item,yes,Sternbergtask.osexp,/Users/Linzi/Desktop,no,mono,no,18,no,white,no,yes,768,legacy,66,11,/Users/Linzi/Desktop/LM-subject-2M26.csv,legacy,6 9 3 1,Kafkaesque Koffka,3.2.8,4,y,0,left,space,space,left,NA,532,52940,11776,532,NA,2,legacy,4,1024,2,48000,-16,experiment,2,even,1,569582,566019,5441,147990,567330,553532,5477,136210,571608,572146,567304,568356,58436,571608,NA,Sternberg task,76,57817,79,yes,1024
96.25,96.25,729.4375,729.4375,black,experiment,legacy,legacy,legacy,0,uniform,1,undefined,1,left,79,79,0,0,79,79,0,0,79,79,79,79,0,79,0,Sat Oct 26 21:08:59 2019,The main experiment item,yes,Sternbergtask.osexp,/Users/Linzi/Desktop,no,mono,no,18,no,white,no,yes,768,legacy,67,11,/Users/Linzi/Desktop/LM-subject-2M26.csv,legacy,6 7 9 3 1 2,Kafkaesque Koffka,3.2.8,1,y,0,left,space,space,left,NA,538,52940,11776,538,NA,2,legacy,6,1024,2,48000,-16,experiment,2,even,6,575740,572177,5441,147990,573488,553532,5477,136210,577767,578311,573462,574515,58436,577767,NA,Sternberg task,77,58355,80,yes,1024
96.2962963,96.2962963,727.3950617,727.3950617,black,experiment,legacy,legacy,legacy,0,uniform,1,undefined,1,right,80,80,0,0,80,80,0,0,80,80,80,80,0,80,0,Sat Oct 26 21:08:59 2019,The main experiment item,yes,Sternbergtask.osexp,/Users/Linzi/Desktop,no,mono,no,18,no,white,no,yes,768,legacy,68,11,/Users/Linzi/Desktop/LM-subject-2M26.csv,legacy,9,Kafkaesque Koffka,3.2.8,0,n,0,right,space,space,right,NA,564,52940,11776,564,NA,2,legacy,1,1024,2,48000,-16,experiment,2,even,6,581901,578342,5441,147990,579648,553532,5477,136210,583928,584498,579622,580675,58436,583927,NA,Sternberg task,78,58919,81,yes,1024
96.34146341,96.34146341,727.195122,727.195122,black,experiment,legacy,legacy,legacy,0,uniform,1,undefined,1,right,81,81,0,0,81,81,0,0,81,81,81,81,0,81,0,Sat Oct 26 21:08:59 2019,The main experiment item,yes,Sternbergtask.osexp,/Users/Linzi/Desktop,no,mono,no,18,no,white,no,yes,768,legacy,69,11,/Users/Linzi/Desktop/LM-subject-2M26.csv,legacy,8 4 3 9,Kafkaesque Koffka,3.2.8,0,n,0,right,space,space,right,NA,711,52940,11776,711,NA,2,legacy,4,1024,2,48000,-16,experiment,2,even,5,588089,584528,5441,147990,585838,553532,5477,136210,590116,590832,585811,586863,58436,590115,NA,Sternberg task,79,59630,82,yes,1024
96.38554217,96.38554217,724.4578313,724.4578313,black,experiment,legacy,legacy,legacy,0,uniform,1,undefined,1,left,82,82,0,0,82,82,0,0,82,82,82,82,0,82,0,Sat Oct 26 21:08:59 2019,The main experiment item,yes,Sternbergtask.osexp,/Users/Linzi/Desktop,no,mono,no,18,no,white,no,yes,768,legacy,70,11,/Users/Linzi/Desktop/LM-subject-2M26.csv,legacy,2 3,Kafkaesque Koffka,3.2.8,1,y,0,left,space,space,left,NA,500,52940,11776,500,NA,2,legacy,2,1024,2,48000,-16,experiment,2,even,2,594420,590863,5441,147990,592168,553532,5477,136210,596448,596954,592142,593193,58436,596447,NA,Sternberg task,80,60130,83,yes,1024
96.42857143,96.42857143,723.3095238,723.3095238,black,experiment,legacy,legacy,legacy,0,uniform,1,undefined,1,left,83,83,0,0,83,83,0,0,83,83,83,83,0,83,0,Sat Oct 26 21:08:59 2019,The main experiment item,yes,Sternbergtask.osexp,/Users/Linzi/Desktop,no,mono,no,18,no,white,no,yes,768,legacy,71,11,/Users/Linzi/Desktop/LM-subject-2M26.csv,legacy,6 2,Kafkaesque Koffka,3.2.8,1,y,0,left,space,space,left,NA,628,52940,11776,628,NA,2,legacy,2,1024,2,48000,-16,experiment,2,even,6,600543,596986,5441,147990,598291,553532,5477,136210,602570,603203,598265,599317,58436,602569,NA,Sternberg task,81,60758,84,yes,1024
96.47058824,96.47058824,722.4352941,722.4352941,black,experiment,legacy,legacy,legacy,0,uniform,1,undefined,1,right,84,84,0,0,84,84,0,0,84,84,84,84,0,84,0,Sat Oct 26 21:08:59 2019,The main experiment item,yes,Sternbergtask.osexp,/Users/Linzi/Desktop,no,mono,no,18,no,white,no,yes,768,legacy,72,11,/Users/Linzi/Desktop/LM-subject-2M26.csv,legacy,9 7 4 5 8,Kafkaesque Koffka,3.2.8,0,n,0,right,space,space,right,NA,649,52940,11776,649,NA,2,legacy,5,1024,2,48000,-16,experiment,2,even,6,606797,603233,5441,147990,604544,553532,5477,136210,608823,609478,604518,605571,58436,608823,NA,Sternberg task,82,61407,85,yes,1024
96.51162791,96.51162791,721.1744186,721.1744186,black,experiment,legacy,legacy,legacy,0,uniform,1,undefined,1,left,85,85,0,0,85,85,0,0,85,85,85,85,0,85,0,Sat Oct 26 21:08:59 2019,The main experiment item,yes,Sternbergtask.osexp,/Users/Linzi/Desktop,no,mono,no,18,no,white,no,yes,768,legacy,73,11,/Users/Linzi/Desktop/LM-subject-2M26.csv,legacy,8,Kafkaesque Koffka,3.2.8,1,y,0,left,space,space,left,NA,614,52940,11776,614,NA,2,legacy,1,1024,2,48000,-16,experiment,2,even,8,613064,609509,5441,147990,610811,553532,5477,136210,615091,615711,610785,611838,58436,615091,NA,Sternberg task,83,62021,86,yes,1024
96.55172414,96.55172414,720.3563218,720.3563218,black,experiment,legacy,legacy,legacy,0,uniform,1,undefined,1,right,86,86,0,0,86,86,0,0,86,86,86,86,0,86,0,Sat Oct 26 21:08:59 2019,The main experiment item,yes,Sternbergtask.osexp,/Users/Linzi/Desktop,no,mono,no,18,no,white,no,yes,768,legacy,74,11,/Users/Linzi/Desktop/LM-subject-2M26.csv,legacy,6 9 7 3 8 2,Kafkaesque Koffka,3.2.8,0,n,0,right,space,space,right,NA,650,52940,11776,650,NA,2,legacy,6,1024,2,48000,-16,experiment,2,even,5,619303,615742,5441,147990,617052,553532,5477,136210,621330,621985,617025,618078,58436,621330,NA,Sternberg task,84,62671,87,yes,1024
96.59090909,96.59090909,719.4090909,719.4090909,black,experiment,legacy,legacy,legacy,0,uniform,1,undefined,1,right,87,87,0,0,87,87,0,0,87,87,87,87,0,87,0,Sat Oct 26 21:08:59 2019,The main experiment item,yes,Sternbergtask.osexp,/Users/Linzi/Desktop,no,mono,no,18,no,white,no,yes,768,legacy,75,11,/Users/Linzi/Desktop/LM-subject-2M26.csv,legacy,6 8 4,Kafkaesque Koffka,3.2.8,0,n,0,right,space,space,right,NA,637,52940,11776,637,NA,2,legacy,3,1024,2,48000,-16,experiment,2,even,1,625575,622015,5441,147990,623323,553532,5477,136210,627603,628246,623297,624349,58436,627603,NA,Sternberg task,85,63308,88,yes,1024
96.62921348,96.62921348,716.6067416,716.6067416,black,experiment,legacy,legacy,legacy,0,uniform,1,undefined,1,left,88,88,0,0,88,88,0,0,88,88,88,88,0,88,0,Sat Oct 26 21:08:59 2019,The main experiment item,yes,Sternbergtask.osexp,/Users/Linzi/Desktop,no,mono,no,18,no,white,no,yes,768,legacy,76,11,/Users/Linzi/Desktop/LM-subject-2M26.csv,legacy,5 2 6,Kafkaesque Koffka,3.2.8,2,y,0,left,space,space,left,NA,470,52940,11776,470,NA,2,legacy,3,1024,2,48000,-16,experiment,2,even,2,631838,628277,5441,147990,629585,553532,5477,136210,633865,634341,629559,630611,58436,633864,NA,Sternberg task,86,63778,89,yes,1024
96.66666667,96.66666667,715.0666667,715.0666667,black,experiment,legacy,legacy,legacy,0,uniform,1,undefined,1,right,89,89,0,0,89,89,0,0,89,89,89,89,0,89,0,Sat Oct 26 21:08:59 2019,The main experiment item,yes,Sternbergtask.osexp,/Users/Linzi/Desktop,no,mono,no,18,no,white,no,yes,768,legacy,77,11,/Users/Linzi/Desktop/LM-subject-2M26.csv,legacy,5 7 3,Kafkaesque Koffka,3.2.8,0,n,0,right,space,space,right,NA,578,52940,11776,578,NA,2,legacy,3,1024,2,48000,-16,experiment,2,even,9,637932,634372,5441,147990,635680,553532,5477,136210,639959,640543,635654,636705,58436,639959,NA,Sternberg task,87,64356,90,yes,1024
96.7032967,96.7032967,714.4835165,714.4835165,black,experiment,legacy,legacy,legacy,0,uniform,1,undefined,1,right,90,90,0,0,90,90,0,0,90,90,90,90,0,90,0,Sat Oct 26 21:08:59 2019,The main experiment item,yes,Sternbergtask.osexp,/Users/Linzi/Desktop,no,mono,no,18,no,white,no,yes,768,legacy,78,11,/Users/Linzi/Desktop/LM-subject-2M26.csv,legacy,5 9 2 3,Kafkaesque Koffka,3.2.8,0,n,0,right,space,space,right,NA,662,52940,11776,662,NA,2,legacy,4,1024,2,48000,-16,experiment,2,even,8,644131,640574,5441,147990,641880,553532,5477,136210,646158,646826,641853,642905,58436,646158,NA,Sternberg task,88,65018,91,yes,1024
96.73913043,96.73913043,712.7391304,712.7391304,black,experiment,legacy,legacy,legacy,0,uniform,1,undefined,1,right,91,91,0,0,91,91,0,0,91,91,91,91,0,91,0,Sat Oct 26 21:08:59 2019,The main experiment item,yes,Sternbergtask.osexp,/Users/Linzi/Desktop,no,mono,no,18,no,white,no,yes,768,legacy,79,11,/Users/Linzi/Desktop/LM-subject-2M26.csv,legacy,7 1 5 6 3,Kafkaesque Koffka,3.2.8,0,n,0,right,space,space,right,NA,554,52940,11776,554,NA,2,legacy,5,1024,2,48000,-16,experiment,2,even,8,650416,646856,5441,147990,648164,553532,5477,136210,652444,653003,648137,649190,58436,652444,NA,Sternberg task,89,65572,92,yes,1024
96.77419355,96.77419355,713.0215054,713.0215054,black,experiment,legacy,legacy,legacy,0,uniform,1,undefined,1,right,92,92,0,0,92,92,0,0,92,92,92,92,0,92,0,Sat Oct 26 21:08:59 2019,The main experiment item,yes,Sternbergtask.osexp,/Users/Linzi/Desktop,no,mono,no,18,no,white,no,yes,768,legacy,80,11,/Users/Linzi/Desktop/LM-subject-2M26.csv,legacy,2 8 6 3 1,Kafkaesque Koffka,3.2.8,0,n,0,right,space,space,right,NA,739,52940,11776,739,NA,2,legacy,5,1024,2,48000,-16,experiment,2,even,7,656593,653034,5441,147990,654341,553532,5477,136210,658620,659365,654315,655367,58436,658620,NA,Sternberg task,90,66311,93,yes,1024
96.80851064,96.80851064,713.9042553,713.9042553,black,experiment,legacy,legacy,legacy,0,uniform,1,undefined,1,left,93,93,0,0,93,93,0,0,93,93,93,93,0,93,0,Sat Oct 26 21:08:59 2019,The main experiment item,yes,Sternbergtask.osexp,/Users/Linzi/Desktop,no,mono,no,18,no,white,no,yes,768,legacy,81,11,/Users/Linzi/Desktop/LM-subject-2M26.csv,legacy,4 6 2 5 1,Kafkaesque Koffka,3.2.8,5,y,0,left,space,space,left,NA,796,52940,11776,796,NA,2,legacy,5,1024,2,48000,-16,experiment,2,even,1,662962,659396,5441,147990,660710,553532,5477,136210,664989,665791,660683,661736,58436,664988,NA,Sternberg task,91,67107,94,yes,1024
96.84210526,96.84210526,712.5894737,712.5894737,black,experiment,legacy,legacy,legacy,0,uniform,1,undefined,1,left,94,94,0,0,94,94,0,0,94,94,94,94,0,94,0,Sat Oct 26 21:08:59 2019,The main experiment item,yes,Sternbergtask.osexp,/Users/Linzi/Desktop,no,mono,no,18,no,white,no,yes,768,legacy,82,11,/Users/Linzi/Desktop/LM-subject-2M26.csv,legacy,3 4,Kafkaesque Koffka,3.2.8,1,y,0,left,space,space,left,NA,589,52940,11776,589,NA,2,legacy,2,1024,2,48000,-16,experiment,2,even,3,669378,665822,5441,147990,667127,553532,5477,136210,671404,671999,667101,668152,58436,671404,NA,Sternberg task,92,67696,95,yes,1024
96.875,96.875,711.9270833,711.9270833,black,experiment,legacy,legacy,legacy,0,uniform,1,undefined,1,left,95,95,0,0,95,95,0,0,95,95,95,95,0,95,0,Sat Oct 26 21:08:59 2019,The main experiment item,yes,Sternbergtask.osexp,/Users/Linzi/Desktop,no,mono,no,18,no,white,no,yes,768,legacy,83,11,/Users/Linzi/Desktop/LM-subject-2M26.csv,legacy,9 1 7 2,Kafkaesque Koffka,3.2.8,2,y,0,left,space,space,left,NA,649,52940,11776,649,NA,2,legacy,4,1024,2,48000,-16,experiment,2,even,1,675589,672028,5441,147990,673337,553532,5477,136210,677616,678271,673310,674363,58436,677615,NA,Sternberg task,93,68345,96,yes,1024
96.90721649,96.90721649,711.4639175,711.4639175,black,experiment,legacy,legacy,legacy,0,uniform,1,undefined,1,left,96,96,0,0,96,96,0,0,96,96,96,96,0,96,0,Sat Oct 26 21:08:59 2019,The main experiment item,yes,Sternbergtask.osexp,/Users/Linzi/Desktop,no,mono,no,18,no,white,no,yes,768,legacy,84,11,/Users/Linzi/Desktop/LM-subject-2M26.csv,legacy,3 5 9 6 2 4,Kafkaesque Koffka,3.2.8,1,y,0,left,space,space,left,NA,667,52940,11776,667,NA,2,legacy,6,1024,2,48000,-16,experiment,2,even,3,681862,678302,5441,147990,679610,553532,5477,136210,683889,684563,679584,680636,58436,683888,NA,Sternberg task,94,69012,97,yes,1024
96.93877551,96.93877551,711.1530612,711.1530612,black,experiment,legacy,legacy,legacy,0,uniform,1,undefined,1,left,97,97,0,0,97,97,0,0,97,97,97,97,0,97,0,Sat Oct 26 21:08:59 2019,The main experiment item,yes,Sternbergtask.osexp,/Users/Linzi/Desktop,no,mono,no,18,no,white,no,yes,768,legacy,85,11,/Users/Linzi/Desktop/LM-subject-2M26.csv,legacy,7,Kafkaesque Koffka,3.2.8,1,y,0,left,space,space,left,NA,681,52940,11776,681,NA,2,legacy,1,1024,2,48000,-16,experiment,2,even,7,688151,684595,5441,147990,685900,553532,5477,136210,690179,690866,685874,686925,58436,690179,NA,Sternberg task,95,69693,98,yes,1024
96.96969697,96.96969697,712.3636364,712.3636364,black,experiment,legacy,legacy,legacy,0,uniform,1,undefined,1,right,98,98,0,0,98,98,0,0,98,98,98,98,0,98,0,Sat Oct 26 21:08:59 2019,The main experiment item,yes,Sternbergtask.osexp,/Users/Linzi/Desktop,no,mono,no,18,no,white,no,yes,768,legacy,86,11,/Users/Linzi/Desktop/LM-subject-2M26.csv,legacy,2 5 1 4,Kafkaesque Koffka,3.2.8,0,n,0,right,space,space,right,NA,831,52940,11776,831,NA,2,legacy,4,1024,2,48000,-16,experiment,2,even,6,694455,690896,5441,147990,692204,553532,5477,136210,696481,697318,692177,693230,58436,696481,NA,Sternberg task,96,70524,99,yes,1024
97,97,719.74,719.74,black,experiment,legacy,legacy,legacy,0,uniform,1,undefined,1,right,99,99,0,0,99,99,0,0,99,99,99,99,0,99,0,Sat Oct 26 21:08:59 2019,The main experiment item,yes,Sternbergtask.osexp,/Users/Linzi/Desktop,no,mono,no,18,no,white,no,yes,768,legacy,87,11,/Users/Linzi/Desktop/LM-subject-2M26.csv,legacy,1 4 9 2 5,Kafkaesque Koffka,3.2.8,0,n,0,right,space,space,right,NA,1450,52940,11776,1450,NA,2,legacy,5,1024,2,48000,-16,experiment,2,even,7,700912,697349,5441,147990,698662,553532,5477,136210,702939,704399,698635,699687,58436,702939,NA,Sternberg task,97,71974,100,yes,1024
97.02970297,97.02970297,726.6732673,726.6732673,black,experiment,legacy,legacy,legacy,0,uniform,1,undefined,1,left,100,100,0,0,100,100,0,0,100,100,100,100,0,100,0,Sat Oct 26 21:08:59 2019,The main experiment item,yes,Sternbergtask.osexp,/Users/Linzi/Desktop,no,mono,no,18,no,white,no,yes,768,legacy,88,11,/Users/Linzi/Desktop/LM-subject-2M26.csv,legacy,6 8 9 3 4 9,Kafkaesque Koffka,3.2.8,5,y,0,left,space,space,left,NA,1420,52940,11776,1420,NA,2,legacy,6,1024,2,48000,-16,experiment,2,even,4,708030,704435,5441,147990,705778,553532,5477,136210,710058,711485,705751,706805,58436,710057,NA,Sternberg task,98,73394,101,yes,1024
97.05882353,97.05882353,724.3235294,724.3235294,black,experiment,legacy,legacy,legacy,0,uniform,1,undefined,1,left,101,101,0,0,101,101,0,0,101,101,101,101,0,101,0,Sat Oct 26 21:08:59 2019,The main experiment item,yes,Sternbergtask.osexp,/Users/Linzi/Desktop,no,mono,no,18,no,white,no,yes,768,legacy,89,11,/Users/Linzi/Desktop/LM-subject-2M26.csv,legacy,4,Kafkaesque Koffka,3.2.8,1,y,0,left,space,space,left,NA,487,52940,11776,487,NA,2,legacy,1,1024,2,48000,-16,experiment,2,even,4,715078,711516,5441,147990,712824,553532,5477,136210,717104,717597,712798,713852,58436,717103,NA,Sternberg task,99,73881,102,yes,1024
97.08737864,97.08737864,728.1553398,728.1553398,black,experiment,legacy,legacy,legacy,0,uniform,1,undefined,1,right,102,102,0,0,102,102,0,0,102,102,102,102,0,102,0,Sat Oct 26 21:08:59 2019,The main experiment item,yes,Sternbergtask.osexp,/Users/Linzi/Desktop,no,mono,no,18,no,white,no,yes,768,legacy,90,11,/Users/Linzi/Desktop/LM-subject-2M26.csv,legacy,6 3 1 7 9 8,Kafkaesque Koffka,3.2.8,0,n,0,right,space,space,right,NA,1119,52940,11776,1119,NA,2,legacy,6,1024,2,48000,-16,experiment,2,even,4,721192,717627,5441,147990,718940,553532,5477,136210,723219,724345,718914,719966,58436,723218,NA,Sternberg task,100,75000,103,yes,1024
97.11538462,97.11538462,728.4807692,728.4807692,black,experiment,legacy,legacy,legacy,0,uniform,1,undefined,1,left,103,103,0,0,103,103,0,0,103,103,103,103,0,103,0,Sat Oct 26 21:08:59 2019,The main experiment item,yes,Sternbergtask.osexp,/Users/Linzi/Desktop,no,mono,no,18,no,white,no,yes,768,legacy,91,11,/Users/Linzi/Desktop/LM-subject-2M26.csv,legacy,6 7 8 5,Kafkaesque Koffka,3.2.8,3,y,0,left,space,space,left,NA,762,52940,11776,762,NA,2,legacy,4,1024,2,48000,-16,experiment,2,even,8,727933,724375,5441,147990,725682,553532,5477,136210,729960,730729,725656,726708,58436,729959,NA,Sternberg task,101,75762,104,yes,1024
97.14285714,97.14285714,729.3904762,729.3904762,black,experiment,legacy,legacy,legacy,0,uniform,1,undefined,1,right,104,104,0,0,104,104,0,0,104,104,104,104,0,104,0,Sat Oct 26 21:08:59 2019,The main experiment item,yes,Sternbergtask.osexp,/Users/Linzi/Desktop,no,mono,no,18,no,white,no,yes,768,legacy,92,11,/Users/Linzi/Desktop/LM-subject-2M26.csv,legacy,4 2 7 6 1 3,Kafkaesque Koffka,3.2.8,0,n,0,right,space,space,right,NA,824,52940,11776,824,NA,2,legacy,6,1024,2,48000,-16,experiment,2,even,8,734322,730760,5441,147990,732069,553532,5477,136210,736349,737180,732043,733096,58436,736349,NA,Sternberg task,102,76586,105,yes,1024
97.16981132,97.16981132,728.3773585,728.3773585,black,experiment,legacy,legacy,legacy,0,uniform,1,undefined,1,left,105,105,0,0,105,105,0,0,105,105,105,105,0,105,0,Sat Oct 26 21:08:59 2019,The main experiment item,yes,Sternbergtask.osexp,/Users/Linzi/Desktop,no,mono,no,18,no,white,no,yes,768,legacy,93,11,/Users/Linzi/Desktop/LM-subject-2M26.csv,legacy,2 4 6 9,Kafkaesque Koffka,3.2.8,3,y,0,left,space,space,left,NA,622,52940,11776,622,NA,2,legacy,4,1024,2,48000,-16,experiment,2,even,6,740771,737211,5441,147990,738519,553532,5477,136210,742797,743425,738493,739545,58436,742797,NA,Sternberg task,103,77208,106,yes,1024
97.19626168,97.19626168,726.588785,726.588785,black,experiment,legacy,legacy,legacy,0,uniform,1,undefined,1,left,106,106,0,0,106,106,0,0,106,106,106,106,0,106,0,Sat Oct 26 21:08:59 2019,The main experiment item,yes,Sternbergtask.osexp,/Users/Linzi/Desktop,no,mono,no,18,no,white,no,yes,768,legacy,94,11,/Users/Linzi/Desktop/LM-subject-2M26.csv,legacy,7 8 6 3 1,Kafkaesque Koffka,3.2.8,5,y,0,left,space,space,left,NA,537,52940,11776,537,NA,2,legacy,5,1024,2,48000,-16,experiment,2,even,1,747018,743458,5441,147990,744767,553532,5477,136210,749045,749588,744741,745792,58436,749044,NA,Sternberg task,104,77745,107,yes,1024
96.2962963,96.2962963,725.9166667,725.9166667,black,experiment,legacy,legacy,legacy,0,uniform,0,undefined,0,left,107,107,0,0,107,107,0,0,107,107,107,107,0,107,0,Sat Oct 26 21:08:59 2019,The main experiment item,yes,Sternbergtask.osexp,/Users/Linzi/Desktop,no,mono,no,18,no,white,no,yes,768,legacy,95,11,/Users/Linzi/Desktop/LM-subject-2M26.csv,legacy,9 5 8 1,Kafkaesque Koffka,3.2.8,2,y,0,right,space,space,right,NA,654,52940,11776,654,NA,2,legacy,4,1024,2,48000,-16,experiment,2,even,5,753179,749619,5441,147990,750926,553532,5477,136210,755206,755867,750900,751953,58436,755205,NA,Sternberg task,104,78399,108,yes,1024
96.33027523,96.33027523,725.8073395,725.8073395,black,experiment,legacy,legacy,legacy,0,uniform,1,undefined,1,right,108,108,0,0,108,108,0,0,108,108,108,108,0,108,0,Sat Oct 26 21:08:59 2019,The main experiment item,yes,Sternbergtask.osexp,/Users/Linzi/Desktop,no,mono,no,18,no,white,no,yes,768,legacy,96,11,/Users/Linzi/Desktop/LM-subject-2M26.csv,legacy,3 9 1,Kafkaesque Koffka,3.2.8,0,n,0,right,space,space,right,NA,714,52940,11776,714,NA,2,legacy,3,1024,2,48000,-16,experiment,2,even,7,759455,749619,5441,147990,757202,755897,5477,136210,761482,762203,757175,758228,58436,761482,NA,Sternberg task,105,79113,109,yes,1024
96.36363636,96.36363636,725.9181818,725.9181818,black,experiment,legacy,legacy,legacy,0,uniform,1,undefined,1,left,109,109,0,0,109,109,0,0,109,109,109,109,0,109,0,Sat Oct 26 21:08:59 2019,The main experiment item,yes,Sternbergtask.osexp,/Users/Linzi/Desktop,no,mono,no,18,no,white,no,yes,768,legacy,97,11,/Users/Linzi/Desktop/LM-subject-2M26.csv,legacy,8 3,Kafkaesque Koffka,3.2.8,2,y,0,left,space,space,left,NA,738,52940,11776,738,NA,2,legacy,2,1024,2,48000,-16,experiment,2,even,3,765792,762234,5441,147990,763541,755897,5477,136210,767819,768564,763515,764567,58436,767819,NA,Sternberg task,106,79851,110,yes,1024
96.3963964,96.3963964,725.018018,725.018018,black,experiment,legacy,legacy,legacy,0,uniform,1,undefined,1,right,110,110,0,0,110,110,0,0,110,110,110,110,0,110,0,Sat Oct 26 21:08:59 2019,The main experiment item,yes,Sternbergtask.osexp,/Users/Linzi/Desktop,no,mono,no,18,no,white,no,yes,768,legacy,98,11,/Users/Linzi/Desktop/LM-subject-2M26.csv,legacy,7 1 8 4 9 3,Kafkaesque Koffka,3.2.8,0,n,0,right,space,space,right,NA,626,52940,11776,626,NA,2,legacy,6,1024,2,48000,-16,experiment,2,even,6,772154,768595,5441,147990,769903,755897,5477,136210,774182,774815,769877,770929,58436,774182,NA,Sternberg task,107,80477,111,yes,1024
96.42857143,96.42857143,724.6607143,724.6607143,black,experiment,legacy,legacy,legacy,0,uniform,1,undefined,1,left,111,111,0,0,111,111,0,0,111,111,111,111,0,111,0,Sat Oct 26 21:08:59 2019,The main experiment item,yes,Sternbergtask.osexp,/Users/Linzi/Desktop,no,mono,no,18,no,white,no,yes,768,legacy,99,11,/Users/Linzi/Desktop/LM-subject-2M26.csv,legacy,4 7 6 8 2 3,Kafkaesque Koffka,3.2.8,6,y,0,left,space,space,left,NA,685,52940,11776,685,NA,2,legacy,6,1024,2,48000,-16,experiment,2,even,3,778406,774847,5441,147990,776154,755897,5477,136210,780435,781127,776128,777180,58436,780434,NA,Sternberg task,108,81162,112,yes,1024
96.46017699,96.46017699,723.0973451,723.0973451,black,experiment,legacy,legacy,legacy,0,uniform,1,undefined,1,left,112,112,0,0,112,112,0,0,112,112,112,112,0,112,0,Sat Oct 26 21:08:59 2019,The main experiment item,yes,Sternbergtask.osexp,/Users/Linzi/Desktop,no,mono,no,18,no,white,no,yes,768,legacy,100,11,/Users/Linzi/Desktop/LM-subject-2M26.csv,legacy,3 9 7 6 4,Kafkaesque Koffka,3.2.8,3,y,0,left,space,space,left,NA,548,52940,11776,548,NA,2,legacy,5,1024,2,48000,-16,experiment,2,even,7,784721,781157,5441,147990,782468,755897,5477,136210,786748,787302,782442,783494,58436,786747,NA,Sternberg task,109,81710,113,yes,1024
96.49122807,96.49122807,721.877193,721.877193,black,experiment,legacy,legacy,legacy,0,uniform,1,undefined,1,right,113,113,0,0,113,113,0,0,113,113,113,113,0,113,0,Sat Oct 26 21:08:59 2019,The main experiment item,yes,Sternbergtask.osexp,/Users/Linzi/Desktop,no,mono,no,18,no,white,no,yes,768,legacy,101,11,/Users/Linzi/Desktop/LM-subject-2M26.csv,legacy,3 4 9 6 7 8,Kafkaesque Koffka,3.2.8,0,n,0,right,space,space,right,NA,584,52940,11776,584,NA,2,legacy,6,1024,2,48000,-16,experiment,2,even,2,790895,787333,5441,147990,788643,755897,5477,136210,792921,793511,788617,789668,58436,792921,NA,Sternberg task,110,82294,114,yes,1024
96.52173913,96.52173913,723.2956522,723.2956522,black,experiment,legacy,legacy,legacy,0,uniform,1,undefined,1,left,114,114,0,0,114,114,0,0,114,114,114,114,0,114,0,Sat Oct 26 21:08:59 2019,The main experiment item,yes,Sternbergtask.osexp,/Users/Linzi/Desktop,no,mono,no,18,no,white,no,yes,768,legacy,102,11,/Users/Linzi/Desktop/LM-subject-2M26.csv,legacy,5 2 9 6 1 7,Kafkaesque Koffka,3.2.8,3,y,0,left,space,space,left,NA,885,52940,11776,885,NA,2,legacy,6,1024,2,48000,-16,experiment,2,even,9,797104,793542,5441,147990,794853,755897,5477,136210,799131,800022,794827,795878,58436,799131,NA,Sternberg task,111,83179,115,yes,1024
96.55172414,96.55172414,722.5172414,722.5172414,black,experiment,legacy,legacy,legacy,0,uniform,1,undefined,1,left,115,115,0,0,115,115,0,0,115,115,115,115,0,115,0,Sat Oct 26 21:08:59 2019,The main experiment item,yes,Sternbergtask.osexp,/Users/Linzi/Desktop,no,mono,no,18,no,white,no,yes,768,legacy,103,11,/Users/Linzi/Desktop/LM-subject-2M26.csv,legacy,4 1 5,Kafkaesque Koffka,3.2.8,2,y,0,left,space,space,left,NA,633,52940,11776,633,NA,2,legacy,3,1024,2,48000,-16,experiment,2,even,1,803612,800053,5441,147990,801360,755897,5477,136210,805638,806278,801334,802386,58436,805637,NA,Sternberg task,112,83812,116,yes,1024
96.58119658,96.58119658,721.5897436,721.5897436,black,experiment,legacy,legacy,legacy,0,uniform,1,undefined,1,left,116,116,0,0,116,116,0,0,116,116,116,116,0,116,0,Sat Oct 26 21:08:59 2019,The main experiment item,yes,Sternbergtask.osexp,/Users/Linzi/Desktop,no,mono,no,18,no,white,no,yes,768,legacy,104,11,/Users/Linzi/Desktop/LM-subject-2M26.csv,legacy,6 5,Kafkaesque Koffka,3.2.8,2,y,0,left,space,space,left,NA,614,52940,11776,614,NA,2,legacy,2,1024,2,48000,-16,experiment,2,even,5,809873,806310,5441,147990,807621,755897,5477,136210,811900,812521,807594,808647,58436,811900,NA,Sternberg task,113,84426,117,yes,1024
96.61016949,96.61016949,721.3983051,721.3983051,black,experiment,legacy,legacy,legacy,0,uniform,1,undefined,1,right,117,117,0,0,117,117,0,0,117,117,117,117,0,117,0,Sat Oct 26 21:08:59 2019,The main experiment item,yes,Sternbergtask.osexp,/Users/Linzi/Desktop,no,mono,no,18,no,white,no,yes,768,legacy,105,11,/Users/Linzi/Desktop/LM-subject-2M26.csv,legacy,8 5 7 3 6,Kafkaesque Koffka,3.2.8,0,n,0,right,space,space,right,NA,699,52940,11776,699,NA,2,legacy,5,1024,2,48000,-16,experiment,2,even,9,816115,812552,5441,147990,813863,755897,5477,136210,818142,818848,813837,814890,58436,818141,NA,Sternberg task,114,85125,118,yes,1024
96.63865546,96.63865546,721.5462185,721.5462185,black,experiment,legacy,legacy,legacy,0,uniform,1,undefined,1,left,118,118,0,0,118,118,0,0,118,118,118,118,0,118,0,Sat Oct 26 21:08:59 2019,The main experiment item,yes,Sternbergtask.osexp,/Users/Linzi/Desktop,no,mono,no,18,no,white,no,yes,768,legacy,106,11,/Users/Linzi/Desktop/LM-subject-2M26.csv,legacy,9 3 8 2 1 4,Kafkaesque Koffka,3.2.8,3,y,0,left,space,space,left,NA,739,52940,11776,739,NA,2,legacy,6,1024,2,48000,-16,experiment,2,even,8,822437,818879,5441,147990,820184,755897,5477,136210,824464,825210,820158,821211,58436,824464,NA,Sternberg task,115,85864,119,yes,1024
96.66666667,96.66666667,721.6,721.6,black,experiment,legacy,legacy,legacy,0,uniform,1,undefined,1,right,119,119,0,0,119,119,0,0,119,119,119,119,0,119,0,Sat Oct 26 21:08:59 2019,The main experiment item,yes,Sternbergtask.osexp,/Users/Linzi/Desktop,no,mono,no,18,no,white,no,yes,768,legacy,107,11,/Users/Linzi/Desktop/LM-subject-2M26.csv,legacy,8 9,Kafkaesque Koffka,3.2.8,0,n,0,right,space,space,right,NA,728,52940,11776,728,NA,2,legacy,2,1024,2,48000,-16,experiment,2,even,5,828799,825241,5441,147990,826547,755897,5477,136210,830825,831560,826520,827573,58436,830825,NA,Sternberg task,116,86592,120,yes,1024
96.69421488,96.69421488,723.3636364,723.3636364,black,experiment,legacy,legacy,legacy,0,uniform,1,undefined,1,right,120,120,0,0,120,120,0,0,120,120,120,120,0,120,0,Sat Oct 26 21:08:59 2019,The main experiment item,yes,Sternbergtask.osexp,/Users/Linzi/Desktop,no,mono,no,18,no,white,no,yes,768,legacy,108,11,/Users/Linzi/Desktop/LM-subject-2M26.csv,legacy,6 9 5,Kafkaesque Koffka,3.2.8,0,n,0,right,space,space,right,NA,935,52940,11776,935,NA,2,legacy,3,1024,2,48000,-16,experiment,2,even,8,835153,831591,5441,147990,832900,755897,5477,136210,837180,838122,832873,833927,58436,837179,NA,Sternberg task,117,87527,121,yes,1024
96.72131148,96.72131148,723.1229508,723.1229508,black,experiment,legacy,legacy,legacy,0,uniform,1,undefined,1,right,121,121,0,0,121,121,0,0,121,121,121,121,0,121,0,Sat Oct 26 21:08:59 2019,The main experiment item,yes,Sternbergtask.osexp,/Users/Linzi/Desktop,no,mono,no,18,no,white,no,yes,768,legacy,109,11,/Users/Linzi/Desktop/LM-subject-2M26.csv,legacy,5 3 2 6 9 8,Kafkaesque Koffka,3.2.8,0,n,0,right,space,space,right,NA,694,52940,11776,694,NA,2,legacy,6,1024,2,48000,-16,experiment,2,even,4,841717,838154,5441,147990,839465,755897,5477,136210,843743,844444,839438,840490,58436,843742,NA,Sternberg task,118,88221,122,yes,1024
96.74796748,96.74796748,722.3252033,722.3252033,black,experiment,legacy,legacy,legacy,0,uniform,1,undefined,1,left,122,122,0,0,122,122,0,0,122,122,122,122,0,122,0,Sat Oct 26 21:08:59 2019,The main experiment item,yes,Sternbergtask.osexp,/Users/Linzi/Desktop,no,mono,no,18,no,white,no,yes,768,legacy,110,11,/Users/Linzi/Desktop/LM-subject-2M26.csv,legacy,8 9 6 1,Kafkaesque Koffka,3.2.8,2,y,0,left,space,space,left,NA,625,52940,11776,625,NA,2,legacy,4,1024,2,48000,-16,experiment,2,even,9,848034,844474,5441,147990,845783,755897,5477,136210,850062,850694,845756,846809,58436,850061,NA,Sternberg task,119,88846,123,yes,1024
96.77419355,96.77419355,723.7580645,723.7580645,black,experiment,legacy,legacy,legacy,0,uniform,1,undefined,1,right,123,123,0,0,123,123,0,0,123,123,123,123,0,123,0,Sat Oct 26 21:08:59 2019,The main experiment item,yes,Sternbergtask.osexp,/Users/Linzi/Desktop,no,mono,no,18,no,white,no,yes,768,legacy,111,11,/Users/Linzi/Desktop/LM-subject-2M26.csv,legacy,6 2 9 3 8 4,Kafkaesque Koffka,3.2.8,0,n,0,right,space,space,right,NA,900,52940,11776,900,NA,2,legacy,6,1024,2,48000,-16,experiment,2,even,1,854286,850724,5441,147990,852034,755897,5477,136210,856312,857219,852007,853060,58436,856311,NA,Sternberg task,120,89746,124,yes,1024
96.8,96.8,723.952,723.952,black,experiment,legacy,legacy,legacy,0,uniform,1,undefined,1,right,124,124,0,0,124,124,0,0,124,124,124,124,0,124,0,Sat Oct 26 21:08:59 2019,The main experiment item,yes,Sternbergtask.osexp,/Users/Linzi/Desktop,no,mono,no,18,no,white,no,yes,768,legacy,112,11,/Users/Linzi/Desktop/LM-subject-2M26.csv,legacy,1 7 5 2,Kafkaesque Koffka,3.2.8,0,n,0,right,space,space,right,NA,748,52940,11776,748,NA,2,legacy,4,1024,2,48000,-16,experiment,2,even,3,860810,857249,5441,147990,858558,755897,5477,136210,862837,863593,858531,859584,58436,862837,NA,Sternberg task,121,90494,125,yes,1024
96.82539683,96.82539683,728.9761905,728.9761905,black,experiment,legacy,legacy,legacy,0,uniform,1,undefined,1,right,125,125,0,0,125,125,0,0,125,125,125,125,0,125,0,Sat Oct 26 21:08:59 2019,The main experiment item,yes,Sternbergtask.osexp,/Users/Linzi/Desktop,no,mono,no,18,no,white,no,yes,768,legacy,113,11,/Users/Linzi/Desktop/LM-subject-2M26.csv,legacy,1 8 7,Kafkaesque Koffka,3.2.8,0,n,0,right,space,space,right,NA,1357,52940,11776,1357,NA,2,legacy,3,1024,2,48000,-16,experiment,2,even,4,867184,863624,5441,147990,864932,755897,5477,136210,869210,870574,864906,865958,58436,869210,NA,Sternberg task,122,91851,126,yes,1024
96.8503937,96.8503937,728.8267717,728.8267717,black,experiment,legacy,legacy,legacy,0,uniform,1,undefined,1,left,126,126,0,0,126,126,0,0,126,126,126,126,0,126,0,Sat Oct 26 21:08:59 2019,The main experiment item,yes,Sternbergtask.osexp,/Users/Linzi/Desktop,no,mono,no,18,no,white,no,yes,768,legacy,114,11,/Users/Linzi/Desktop/LM-subject-2M26.csv,legacy,8 9 5 6 7,Kafkaesque Koffka,3.2.8,1,y,0,left,space,space,left,NA,710,52940,11776,710,NA,2,legacy,5,1024,2,48000,-16,experiment,2,even,8,874168,870605,5441,147990,871916,755897,5477,136210,876195,876913,871889,872942,58436,876195,NA,Sternberg task,123,92561,127,yes,1024
96.09375,96.09375,726.78125,726.78125,black,experiment,legacy,legacy,legacy,0,uniform,0,undefined,0,left,127,127,0,0,127,127,0,0,127,127,127,127,0,127,0,Sat Oct 26 21:08:59 2019,The main experiment item,yes,Sternbergtask.osexp,/Users/Linzi/Desktop,no,mono,no,18,no,white,no,yes,768,legacy,115,11,/Users/Linzi/Desktop/LM-subject-2M26.csv,legacy,7 2 3,Kafkaesque Koffka,3.2.8,3,y,0,right,space,space,right,NA,467,52940,11776,467,NA,2,legacy,3,1024,2,48000,-16,experiment,2,even,3,880502,876944,5441,147990,878251,755897,5477,136210,882530,883004,878224,879276,58436,882529,NA,Sternberg task,123,93028,128,yes,1024
96.12403101,96.12403101,724.9379845,724.9379845,black,experiment,legacy,legacy,legacy,0,uniform,1,undefined,1,left,128,128,0,0,128,128,0,0,128,128,128,128,0,128,0,Sat Oct 26 21:08:59 2019,The main experiment item,yes,Sternbergtask.osexp,/Users/Linzi/Desktop,no,mono,no,18,no,white,no,yes,768,legacy,116,11,/Users/Linzi/Desktop/LM-subject-2M26.csv,legacy,2 3 7 4,Kafkaesque Koffka,3.2.8,1,y,0,left,space,space,left,NA,489,52940,11776,489,NA,2,legacy,4,1024,2,48000,-16,experiment,2,even,2,886601,876944,5441,147990,884347,883034,5477,136210,888628,889124,884321,885374,58436,888628,NA,Sternberg task,124,93517,129,yes,1024
96.15384615,96.15384615,725.0230769,725.0230769,black,experiment,legacy,legacy,legacy,0,uniform,1,undefined,1,right,129,129,0,0,129,129,0,0,129,129,129,129,0,129,0,Sat Oct 26 21:08:59 2019,The main experiment item,yes,Sternbergtask.osexp,/Users/Linzi/Desktop,no,mono,no,18,no,white,no,yes,768,legacy,117,11,/Users/Linzi/Desktop/LM-subject-2M26.csv,legacy,3 9 8 1 6 4,Kafkaesque Koffka,3.2.8,0,n,0,right,space,space,right,NA,736,52940,11776,736,NA,2,legacy,6,1024,2,48000,-16,experiment,2,even,7,892718,889155,5441,147990,890466,883034,5477,136210,894744,895487,890438,891491,58436,894744,NA,Sternberg task,125,94253,130,yes,1024
96.18320611,96.18320611,726.1068702,726.1068702,black,experiment,legacy,legacy,legacy,0,uniform,1,undefined,1,left,130,130,0,0,130,130,0,0,130,130,130,130,0,130,0,Sat Oct 26 21:08:59 2019,The main experiment item,yes,Sternbergtask.osexp,/Users/Linzi/Desktop,no,mono,no,18,no,white,no,yes,768,legacy,118,11,/Users/Linzi/Desktop/LM-subject-2M26.csv,legacy,7 8 4 6 9 5,Kafkaesque Koffka,3.2.8,4,y,0,left,space,space,left,NA,867,52940,11776,867,NA,2,legacy,6,1024,2,48000,-16,experiment,2,even,6,899081,895519,5441,147990,896829,883034,5477,136210,901108,901983,896802,897855,58436,901107,NA,Sternberg task,126,95120,131,yes,1024
96.21212121,96.21212121,725.4924242,725.4924242,black,experiment,legacy,legacy,legacy,0,uniform,1,undefined,1,left,131,131,0,0,131,131,0,0,131,131,131,131,0,131,0,Sat Oct 26 21:08:59 2019,The main experiment item,yes,Sternbergtask.osexp,/Users/Linzi/Desktop,no,mono,no,18,no,white,no,yes,768,legacy,119,11,/Users/Linzi/Desktop/LM-subject-2M26.csv,legacy,8 1 6,Kafkaesque Koffka,3.2.8,3,y,0,left,space,space,left,NA,645,52940,11776,645,NA,2,legacy,3,1024,2,48000,-16,experiment,2,even,6,905573,902012,5441,147990,903320,883034,5477,136210,907599,908251,903294,904345,58436,907598,NA,Sternberg task,127,95765,132,yes,1024
96.2406015,96.2406015,725.8195489,725.8195489,black,experiment,legacy,legacy,legacy,0,uniform,1,undefined,1,left,132,132,0,0,132,132,0,0,132,132,132,132,0,132,0,Sat Oct 26 21:08:59 2019,The main experiment item,yes,Sternbergtask.osexp,/Users/Linzi/Desktop,no,mono,no,18,no,white,no,yes,768,legacy,120,11,/Users/Linzi/Desktop/LM-subject-2M26.csv,legacy,9 3 1 2 5,Kafkaesque Koffka,3.2.8,4,y,0,left,space,space,left,NA,769,52940,11776,769,NA,2,legacy,5,1024,2,48000,-16,experiment,2,even,2,911845,908282,5441,147990,909594,883034,5477,136210,913873,914649,909568,910620,58436,913872,NA,Sternberg task,128,96534,133,yes,1024
96.26865672,96.26865672,724.9850746,724.9850746,black,experiment,legacy,legacy,legacy,0,uniform,1,undefined,1,left,133,133,0,0,133,133,0,0,133,133,133,133,0,133,0,Sat Oct 26 21:08:59 2019,The main experiment item,yes,Sternbergtask.osexp,/Users/Linzi/Desktop,no,mono,no,18,no,white,no,yes,768,legacy,121,11,/Users/Linzi/Desktop/LM-subject-2M26.csv,legacy,4 3 2 5 8,Kafkaesque Koffka,3.2.8,2,y,0,left,space,space,left,NA,614,52940,11776,614,NA,2,legacy,5,1024,2,48000,-16,experiment,2,even,3,918241,914680,5441,147990,915990,883034,5477,136210,920268,920890,915965,917015,58436,920267,NA,Sternberg task,129,97148,134,yes,1024
96.2962963,96.2962963,724.9555556,724.9555556,black,experiment,legacy,legacy,legacy,0,uniform,1,undefined,1,right,134,134,0,0,134,134,0,0,134,134,134,134,0,134,0,Sat Oct 26 21:08:59 2019,The main experiment item,yes,Sternbergtask.osexp,/Users/Linzi/Desktop,no,mono,no,18,no,white,no,yes,768,legacy,122,11,/Users/Linzi/Desktop/LM-subject-2M26.csv,legacy,1 4 3 6 5,Kafkaesque Koffka,3.2.8,0,n,0,right,space,space,right,NA,721,52940,11776,721,NA,2,legacy,5,1024,2,48000,-16,experiment,2,even,8,924479,920921,5441,147990,922227,883034,5477,136210,926506,927234,922200,923253,58436,926506,NA,Sternberg task,130,97869,135,yes,1024
96.32352941,96.32352941,724.5588235,724.5588235,black,experiment,legacy,legacy,legacy,0,uniform,1,undefined,1,right,135,135,0,0,135,135,0,0,135,135,135,135,0,135,0,Sat Oct 26 21:08:59 2019,The main experiment item,yes,Sternbergtask.osexp,/Users/Linzi/Desktop,no,mono,no,18,no,white,no,yes,768,legacy,123,11,/Users/Linzi/Desktop/LM-subject-2M26.csv,legacy,7 9,Kafkaesque Koffka,3.2.8,0,n,0,right,space,space,right,NA,671,52940,11776,671,NA,2,legacy,2,1024,2,48000,-16,experiment,2,even,1,930824,927265,5441,147990,928572,883034,5477,136210,932851,933529,928546,929598,58436,932850,NA,Sternberg task,131,98540,136,yes,1024
95.62043796,95.62043796,721.1751825,721.1751825,black,experiment,legacy,legacy,legacy,0,uniform,0,undefined,0,right,136,136,0,0,136,136,0,0,136,136,136,136,0,136,0,Sat Oct 26 21:08:59 2019,The main experiment item,yes,Sternbergtask.osexp,/Users/Linzi/Desktop,no,mono,no,18,no,white,no,yes,768,legacy,124,11,/Users/Linzi/Desktop/LM-subject-2M26.csv,legacy,1,Kafkaesque Koffka,3.2.8,0,n,0,left,space,space,left,NA,261,52940,11776,261,NA,2,legacy,1,1024,2,48000,-16,experiment,2,even,7,937115,933559,5441,147990,934865,883034,5477,136210,939142,939411,934839,935890,58436,939142,NA,Sternberg task,131,98801,137,yes,1024
95.65217391,95.65217391,720.2536232,720.2536232,black,experiment,legacy,legacy,legacy,0,uniform,1,undefined,1,right,137,137,0,0,137,137,0,0,137,137,137,137,0,137,0,Sat Oct 26 21:08:59 2019,The main experiment item,yes,Sternbergtask.osexp,/Users/Linzi/Desktop,no,mono,no,18,no,white,no,yes,768,legacy,125,11,/Users/Linzi/Desktop/LM-subject-2M26.csv,legacy,7 1,Kafkaesque Koffka,3.2.8,0,n,0,right,space,space,right,NA,594,52940,11776,594,NA,2,legacy,2,1024,2,48000,-16,experiment,2,even,8,943004,933559,5441,147990,940752,939442,5477,136210,945030,945631,940726,941779,58436,945030,NA,Sternberg task,132,99395,138,yes,1024