acc,accuracy,average_response_time,avg_rt,background,block,canvas_backend,clock_backend,color_backend,compensation,coordinates,correct,correct_instruction1,correct_keyboard_response,correct_response,count_ISI,count_PracticeLoop,count_correctFeedback,count_expSequence,count_experiment,count_experimentLoop,count_fixation,count_incorrectFeedback,count_instruction1,count_instructions2,count_keyboard_response,count_logger,count_memorySet,count_probe,count_thankYou,datetime,description,disable_garbage_collection,experiment_file,experiment_path,font_bold,font_family,font_italic,font_size,font_underline,foreground,form_clicks,fullscreen,height,keyboard_backend,live_row,live_row_PracticeLoop,logfile,mouse_backend,numberSet,opensesame_codename,opensesame_version,posInSet,present,repeat_cycle,response,response_instruction1,response_instructions2,response_keyboard_response,response_thankYou,response_time,response_time_instruction1,response_time_instructions2,response_time_keyboard_response,response_time_thankYou,round_decimals,sampler_backend,setSize,sound_buf_size,sound_channels,sound_freq,sound_sample_size,start,subject_nr,subject_parity,target,time_ISI,time_PracticeLoop,time_correctFeedback,time_expSequence,time_experiment,time_experimentLoop,time_fixation,time_incorrectFeedback,time_instruction1,time_instructions2,time_keyboard_response,time_logger,time_memorySet,time_probe,time_thankYou,title,total_correct,total_response_time,total_responses,uniform_coordinates,width
100,100,1472,1472,black,practice,legacy,legacy,legacy,0,uniform,1,undefined,1,left,0,0,0,0,0,0,0,0,0,0,0,0,0,0,0,Fri Oct 25 19:54:30 2019,The main experiment item,yes,SternbergTask.osexp,/Users/cristianbotello/Desktop/Advanced Quant/Lab 3.1,no,mono,no,18,no,white,no,no,768,legacy,0,0,/Users/cristianbotello/Desktop/Advanced Quant/Lab 3.2/CB-subject-4.csv,legacy,4 3 1 7 9 8,Kafkaesque Koffka,3.2.8,1,y,0,left,right,NA,left,NA,1472,30858,NA,1472,NA,2,legacy,6,1024,2,48000,-16,experiment,4,even,4,36954,34562,NA,34717,3632,NA,34729,NA,3686,NA,38968,40441,35741,38968,NA,Sternberg Task,1,1472,1,yes,1024
100,100,1612.5,1612.5,black,practice,legacy,legacy,legacy,0,uniform,1,undefined,1,left,1,0,1,1,0,0,1,1,0,0,1,1,1,1,0,Fri Oct 25 19:54:30 2019,The main experiment item,yes,SternbergTask.osexp,/Users/cristianbotello/Desktop/Advanced Quant/Lab 3.1,no,mono,no,18,no,white,no,no,768,legacy,1,1,/Users/cristianbotello/Desktop/Advanced Quant/Lab 3.2/CB-subject-4.csv,legacy,4 8,Kafkaesque Koffka,3.2.8,1,y,0,left,right,NA,left,NA,1753,30858,NA,1753,NA,2,legacy,2,1024,2,48000,-16,experiment,4,even,4,43968,34562,40584,41725,3632,NA,41736,NA,3686,NA,45981,47735,42751,45981,NA,Sternberg Task,2,3225,2,yes,1024
66.66666667,66.66666667,1741.666667,1741.666667,black,practice,legacy,legacy,legacy,0,uniform,0,undefined,0,right,2,0,2,2,0,0,2,2,0,0,2,2,2,2,0,Fri Oct 25 19:54:30 2019,The main experiment item,yes,SternbergTask.osexp,/Users/cristianbotello/Desktop/Advanced Quant/Lab 3.1,no,mono,no,18,no,white,no,no,768,legacy,2,2,/Users/cristianbotello/Desktop/Advanced Quant/Lab 3.2/CB-subject-4.csv,legacy,5,Kafkaesque Koffka,3.2.8,0,n,0,None,right,NA,None,NA,2000,30858,NA,2000,NA,2,legacy,1,1024,2,48000,-16,experiment,4,even,3,51156,34562,47756,48916,3632,NA,48928,NA,3686,NA,53172,55172,49944,53172,NA,Sternberg Task,2,5225,3,yes,1024
50,50,1806.25,1806.25,black,practice,legacy,legacy,legacy,0,uniform,0,undefined,0,left,3,0,3,3,0,0,3,3,0,0,3,3,3,3,0,Fri Oct 25 19:54:30 2019,The main experiment item,yes,SternbergTask.osexp,/Users/cristianbotello/Desktop/Advanced Quant/Lab 3.1,no,mono,no,18,no,white,no,no,768,legacy,3,3,/Users/cristianbotello/Desktop/Advanced Quant/Lab 3.2/CB-subject-4.csv,legacy,2 9 4,Kafkaesque Koffka,3.2.8,3,y,0,None,right,NA,None,NA,2000,30858,NA,2000,NA,2,legacy,3,1024,2,48000,-16,experiment,4,even,4,58577,34562,47756,56336,3632,NA,56349,55188,3686,NA,60592,62592,57364,60591,NA,Sternberg Task,2,7225,4,yes,1024
40,40,1845,1845,black,practice,legacy,legacy,legacy,0,uniform,0,undefined,0,left,4,0,4,4,0,0,4,4,0,0,4,4,4,4,0,Fri Oct 25 19:54:30 2019,The main experiment item,yes,SternbergTask.osexp,/Users/cristianbotello/Desktop/Advanced Quant/Lab 3.1,no,mono,no,18,no,white,no,no,768,legacy,4,4,/Users/cristianbotello/Desktop/Advanced Quant/Lab 3.2/CB-subject-4.csv,legacy,1 7 9 8 5,Kafkaesque Koffka,3.2.8,4,y,0,None,right,NA,None,NA,2000,30858,NA,2000,NA,2,legacy,5,1024,2,48000,-16,experiment,4,even,8,65997,34562,47756,63758,3632,NA,63770,62611,3686,NA,68010,70010,64786,68010,NA,Sternberg Task,2,9225,5,yes,1024
33.33333333,33.33333333,1870.833333,1870.833333,black,practice,legacy,legacy,legacy,0,uniform,0,undefined,0,left,5,0,5,5,0,0,5,5,0,0,5,5,5,5,0,Fri Oct 25 19:54:30 2019,The main experiment item,yes,SternbergTask.osexp,/Users/cristianbotello/Desktop/Advanced Quant/Lab 3.1,no,mono,no,18,no,white,no,no,768,legacy,5,5,/Users/cristianbotello/Desktop/Advanced Quant/Lab 3.2/CB-subject-4.csv,legacy,1 5 2 9,Kafkaesque Koffka,3.2.8,2,y,0,None,right,NA,None,NA,2000,30858,NA,2000,NA,2,legacy,4,1024,2,48000,-16,experiment,4,even,5,73425,34562,47756,71180,3632,NA,71192,70029,3686,NA,75438,77438,72211,75438,NA,Sternberg Task,2,11225,6,yes,1024
28.57142857,28.57142857,1889.285714,1889.285714,black,practice,legacy,legacy,legacy,0,uniform,0,undefined,0,left,6,0,6,6,0,0,6,6,0,0,6,6,6,6,0,Fri Oct 25 19:54:30 2019,The main experiment item,yes,SternbergTask.osexp,/Users/cristianbotello/Desktop/Advanced Quant/Lab 3.1,no,mono,no,18,no,white,no,no,768,legacy,6,6,/Users/cristianbotello/Desktop/Advanced Quant/Lab 3.2/CB-subject-4.csv,legacy,6,Kafkaesque Koffka,3.2.8,1,y,0,None,right,NA,None,NA,2000,30858,NA,2000,NA,2,legacy,1,1024,2,48000,-16,experiment,4,even,6,80839,34562,47756,78598,3632,NA,78614,77457,3686,NA,82852,84852,79625,82852,NA,Sternberg Task,2,13225,7,yes,1024
25,25,1774.375,1774.375,black,practice,legacy,legacy,legacy,0,uniform,0,undefined,0,right,7,0,7,7,0,0,7,7,0,0,7,7,7,7,0,Fri Oct 25 19:54:30 2019,The main experiment item,yes,SternbergTask.osexp,/Users/cristianbotello/Desktop/Advanced Quant/Lab 3.1,no,mono,no,18,no,white,no,no,768,legacy,7,7,/Users/cristianbotello/Desktop/Advanced Quant/Lab 3.2/CB-subject-4.csv,legacy,2 1,Kafkaesque Koffka,3.2.8,0,n,0,left,right,NA,left,NA,970,30858,NA,970,NA,2,legacy,2,1024,2,48000,-16,experiment,4,even,5,88257,34562,47756,86016,3632,NA,86029,84869,3686,NA,90272,91244,87045,90272,NA,Sternberg Task,2,14195,8,yes,1024
33.33333333,33.33333333,1701.333333,1701.333333,black,practice,legacy,legacy,legacy,0,uniform,1,undefined,1,right,8,0,8,8,0,0,8,8,0,0,8,8,8,8,0,Fri Oct 25 19:54:30 2019,The main experiment item,yes,SternbergTask.osexp,/Users/cristianbotello/Desktop/Advanced Quant/Lab 3.1,no,mono,no,18,no,white,no,no,768,legacy,8,8,/Users/cristianbotello/Desktop/Advanced Quant/Lab 3.2/CB-subject-4.csv,legacy,9 6 7 4 5,Kafkaesque Koffka,3.2.8,0,n,0,right,right,NA,right,NA,1117,30858,NA,1117,NA,2,legacy,5,1024,2,48000,-16,experiment,4,even,3,94653,34562,47756,92411,3632,NA,92424,91263,3686,NA,96666,97784,93440,96666,NA,Sternberg Task,3,15312,9,yes,1024
40,40,1615.1,1615.1,black,practice,legacy,legacy,legacy,0,uniform,1,undefined,1,right,9,0,9,9,0,0,9,9,0,0,9,9,9,9,0,Fri Oct 25 19:54:30 2019,The main experiment item,yes,SternbergTask.osexp,/Users/cristianbotello/Desktop/Advanced Quant/Lab 3.1,no,mono,no,18,no,white,no,no,768,legacy,9,9,/Users/cristianbotello/Desktop/Advanced Quant/Lab 3.2/CB-subject-4.csv,legacy,3 1 9 4,Kafkaesque Koffka,3.2.8,0,n,0,right,right,NA,right,NA,839,30858,NA,839,NA,2,legacy,4,1024,2,48000,-16,experiment,4,even,6,101206,34562,97802,98960,3632,NA,98975,91263,3686,NA,103219,104059,99988,103219,NA,Sternberg Task,4,16151,10,yes,1024
45.45454545,45.45454545,1531,1531,black,practice,legacy,legacy,legacy,0,uniform,1,undefined,1,right,10,0,10,10,0,0,10,10,0,0,10,10,10,10,0,Fri Oct 25 19:54:30 2019,The main experiment item,yes,SternbergTask.osexp,/Users/cristianbotello/Desktop/Advanced Quant/Lab 3.1,no,mono,no,18,no,white,no,no,768,legacy,10,10,/Users/cristianbotello/Desktop/Advanced Quant/Lab 3.2/CB-subject-4.csv,legacy,5 7 8 4 1 2,Kafkaesque Koffka,3.2.8,0,n,0,right,right,NA,right,NA,690,30858,NA,690,NA,2,legacy,6,1024,2,48000,-16,experiment,4,even,6,107473,34562,104074,105231,3632,NA,105243,91263,3686,NA,109487,110183,106259,109487,NA,Sternberg Task,5,16841,11,yes,1024
50,50,1450,1450,black,practice,legacy,legacy,legacy,0,uniform,1,undefined,1,right,11,0,11,11,0,0,11,11,0,0,11,11,11,11,0,Fri Oct 25 19:54:30 2019,The main experiment item,yes,SternbergTask.osexp,/Users/cristianbotello/Desktop/Advanced Quant/Lab 3.1,no,mono,no,18,no,white,no,no,768,legacy,11,11,/Users/cristianbotello/Desktop/Advanced Quant/Lab 3.2/CB-subject-4.csv,legacy,4 1 5,Kafkaesque Koffka,3.2.8,0,n,0,right,right,NA,right,NA,559,30858,NA,559,NA,2,legacy,3,1024,2,48000,-16,experiment,4,even,2,113602,34562,110216,111360,3632,NA,111374,91263,3686,NA,115616,116177,112390,115616,NA,Sternberg Task,6,17400,12,yes,1024
53.84615385,53.84615385,1395.923077,1395.923077,black,experiment,legacy,legacy,legacy,0,uniform,1,undefined,1,left,12,0,12,12,0,0,12,12,0,0,12,12,12,12,0,Fri Oct 25 19:54:30 2019,The main experiment item,yes,SternbergTask.osexp,/Users/cristianbotello/Desktop/Advanced Quant/Lab 3.1,no,mono,no,18,no,white,no,no,768,legacy,0,11,/Users/cristianbotello/Desktop/Advanced Quant/Lab 3.2/CB-subject-4.csv,legacy,7 1 8 5 6 2,Kafkaesque Koffka,3.2.8,2,y,0,left,right,left,left,NA,747,30858,7412,747,NA,2,legacy,6,1024,2,48000,-16,experiment,4,even,1,127097,34562,116195,124859,3632,124659,124872,91263,3686,117245,129109,129857,125884,129109,NA,Sternberg Task,7,18147,13,yes,1024
57.14285714,57.14285714,1336,1336,black,experiment,legacy,legacy,legacy,0,uniform,1,undefined,1,right,13,0,13,13,0,0,13,13,0,0,13,13,13,13,0,Fri Oct 25 19:54:30 2019,The main experiment item,yes,SternbergTask.osexp,/Users/cristianbotello/Desktop/Advanced Quant/Lab 3.1,no,mono,no,18,no,white,no,no,768,legacy,1,11,/Users/cristianbotello/Desktop/Advanced Quant/Lab 3.2/CB-subject-4.csv,legacy,5 9 2 3,Kafkaesque Koffka,3.2.8,0,n,0,right,right,left,right,NA,557,30858,7412,557,NA,2,legacy,4,1024,2,48000,-16,experiment,4,even,8,133285,34562,129877,131045,3632,124659,131059,91263,3686,117245,135300,135859,132071,135299,NA,Sternberg Task,8,18704,14,yes,1024
60,60,1284.8,1284.8,black,experiment,legacy,legacy,legacy,0,uniform,1,undefined,1,right,14,0,14,14,0,0,14,14,0,0,14,14,14,14,0,Fri Oct 25 19:54:30 2019,The main experiment item,yes,SternbergTask.osexp,/Users/cristianbotello/Desktop/Advanced Quant/Lab 3.1,no,mono,no,18,no,white,no,no,768,legacy,2,11,/Users/cristianbotello/Desktop/Advanced Quant/Lab 3.2/CB-subject-4.csv,legacy,1 7 8 3 9,Kafkaesque Koffka,3.2.8,0,n,0,right,right,left,right,NA,568,30858,7412,568,NA,2,legacy,5,1024,2,48000,-16,experiment,4,even,2,139291,34562,135876,137046,3632,124659,137060,91263,3686,117245,141304,141874,138078,141304,NA,Sternberg Task,9,19272,15,yes,1024
62.5,62.5,1242,1242,black,experiment,legacy,legacy,legacy,0,uniform,1,undefined,1,right,15,0,15,15,0,0,15,15,0,0,15,15,15,15,0,Fri Oct 25 19:54:30 2019,The main experiment item,yes,SternbergTask.osexp,/Users/cristianbotello/Desktop/Advanced Quant/Lab 3.1,no,mono,no,18,no,white,no,no,768,legacy,3,11,/Users/cristianbotello/Desktop/Advanced Quant/Lab 3.2/CB-subject-4.csv,legacy,1 5 3 2 8,Kafkaesque Koffka,3.2.8,0,n,0,right,right,left,right,NA,600,30858,7412,600,NA,2,legacy,5,1024,2,48000,-16,experiment,4,even,4,145298,34562,141892,143059,3632,124659,143073,91263,3686,117245,147311,147913,144085,147311,NA,Sternberg Task,10,19872,16,yes,1024
64.70588235,64.70588235,1201,1201,black,experiment,legacy,legacy,legacy,0,uniform,1,undefined,1,right,16,0,16,16,0,0,16,16,0,0,16,16,16,16,0,Fri Oct 25 19:54:30 2019,The main experiment item,yes,SternbergTask.osexp,/Users/cristianbotello/Desktop/Advanced Quant/Lab 3.1,no,mono,no,18,no,white,no,no,768,legacy,4,11,/Users/cristianbotello/Desktop/Advanced Quant/Lab 3.2/CB-subject-4.csv,legacy,6 3 1 7 9 8,Kafkaesque Koffka,3.2.8,0,n,0,right,right,left,right,NA,545,30858,7412,545,NA,2,legacy,6,1024,2,48000,-16,experiment,4,even,4,151336,34562,147931,149097,3632,124659,149111,91263,3686,117245,153349,153896,150123,153349,NA,Sternberg Task,11,20417,17,yes,1024
66.66666667,66.66666667,1171.166667,1171.166667,black,experiment,legacy,legacy,legacy,0,uniform,1,undefined,1,left,17,0,17,17,0,0,17,17,0,0,17,17,17,17,0,Fri Oct 25 19:54:30 2019,The main experiment item,yes,SternbergTask.osexp,/Users/cristianbotello/Desktop/Advanced Quant/Lab 3.1,no,mono,no,18,no,white,no,no,768,legacy,5,11,/Users/cristianbotello/Desktop/Advanced Quant/Lab 3.2/CB-subject-4.csv,legacy,3 5 9 6 2 4,Kafkaesque Koffka,3.2.8,1,y,0,left,right,left,left,NA,664,30858,7412,664,NA,2,legacy,6,1024,2,48000,-16,experiment,4,even,3,157308,34562,153913,155067,3632,124659,155080,91263,3686,117245,159322,159988,156095,159322,NA,Sternberg Task,12,21081,18,yes,1024
68.42105263,68.42105263,1140.736842,1140.736842,black,experiment,legacy,legacy,legacy,0,uniform,1,undefined,1,left,18,0,18,18,0,0,18,18,0,0,18,18,18,18,0,Fri Oct 25 19:54:30 2019,The main experiment item,yes,SternbergTask.osexp,/Users/cristianbotello/Desktop/Advanced Quant/Lab 3.1,no,mono,no,18,no,white,no,no,768,legacy,6,11,/Users/cristianbotello/Desktop/Advanced Quant/Lab 3.2/CB-subject-4.csv,legacy,8 9 5 7 1 6,Kafkaesque Koffka,3.2.8,4,y,0,left,right,left,left,NA,593,30858,7412,593,NA,2,legacy,6,1024,2,48000,-16,experiment,4,even,7,163394,34562,160004,161152,3632,124659,161165,91263,3686,117245,165408,166003,162181,165408,NA,Sternberg Task,13,21674,19,yes,1024
70,70,1110.15,1110.15,black,experiment,legacy,legacy,legacy,0,uniform,1,undefined,1,right,19,0,19,19,0,0,19,19,0,0,19,19,19,19,0,Fri Oct 25 19:54:30 2019,The main experiment item,yes,SternbergTask.osexp,/Users/cristianbotello/Desktop/Advanced Quant/Lab 3.1,no,mono,no,18,no,white,no,no,768,legacy,7,11,/Users/cristianbotello/Desktop/Advanced Quant/Lab 3.2/CB-subject-4.csv,legacy,9 8 2 7 4,Kafkaesque Koffka,3.2.8,0,n,0,right,right,left,right,NA,529,30858,7412,529,NA,2,legacy,5,1024,2,48000,-16,experiment,4,even,5,169423,34562,166020,167178,3632,124659,167191,91263,3686,117245,171438,171969,168207,171437,NA,Sternberg Task,14,22203,20,yes,1024
71.42857143,71.42857143,1112.047619,1112.047619,black,experiment,legacy,legacy,legacy,0,uniform,1,undefined,1,right,20,0,20,20,0,0,20,20,0,0,20,20,20,20,0,Fri Oct 25 19:54:30 2019,The main experiment item,yes,SternbergTask.osexp,/Users/cristianbotello/Desktop/Advanced Quant/Lab 3.1,no,mono,no,18,no,white,no,no,768,legacy,8,11,/Users/cristianbotello/Desktop/Advanced Quant/Lab 3.2/CB-subject-4.csv,legacy,1,Kafkaesque Koffka,3.2.8,0,n,0,right,right,left,right,NA,1150,30858,7412,1150,NA,2,legacy,1,1024,2,48000,-16,experiment,4,even,7,175393,34562,171988,173148,3632,124659,173162,91263,3686,117245,177407,178559,174177,177406,NA,Sternberg Task,15,23353,21,yes,1024
72.72727273,72.72727273,1086.363636,1086.363636,black,experiment,legacy,legacy,legacy,0,uniform,1,undefined,1,right,21,0,21,21,0,0,21,21,0,0,21,21,21,21,0,Fri Oct 25 19:54:30 2019,The main experiment item,yes,SternbergTask.osexp,/Users/cristianbotello/Desktop/Advanced Quant/Lab 3.1,no,mono,no,18,no,white,no,no,768,legacy,9,11,/Users/cristianbotello/Desktop/Advanced Quant/Lab 3.2/CB-subject-4.csv,legacy,2 6 4 3 9,Kafkaesque Koffka,3.2.8,0,n,0,right,right,left,right,NA,547,30858,7412,547,NA,2,legacy,5,1024,2,48000,-16,experiment,4,even,1,181966,34562,178574,179724,3632,124659,179737,91263,3686,117245,183981,184530,180753,183981,NA,Sternberg Task,16,23900,22,yes,1024
73.91304348,73.91304348,1079.478261,1079.478261,black,experiment,legacy,legacy,legacy,0,uniform,1,undefined,1,left,22,0,22,22,0,0,22,22,0,0,22,22,22,22,0,Fri Oct 25 19:54:30 2019,The main experiment item,yes,SternbergTask.osexp,/Users/cristianbotello/Desktop/Advanced Quant/Lab 3.1,no,mono,no,18,no,white,no,no,768,legacy,10,11,/Users/cristianbotello/Desktop/Advanced Quant/Lab 3.2/CB-subject-4.csv,legacy,4 7 6 8 2 3,Kafkaesque Koffka,3.2.8,6,y,0,left,right,left,left,NA,928,30858,7412,928,NA,2,legacy,6,1024,2,48000,-16,experiment,4,even,3,187940,34562,184548,185701,3632,124659,185714,91263,3686,117245,189954,190884,186727,189954,NA,Sternberg Task,17,24828,23,yes,1024
75,75,1056.083333,1056.083333,black,experiment,legacy,legacy,legacy,0,uniform,1,undefined,1,right,23,0,23,23,0,0,23,23,0,0,23,23,23,23,0,Fri Oct 25 19:54:30 2019,The main experiment item,yes,SternbergTask.osexp,/Users/cristianbotello/Desktop/Advanced Quant/Lab 3.1,no,mono,no,18,no,white,no,no,768,legacy,11,11,/Users/cristianbotello/Desktop/Advanced Quant/Lab 3.2/CB-subject-4.csv,legacy,6 9 4 5 3 2,Kafkaesque Koffka,3.2.8,0,n,0,right,right,left,right,NA,518,30858,7412,518,NA,2,legacy,6,1024,2,48000,-16,experiment,4,even,8,194298,34562,190901,192053,3632,124659,192068,91263,3686,117245,196312,196831,193084,196312,NA,Sternberg Task,18,25346,24,yes,1024
76,76,1036.88,1036.88,black,experiment,legacy,legacy,legacy,0,uniform,1,undefined,1,left,24,0,24,24,0,0,24,24,0,0,24,24,24,24,0,Fri Oct 25 19:54:30 2019,The main experiment item,yes,SternbergTask.osexp,/Users/cristianbotello/Desktop/Advanced Quant/Lab 3.1,no,mono,no,18,no,white,no,no,768,legacy,12,11,/Users/cristianbotello/Desktop/Advanced Quant/Lab 3.2/CB-subject-4.csv,legacy,9 5 8 1,Kafkaesque Koffka,3.2.8,2,y,0,left,right,left,left,NA,576,30858,7412,576,NA,2,legacy,4,1024,2,48000,-16,experiment,4,even,5,200251,34562,196848,198007,3632,124659,198021,91263,3686,117245,202266,202845,199037,202265,NA,Sternberg Task,19,25922,25,yes,1024
76.92307692,76.92307692,1019.653846,1019.653846,black,experiment,legacy,legacy,legacy,0,uniform,1,undefined,1,left,25,0,25,25,0,0,25,25,0,0,25,25,25,25,0,Fri Oct 25 19:54:30 2019,The main experiment item,yes,SternbergTask.osexp,/Users/cristianbotello/Desktop/Advanced Quant/Lab 3.1,no,mono,no,18,no,white,no,no,768,legacy,13,11,/Users/cristianbotello/Desktop/Advanced Quant/Lab 3.2/CB-subject-4.csv,legacy,7 4 2 6 3 5,Kafkaesque Koffka,3.2.8,6,y,0,left,right,left,left,NA,589,30858,7412,589,NA,2,legacy,6,1024,2,48000,-16,experiment,4,even,5,206240,34562,202866,204000,3632,124659,204015,91263,3686,117245,208254,208845,205027,208254,NA,Sternberg Task,20,26511,26,yes,1024
77.77777778,77.77777778,998.7037037,998.7037037,black,experiment,legacy,legacy,legacy,0,uniform,1,undefined,1,left,26,0,26,26,0,0,26,26,0,0,26,26,26,26,0,Fri Oct 25 19:54:30 2019,The main experiment item,yes,SternbergTask.osexp,/Users/cristianbotello/Desktop/Advanced Quant/Lab 3.1,no,mono,no,18,no,white,no,no,768,legacy,14,11,/Users/cristianbotello/Desktop/Advanced Quant/Lab 3.2/CB-subject-4.csv,legacy,3 4,Kafkaesque Koffka,3.2.8,1,y,0,left,right,left,left,NA,454,30858,7412,454,NA,2,legacy,2,1024,2,48000,-16,experiment,4,even,3,212255,34562,208866,210015,3632,124659,210028,91263,3686,117245,214272,214728,211044,214272,NA,Sternberg Task,21,26965,27,yes,1024
78.57142857,78.57142857,979.6428571,979.6428571,black,experiment,legacy,legacy,legacy,0,uniform,1,undefined,1,right,27,0,27,27,0,0,27,27,0,0,27,27,27,27,0,Fri Oct 25 19:54:30 2019,The main experiment item,yes,SternbergTask.osexp,/Users/cristianbotello/Desktop/Advanced Quant/Lab 3.1,no,mono,no,18,no,white,no,no,768,legacy,15,11,/Users/cristianbotello/Desktop/Advanced Quant/Lab 3.2/CB-subject-4.csv,legacy,4 8 1 2,Kafkaesque Koffka,3.2.8,0,n,0,right,right,left,right,NA,465,30858,7412,465,NA,2,legacy,4,1024,2,48000,-16,experiment,4,even,7,218132,34562,214744,215887,3632,124659,215900,91263,3686,117245,220146,220613,216921,220146,NA,Sternberg Task,22,27430,28,yes,1024
79.31034483,79.31034483,965.2068966,965.2068966,black,experiment,legacy,legacy,legacy,0,uniform,1,undefined,1,right,28,0,28,28,0,0,28,28,0,0,28,28,28,28,0,Fri Oct 25 19:54:30 2019,The main experiment item,yes,SternbergTask.osexp,/Users/cristianbotello/Desktop/Advanced Quant/Lab 3.1,no,mono,no,18,no,white,no,no,768,legacy,16,11,/Users/cristianbotello/Desktop/Advanced Quant/Lab 3.2/CB-subject-4.csv,legacy,8 5 4 2 9 6,Kafkaesque Koffka,3.2.8,0,n,0,right,right,left,right,NA,561,30858,7412,561,NA,2,legacy,6,1024,2,48000,-16,experiment,4,even,3,224028,34562,220636,221786,3632,124659,221799,91263,3686,117245,226043,226606,222816,226042,NA,Sternberg Task,23,27991,29,yes,1024
80,80,954.1,954.1,black,experiment,legacy,legacy,legacy,0,uniform,1,undefined,1,right,29,0,29,29,0,0,29,29,0,0,29,29,29,29,0,Fri Oct 25 19:54:30 2019,The main experiment item,yes,SternbergTask.osexp,/Users/cristianbotello/Desktop/Advanced Quant/Lab 3.1,no,mono,no,18,no,white,no,no,768,legacy,17,11,/Users/cristianbotello/Desktop/Advanced Quant/Lab 3.2/CB-subject-4.csv,legacy,2 8 6 3 1,Kafkaesque Koffka,3.2.8,0,n,0,right,right,left,right,NA,632,30858,7412,632,NA,2,legacy,5,1024,2,48000,-16,experiment,4,even,7,230021,34562,226624,227779,3632,124659,227792,91263,3686,117245,232038,232673,228808,232038,NA,Sternberg Task,24,28623,30,yes,1024
80.64516129,80.64516129,948.2258065,948.2258065,black,experiment,legacy,legacy,legacy,0,uniform,1,undefined,1,left,30,0,30,30,0,0,30,30,0,0,30,30,30,30,0,Fri Oct 25 19:54:30 2019,The main experiment item,yes,SternbergTask.osexp,/Users/cristianbotello/Desktop/Advanced Quant/Lab 3.1,no,mono,no,18,no,white,no,no,768,legacy,18,11,/Users/cristianbotello/Desktop/Advanced Quant/Lab 3.2/CB-subject-4.csv,legacy,4 1 8 7 5,Kafkaesque Koffka,3.2.8,3,y,0,left,right,left,left,NA,772,30858,7412,772,NA,2,legacy,5,1024,2,48000,-16,experiment,4,even,8,236082,34562,232691,233842,3632,124659,233855,91263,3686,117245,238096,238870,234870,238096,NA,Sternberg Task,25,29395,31,yes,1024
81.25,81.25,932.875,932.875,black,experiment,legacy,legacy,legacy,0,uniform,1,undefined,1,right,31,0,31,31,0,0,31,31,0,0,31,31,31,31,0,Fri Oct 25 19:54:30 2019,The main experiment item,yes,SternbergTask.osexp,/Users/cristianbotello/Desktop/Advanced Quant/Lab 3.1,no,mono,no,18,no,white,no,no,768,legacy,19,11,/Users/cristianbotello/Desktop/Advanced Quant/Lab 3.2/CB-subject-4.csv,legacy,3 4 9 6 7 8,Kafkaesque Koffka,3.2.8,0,n,0,right,right,left,right,NA,457,30858,7412,457,NA,2,legacy,6,1024,2,48000,-16,experiment,4,even,2,242292,34562,238887,240044,3632,124659,240059,91263,3686,117245,244306,244765,241077,244306,NA,Sternberg Task,26,29852,32,yes,1024
78.78787879,78.78787879,922.5757576,922.5757576,black,experiment,legacy,legacy,legacy,0,uniform,0,undefined,0,left,32,0,32,32,0,0,32,32,0,0,32,32,32,32,0,Fri Oct 25 19:54:30 2019,The main experiment item,yes,SternbergTask.osexp,/Users/cristianbotello/Desktop/Advanced Quant/Lab 3.1,no,mono,no,18,no,white,no,no,768,legacy,20,11,/Users/cristianbotello/Desktop/Advanced Quant/Lab 3.2/CB-subject-4.csv,legacy,2 4 8 5 1 3,Kafkaesque Koffka,3.2.8,1,y,0,right,right,left,right,NA,593,30858,7412,593,NA,2,legacy,6,1024,2,48000,-16,experiment,4,even,2,248179,34562,244782,245937,3632,124659,245950,91263,3686,117245,250192,250787,246965,250192,NA,Sternberg Task,26,30445,33,yes,1024
79.41176471,79.41176471,911.1176471,911.1176471,black,experiment,legacy,legacy,legacy,0,uniform,1,undefined,1,left,33,0,33,33,0,0,33,33,0,0,33,33,33,33,0,Fri Oct 25 19:54:30 2019,The main experiment item,yes,SternbergTask.osexp,/Users/cristianbotello/Desktop/Advanced Quant/Lab 3.1,no,mono,no,18,no,white,no,no,768,legacy,21,11,/Users/cristianbotello/Desktop/Advanced Quant/Lab 3.2/CB-subject-4.csv,legacy,6 7 8 5,Kafkaesque Koffka,3.2.8,3,y,0,left,right,left,left,NA,533,30858,7412,533,NA,2,legacy,4,1024,2,48000,-16,experiment,4,even,8,254219,34562,244782,251980,3632,124659,251994,250808,3686,117245,256233,256768,253005,256233,NA,Sternberg Task,27,30978,34,yes,1024
80,80,906.6,906.6,black,experiment,legacy,legacy,legacy,0,uniform,1,undefined,1,right,34,0,34,34,0,0,34,34,0,0,34,34,34,34,0,Fri Oct 25 19:54:30 2019,The main experiment item,yes,SternbergTask.osexp,/Users/cristianbotello/Desktop/Advanced Quant/Lab 3.1,no,mono,no,18,no,white,no,no,768,legacy,22,11,/Users/cristianbotello/Desktop/Advanced Quant/Lab 3.2/CB-subject-4.csv,legacy,1 4 9 3,Kafkaesque Koffka,3.2.8,0,n,0,right,right,left,right,NA,753,30858,7412,753,NA,2,legacy,4,1024,2,48000,-16,experiment,4,even,5,260183,34562,256786,257941,3632,124659,257955,250808,3686,117245,262197,262952,258971,262197,NA,Sternberg Task,28,31731,35,yes,1024
80.55555556,80.55555556,896.3055556,896.3055556,black,experiment,legacy,legacy,legacy,0,uniform,1,undefined,1,right,35,0,35,35,0,0,35,35,0,0,35,35,35,35,0,Fri Oct 25 19:54:30 2019,The main experiment item,yes,SternbergTask.osexp,/Users/cristianbotello/Desktop/Advanced Quant/Lab 3.1,no,mono,no,18,no,white,no,no,768,legacy,23,11,/Users/cristianbotello/Desktop/Advanced Quant/Lab 3.2/CB-subject-4.csv,legacy,3 9 1,Kafkaesque Koffka,3.2.8,0,n,0,right,right,left,right,NA,536,30858,7412,536,NA,2,legacy,3,1024,2,48000,-16,experiment,4,even,7,266346,34562,262968,264106,3632,124659,264119,250808,3686,117245,268359,268897,265134,268359,NA,Sternberg Task,29,32267,36,yes,1024
81.08108108,81.08108108,885.6486486,885.6486486,black,experiment,legacy,legacy,legacy,0,uniform,1,undefined,1,left,36,0,36,36,0,0,36,36,0,0,36,36,36,36,0,Fri Oct 25 19:54:30 2019,The main experiment item,yes,SternbergTask.osexp,/Users/cristianbotello/Desktop/Advanced Quant/Lab 3.1,no,mono,no,18,no,white,no,no,768,legacy,24,11,/Users/cristianbotello/Desktop/Advanced Quant/Lab 3.2/CB-subject-4.csv,legacy,7 8 6 3 1,Kafkaesque Koffka,3.2.8,5,y,0,left,right,left,left,NA,502,30858,7412,502,NA,2,legacy,5,1024,2,48000,-16,experiment,4,even,1,272308,34562,268913,270067,3632,124659,270079,250808,3686,117245,274323,274827,271095,274323,NA,Sternberg Task,30,32769,37,yes,1024
81.57894737,81.57894737,875.6052632,875.6052632,black,experiment,legacy,legacy,legacy,0,uniform,1,undefined,1,right,37,0,37,37,0,0,37,37,0,0,37,37,37,37,0,Fri Oct 25 19:54:30 2019,The main experiment item,yes,SternbergTask.osexp,/Users/cristianbotello/Desktop/Advanced Quant/Lab 3.1,no,mono,no,18,no,white,no,no,768,legacy,25,11,/Users/cristianbotello/Desktop/Advanced Quant/Lab 3.2/CB-subject-4.csv,legacy,7 1 5 6 3,Kafkaesque Koffka,3.2.8,0,n,0,right,right,left,right,NA,504,30858,7412,504,NA,2,legacy,5,1024,2,48000,-16,experiment,4,even,8,278227,34562,274846,275985,3632,124659,275998,250808,3686,117245,280242,280748,277015,280241,NA,Sternberg Task,31,33273,38,yes,1024
82.05128205,82.05128205,874.3333333,874.3333333,black,experiment,legacy,legacy,legacy,0,uniform,1,undefined,1,right,38,0,38,38,0,0,38,38,0,0,38,38,38,38,0,Fri Oct 25 19:54:30 2019,The main experiment item,yes,SternbergTask.osexp,/Users/cristianbotello/Desktop/Advanced Quant/Lab 3.1,no,mono,no,18,no,white,no,no,768,legacy,26,11,/Users/cristianbotello/Desktop/Advanced Quant/Lab 3.2/CB-subject-4.csv,legacy,8 6 3 4 7,Kafkaesque Koffka,3.2.8,0,n,0,right,right,left,right,NA,826,30858,7412,826,NA,2,legacy,5,1024,2,48000,-16,experiment,4,even,1,284161,34562,280769,281918,3632,124659,281932,250808,3686,117245,286178,287006,282948,286178,NA,Sternberg Task,32,34099,39,yes,1024
82.5,82.5,866.575,866.575,black,experiment,legacy,legacy,legacy,0,uniform,1,undefined,1,left,39,0,39,39,0,0,39,39,0,0,39,39,39,39,0,Fri Oct 25 19:54:30 2019,The main experiment item,yes,SternbergTask.osexp,/Users/cristianbotello/Desktop/Advanced Quant/Lab 3.1,no,mono,no,18,no,white,no,no,768,legacy,27,11,/Users/cristianbotello/Desktop/Advanced Quant/Lab 3.2/CB-subject-4.csv,legacy,4 3 2 5 8,Kafkaesque Koffka,3.2.8,2,y,0,left,right,left,left,NA,564,30858,7412,564,NA,2,legacy,5,1024,2,48000,-16,experiment,4,even,3,290415,34562,287022,288174,3632,124659,288187,250808,3686,117245,292430,292997,289203,292430,NA,Sternberg Task,33,34663,40,yes,1024
82.92682927,82.92682927,860.8536585,860.8536585,black,experiment,legacy,legacy,legacy,0,uniform,1,undefined,1,right,40,0,40,40,0,0,40,40,0,0,40,40,40,40,0,Fri Oct 25 19:54:30 2019,The main experiment item,yes,SternbergTask.osexp,/Users/cristianbotello/Desktop/Advanced Quant/Lab 3.1,no,mono,no,18,no,white,no,no,768,legacy,28,11,/Users/cristianbotello/Desktop/Advanced Quant/Lab 3.2/CB-subject-4.csv,legacy,2 8 9,Kafkaesque Koffka,3.2.8,0,n,0,right,right,left,right,NA,632,30858,7412,632,NA,2,legacy,3,1024,2,48000,-16,experiment,4,even,6,296415,34562,293013,294175,3632,124659,294189,250808,3686,117245,298429,299064,295202,298429,NA,Sternberg Task,34,35295,41,yes,1024
83.33333333,83.33333333,852.047619,852.047619,black,experiment,legacy,legacy,legacy,0,uniform,1,undefined,1,left,41,0,41,41,0,0,41,41,0,0,41,41,41,41,0,Fri Oct 25 19:54:30 2019,The main experiment item,yes,SternbergTask.osexp,/Users/cristianbotello/Desktop/Advanced Quant/Lab 3.1,no,mono,no,18,no,white,no,no,768,legacy,29,11,/Users/cristianbotello/Desktop/Advanced Quant/Lab 3.2/CB-subject-4.csv,legacy,4 6 2 5 1,Kafkaesque Koffka,3.2.8,5,y,0,left,right,left,left,NA,491,30858,7412,491,NA,2,legacy,5,1024,2,48000,-16,experiment,4,even,1,302473,34562,299083,300232,3632,124659,300245,250808,3686,117245,304487,304980,301260,304487,NA,Sternberg Task,35,35786,42,yes,1024
83.72093023,83.72093023,846.6046512,846.6046512,black,experiment,legacy,legacy,legacy,0,uniform,1,undefined,1,right,42,0,42,42,0,0,42,42,0,0,42,42,42,42,0,Fri Oct 25 19:54:30 2019,The main experiment item,yes,SternbergTask.osexp,/Users/cristianbotello/Desktop/Advanced Quant/Lab 3.1,no,mono,no,18,no,white,no,no,768,legacy,30,11,/Users/cristianbotello/Desktop/Advanced Quant/Lab 3.2/CB-subject-4.csv,legacy,1 6 4 3 9 7,Kafkaesque Koffka,3.2.8,0,n,0,right,right,left,right,NA,618,30858,7412,618,NA,2,legacy,6,1024,2,48000,-16,experiment,4,even,8,308400,34562,304996,306157,3632,124659,306171,250808,3686,117245,310414,311034,307186,310414,NA,Sternberg Task,36,36404,43,yes,1024
84.09090909,84.09090909,838.9545455,838.9545455,black,experiment,legacy,legacy,legacy,0,uniform,1,undefined,1,right,43,0,43,43,0,0,43,43,0,0,43,43,43,43,0,Fri Oct 25 19:54:30 2019,The main experiment item,yes,SternbergTask.osexp,/Users/cristianbotello/Desktop/Advanced Quant/Lab 3.1,no,mono,no,18,no,white,no,no,768,legacy,31,11,/Users/cristianbotello/Desktop/Advanced Quant/Lab 3.2/CB-subject-4.csv,legacy,5 3 8 7 2 4,Kafkaesque Koffka,3.2.8,0,n,0,right,right,left,right,NA,510,30858,7412,510,NA,2,legacy,6,1024,2,48000,-16,experiment,4,even,9,314458,34562,311052,312219,3632,124659,312233,250808,3686,117245,316472,316984,313245,316472,NA,Sternberg Task,37,36914,44,yes,1024
84.44444444,84.44444444,833.6444444,833.6444444,black,experiment,legacy,legacy,legacy,0,uniform,1,undefined,1,right,44,0,44,44,0,0,44,44,0,0,44,44,44,44,0,Fri Oct 25 19:54:30 2019,The main experiment item,yes,SternbergTask.osexp,/Users/cristianbotello/Desktop/Advanced Quant/Lab 3.1,no,mono,no,18,no,white,no,no,768,legacy,32,11,/Users/cristianbotello/Desktop/Advanced Quant/Lab 3.2/CB-subject-4.csv,legacy,6 7 5 9,Kafkaesque Koffka,3.2.8,0,n,0,right,right,left,right,NA,600,30858,7412,600,NA,2,legacy,4,1024,2,48000,-16,experiment,4,even,2,320401,34562,317001,318161,3632,124659,318176,250808,3686,117245,322415,323017,319188,322415,NA,Sternberg Task,38,37514,45,yes,1024
84.7826087,84.7826087,826.3913043,826.3913043,black,experiment,legacy,legacy,legacy,0,uniform,1,undefined,1,right,45,0,45,45,0,0,45,45,0,0,45,45,45,45,0,Fri Oct 25 19:54:30 2019,The main experiment item,yes,SternbergTask.osexp,/Users/cristianbotello/Desktop/Advanced Quant/Lab 3.1,no,mono,no,18,no,white,no,no,768,legacy,33,11,/Users/cristianbotello/Desktop/Advanced Quant/Lab 3.2/CB-subject-4.csv,legacy,1 3 2 6 9,Kafkaesque Koffka,3.2.8,0,n,0,right,right,left,right,NA,500,30858,7412,500,NA,2,legacy,5,1024,2,48000,-16,experiment,4,even,5,326428,34562,323034,324186,3632,124659,324200,250808,3686,117245,328442,328944,325216,328442,NA,Sternberg Task,39,38014,46,yes,1024
85.10638298,85.10638298,823.6382979,823.6382979,black,experiment,legacy,legacy,legacy,0,uniform,1,undefined,1,left,46,0,46,46,0,0,46,46,0,0,46,46,46,46,0,Fri Oct 25 19:54:30 2019,The main experiment item,yes,SternbergTask.osexp,/Users/cristianbotello/Desktop/Advanced Quant/Lab 3.1,no,mono,no,18,no,white,no,no,768,legacy,34,11,/Users/cristianbotello/Desktop/Advanced Quant/Lab 3.2/CB-subject-4.csv,legacy,9 8 4,Kafkaesque Koffka,3.2.8,1,y,0,left,right,left,left,NA,697,30858,7412,697,NA,2,legacy,3,1024,2,48000,-16,experiment,4,even,9,332359,34562,328962,330121,3632,124659,330133,250808,3686,117245,334373,335073,331145,334373,NA,Sternberg Task,40,38711,47,yes,1024
85.41666667,85.41666667,822.3958333,822.3958333,black,experiment,legacy,legacy,legacy,0,uniform,1,undefined,1,left,47,0,47,47,0,0,47,47,0,0,47,47,47,47,0,Fri Oct 25 19:54:30 2019,The main experiment item,yes,SternbergTask.osexp,/Users/cristianbotello/Desktop/Advanced Quant/Lab 3.1,no,mono,no,18,no,white,no,no,768,legacy,35,11,/Users/cristianbotello/Desktop/Advanced Quant/Lab 3.2/CB-subject-4.csv,legacy,9 1 7 2,Kafkaesque Koffka,3.2.8,2,y,0,left,right,left,left,NA,764,30858,7412,764,NA,2,legacy,4,1024,2,48000,-16,experiment,4,even,1,338494,34562,335089,336253,3632,124659,336266,250808,3686,117245,340509,341275,337280,340509,NA,Sternberg Task,41,39475,48,yes,1024
85.71428571,85.71428571,817.9387755,817.9387755,black,experiment,legacy,legacy,legacy,0,uniform,1,undefined,1,right,48,0,48,48,0,0,48,48,0,0,48,48,48,48,0,Fri Oct 25 19:54:30 2019,The main experiment item,yes,SternbergTask.osexp,/Users/cristianbotello/Desktop/Advanced Quant/Lab 3.1,no,mono,no,18,no,white,no,no,768,legacy,36,11,/Users/cristianbotello/Desktop/Advanced Quant/Lab 3.2/CB-subject-4.csv,legacy,2 8 7 9 5 3,Kafkaesque Koffka,3.2.8,0,n,0,right,right,left,right,NA,604,30858,7412,604,NA,2,legacy,6,1024,2,48000,-16,experiment,4,even,6,344695,34562,341295,342452,3632,124659,342466,250808,3686,117245,346709,347315,343481,346709,NA,Sternberg Task,42,40079,49,yes,1024
86,86,812.48,812.48,black,experiment,legacy,legacy,legacy,0,uniform,1,undefined,1,right,49,0,49,49,0,0,49,49,0,0,49,49,49,49,0,Fri Oct 25 19:54:30 2019,The main experiment item,yes,SternbergTask.osexp,/Users/cristianbotello/Desktop/Advanced Quant/Lab 3.1,no,mono,no,18,no,white,no,no,768,legacy,37,11,/Users/cristianbotello/Desktop/Advanced Quant/Lab 3.2/CB-subject-4.csv,legacy,7 8 6 1,Kafkaesque Koffka,3.2.8,0,n,0,right,right,left,right,NA,545,30858,7412,545,NA,2,legacy,4,1024,2,48000,-16,experiment,4,even,3,350723,34562,347334,348480,3632,124659,348494,250808,3686,117245,352737,353285,349509,352737,NA,Sternberg Task,43,40624,50,yes,1024
86.2745098,86.2745098,808.4509804,808.4509804,black,experiment,legacy,legacy,legacy,0,uniform,1,undefined,1,right,50,0,50,50,0,0,50,50,0,0,50,50,50,50,0,Fri Oct 25 19:54:30 2019,The main experiment item,yes,SternbergTask.osexp,/Users/cristianbotello/Desktop/Advanced Quant/Lab 3.1,no,mono,no,18,no,white,no,no,768,legacy,38,11,/Users/cristianbotello/Desktop/Advanced Quant/Lab 3.2/CB-subject-4.csv,legacy,6 8 4,Kafkaesque Koffka,3.2.8,0,n,0,right,right,left,right,NA,607,30858,7412,607,NA,2,legacy,3,1024,2,48000,-16,experiment,4,even,1,356689,34562,353302,354447,3632,124659,354460,250808,3686,117245,358704,359313,355476,358704,NA,Sternberg Task,44,41231,51,yes,1024
86.53846154,86.53846154,802.8846154,802.8846154,black,experiment,legacy,legacy,legacy,0,uniform,1,undefined,1,left,51,0,51,51,0,0,51,51,0,0,51,51,51,51,0,Fri Oct 25 19:54:30 2019,The main experiment item,yes,SternbergTask.osexp,/Users/cristianbotello/Desktop/Advanced Quant/Lab 3.1,no,mono,no,18,no,white,no,no,768,legacy,39,11,/Users/cristianbotello/Desktop/Advanced Quant/Lab 3.2/CB-subject-4.csv,legacy,7 2 3,Kafkaesque Koffka,3.2.8,3,y,0,left,right,left,left,NA,519,30858,7412,519,NA,2,legacy,3,1024,2,48000,-16,experiment,4,even,3,362741,34562,359329,360498,3632,124659,360511,250808,3686,117245,364756,365277,361528,364755,NA,Sternberg Task,45,41750,52,yes,1024
86.79245283,86.79245283,799.1132075,799.1132075,black,experiment,legacy,legacy,legacy,0,uniform,1,undefined,1,left,52,0,52,52,0,0,52,52,0,0,52,52,52,52,0,Fri Oct 25 19:54:30 2019,The main experiment item,yes,SternbergTask.osexp,/Users/cristianbotello/Desktop/Advanced Quant/Lab 3.1,no,mono,no,18,no,white,no,no,768,legacy,40,11,/Users/cristianbotello/Desktop/Advanced Quant/Lab 3.2/CB-subject-4.csv,legacy,9 3 1 2 5,Kafkaesque Koffka,3.2.8,4,y,0,left,right,left,left,NA,603,30858,7412,603,NA,2,legacy,5,1024,2,48000,-16,experiment,4,even,2,368692,34562,365296,366450,3632,124659,366463,250808,3686,117245,370706,371313,367479,370706,NA,Sternberg Task,46,42353,53,yes,1024
87.03703704,87.03703704,793.5925926,793.5925926,black,experiment,legacy,legacy,legacy,0,uniform,1,undefined,1,left,53,0,53,53,0,0,53,53,0,0,53,53,53,53,0,Fri Oct 25 19:54:30 2019,The main experiment item,yes,SternbergTask.osexp,/Users/cristianbotello/Desktop/Advanced Quant/Lab 3.1,no,mono,no,18,no,white,no,no,768,legacy,41,11,/Users/cristianbotello/Desktop/Advanced Quant/Lab 3.2/CB-subject-4.csv,legacy,9 4 2,Kafkaesque Koffka,3.2.8,1,y,0,left,right,left,left,NA,501,30858,7412,501,NA,2,legacy,3,1024,2,48000,-16,experiment,4,even,9,374724,34562,371330,372482,3632,124659,372494,250808,3686,117245,376739,377243,373511,376739,NA,Sternberg Task,47,42854,54,yes,1024
87.27272727,87.27272727,788.0909091,788.0909091,black,experiment,legacy,legacy,legacy,0,uniform,1,undefined,1,left,54,0,54,54,0,0,54,54,0,0,54,54,54,54,0,Fri Oct 25 19:54:30 2019,The main experiment item,yes,SternbergTask.osexp,/Users/cristianbotello/Desktop/Advanced Quant/Lab 3.1,no,mono,no,18,no,white,no,no,768,legacy,42,11,/Users/cristianbotello/Desktop/Advanced Quant/Lab 3.2/CB-subject-4.csv,legacy,5 7 3 6 2,Kafkaesque Koffka,3.2.8,5,y,0,left,right,left,left,NA,491,30858,7412,491,NA,2,legacy,5,1024,2,48000,-16,experiment,4,even,2,380650,34562,377260,378408,3632,124659,378421,250808,3686,117245,382665,383159,379436,382665,NA,Sternberg Task,48,43345,55,yes,1024
87.5,87.5,787.4107143,787.4107143,black,experiment,legacy,legacy,legacy,0,uniform,1,undefined,1,left,55,0,55,55,0,0,55,55,0,0,55,55,55,55,0,Fri Oct 25 19:54:30 2019,The main experiment item,yes,SternbergTask.osexp,/Users/cristianbotello/Desktop/Advanced Quant/Lab 3.1,no,mono,no,18,no,white,no,no,768,legacy,43,11,/Users/cristianbotello/Desktop/Advanced Quant/Lab 3.2/CB-subject-4.csv,legacy,8 5 3 7 4 6,Kafkaesque Koffka,3.2.8,6,y,0,left,right,left,left,NA,750,30858,7412,750,NA,2,legacy,6,1024,2,48000,-16,experiment,4,even,6,386565,34562,383178,384324,3632,124659,384337,250808,3686,117245,388579,389332,385352,388579,NA,Sternberg Task,49,44095,56,yes,1024
87.71929825,87.71929825,783.2105263,783.2105263,black,experiment,legacy,legacy,legacy,0,uniform,1,undefined,1,right,56,0,56,56,0,0,56,56,0,0,56,56,56,56,0,Fri Oct 25 19:54:30 2019,The main experiment item,yes,SternbergTask.osexp,/Users/cristianbotello/Desktop/Advanced Quant/Lab 3.1,no,mono,no,18,no,white,no,no,768,legacy,44,11,/Users/cristianbotello/Desktop/Advanced Quant/Lab 3.2/CB-subject-4.csv,legacy,7 1,Kafkaesque Koffka,3.2.8,0,n,0,right,right,left,right,NA,548,30858,7412,548,NA,2,legacy,2,1024,2,48000,-16,experiment,4,even,8,392765,34562,389352,390523,3632,124659,390538,250808,3686,117245,394779,395329,391550,394779,NA,Sternberg Task,50,44643,57,yes,1024
87.93103448,87.93103448,783.2586207,783.2586207,black,experiment,legacy,legacy,legacy,0,uniform,1,undefined,1,right,57,0,57,57,0,0,57,57,0,0,57,57,57,57,0,Fri Oct 25 19:54:30 2019,The main experiment item,yes,SternbergTask.osexp,/Users/cristianbotello/Desktop/Advanced Quant/Lab 3.1,no,mono,no,18,no,white,no,no,768,legacy,45,11,/Users/cristianbotello/Desktop/Advanced Quant/Lab 3.2/CB-subject-4.csv,legacy,4 2 6 9,Kafkaesque Koffka,3.2.8,0,n,0,right,right,left,right,NA,786,30858,7412,786,NA,2,legacy,4,1024,2,48000,-16,experiment,4,even,7,398746,34562,395347,396502,3632,124659,396515,250808,3686,117245,400760,401549,397531,400760,NA,Sternberg Task,51,45429,58,yes,1024
88.13559322,88.13559322,779.7627119,779.7627119,black,experiment,legacy,legacy,legacy,0,uniform,1,undefined,1,right,58,0,58,58,0,0,58,58,0,0,58,58,58,58,0,Fri Oct 25 19:54:30 2019,The main experiment item,yes,SternbergTask.osexp,/Users/cristianbotello/Desktop/Advanced Quant/Lab 3.1,no,mono,no,18,no,white,no,no,768,legacy,46,11,/Users/cristianbotello/Desktop/Advanced Quant/Lab 3.2/CB-subject-4.csv,legacy,1 4 3 6 5,Kafkaesque Koffka,3.2.8,0,n,0,right,right,left,right,NA,577,30858,7412,577,NA,2,legacy,5,1024,2,48000,-16,experiment,4,even,8,404986,34562,401572,402748,3632,124659,402761,250808,3686,117245,406999,407581,403774,406999,NA,Sternberg Task,52,46006,59,yes,1024
88.33333333,88.33333333,777.1333333,777.1333333,black,experiment,legacy,legacy,legacy,0,uniform,1,undefined,1,right,59,0,59,59,0,0,59,59,0,0,59,59,59,59,0,Fri Oct 25 19:54:30 2019,The main experiment item,yes,SternbergTask.osexp,/Users/cristianbotello/Desktop/Advanced Quant/Lab 3.1,no,mono,no,18,no,white,no,no,768,legacy,47,11,/Users/cristianbotello/Desktop/Advanced Quant/Lab 3.2/CB-subject-4.csv,legacy,3 4 2,Kafkaesque Koffka,3.2.8,0,n,0,right,right,left,right,NA,622,30858,7412,622,NA,2,legacy,3,1024,2,48000,-16,experiment,4,even,5,411009,34562,407597,408771,3632,124659,408784,250808,3686,117245,413023,413647,409797,413023,NA,Sternberg Task,53,46628,60,yes,1024
88.52459016,88.52459016,772.1639344,772.1639344,black,experiment,legacy,legacy,legacy,0,uniform,1,undefined,1,left,60,0,60,60,0,0,60,60,0,0,60,60,60,60,0,Fri Oct 25 19:54:30 2019,The main experiment item,yes,SternbergTask.osexp,/Users/cristianbotello/Desktop/Advanced Quant/Lab 3.1,no,mono,no,18,no,white,no,no,768,legacy,48,11,/Users/cristianbotello/Desktop/Advanced Quant/Lab 3.2/CB-subject-4.csv,legacy,9 5 3 8 4,Kafkaesque Koffka,3.2.8,1,y,0,left,right,left,left,NA,474,30858,7412,474,NA,2,legacy,5,1024,2,48000,-16,experiment,4,even,9,417081,34562,413665,414838,3632,124659,414851,250808,3686,117245,419095,419572,415864,419094,NA,Sternberg Task,54,47102,61,yes,1024
88.70967742,88.70967742,768.0967742,768.0967742,black,experiment,legacy,legacy,legacy,0,uniform,1,undefined,1,right,61,0,61,61,0,0,61,61,0,0,61,61,61,61,0,Fri Oct 25 19:54:30 2019,The main experiment item,yes,SternbergTask.osexp,/Users/cristianbotello/Desktop/Advanced Quant/Lab 3.1,no,mono,no,18,no,white,no,no,768,legacy,49,11,/Users/cristianbotello/Desktop/Advanced Quant/Lab 3.2/CB-subject-4.csv,legacy,5 7 3,Kafkaesque Koffka,3.2.8,0,n,0,right,right,left,right,NA,520,30858,7412,520,NA,2,legacy,3,1024,2,48000,-16,experiment,4,even,9,423001,34562,419589,420760,3632,124659,420773,250808,3686,117245,425014,425537,421785,425014,NA,Sternberg Task,55,47622,62,yes,1024
88.88888889,88.88888889,764.015873,764.015873,black,experiment,legacy,legacy,legacy,0,uniform,1,undefined,1,right,62,0,62,62,0,0,62,62,0,0,62,62,62,62,0,Fri Oct 25 19:54:30 2019,The main experiment item,yes,SternbergTask.osexp,/Users/cristianbotello/Desktop/Advanced Quant/Lab 3.1,no,mono,no,18,no,white,no,no,768,legacy,50,11,/Users/cristianbotello/Desktop/Advanced Quant/Lab 3.2/CB-subject-4.csv,legacy,6 9 5,Kafkaesque Koffka,3.2.8,0,n,0,right,right,left,right,NA,511,30858,7412,511,NA,2,legacy,3,1024,2,48000,-16,experiment,4,even,8,428950,34562,425555,426704,3632,124659,426719,250808,3686,117245,430964,431478,427737,430963,NA,Sternberg Task,56,48133,63,yes,1024
89.0625,89.0625,758.890625,758.890625,black,experiment,legacy,legacy,legacy,0,uniform,1,undefined,1,left,63,0,63,63,0,0,63,63,0,0,63,63,63,63,0,Fri Oct 25 19:54:30 2019,The main experiment item,yes,SternbergTask.osexp,/Users/cristianbotello/Desktop/Advanced Quant/Lab 3.1,no,mono,no,18,no,white,no,no,768,legacy,51,11,/Users/cristianbotello/Desktop/Advanced Quant/Lab 3.2/CB-subject-4.csv,legacy,8,Kafkaesque Koffka,3.2.8,1,y,0,left,right,left,left,NA,436,30858,7412,436,NA,2,legacy,1,1024,2,48000,-16,experiment,4,even,8,434881,34562,431496,432640,3632,124659,432653,250808,3686,117245,436896,437335,433669,436896,NA,Sternberg Task,57,48569,64,yes,1024
89.23076923,89.23076923,754.8,754.8,black,experiment,legacy,legacy,legacy,0,uniform,1,undefined,1,right,64,0,64,64,0,0,64,64,0,0,64,64,64,64,0,Fri Oct 25 19:54:30 2019,The main experiment item,yes,SternbergTask.osexp,/Users/cristianbotello/Desktop/Advanced Quant/Lab 3.1,no,mono,no,18,no,white,no,no,768,legacy,52,11,/Users/cristianbotello/Desktop/Advanced Quant/Lab 3.2/CB-subject-4.csv,legacy,2 8 9 4 1,Kafkaesque Koffka,3.2.8,0,n,0,right,right,left,right,NA,493,30858,7412,493,NA,2,legacy,5,1024,2,48000,-16,experiment,4,even,5,440759,34562,437352,438516,3632,124659,438529,250808,3686,117245,442772,443268,439544,442772,NA,Sternberg Task,58,49062,65,yes,1024
89.39393939,89.39393939,751.6969697,751.6969697,black,experiment,legacy,legacy,legacy,0,uniform,1,undefined,1,right,65,0,65,65,0,0,65,65,0,0,65,65,65,65,0,Fri Oct 25 19:54:30 2019,The main experiment item,yes,SternbergTask.osexp,/Users/cristianbotello/Desktop/Advanced Quant/Lab 3.1,no,mono,no,18,no,white,no,no,768,legacy,53,11,/Users/cristianbotello/Desktop/Advanced Quant/Lab 3.2/CB-subject-4.csv,legacy,2 3 8 5 6 7,Kafkaesque Koffka,3.2.8,0,n,0,right,right,left,right,NA,550,30858,7412,550,NA,2,legacy,6,1024,2,48000,-16,experiment,4,even,1,446674,34562,443286,444430,3632,124659,444443,250808,3686,117245,448689,449242,445461,448688,NA,Sternberg Task,59,49612,66,yes,1024
89.55223881,89.55223881,747.7313433,747.7313433,black,experiment,legacy,legacy,legacy,0,uniform,1,undefined,1,left,66,0,66,66,0,0,66,66,0,0,66,66,66,66,0,Fri Oct 25 19:54:30 2019,The main experiment item,yes,SternbergTask.osexp,/Users/cristianbotello/Desktop/Advanced Quant/Lab 3.1,no,mono,no,18,no,white,no,no,768,legacy,54,11,/Users/cristianbotello/Desktop/Advanced Quant/Lab 3.2/CB-subject-4.csv,legacy,3 5 7 1,Kafkaesque Koffka,3.2.8,3,y,0,left,right,left,left,NA,486,30858,7412,486,NA,2,legacy,4,1024,2,48000,-16,experiment,4,even,7,452664,34562,449261,450421,3632,124659,450435,250808,3686,117245,454679,455168,451451,454679,NA,Sternberg Task,60,50098,67,yes,1024
89.70588235,89.70588235,744.3088235,744.3088235,black,experiment,legacy,legacy,legacy,0,uniform,1,undefined,1,right,67,0,67,67,0,0,67,67,0,0,67,67,67,67,0,Fri Oct 25 19:54:30 2019,The main experiment item,yes,SternbergTask.osexp,/Users/cristianbotello/Desktop/Advanced Quant/Lab 3.1,no,mono,no,18,no,white,no,no,768,legacy,55,11,/Users/cristianbotello/Desktop/Advanced Quant/Lab 3.2/CB-subject-4.csv,legacy,2 5 1 4,Kafkaesque Koffka,3.2.8,0,n,0,right,right,left,right,NA,515,30858,7412,515,NA,2,legacy,4,1024,2,48000,-16,experiment,4,even,6,458588,34562,455183,456346,3632,124659,456361,250808,3686,117245,460605,461123,457375,460604,NA,Sternberg Task,61,50613,68,yes,1024
89.85507246,89.85507246,740.6811594,740.6811594,black,experiment,legacy,legacy,legacy,0,uniform,1,undefined,1,left,68,0,68,68,0,0,68,68,0,0,68,68,68,68,0,Fri Oct 25 19:54:30 2019,The main experiment item,yes,SternbergTask.osexp,/Users/cristianbotello/Desktop/Advanced Quant/Lab 3.1,no,mono,no,18,no,white,no,no,768,legacy,56,11,/Users/cristianbotello/Desktop/Advanced Quant/Lab 3.2/CB-subject-4.csv,legacy,4 9 7 8 5 3,Kafkaesque Koffka,3.2.8,4,y,0,left,right,left,left,NA,494,30858,7412,494,NA,2,legacy,6,1024,2,48000,-16,experiment,4,even,8,464518,34562,461139,462277,3632,124659,462289,250808,3686,117245,466532,467029,463306,466532,NA,Sternberg Task,62,51107,69,yes,1024
90,90,737.1857143,737.1857143,black,experiment,legacy,legacy,legacy,0,uniform,1,undefined,1,left,69,0,69,69,0,0,69,69,0,0,69,69,69,69,0,Fri Oct 25 19:54:30 2019,The main experiment item,yes,SternbergTask.osexp,/Users/cristianbotello/Desktop/Advanced Quant/Lab 3.1,no,mono,no,18,no,white,no,no,768,legacy,57,11,/Users/cristianbotello/Desktop/Advanced Quant/Lab 3.2/CB-subject-4.csv,legacy,7 8 4 6 9 5,Kafkaesque Koffka,3.2.8,4,y,0,left,right,left,left,NA,496,30858,7412,496,NA,2,legacy,6,1024,2,48000,-16,experiment,4,even,6,470444,34562,467051,468200,3632,124659,468214,250808,3686,117245,472458,472957,469230,472458,NA,Sternberg Task,63,51603,70,yes,1024
90.14084507,90.14084507,734.3802817,734.3802817,black,experiment,legacy,legacy,legacy,0,uniform,1,undefined,1,right,70,0,70,70,0,0,70,70,0,0,70,70,70,70,0,Fri Oct 25 19:54:30 2019,The main experiment item,yes,SternbergTask.osexp,/Users/cristianbotello/Desktop/Advanced Quant/Lab 3.1,no,mono,no,18,no,white,no,no,768,legacy,58,11,/Users/cristianbotello/Desktop/Advanced Quant/Lab 3.2/CB-subject-4.csv,legacy,3 9 8 1 6 4,Kafkaesque Koffka,3.2.8,0,n,0,right,right,left,right,NA,538,30858,7412,538,NA,2,legacy,6,1024,2,48000,-16,experiment,4,even,7,476373,34562,472975,474131,3632,124659,474146,250808,3686,117245,478387,478928,475160,478387,NA,Sternberg Task,64,52141,71,yes,1024
90.27777778,90.27777778,729.375,729.375,black,experiment,legacy,legacy,legacy,0,uniform,1,undefined,1,left,71,0,71,71,0,0,71,71,0,0,71,71,71,71,0,Fri Oct 25 19:54:30 2019,The main experiment item,yes,SternbergTask.osexp,/Users/cristianbotello/Desktop/Advanced Quant/Lab 3.1,no,mono,no,18,no,white,no,no,768,legacy,59,11,/Users/cristianbotello/Desktop/Advanced Quant/Lab 3.2/CB-subject-4.csv,legacy,2 5 4 8 7,Kafkaesque Koffka,3.2.8,3,y,0,left,right,left,left,NA,374,30858,7412,374,NA,2,legacy,5,1024,2,48000,-16,experiment,4,even,4,482333,34562,478944,480092,3632,124659,480104,250808,3686,117245,484347,484723,481121,484347,NA,Sternberg Task,65,52515,72,yes,1024
90.4109589,90.4109589,728.9589041,728.9589041,black,experiment,legacy,legacy,legacy,0,uniform,1,undefined,1,left,72,0,72,72,0,0,72,72,0,0,72,72,72,72,0,Fri Oct 25 19:54:30 2019,The main experiment item,yes,SternbergTask.osexp,/Users/cristianbotello/Desktop/Advanced Quant/Lab 3.1,no,mono,no,18,no,white,no,no,768,legacy,60,11,/Users/cristianbotello/Desktop/Advanced Quant/Lab 3.2/CB-subject-4.csv,legacy,3 5 4 7,Kafkaesque Koffka,3.2.8,1,y,0,left,right,left,left,NA,699,30858,7412,699,NA,2,legacy,4,1024,2,48000,-16,experiment,4,even,3,488140,34562,484739,485897,3632,124659,485910,250808,3686,117245,490153,490855,486927,490153,NA,Sternberg Task,66,53214,73,yes,1024
90.54054054,90.54054054,725.2837838,725.2837838,black,experiment,legacy,legacy,legacy,0,uniform,1,undefined,1,right,73,0,73,73,0,0,73,73,0,0,73,73,73,73,0,Fri Oct 25 19:54:30 2019,The main experiment item,yes,SternbergTask.osexp,/Users/cristianbotello/Desktop/Advanced Quant/Lab 3.1,no,mono,no,18,no,white,no,no,768,legacy,61,11,/Users/cristianbotello/Desktop/Advanced Quant/Lab 3.2/CB-subject-4.csv,legacy,5 2,Kafkaesque Koffka,3.2.8,0,n,0,right,right,left,right,NA,457,30858,7412,457,NA,2,legacy,2,1024,2,48000,-16,experiment,4,even,7,494260,34562,490874,492018,3632,124659,492031,250808,3686,117245,496274,496733,493047,496274,NA,Sternberg Task,67,53671,74,yes,1024
90.66666667,90.66666667,722.3466667,722.3466667,black,experiment,legacy,legacy,legacy,0,uniform,1,undefined,1,left,74,0,74,74,0,0,74,74,0,0,74,74,74,74,0,Fri Oct 25 19:54:30 2019,The main experiment item,yes,SternbergTask.osexp,/Users/cristianbotello/Desktop/Advanced Quant/Lab 3.1,no,mono,no,18,no,white,no,no,768,legacy,62,11,/Users/cristianbotello/Desktop/Advanced Quant/Lab 3.2/CB-subject-4.csv,legacy,6 9 3 1,Kafkaesque Koffka,3.2.8,4,y,0,left,right,left,left,NA,505,30858,7412,505,NA,2,legacy,4,1024,2,48000,-16,experiment,4,even,1,500152,34562,496751,497914,3632,124659,497927,250808,3686,117245,502166,502673,498939,502166,NA,Sternberg Task,68,54176,75,yes,1024
90.78947368,90.78947368,719.4868421,719.4868421,black,experiment,legacy,legacy,legacy,0,uniform,1,undefined,1,left,75,0,75,75,0,0,75,75,0,0,75,75,75,75,0,Fri Oct 25 19:54:30 2019,The main experiment item,yes,SternbergTask.osexp,/Users/cristianbotello/Desktop/Advanced Quant/Lab 3.1,no,mono,no,18,no,white,no,no,768,legacy,63,11,/Users/cristianbotello/Desktop/Advanced Quant/Lab 3.2/CB-subject-4.csv,legacy,8 3,Kafkaesque Koffka,3.2.8,2,y,0,left,right,left,left,NA,505,30858,7412,505,NA,2,legacy,2,1024,2,48000,-16,experiment,4,even,3,506077,34562,502690,503836,3632,124659,503849,250808,3686,117245,508089,508598,504864,508089,NA,Sternberg Task,69,54681,76,yes,1024
90.90909091,90.90909091,716.5454545,716.5454545,black,experiment,legacy,legacy,legacy,0,uniform,1,undefined,1,left,76,0,76,76,0,0,76,76,0,0,76,76,76,76,0,Fri Oct 25 19:54:30 2019,The main experiment item,yes,SternbergTask.osexp,/Users/cristianbotello/Desktop/Advanced Quant/Lab 3.1,no,mono,no,18,no,white,no,no,768,legacy,64,11,/Users/cristianbotello/Desktop/Advanced Quant/Lab 3.2/CB-subject-4.csv,legacy,8 5 4 7 3 1,Kafkaesque Koffka,3.2.8,2,y,0,left,right,left,left,NA,493,30858,7412,493,NA,2,legacy,6,1024,2,48000,-16,experiment,4,even,5,511998,34562,508615,509759,3632,124659,509772,250808,3686,117245,514010,514506,510783,514010,NA,Sternberg Task,70,55174,77,yes,1024
91.02564103,91.02564103,714.5384615,714.5384615,black,experiment,legacy,legacy,legacy,0,uniform,1,undefined,1,left,77,0,77,77,0,0,77,77,0,0,77,77,77,77,0,Fri Oct 25 19:54:30 2019,The main experiment item,yes,SternbergTask.osexp,/Users/cristianbotello/Desktop/Advanced Quant/Lab 3.1,no,mono,no,18,no,white,no,no,768,legacy,65,11,/Users/cristianbotello/Desktop/Advanced Quant/Lab 3.2/CB-subject-4.csv,legacy,3 4 9 6 2 9,Kafkaesque Koffka,3.2.8,5,y,0,left,right,left,left,NA,560,30858,7412,560,NA,2,legacy,6,1024,2,48000,-16,experiment,4,even,2,517927,34562,514527,515686,3632,124659,515699,250808,3686,117245,519939,520502,516715,519939,NA,Sternberg Task,71,55734,78,yes,1024
91.13924051,91.13924051,712.3291139,712.3291139,black,experiment,legacy,legacy,legacy,0,uniform,1,undefined,1,right,78,0,78,78,0,0,78,78,0,0,78,78,78,78,0,Fri Oct 25 19:54:30 2019,The main experiment item,yes,SternbergTask.osexp,/Users/cristianbotello/Desktop/Advanced Quant/Lab 3.1,no,mono,no,18,no,white,no,no,768,legacy,66,11,/Users/cristianbotello/Desktop/Advanced Quant/Lab 3.2/CB-subject-4.csv,legacy,6 8,Kafkaesque Koffka,3.2.8,0,n,0,right,right,left,right,NA,540,30858,7412,540,NA,2,legacy,2,1024,2,48000,-16,experiment,4,even,9,523918,34562,520523,521676,3632,124659,521689,250808,3686,117245,525932,526474,522705,525932,NA,Sternberg Task,72,56274,79,yes,1024
91.25,91.25,709.6875,709.6875,black,experiment,legacy,legacy,legacy,0,uniform,1,undefined,1,left,79,0,79,79,0,0,79,79,0,0,79,79,79,79,0,Fri Oct 25 19:54:30 2019,The main experiment item,yes,SternbergTask.osexp,/Users/cristianbotello/Desktop/Advanced Quant/Lab 3.1,no,mono,no,18,no,white,no,no,768,legacy,67,11,/Users/cristianbotello/Desktop/Advanced Quant/Lab 3.2/CB-subject-4.csv,legacy,3 2 1 4 7,Kafkaesque Koffka,3.2.8,2,y,0,left,right,left,left,NA,501,30858,7412,501,NA,2,legacy,5,1024,2,48000,-16,experiment,4,even,2,529904,34562,526492,527665,3632,124659,527679,250808,3686,117245,531918,532423,528691,531918,NA,Sternberg Task,73,56775,80,yes,1024
91.35802469,91.35802469,706.7160494,706.7160494,black,experiment,legacy,legacy,legacy,0,uniform,1,undefined,1,left,80,0,80,80,0,0,80,80,0,0,80,80,80,80,0,Fri Oct 25 19:54:30 2019,The main experiment item,yes,SternbergTask.osexp,/Users/cristianbotello/Desktop/Advanced Quant/Lab 3.1,no,mono,no,18,no,white,no,no,768,legacy,68,11,/Users/cristianbotello/Desktop/Advanced Quant/Lab 3.2/CB-subject-4.csv,legacy,6 1 2,Kafkaesque Koffka,3.2.8,3,y,0,left,right,left,left,NA,469,30858,7412,469,NA,2,legacy,3,1024,2,48000,-16,experiment,4,even,2,535836,34562,532440,533591,3632,124659,533608,250808,3686,117245,537849,538321,534622,537849,NA,Sternberg Task,74,57244,81,yes,1024
91.46341463,91.46341463,705.3292683,705.3292683,black,experiment,legacy,legacy,legacy,0,uniform,1,undefined,1,left,81,0,81,81,0,0,81,81,0,0,81,81,81,81,0,Fri Oct 25 19:54:30 2019,The main experiment item,yes,SternbergTask.osexp,/Users/cristianbotello/Desktop/Advanced Quant/Lab 3.1,no,mono,no,18,no,white,no,no,768,legacy,69,11,/Users/cristianbotello/Desktop/Advanced Quant/Lab 3.2/CB-subject-4.csv,legacy,2 6 1 7 4,Kafkaesque Koffka,3.2.8,2,y,0,left,right,left,left,NA,593,30858,7412,593,NA,2,legacy,5,1024,2,48000,-16,experiment,4,even,6,541734,34562,538339,539492,3632,124659,539507,250808,3686,117245,543748,544344,540522,543748,NA,Sternberg Task,75,57837,82,yes,1024
91.56626506,91.56626506,702.7349398,702.7349398,black,experiment,legacy,legacy,legacy,0,uniform,1,undefined,1,left,82,0,82,82,0,0,82,82,0,0,82,82,82,82,0,Fri Oct 25 19:54:30 2019,The main experiment item,yes,SternbergTask.osexp,/Users/cristianbotello/Desktop/Advanced Quant/Lab 3.1,no,mono,no,18,no,white,no,no,768,legacy,70,11,/Users/cristianbotello/Desktop/Advanced Quant/Lab 3.2/CB-subject-4.csv,legacy,3 9 7 6 4,Kafkaesque Koffka,3.2.8,3,y,0,left,right,left,left,NA,490,30858,7412,490,NA,2,legacy,5,1024,2,48000,-16,experiment,4,even,7,547764,34562,544365,545519,3632,124659,545532,250808,3686,117245,549779,550271,546547,549778,NA,Sternberg Task,76,58327,83,yes,1024
91.66666667,91.66666667,700.75,700.75,black,experiment,legacy,legacy,legacy,0,uniform,1,undefined,1,left,83,0,83,83,0,0,83,83,0,0,83,83,83,83,0,Fri Oct 25 19:54:30 2019,The main experiment item,yes,SternbergTask.osexp,/Users/cristianbotello/Desktop/Advanced Quant/Lab 3.1,no,mono,no,18,no,white,no,no,768,legacy,71,11,/Users/cristianbotello/Desktop/Advanced Quant/Lab 3.2/CB-subject-4.csv,legacy,6 9 7 4 5 1,Kafkaesque Koffka,3.2.8,2,y,0,left,right,left,left,NA,536,30858,7412,536,NA,2,legacy,6,1024,2,48000,-16,experiment,4,even,9,553678,34562,550288,551430,3632,124659,551449,250808,3686,117245,555693,556231,552466,555693,NA,Sternberg Task,77,58863,84,yes,1024
91.76470588,91.76470588,698.2235294,698.2235294,black,experiment,legacy,legacy,legacy,0,uniform,1,undefined,1,left,84,0,84,84,0,0,84,84,0,0,84,84,84,84,0,Fri Oct 25 19:54:30 2019,The main experiment item,yes,SternbergTask.osexp,/Users/cristianbotello/Desktop/Advanced Quant/Lab 3.1,no,mono,no,18,no,white,no,no,768,legacy,72,11,/Users/cristianbotello/Desktop/Advanced Quant/Lab 3.2/CB-subject-4.csv,legacy,6 8 9 3 4 9,Kafkaesque Koffka,3.2.8,5,y,0,left,right,left,left,NA,486,30858,7412,486,NA,2,legacy,6,1024,2,48000,-16,experiment,4,even,4,559638,34562,556248,557396,3632,124659,557411,250808,3686,117245,561652,562141,558427,561652,NA,Sternberg Task,78,59349,85,yes,1024
91.86046512,91.86046512,695.2790698,695.2790698,black,experiment,legacy,legacy,legacy,0,uniform,1,undefined,1,left,85,0,85,85,0,0,85,85,0,0,85,85,85,85,0,Fri Oct 25 19:54:30 2019,The main experiment item,yes,SternbergTask.osexp,/Users/cristianbotello/Desktop/Advanced Quant/Lab 3.1,no,mono,no,18,no,white,no,no,768,legacy,73,11,/Users/cristianbotello/Desktop/Advanced Quant/Lab 3.2/CB-subject-4.csv,legacy,6 5,Kafkaesque Koffka,3.2.8,2,y,0,left,right,left,left,NA,445,30858,7412,445,NA,2,legacy,2,1024,2,48000,-16,experiment,4,even,5,565556,34562,562164,563313,3632,124659,563326,250808,3686,117245,567570,568019,564343,567570,NA,Sternberg Task,79,59794,86,yes,1024
91.95402299,91.95402299,693.1494253,693.1494253,black,experiment,legacy,legacy,legacy,0,uniform,1,undefined,1,right,86,0,86,86,0,0,86,86,0,0,86,86,86,86,0,Fri Oct 25 19:54:30 2019,The main experiment item,yes,SternbergTask.osexp,/Users/cristianbotello/Desktop/Advanced Quant/Lab 3.1,no,mono,no,18,no,white,no,no,768,legacy,74,11,/Users/cristianbotello/Desktop/Advanced Quant/Lab 3.2/CB-subject-4.csv,legacy,5,Kafkaesque Koffka,3.2.8,0,n,0,right,right,left,right,NA,510,30858,7412,510,NA,2,legacy,1,1024,2,48000,-16,experiment,4,even,8,571431,34562,568036,569189,3632,124659,569202,250808,3686,117245,573445,573957,570218,573445,NA,Sternberg Task,80,60304,87,yes,1024
92.04545455,92.04545455,691.1931818,691.1931818,black,experiment,legacy,legacy,legacy,0,uniform,1,undefined,1,left,87,0,87,87,0,0,87,87,0,0,87,87,87,87,0,Fri Oct 25 19:54:30 2019,The main experiment item,yes,SternbergTask.osexp,/Users/cristianbotello/Desktop/Advanced Quant/Lab 3.1,no,mono,no,18,no,white,no,no,768,legacy,75,11,/Users/cristianbotello/Desktop/Advanced Quant/Lab 3.2/CB-subject-4.csv,legacy,8 7 3,Kafkaesque Koffka,3.2.8,1,y,0,left,right,left,left,NA,521,30858,7412,521,NA,2,legacy,3,1024,2,48000,-16,experiment,4,even,8,577362,34562,573974,575120,3632,124659,575133,250808,3686,117245,579377,579901,576148,579377,NA,Sternberg Task,81,60825,88,yes,1024
92.13483146,92.13483146,688.3483146,688.3483146,black,experiment,legacy,legacy,legacy,0,uniform,1,undefined,1,left,88,0,88,88,0,0,88,88,0,0,88,88,88,88,0,Fri Oct 25 19:54:30 2019,The main experiment item,yes,SternbergTask.osexp,/Users/cristianbotello/Desktop/Advanced Quant/Lab 3.1,no,mono,no,18,no,white,no,no,768,legacy,76,11,/Users/cristianbotello/Desktop/Advanced Quant/Lab 3.2/CB-subject-4.csv,legacy,8 9 6 1,Kafkaesque Koffka,3.2.8,2,y,0,left,right,left,left,NA,438,30858,7412,438,NA,2,legacy,4,1024,2,48000,-16,experiment,4,even,9,583318,34562,579922,581076,3632,124659,581089,250808,3686,117245,585332,585773,582105,585332,NA,Sternberg Task,82,61263,89,yes,1024
92.22222222,92.22222222,686.1777778,686.1777778,black,experiment,legacy,legacy,legacy,0,uniform,1,undefined,1,right,89,0,89,89,0,0,89,89,0,0,89,89,89,89,0,Fri Oct 25 19:54:30 2019,The main experiment item,yes,SternbergTask.osexp,/Users/cristianbotello/Desktop/Advanced Quant/Lab 3.1,no,mono,no,18,no,white,no,no,768,legacy,77,11,/Users/cristianbotello/Desktop/Advanced Quant/Lab 3.2/CB-subject-4.csv,legacy,4 1,Kafkaesque Koffka,3.2.8,0,n,0,right,right,left,right,NA,493,30858,7412,493,NA,2,legacy,2,1024,2,48000,-16,experiment,4,even,6,589186,34562,585791,586944,3632,124659,586957,250808,3686,117245,591200,591696,587973,591200,NA,Sternberg Task,83,61756,90,yes,1024
92.30769231,92.30769231,682.9230769,682.9230769,black,experiment,legacy,legacy,legacy,0,uniform,1,undefined,1,left,90,0,90,90,0,0,90,90,0,0,90,90,90,90,0,Fri Oct 25 19:54:30 2019,The main experiment item,yes,SternbergTask.osexp,/Users/cristianbotello/Desktop/Advanced Quant/Lab 3.1,no,mono,no,18,no,white,no,no,768,legacy,78,11,/Users/cristianbotello/Desktop/Advanced Quant/Lab 3.2/CB-subject-4.csv,legacy,7,Kafkaesque Koffka,3.2.8,1,y,0,left,right,left,left,NA,390,30858,7412,390,NA,2,legacy,1,1024,2,48000,-16,experiment,4,even,7,595110,34562,591713,592871,3632,124659,592884,250808,3686,117245,597124,597517,593897,597124,NA,Sternberg Task,84,62146,91,yes,1024
92.39130435,92.39130435,682.0652174,682.0652174,black,experiment,legacy,legacy,legacy,0,uniform,1,undefined,1,right,91,0,91,91,0,0,91,91,0,0,91,91,91,91,0,Fri Oct 25 19:54:30 2019,The main experiment item,yes,SternbergTask.osexp,/Users/cristianbotello/Desktop/Advanced Quant/Lab 3.1,no,mono,no,18,no,white,no,no,768,legacy,79,11,/Users/cristianbotello/Desktop/Advanced Quant/Lab 3.2/CB-subject-4.csv,legacy,6 9 4 5 2,Kafkaesque Koffka,3.2.8,0,n,0,right,right,left,right,NA,604,30858,7412,604,NA,2,legacy,5,1024,2,48000,-16,experiment,4,even,1,600927,34562,597534,598686,3632,124659,598699,250808,3686,117245,602941,603548,599715,602940,NA,Sternberg Task,85,62750,92,yes,1024
92.47311828,92.47311828,680.4623656,680.4623656,black,experiment,legacy,legacy,legacy,0,uniform,1,undefined,1,right,92,0,92,92,0,0,92,92,0,0,92,92,92,92,0,Fri Oct 25 19:54:30 2019,The main experiment item,yes,SternbergTask.osexp,/Users/cristianbotello/Desktop/Advanced Quant/Lab 3.1,no,mono,no,18,no,white,no,no,768,legacy,80,11,/Users/cristianbotello/Desktop/Advanced Quant/Lab 3.2/CB-subject-4.csv,legacy,9 7 4 5 8,Kafkaesque Koffka,3.2.8,0,n,0,right,right,left,right,NA,533,30858,7412,533,NA,2,legacy,5,1024,2,48000,-16,experiment,4,even,6,606971,34562,603564,604729,3632,124659,604741,250808,3686,117245,608985,609521,605757,608985,NA,Sternberg Task,86,63283,93,yes,1024
92.55319149,92.55319149,679.2446809,679.2446809,black,experiment,legacy,legacy,legacy,0,uniform,1,undefined,1,right,93,0,93,93,0,0,93,93,0,0,93,93,93,93,0,Fri Oct 25 19:54:30 2019,The main experiment item,yes,SternbergTask.osexp,/Users/cristianbotello/Desktop/Advanced Quant/Lab 3.1,no,mono,no,18,no,white,no,no,768,legacy,81,11,/Users/cristianbotello/Desktop/Advanced Quant/Lab 3.2/CB-subject-4.csv,legacy,7 6 4 8 1 2,Kafkaesque Koffka,3.2.8,0,n,0,right,right,left,right,NA,566,30858,7412,566,NA,2,legacy,6,1024,2,48000,-16,experiment,4,even,9,612943,34562,609540,610705,3632,124659,610718,250808,3686,117245,614958,615528,611731,614958,NA,Sternberg Task,87,63849,94,yes,1024
92.63157895,92.63157895,676.8421053,676.8421053,black,experiment,legacy,legacy,legacy,0,uniform,1,undefined,1,left,94,0,94,94,0,0,94,94,0,0,94,94,94,94,0,Fri Oct 25 19:54:30 2019,The main experiment item,yes,SternbergTask.osexp,/Users/cristianbotello/Desktop/Advanced Quant/Lab 3.1,no,mono,no,18,no,white,no,no,768,legacy,82,11,/Users/cristianbotello/Desktop/Advanced Quant/Lab 3.2/CB-subject-4.csv,legacy,8 5 1 3 9,Kafkaesque Koffka,3.2.8,4,y,0,left,right,left,left,NA,451,30858,7412,451,NA,2,legacy,5,1024,2,48000,-16,experiment,4,even,3,618936,34562,615549,616696,3632,124659,616708,250808,3686,117245,620951,621405,617724,620951,NA,Sternberg Task,88,64300,95,yes,1024
92.70833333,92.70833333,674.6041667,674.6041667,black,experiment,legacy,legacy,legacy,0,uniform,1,undefined,1,left,95,0,95,95,0,0,95,95,0,0,95,95,95,95,0,Fri Oct 25 19:54:30 2019,The main experiment item,yes,SternbergTask.osexp,/Users/cristianbotello/Desktop/Advanced Quant/Lab 3.1,no,mono,no,18,no,white,no,no,768,legacy,83,11,/Users/cristianbotello/Desktop/Advanced Quant/Lab 3.2/CB-subject-4.csv,legacy,2 3,Kafkaesque Koffka,3.2.8,1,y,0,left,right,left,left,NA,462,30858,7412,462,NA,2,legacy,2,1024,2,48000,-16,experiment,4,even,2,624814,34562,621424,622571,3632,124659,622584,250808,3686,117245,626829,627294,623601,626829,NA,Sternberg Task,89,64762,96,yes,1024
92.78350515,92.78350515,672.8762887,672.8762887,black,experiment,legacy,legacy,legacy,0,uniform,1,undefined,1,right,96,0,96,96,0,0,96,96,0,0,96,96,96,96,0,Fri Oct 25 19:54:30 2019,The main experiment item,yes,SternbergTask.osexp,/Users/cristianbotello/Desktop/Advanced Quant/Lab 3.1,no,mono,no,18,no,white,no,no,768,legacy,84,11,/Users/cristianbotello/Desktop/Advanced Quant/Lab 3.2/CB-subject-4.csv,legacy,1 4 9 2 5,Kafkaesque Koffka,3.2.8,0,n,0,right,right,left,right,NA,507,30858,7412,507,NA,2,legacy,5,1024,2,48000,-16,experiment,4,even,7,630714,34562,627310,628474,3632,124659,628486,250808,3686,117245,632728,633239,629501,632728,NA,Sternberg Task,90,65269,97,yes,1024
92.85714286,92.85714286,672.5408163,672.5408163,black,experiment,legacy,legacy,legacy,0,uniform,1,undefined,1,left,97,0,97,97,0,0,97,97,0,0,97,97,97,97,0,Fri Oct 25 19:54:30 2019,The main experiment item,yes,SternbergTask.osexp,/Users/cristianbotello/Desktop/Advanced Quant/Lab 3.1,no,mono,no,18,no,white,no,no,768,legacy,85,11,/Users/cristianbotello/Desktop/Advanced Quant/Lab 3.2/CB-subject-4.csv,legacy,3 9 6 2,Kafkaesque Koffka,3.2.8,4,y,0,left,right,left,left,NA,640,30858,7412,640,NA,2,legacy,4,1024,2,48000,-16,experiment,4,even,2,636651,34562,633254,634408,3632,124659,634422,250808,3686,117245,638665,639309,635438,638665,NA,Sternberg Task,91,65909,98,yes,1024
92.92929293,92.92929293,671.0606061,671.0606061,black,experiment,legacy,legacy,legacy,0,uniform,1,undefined,1,right,98,0,98,98,0,0,98,98,0,0,98,98,98,98,0,Fri Oct 25 19:54:30 2019,The main experiment item,yes,SternbergTask.osexp,/Users/cristianbotello/Desktop/Advanced Quant/Lab 3.1,no,mono,no,18,no,white,no,no,768,legacy,86,11,/Users/cristianbotello/Desktop/Advanced Quant/Lab 3.2/CB-subject-4.csv,legacy,7 3 2 8,Kafkaesque Koffka,3.2.8,0,n,0,right,right,left,right,NA,526,30858,7412,526,NA,2,legacy,4,1024,2,48000,-16,experiment,4,even,4,642733,34562,639326,640488,3632,124659,640503,250808,3686,117245,644747,645276,641518,644747,NA,Sternberg Task,92,66435,99,yes,1024
93,93,670.31,670.31,black,experiment,legacy,legacy,legacy,0,uniform,1,undefined,1,right,99,0,99,99,0,0,99,99,0,0,99,99,99,99,0,Fri Oct 25 19:54:30 2019,The main experiment item,yes,SternbergTask.osexp,/Users/cristianbotello/Desktop/Advanced Quant/Lab 3.1,no,mono,no,18,no,white,no,no,768,legacy,87,11,/Users/cristianbotello/Desktop/Advanced Quant/Lab 3.2/CB-subject-4.csv,legacy,7 9,Kafkaesque Koffka,3.2.8,0,n,0,right,right,left,right,NA,596,30858,7412,596,NA,2,legacy,2,1024,2,48000,-16,experiment,4,even,1,648686,34562,645295,646443,3632,124659,646456,250808,3686,117245,650701,651301,647471,650700,NA,Sternberg Task,93,67031,100,yes,1024
93.06930693,93.06930693,672.970297,672.970297,black,experiment,legacy,legacy,legacy,0,uniform,1,undefined,1,right,100,0,100,100,0,0,100,100,0,0,100,100,100,100,0,Fri Oct 25 19:54:30 2019,The main experiment item,yes,SternbergTask.osexp,/Users/cristianbotello/Desktop/Advanced Quant/Lab 3.1,no,mono,no,18,no,white,no,no,768,legacy,88,11,/Users/cristianbotello/Desktop/Advanced Quant/Lab 3.2/CB-subject-4.csv,legacy,8 4 3 5,Kafkaesque Koffka,3.2.8,0,n,0,right,right,left,right,NA,939,30858,7412,939,NA,2,legacy,4,1024,2,48000,-16,experiment,4,even,6,654695,34562,651317,652450,3632,124659,652462,250808,3686,117245,656706,657649,653478,656706,NA,Sternberg Task,94,67970,101,yes,1024
93.1372549,93.1372549,673.7352941,673.7352941,black,experiment,legacy,legacy,legacy,0,uniform,1,undefined,1,right,101,0,101,101,0,0,101,101,0,0,101,101,101,101,0,Fri Oct 25 19:54:30 2019,The main experiment item,yes,SternbergTask.osexp,/Users/cristianbotello/Desktop/Advanced Quant/Lab 3.1,no,mono,no,18,no,white,no,no,768,legacy,89,11,/Users/cristianbotello/Desktop/Advanced Quant/Lab 3.2/CB-subject-4.csv,legacy,4 2 7 6 1 3,Kafkaesque Koffka,3.2.8,0,n,0,right,right,left,right,NA,751,30858,7412,751,NA,2,legacy,6,1024,2,48000,-16,experiment,4,even,8,661061,34562,657671,658819,3632,124659,658832,250808,3686,117245,663076,663830,659848,663076,NA,Sternberg Task,95,68721,102,yes,1024
93.2038835,93.2038835,671.3592233,671.3592233,black,experiment,legacy,legacy,legacy,0,uniform,1,undefined,1,left,102,0,102,102,0,0,102,102,0,0,102,102,102,102,0,Fri Oct 25 19:54:30 2019,The main experiment item,yes,SternbergTask.osexp,/Users/cristianbotello/Desktop/Advanced Quant/Lab 3.1,no,mono,no,18,no,white,no,no,768,legacy,90,11,/Users/cristianbotello/Desktop/Advanced Quant/Lab 3.2/CB-subject-4.csv,legacy,9 3 8 2 1 4,Kafkaesque Koffka,3.2.8,3,y,0,left,right,left,left,NA,429,30858,7412,429,NA,2,legacy,6,1024,2,48000,-16,experiment,4,even,8,667246,34562,663845,665005,3632,124659,665018,250808,3686,117245,669260,669692,666033,669260,NA,Sternberg Task,96,69150,103,yes,1024
93.26923077,93.26923077,672.8846154,672.8846154,black,experiment,legacy,legacy,legacy,0,uniform,1,undefined,1,left,103,0,103,103,0,0,103,103,0,0,103,103,103,103,0,Fri Oct 25 19:54:30 2019,The main experiment item,yes,SternbergTask.osexp,/Users/cristianbotello/Desktop/Advanced Quant/Lab 3.1,no,mono,no,18,no,white,no,no,768,legacy,91,11,/Users/cristianbotello/Desktop/Advanced Quant/Lab 3.2/CB-subject-4.csv,legacy,8 1 6,Kafkaesque Koffka,3.2.8,3,y,0,left,right,left,left,NA,830,30858,7412,830,NA,2,legacy,3,1024,2,48000,-16,experiment,4,even,6,673107,34562,669709,670869,3632,124659,670882,250808,3686,117245,675122,675955,671895,675122,NA,Sternberg Task,97,69980,104,yes,1024
93.33333333,93.33333333,672.0190476,672.0190476,black,experiment,legacy,legacy,legacy,0,uniform,1,undefined,1,right,104,0,104,104,0,0,104,104,0,0,104,104,104,104,0,Fri Oct 25 19:54:30 2019,The main experiment item,yes,SternbergTask.osexp,/Users/cristianbotello/Desktop/Advanced Quant/Lab 3.1,no,mono,no,18,no,white,no,no,768,legacy,92,11,/Users/cristianbotello/Desktop/Advanced Quant/Lab 3.2/CB-subject-4.csv,legacy,8 5 7 3 6,Kafkaesque Koffka,3.2.8,0,n,0,right,right,left,right,NA,582,30858,7412,582,NA,2,legacy,5,1024,2,48000,-16,experiment,4,even,9,679368,34562,675972,677129,3632,124659,677141,250808,3686,117245,681382,681968,678155,681382,NA,Sternberg Task,98,70562,105,yes,1024
93.39622642,93.39622642,669.9339623,669.9339623,black,experiment,legacy,legacy,legacy,0,uniform,1,undefined,1,left,105,0,105,105,0,0,105,105,0,0,105,105,105,105,0,Fri Oct 25 19:54:30 2019,The main experiment item,yes,SternbergTask.osexp,/Users/cristianbotello/Desktop/Advanced Quant/Lab 3.1,no,mono,no,18,no,white,no,no,768,legacy,93,11,/Users/cristianbotello/Desktop/Advanced Quant/Lab 3.2/CB-subject-4.csv,legacy,9 6 2 4 1,Kafkaesque Koffka,3.2.8,4,y,0,left,right,left,left,NA,451,30858,7412,451,NA,2,legacy,5,1024,2,48000,-16,experiment,4,even,4,685375,34562,681984,683133,3632,124659,683147,250808,3686,117245,687391,687846,684163,687391,NA,Sternberg Task,99,71013,106,yes,1024
93.45794393,93.45794393,667.8878505,667.8878505,black,experiment,legacy,legacy,legacy,0,uniform,1,undefined,1,left,106,0,106,106,0,0,106,106,0,0,106,106,106,106,0,Fri Oct 25 19:54:30 2019,The main experiment item,yes,SternbergTask.osexp,/Users/cristianbotello/Desktop/Advanced Quant/Lab 3.1,no,mono,no,18,no,white,no,no,768,legacy,94,11,/Users/cristianbotello/Desktop/Advanced Quant/Lab 3.2/CB-subject-4.csv,legacy,4 6 5 8,Kafkaesque Koffka,3.2.8,1,y,0,left,right,left,left,NA,451,30858,7412,451,NA,2,legacy,4,1024,2,48000,-16,experiment,4,even,4,691252,34562,687865,689011,3632,124659,689024,250808,3686,117245,693266,693720,690040,693265,NA,Sternberg Task,100,71464,107,yes,1024
93.51851852,93.51851852,667.2777778,667.2777778,black,experiment,legacy,legacy,legacy,0,uniform,1,undefined,1,right,107,0,107,107,0,0,107,107,0,0,107,107,107,107,0,Fri Oct 25 19:54:30 2019,The main experiment item,yes,SternbergTask.osexp,/Users/cristianbotello/Desktop/Advanced Quant/Lab 3.1,no,mono,no,18,no,white,no,no,768,legacy,95,11,/Users/cristianbotello/Desktop/Advanced Quant/Lab 3.2/CB-subject-4.csv,legacy,7 4 2 8 1 9,Kafkaesque Koffka,3.2.8,0,n,0,right,right,left,right,NA,602,30858,7412,602,NA,2,legacy,6,1024,2,48000,-16,experiment,4,even,5,697136,34562,693741,694895,3632,124659,694907,250808,3686,117245,699150,699757,695923,699150,NA,Sternberg Task,101,72066,108,yes,1024
93.57798165,93.57798165,665.559633,665.559633,black,experiment,legacy,legacy,legacy,0,uniform,1,undefined,1,left,108,0,108,108,0,0,108,108,0,0,108,108,108,108,0,Fri Oct 25 19:54:30 2019,The main experiment item,yes,SternbergTask.osexp,/Users/cristianbotello/Desktop/Advanced Quant/Lab 3.1,no,mono,no,18,no,white,no,no,768,legacy,96,11,/Users/cristianbotello/Desktop/Advanced Quant/Lab 3.2/CB-subject-4.csv,legacy,1 4 9 3 2 5,Kafkaesque Koffka,3.2.8,3,y,0,left,right,left,left,NA,480,30858,7412,480,NA,2,legacy,6,1024,2,48000,-16,experiment,4,even,9,703172,34562,699775,700931,3632,124659,700943,250808,3686,117245,705187,705671,701959,705187,NA,Sternberg Task,102,72546,109,yes,1024
93.63636364,93.63636364,663.6454545,663.6454545,black,experiment,legacy,legacy,legacy,0,uniform,1,undefined,1,left,109,0,109,109,0,0,109,109,0,0,109,109,109,109,0,Fri Oct 25 19:54:30 2019,The main experiment item,yes,SternbergTask.osexp,/Users/cristianbotello/Desktop/Advanced Quant/Lab 3.1,no,mono,no,18,no,white,no,no,768,legacy,97,11,/Users/cristianbotello/Desktop/Advanced Quant/Lab 3.2/CB-subject-4.csv,legacy,9 1 6 7 8,Kafkaesque Koffka,3.2.8,1,y,0,left,right,left,left,NA,455,30858,7412,455,NA,2,legacy,5,1024,2,48000,-16,experiment,4,even,9,709079,34562,705690,706838,3632,124659,706851,250808,3686,117245,711093,711551,707867,711093,NA,Sternberg Task,103,73001,110,yes,1024
93.69369369,93.69369369,662.3423423,662.3423423,black,experiment,legacy,legacy,legacy,0,uniform,1,undefined,1,left,110,0,110,110,0,0,110,110,0,0,110,110,110,110,0,Fri Oct 25 19:54:30 2019,The main experiment item,yes,SternbergTask.osexp,/Users/cristianbotello/Desktop/Advanced Quant/Lab 3.1,no,mono,no,18,no,white,no,no,768,legacy,98,11,/Users/cristianbotello/Desktop/Advanced Quant/Lab 3.2/CB-subject-4.csv,legacy,5 7 8 2 3 8,Kafkaesque Koffka,3.2.8,5,y,0,left,right,left,left,NA,519,30858,7412,519,NA,2,legacy,6,1024,2,48000,-16,experiment,4,even,3,714956,34562,711569,712716,3632,124659,712728,250808,3686,117245,716970,717493,713744,716970,NA,Sternberg Task,104,73520,111,yes,1024
93.75,93.75,660.1517857,660.1517857,black,experiment,legacy,legacy,legacy,0,uniform,1,undefined,1,left,111,0,111,111,0,0,111,111,0,0,111,111,111,111,0,Fri Oct 25 19:54:30 2019,The main experiment item,yes,SternbergTask.osexp,/Users/cristianbotello/Desktop/Advanced Quant/Lab 3.1,no,mono,no,18,no,white,no,no,768,legacy,99,11,/Users/cristianbotello/Desktop/Advanced Quant/Lab 3.2/CB-subject-4.csv,legacy,7 6,Kafkaesque Koffka,3.2.8,2,y,0,left,right,left,left,NA,417,30858,7412,417,NA,2,legacy,2,1024,2,48000,-16,experiment,4,even,6,720902,34562,717509,718657,3632,124659,718671,250808,3686,117245,722916,723336,719688,722916,NA,Sternberg Task,105,73937,112,yes,1024
93.80530973,93.80530973,661.0442478,661.0442478,black,experiment,legacy,legacy,legacy,0,uniform,1,undefined,1,right,112,0,112,112,0,0,112,112,0,0,112,112,112,112,0,Fri Oct 25 19:54:30 2019,The main experiment item,yes,SternbergTask.osexp,/Users/cristianbotello/Desktop/Advanced Quant/Lab 3.1,no,mono,no,18,no,white,no,no,768,legacy,100,11,/Users/cristianbotello/Desktop/Advanced Quant/Lab 3.2/CB-subject-4.csv,legacy,8 4 3 9,Kafkaesque Koffka,3.2.8,0,n,0,right,right,left,right,NA,761,30858,7412,761,NA,2,legacy,4,1024,2,48000,-16,experiment,4,even,5,726751,34562,723355,724511,3632,124659,724524,250808,3686,117245,728766,729530,725539,728765,NA,Sternberg Task,106,74698,113,yes,1024
93.85964912,93.85964912,658.622807,658.622807,black,experiment,legacy,legacy,legacy,0,uniform,1,undefined,1,left,113,0,113,113,0,0,113,113,0,0,113,113,113,113,0,Fri Oct 25 19:54:30 2019,The main experiment item,yes,SternbergTask.osexp,/Users/cristianbotello/Desktop/Advanced Quant/Lab 3.1,no,mono,no,18,no,white,no,no,768,legacy,101,11,/Users/cristianbotello/Desktop/Advanced Quant/Lab 3.2/CB-subject-4.csv,legacy,2 4 6 9,Kafkaesque Koffka,3.2.8,3,y,0,left,right,left,left,NA,385,30858,7412,385,NA,2,legacy,4,1024,2,48000,-16,experiment,4,even,6,732954,34562,729548,730713,3632,124659,730726,250808,3686,117245,734968,735357,731741,734968,NA,Sternberg Task,107,75083,114,yes,1024
93.91304348,93.91304348,660.226087,660.226087,black,experiment,legacy,legacy,legacy,0,uniform,1,undefined,1,left,114,0,114,114,0,0,114,114,0,0,114,114,114,114,0,Fri Oct 25 19:54:30 2019,The main experiment item,yes,SternbergTask.osexp,/Users/cristianbotello/Desktop/Advanced Quant/Lab 3.1,no,mono,no,18,no,white,no,no,768,legacy,102,11,/Users/cristianbotello/Desktop/Advanced Quant/Lab 3.2/CB-subject-4.csv,legacy,4 1 5,Kafkaesque Koffka,3.2.8,2,y,0,left,right,left,left,NA,843,30858,7412,843,NA,2,legacy,3,1024,2,48000,-16,experiment,4,even,1,738771,34562,735378,736528,3632,124659,736541,250808,3686,117245,740785,741631,737558,740785,NA,Sternberg Task,108,75926,115,yes,1024
93.96551724,93.96551724,659.6551724,659.6551724,black,experiment,legacy,legacy,legacy,0,uniform,1,undefined,1,right,115,0,115,115,0,0,115,115,0,0,115,115,115,115,0,Fri Oct 25 19:54:30 2019,The main experiment item,yes,SternbergTask.osexp,/Users/cristianbotello/Desktop/Advanced Quant/Lab 3.1,no,mono,no,18,no,white,no,no,768,legacy,103,11,/Users/cristianbotello/Desktop/Advanced Quant/Lab 3.2/CB-subject-4.csv,legacy,9 5 3 2 8 6,Kafkaesque Koffka,3.2.8,0,n,0,right,right,left,right,NA,594,30858,7412,594,NA,2,legacy,6,1024,2,48000,-16,experiment,4,even,7,745046,34562,741648,742806,3632,124659,742819,250808,3686,117245,747061,747658,743833,747061,NA,Sternberg Task,109,76520,116,yes,1024
94.01709402,94.01709402,659.6068376,659.6068376,black,experiment,legacy,legacy,legacy,0,uniform,1,undefined,1,left,116,0,116,116,0,0,116,116,0,0,116,116,116,116,0,Fri Oct 25 19:54:30 2019,The main experiment item,yes,SternbergTask.osexp,/Users/cristianbotello/Desktop/Advanced Quant/Lab 3.1,no,mono,no,18,no,white,no,no,768,legacy,104,11,/Users/cristianbotello/Desktop/Advanced Quant/Lab 3.2/CB-subject-4.csv,legacy,5 2 6,Kafkaesque Koffka,3.2.8,2,y,0,left,right,left,left,NA,654,30858,7412,654,NA,2,legacy,3,1024,2,48000,-16,experiment,4,even,2,751064,34562,747675,748824,3632,124659,748836,250808,3686,117245,753078,753735,749852,753078,NA,Sternberg Task,110,77174,117,yes,1024
93.22033898,93.22033898,659.6271186,659.6271186,black,experiment,legacy,legacy,legacy,0,uniform,0,undefined,0,left,117,0,117,117,0,0,117,117,0,0,117,117,117,117,0,Fri Oct 25 19:54:30 2019,The main experiment item,yes,SternbergTask.osexp,/Users/cristianbotello/Desktop/Advanced Quant/Lab 3.1,no,mono,no,18,no,white,no,no,768,legacy,105,11,/Users/cristianbotello/Desktop/Advanced Quant/Lab 3.2/CB-subject-4.csv,legacy,8 9 5 6 7,Kafkaesque Koffka,3.2.8,1,y,0,right,right,left,right,NA,662,30858,7412,662,NA,2,legacy,5,1024,2,48000,-16,experiment,4,even,8,757165,34562,753752,754922,3632,124659,754935,250808,3686,117245,759178,759843,755948,759178,NA,Sternberg Task,110,77836,118,yes,1024
93.27731092,93.27731092,659.1008403,659.1008403,black,experiment,legacy,legacy,legacy,0,uniform,1,undefined,1,right,118,0,118,118,0,0,118,118,0,0,118,118,118,118,0,Fri Oct 25 19:54:30 2019,The main experiment item,yes,SternbergTask.osexp,/Users/cristianbotello/Desktop/Advanced Quant/Lab 3.1,no,mono,no,18,no,white,no,no,768,legacy,106,11,/Users/cristianbotello/Desktop/Advanced Quant/Lab 3.2/CB-subject-4.csv,legacy,8 9,Kafkaesque Koffka,3.2.8,0,n,0,right,right,left,right,NA,597,30858,7412,597,NA,2,legacy,2,1024,2,48000,-16,experiment,4,even,5,763274,34562,753752,761036,3632,124659,761048,759866,3686,117245,765289,765889,762061,765289,NA,Sternberg Task,111,78433,119,yes,1024
93.33333333,93.33333333,658.9083333,658.9083333,black,experiment,legacy,legacy,legacy,0,uniform,1,undefined,1,right,119,0,119,119,0,0,119,119,0,0,119,119,119,119,0,Fri Oct 25 19:54:30 2019,The main experiment item,yes,SternbergTask.osexp,/Users/cristianbotello/Desktop/Advanced Quant/Lab 3.1,no,mono,no,18,no,white,no,no,768,legacy,107,11,/Users/cristianbotello/Desktop/Advanced Quant/Lab 3.2/CB-subject-4.csv,legacy,5 3 2 6 9 8,Kafkaesque Koffka,3.2.8,0,n,0,right,right,left,right,NA,636,30858,7412,636,NA,2,legacy,6,1024,2,48000,-16,experiment,4,even,4,769290,34562,765905,767048,3632,124659,767061,759866,3686,117245,771304,771944,768076,771304,NA,Sternberg Task,112,79069,120,yes,1024
93.38842975,93.38842975,658.4710744,658.4710744,black,experiment,legacy,legacy,legacy,0,uniform,1,undefined,1,right,120,0,120,120,0,0,120,120,0,0,120,120,120,120,0,Fri Oct 25 19:54:30 2019,The main experiment item,yes,SternbergTask.osexp,/Users/cristianbotello/Desktop/Advanced Quant/Lab 3.1,no,mono,no,18,no,white,no,no,768,legacy,108,11,/Users/cristianbotello/Desktop/Advanced Quant/Lab 3.2/CB-subject-4.csv,legacy,6 2 9 3 8 4,Kafkaesque Koffka,3.2.8,0,n,0,right,right,left,right,NA,606,30858,7412,606,NA,2,legacy,6,1024,2,48000,-16,experiment,4,even,1,775346,34562,771961,773106,3632,124659,773119,759866,3686,117245,777360,777970,774135,777360,NA,Sternberg Task,113,79675,121,yes,1024
93.44262295,93.44262295,657.7377049,657.7377049,black,experiment,legacy,legacy,legacy,0,uniform,1,undefined,1,right,121,0,121,121,0,0,121,121,0,0,121,121,121,121,0,Fri Oct 25 19:54:30 2019,The main experiment item,yes,SternbergTask.osexp,/Users/cristianbotello/Desktop/Advanced Quant/Lab 3.1,no,mono,no,18,no,white,no,no,768,legacy,109,11,/Users/cristianbotello/Desktop/Advanced Quant/Lab 3.2/CB-subject-4.csv,legacy,1 6 4,Kafkaesque Koffka,3.2.8,0,n,0,right,right,left,right,NA,569,30858,7412,569,NA,2,legacy,3,1024,2,48000,-16,experiment,4,even,7,781383,34562,777990,779141,3632,124659,779154,759866,3686,117245,783397,783970,780170,783397,NA,Sternberg Task,114,80244,122,yes,1024
93.49593496,93.49593496,657.2113821,657.2113821,black,experiment,legacy,legacy,legacy,0,uniform,1,undefined,1,right,122,0,122,122,0,0,122,122,0,0,122,122,122,122,0,Fri Oct 25 19:54:30 2019,The main experiment item,yes,SternbergTask.osexp,/Users/cristianbotello/Desktop/Advanced Quant/Lab 3.1,no,mono,no,18,no,white,no,no,768,legacy,110,11,/Users/cristianbotello/Desktop/Advanced Quant/Lab 3.2/CB-subject-4.csv,legacy,1 7 5 2,Kafkaesque Koffka,3.2.8,0,n,0,right,right,left,right,NA,593,30858,7412,593,NA,2,legacy,4,1024,2,48000,-16,experiment,4,even,3,787388,34562,783988,785145,3632,124659,785158,759866,3686,117245,789403,789999,786173,789403,NA,Sternberg Task,115,80837,123,yes,1024
93.5483871,93.5483871,657.8870968,657.8870968,black,experiment,legacy,legacy,legacy,0,uniform,1,undefined,1,right,123,0,123,123,0,0,123,123,0,0,123,123,123,123,0,Fri Oct 25 19:54:30 2019,The main experiment item,yes,SternbergTask.osexp,/Users/cristianbotello/Desktop/Advanced Quant/Lab 3.1,no,mono,no,18,no,white,no,no,768,legacy,111,11,/Users/cristianbotello/Desktop/Advanced Quant/Lab 3.2/CB-subject-4.csv,legacy,6 9 7 3 8 2,Kafkaesque Koffka,3.2.8,0,n,0,right,right,left,right,NA,741,30858,7412,741,NA,2,legacy,6,1024,2,48000,-16,experiment,4,even,5,793408,34562,790016,791167,3632,124659,791179,759866,3686,117245,795424,796169,792194,795424,NA,Sternberg Task,116,81578,124,yes,1024
93.6,93.6,657.096,657.096,black,experiment,legacy,legacy,legacy,0,uniform,1,undefined,1,left,124,0,124,124,0,0,124,124,0,0,124,124,124,124,0,Fri Oct 25 19:54:30 2019,The main experiment item,yes,SternbergTask.osexp,/Users/cristianbotello/Desktop/Advanced Quant/Lab 3.1,no,mono,no,18,no,white,no,no,768,legacy,112,11,/Users/cristianbotello/Desktop/Advanced Quant/Lab 3.2/CB-subject-4.csv,legacy,7 1 3,Kafkaesque Koffka,3.2.8,2,y,0,left,right,left,left,NA,559,30858,7412,559,NA,2,legacy,3,1024,2,48000,-16,experiment,4,even,1,799591,34562,796189,797346,3632,124659,797361,759866,3686,117245,801605,802168,798375,801605,NA,Sternberg Task,117,82137,125,yes,1024
93.65079365,93.65079365,655.9920635,655.9920635,black,experiment,legacy,legacy,legacy,0,uniform,1,undefined,1,left,125,0,125,125,0,0,125,125,0,0,125,125,125,125,0,Fri Oct 25 19:54:30 2019,The main experiment item,yes,SternbergTask.osexp,/Users/cristianbotello/Desktop/Advanced Quant/Lab 3.1,no,mono,no,18,no,white,no,no,768,legacy,113,11,/Users/cristianbotello/Desktop/Advanced Quant/Lab 3.2/CB-subject-4.csv,legacy,2 3 7 4,Kafkaesque Koffka,3.2.8,1,y,0,left,right,left,left,NA,518,30858,7412,518,NA,2,legacy,4,1024,2,48000,-16,experiment,4,even,2,805585,34562,802187,803344,3632,124659,803359,759866,3686,117245,807599,808121,804372,807599,NA,Sternberg Task,118,82655,126,yes,1024
93.7007874,93.7007874,655.1496063,655.1496063,black,experiment,legacy,legacy,legacy,0,uniform,1,undefined,1,right,126,0,126,126,0,0,126,126,0,0,126,126,126,126,0,Fri Oct 25 19:54:30 2019,The main experiment item,yes,SternbergTask.osexp,/Users/cristianbotello/Desktop/Advanced Quant/Lab 3.1,no,mono,no,18,no,white,no,no,768,legacy,114,11,/Users/cristianbotello/Desktop/Advanced Quant/Lab 3.2/CB-subject-4.csv,legacy,8 2 1 4 5 9,Kafkaesque Koffka,3.2.8,0,n,0,right,right,left,right,NA,549,30858,7412,549,NA,2,legacy,6,1024,2,48000,-16,experiment,4,even,7,811540,34562,808140,809298,3632,124659,809312,759866,3686,117245,813554,814106,810326,813554,NA,Sternberg Task,119,83204,127,yes,1024
93.75,93.75,653.5703125,653.5703125,black,experiment,legacy,legacy,legacy,0,uniform,1,undefined,1,left,127,0,127,127,0,0,127,127,0,0,127,127,127,127,0,Fri Oct 25 19:54:30 2019,The main experiment item,yes,SternbergTask.osexp,/Users/cristianbotello/Desktop/Advanced Quant/Lab 3.1,no,mono,no,18,no,white,no,no,768,legacy,115,11,/Users/cristianbotello/Desktop/Advanced Quant/Lab 3.2/CB-subject-4.csv,legacy,6 2,Kafkaesque Koffka,3.2.8,1,y,0,left,right,left,left,NA,453,30858,7412,453,NA,2,legacy,2,1024,2,48000,-16,experiment,4,even,6,817532,34562,814122,815286,3632,124659,815300,759866,3686,117245,819547,820004,816315,819547,NA,Sternberg Task,120,83657,128,yes,1024
93.79844961,93.79844961,654.9612403,654.9612403,black,experiment,legacy,legacy,legacy,0,uniform,1,undefined,1,right,128,0,128,128,0,0,128,128,0,0,128,128,128,128,0,Fri Oct 25 19:54:30 2019,The main experiment item,yes,SternbergTask.osexp,/Users/cristianbotello/Desktop/Advanced Quant/Lab 3.1,no,mono,no,18,no,white,no,no,768,legacy,116,11,/Users/cristianbotello/Desktop/Advanced Quant/Lab 3.2/CB-subject-4.csv,legacy,1 8 7,Kafkaesque Koffka,3.2.8,0,n,0,right,right,left,right,NA,833,30858,7412,833,NA,2,legacy,3,1024,2,48000,-16,experiment,4,even,4,823420,34562,820021,821178,3632,124659,821191,759866,3686,117245,825434,826271,822207,825434,NA,Sternberg Task,121,84490,129,yes,1024
93.84615385,93.84615385,654.5384615,654.5384615,black,experiment,legacy,legacy,legacy,0,uniform,1,undefined,1,left,129,0,129,129,0,0,129,129,0,0,129,129,129,129,0,Fri Oct 25 19:54:30 2019,The main experiment item,yes,SternbergTask.osexp,/Users/cristianbotello/Desktop/Advanced Quant/Lab 3.1,no,mono,no,18,no,white,no,no,768,legacy,117,11,/Users/cristianbotello/Desktop/Advanced Quant/Lab 3.2/CB-subject-4.csv,legacy,2 8 5 1,Kafkaesque Koffka,3.2.8,4,y,0,left,right,left,left,NA,600,30858,7412,600,NA,2,legacy,4,1024,2,48000,-16,experiment,4,even,1,829677,34562,826287,827430,3632,124659,827443,759866,3686,117245,831692,832296,828460,831691,NA,Sternberg Task,122,85090,130,yes,1024
93.89312977,93.89312977,654.6717557,654.6717557,black,experiment,legacy,legacy,legacy,0,uniform,1,undefined,1,left,130,0,130,130,0,0,130,130,0,0,130,130,130,130,0,Fri Oct 25 19:54:30 2019,The main experiment item,yes,SternbergTask.osexp,/Users/cristianbotello/Desktop/Advanced Quant/Lab 3.1,no,mono,no,18,no,white,no,no,768,legacy,118,11,/Users/cristianbotello/Desktop/Advanced Quant/Lab 3.2/CB-subject-4.csv,legacy,5 2 9 6 1 7,Kafkaesque Koffka,3.2.8,3,y,0,left,right,left,left,NA,672,30858,7412,672,NA,2,legacy,6,1024,2,48000,-16,experiment,4,even,9,835704,34562,832315,833461,3632,124659,833474,759866,3686,117245,837718,838394,834491,837718,NA,Sternberg Task,123,85762,131,yes,1024
93.93939394,93.93939394,653.6515152,653.6515152,black,experiment,legacy,legacy,legacy,0,uniform,1,undefined,1,left,131,0,131,131,0,0,131,131,0,0,131,131,131,131,0,Fri Oct 25 19:54:30 2019,The main experiment item,yes,SternbergTask.osexp,/Users/cristianbotello/Desktop/Advanced Quant/Lab 3.1,no,mono,no,18,no,white,no,no,768,legacy,119,11,/Users/cristianbotello/Desktop/Advanced Quant/Lab 3.2/CB-subject-4.csv,legacy,6 7 9 3 1 2,Kafkaesque Koffka,3.2.8,1,y,0,left,right,left,left,NA,520,30858,7412,520,NA,2,legacy,6,1024,2,48000,-16,experiment,4,even,6,841809,34562,838411,839566,3632,124659,839579,759866,3686,117245,843824,844347,840592,843824,NA,Sternberg Task,124,86282,132,yes,1024
93.98496241,93.98496241,653.0977444,653.0977444,black,experiment,legacy,legacy,legacy,0,uniform,1,undefined,1,right,132,0,132,132,0,0,132,132,0,0,132,132,132,132,0,Fri Oct 25 19:54:30 2019,The main experiment item,yes,SternbergTask.osexp,/Users/cristianbotello/Desktop/Advanced Quant/Lab 3.1,no,mono,no,18,no,white,no,no,768,legacy,120,11,/Users/cristianbotello/Desktop/Advanced Quant/Lab 3.2/CB-subject-4.csv,legacy,7 9 1 6,Kafkaesque Koffka,3.2.8,0,n,0,right,right,left,right,NA,580,30858,7412,580,NA,2,legacy,4,1024,2,48000,-16,experiment,4,even,4,847765,34562,844365,845525,3632,124659,845538,759866,3686,117245,849782,850366,846551,849781,NA,Sternberg Task,125,86862,133,yes,1024
94.02985075,94.02985075,652.8432836,652.8432836,black,experiment,legacy,legacy,legacy,0,uniform,1,undefined,1,right,133,0,133,133,0,0,133,133,0,0,133,133,133,133,0,Fri Oct 25 19:54:30 2019,The main experiment item,yes,SternbergTask.osexp,/Users/cristianbotello/Desktop/Advanced Quant/Lab 3.1,no,mono,no,18,no,white,no,no,768,legacy,121,11,/Users/cristianbotello/Desktop/Advanced Quant/Lab 3.2/CB-subject-4.csv,legacy,1 7 5 2 9,Kafkaesque Koffka,3.2.8,0,n,0,right,right,left,right,NA,619,30858,7412,619,NA,2,legacy,5,1024,2,48000,-16,experiment,4,even,3,853776,34562,850383,851530,3632,124659,851551,759866,3686,117245,855790,856412,852564,855789,NA,Sternberg Task,126,87481,134,yes,1024
94.07407407,94.07407407,651.9555556,651.9555556,black,experiment,legacy,legacy,legacy,0,uniform,1,undefined,1,right,134,0,134,134,0,0,134,134,0,0,134,134,134,134,0,Fri Oct 25 19:54:30 2019,The main experiment item,yes,SternbergTask.osexp,/Users/cristianbotello/Desktop/Advanced Quant/Lab 3.1,no,mono,no,18,no,white,no,no,768,legacy,122,11,/Users/cristianbotello/Desktop/Advanced Quant/Lab 3.2/CB-subject-4.csv,legacy,9,Kafkaesque Koffka,3.2.8,0,n,0,right,right,left,right,NA,533,30858,7412,533,NA,2,legacy,1,1024,2,48000,-16,experiment,4,even,6,859815,34562,856430,857571,3632,124659,857588,759866,3686,117245,861829,862366,858604,861829,NA,Sternberg Task,127,88014,135,yes,1024
94.11764706,94.11764706,652.6323529,652.6323529,black,experiment,legacy,legacy,legacy,0,uniform,1,undefined,1,right,135,0,135,135,0,0,135,135,0,0,135,135,135,135,0,Fri Oct 25 19:54:30 2019,The main experiment item,yes,SternbergTask.osexp,/Users/cristianbotello/Desktop/Advanced Quant/Lab 3.1,no,mono,no,18,no,white,no,no,768,legacy,123,11,/Users/cristianbotello/Desktop/Advanced Quant/Lab 3.2/CB-subject-4.csv,legacy,7 1 8 4 9 3,Kafkaesque Koffka,3.2.8,0,n,0,right,right,left,right,NA,744,30858,7412,744,NA,2,legacy,6,1024,2,48000,-16,experiment,4,even,6,865776,34562,862382,863530,3632,124659,863543,759866,3686,117245,867790,868538,864562,867790,NA,Sternberg Task,128,88758,136,yes,1024
94.16058394,94.16058394,650.9489051,650.9489051,black,experiment,legacy,legacy,legacy,0,uniform,1,undefined,1,left,136,0,136,136,0,0,136,136,0,0,136,136,136,136,0,Fri Oct 25 19:54:30 2019,The main experiment item,yes,SternbergTask.osexp,/Users/cristianbotello/Desktop/Advanced Quant/Lab 3.1,no,mono,no,18,no,white,no,no,768,legacy,124,11,/Users/cristianbotello/Desktop/Advanced Quant/Lab 3.2/CB-subject-4.csv,legacy,4,Kafkaesque Koffka,3.2.8,1,y,0,left,right,left,left,NA,422,30858,7412,422,NA,2,legacy,1,1024,2,48000,-16,experiment,4,even,4,871944,34562,868556,869701,3632,124659,869714,759866,3686,117245,873959,874385,870731,873959,NA,Sternberg Task,129,89180,137,yes,1024
94.20289855,94.20289855,650.1594203,650.1594203,black,experiment,legacy,legacy,legacy,0,uniform,1,undefined,1,right,137,0,137,137,0,0,137,137,0,0,137,137,137,137,0,Fri Oct 25 19:54:30 2019,The main experiment item,yes,SternbergTask.osexp,/Users/cristianbotello/Desktop/Advanced Quant/Lab 3.1,no,mono,no,18,no,white,no,no,768,legacy,125,11,/Users/cristianbotello/Desktop/Advanced Quant/Lab 3.2/CB-subject-4.csv,legacy,2 7 5,Kafkaesque Koffka,3.2.8,0,n,0,right,right,left,right,NA,542,30858,7412,542,NA,2,legacy,3,1024,2,48000,-16,experiment,4,even,8,877811,34562,874406,875572,3632,124659,875584,759866,3686,117245,879829,880376,876598,879829,NA,Sternberg Task,130,89722,138,yes,1024