acc,accuracy,average_response_time,avg_rt,background,block,canvas_backend,clock_backend,color_backend,compensation,coordinates,correct,correct_instruction1,correct_keyboard_response,correct_response,count_ISI,count_correctFeedback,count_expSequence,count_experiment,count_experimentLoop,count_fixation,count_incorrectFeedback,count_instruction1,count_instructions2,count_keyboard_response,count_logger,count_memorySet,count_practiceLoop,count_probe,count_thankYou,datetime,description,disable_garbage_collection,experiment_file,experiment_path,font_bold,font_family,font_italic,font_size,font_underline,foreground,form_clicks,fullscreen,height,keyboard_backend,live_row,live_row_practiceLoop,logfile,mouse_backend,numberSet,opensesame_codename,opensesame_version,posInSet,present,repeat_cycle,response,response_instruction1,response_instructions2,response_keyboard_response,response_thankYou,response_time,response_time_instruction1,response_time_instructions2,response_time_keyboard_response,response_time_thankYou,round_decimals,sampler_backend,setSize,sound_buf_size,sound_channels,sound_freq,sound_sample_size,start,subject_nr,subject_parity,target,time_ISI,time_correctFeedback,time_expSequence,time_experiment,time_experimentLoop,time_fixation,time_incorrectFeedback,time_instruction1,time_instructions2,time_keyboard_response,time_logger,time_memorySet,time_practiceLoop,time_probe,time_thankYou,title,total_correct,total_response_time,total_responses,uniform_coordinates,width
100,100,840,840,black,practice,legacy,legacy,legacy,0,uniform,1,undefined,1,left,0,0,0,0,0,0,0,0,0,0,0,0,0,0,0,10/24/19 12:30,The main experiment item,yes,Sternbergtask SL.osexp,C:/Users/Sarah Linan/Desktop,no,mono,no,18,no,white,no,yes,768,legacy,0,0,C:/Users/Sarah Linan/Desktop/subject-S3.csv,legacy,2 9 4,Kafkaesque Koffka,3.2.8,3,y,0,left,right,NA,left,NA,840,5933,NA,840,NA,2,legacy,3,1024,2,48000,-16,experiment,3,odd,4,11064,NA,8855,1996,NA,8859,NA,2003,NA,13069,13910,9861,7938,13069,NA,Sternberg task,1,840,1,yes,1024
100,100,727,727,black,practice,legacy,legacy,legacy,0,uniform,1,undefined,1,left,1,1,1,0,0,1,1,0,0,1,1,1,0,1,0,10/24/19 12:30,The main experiment item,yes,Sternbergtask SL.osexp,C:/Users/Sarah Linan/Desktop,no,mono,no,18,no,white,no,yes,768,legacy,1,1,C:/Users/Sarah Linan/Desktop/subject-S3.csv,legacy,4 8,Kafkaesque Koffka,3.2.8,1,y,0,left,right,NA,left,NA,614,5933,NA,614,NA,2,legacy,2,1024,2,48000,-16,experiment,3,odd,4,17465,14088,15254,1996,NA,15257,NA,2003,NA,19469,20084,16261,7938,19469,NA,Sternberg task,2,1454,2,yes,1024
66.66666667,66.66666667,769.6666667,769.6666667,black,practice,legacy,legacy,legacy,0,uniform,0,undefined,0,right,2,2,2,0,0,2,2,0,0,2,2,2,0,2,0,10/24/19 12:30,The main experiment item,yes,Sternbergtask SL.osexp,C:/Users/Sarah Linan/Desktop,no,mono,no,18,no,white,no,yes,768,legacy,2,2,C:/Users/Sarah Linan/Desktop/subject-S3.csv,legacy,9 6 7 4 5,Kafkaesque Koffka,3.2.8,0,n,0,left,right,NA,left,NA,855,5933,NA,855,NA,2,legacy,5,1024,2,48000,-16,experiment,3,odd,3,23549,20169,21338,1996,NA,21341,NA,2003,NA,25553,26409,22345,7938,25553,NA,Sternberg task,2,2309,3,yes,1024
75,75,757,757,black,practice,legacy,legacy,legacy,0,uniform,1,undefined,1,left,3,3,3,0,0,3,3,0,0,3,3,3,0,3,0,10/24/19 12:30,The main experiment item,yes,Sternbergtask SL.osexp,C:/Users/Sarah Linan/Desktop,no,mono,no,18,no,white,no,yes,768,legacy,3,3,C:/Users/Sarah Linan/Desktop/subject-S3.csv,legacy,1 5 2 9,Kafkaesque Koffka,3.2.8,2,y,0,left,right,NA,left,NA,719,5933,NA,719,NA,2,legacy,4,1024,2,48000,-16,experiment,3,odd,5,29867,20169,27660,1996,NA,27663,26495,2003,NA,31870,32590,28665,7938,31870,NA,Sternberg task,3,3028,4,yes,1024
80,80,813.2,813.2,black,practice,legacy,legacy,legacy,0,uniform,1,undefined,1,right,4,4,4,0,0,4,4,0,0,4,4,4,0,4,0,10/24/19 12:30,The main experiment item,yes,Sternbergtask SL.osexp,C:/Users/Sarah Linan/Desktop,no,mono,no,18,no,white,no,yes,768,legacy,4,4,C:/Users/Sarah Linan/Desktop/subject-S3.csv,legacy,2 1,Kafkaesque Koffka,3.2.8,0,n,0,right,right,NA,right,NA,1038,5933,NA,1038,NA,2,legacy,2,1024,2,48000,-16,experiment,3,odd,5,36052,32686,33844,1996,NA,33846,26495,2003,NA,38056,39094,34848,7938,38055,NA,Sternberg task,4,4066,5,yes,1024
66.66666667,66.66666667,849.8333333,849.8333333,black,practice,legacy,legacy,legacy,0,uniform,0,undefined,0,right,5,5,5,0,0,5,5,0,0,5,5,5,0,5,0,10/24/19 12:30,The main experiment item,yes,Sternbergtask SL.osexp,C:/Users/Sarah Linan/Desktop,no,mono,no,18,no,white,no,yes,768,legacy,5,5,C:/Users/Sarah Linan/Desktop/subject-S3.csv,legacy,5,Kafkaesque Koffka,3.2.8,0,n,0,left,right,NA,left,NA,1033,5933,NA,1033,NA,2,legacy,1,1024,2,48000,-16,experiment,3,odd,3,42538,39173,40329,1996,NA,40332,26495,2003,NA,44542,45575,41335,7938,44541,NA,Sternberg task,4,5099,6,yes,1024
71.42857143,71.42857143,829.8571429,829.8571429,black,practice,legacy,legacy,legacy,0,uniform,1,undefined,1,left,6,6,6,0,0,6,6,0,0,6,6,6,0,6,0,10/24/19 12:30,The main experiment item,yes,Sternbergtask SL.osexp,C:/Users/Sarah Linan/Desktop,no,mono,no,18,no,white,no,yes,768,legacy,6,6,C:/Users/Sarah Linan/Desktop/subject-S3.csv,legacy,1 7 9 8 5,Kafkaesque Koffka,3.2.8,4,y,0,left,right,NA,left,NA,710,5933,NA,710,NA,2,legacy,5,1024,2,48000,-16,experiment,3,odd,8,49034,39173,46824,1996,NA,46827,45664,2003,NA,51038,51748,47830,7938,51038,NA,Sternberg task,5,5809,7,yes,1024
75,75,885.875,885.875,black,practice,legacy,legacy,legacy,0,uniform,1,undefined,1,right,7,7,7,0,0,7,7,0,0,7,7,7,0,7,0,10/24/19 12:30,The main experiment item,yes,Sternbergtask SL.osexp,C:/Users/Sarah Linan/Desktop,no,mono,no,18,no,white,no,yes,768,legacy,7,7,C:/Users/Sarah Linan/Desktop/subject-S3.csv,legacy,3 1 9 4,Kafkaesque Koffka,3.2.8,0,n,0,right,right,NA,right,NA,1278,5933,NA,1278,NA,2,legacy,4,1024,2,48000,-16,experiment,3,odd,6,55213,51831,53002,1996,NA,53005,45664,2003,NA,57215,58494,54009,7938,57215,NA,Sternberg task,6,7087,8,yes,1024
77.77777778,77.77777778,865.8888889,865.8888889,black,practice,legacy,legacy,legacy,0,uniform,1,undefined,1,right,8,8,8,0,0,8,8,0,0,8,8,8,0,8,0,10/24/19 12:30,The main experiment item,yes,Sternbergtask SL.osexp,C:/Users/Sarah Linan/Desktop,no,mono,no,18,no,white,no,yes,768,legacy,8,8,C:/Users/Sarah Linan/Desktop/subject-S3.csv,legacy,4 1 5,Kafkaesque Koffka,3.2.8,0,n,0,right,right,NA,right,NA,706,5933,NA,706,NA,2,legacy,3,1024,2,48000,-16,experiment,3,odd,2,61959,58590,59750,1996,NA,59753,45664,2003,NA,63961,64668,60755,7938,63961,NA,Sternberg task,7,7793,9,yes,1024
70,70,848.2,848.2,black,practice,legacy,legacy,legacy,0,uniform,0,undefined,0,left,9,9,9,0,0,9,9,0,0,9,9,9,0,9,0,10/24/19 12:30,The main experiment item,yes,Sternbergtask SL.osexp,C:/Users/Sarah Linan/Desktop,no,mono,no,18,no,white,no,yes,768,legacy,9,9,C:/Users/Sarah Linan/Desktop/subject-S3.csv,legacy,4 3 1 7 9 8,Kafkaesque Koffka,3.2.8,1,y,0,right,right,NA,right,NA,689,5933,NA,689,NA,2,legacy,6,1024,2,48000,-16,experiment,3,odd,4,68131,64747,65923,1996,NA,65926,45664,2003,NA,70135,70824,66928,7938,70135,NA,Sternberg task,7,8482,10,yes,1024
72.72727273,72.72727273,858.9090909,858.9090909,black,practice,legacy,legacy,legacy,0,uniform,1,undefined,1,left,10,10,10,0,0,10,10,0,0,10,10,10,0,10,0,10/24/19 12:30,The main experiment item,yes,Sternbergtask SL.osexp,C:/Users/Sarah Linan/Desktop,no,mono,no,18,no,white,no,yes,768,legacy,10,10,C:/Users/Sarah Linan/Desktop/subject-S3.csv,legacy,6,Kafkaesque Koffka,3.2.8,1,y,0,left,right,NA,left,NA,966,5933,NA,966,NA,2,legacy,1,1024,2,48000,-16,experiment,3,odd,6,74268,64747,72060,1996,NA,72062,70904,2003,NA,76270,77237,73064,7938,76270,NA,Sternberg task,8,9448,11,yes,1024
75,75,857.75,857.75,black,practice,legacy,legacy,legacy,0,uniform,1,undefined,1,right,11,11,11,0,0,11,11,0,0,11,11,11,0,11,0,10/24/19 12:30,The main experiment item,yes,Sternbergtask SL.osexp,C:/Users/Sarah Linan/Desktop,no,mono,no,18,no,white,no,yes,768,legacy,11,11,C:/Users/Sarah Linan/Desktop/subject-S3.csv,legacy,5 7 8 4 1 2,Kafkaesque Koffka,3.2.8,0,n,0,right,right,NA,right,NA,845,5933,NA,845,NA,2,legacy,6,1024,2,48000,-16,experiment,3,odd,6,80681,77319,78472,1996,NA,78475,70904,2003,NA,82683,83529,79477,7938,82683,NA,Sternberg task,9,10293,12,yes,1024
76.92307692,76.92307692,836.3846154,836.3846154,black,experiment,legacy,legacy,legacy,0,uniform,1,undefined,1,left,12,12,12,0,0,12,12,0,0,12,12,12,0,12,0,10/24/19 12:30,The main experiment item,yes,Sternbergtask SL.osexp,C:/Users/Sarah Linan/Desktop,no,mono,no,18,no,white,no,yes,768,legacy,0,11,C:/Users/Sarah Linan/Desktop/subject-S3.csv,legacy,3 5 9 6 2 4,Kafkaesque Koffka,3.2.8,1,y,0,left,right,right,left,NA,580,5933,10009,580,NA,2,legacy,6,1024,2,48000,-16,experiment,3,odd,3,97011,83610,94803,1996,94638,94805,70904,2003,84629,99016,99596,95808,7938,99015,NA,Sternberg task,10,10873,13,yes,1024
78.57142857,78.57142857,831,831,black,experiment,legacy,legacy,legacy,0,uniform,1,undefined,1,right,13,13,13,0,0,13,13,0,0,13,13,13,0,13,0,10/24/19 12:30,The main experiment item,yes,Sternbergtask SL.osexp,C:/Users/Sarah Linan/Desktop,no,mono,no,18,no,white,no,yes,768,legacy,1,11,C:/Users/Sarah Linan/Desktop/subject-S3.csv,legacy,4 8 1 2,Kafkaesque Koffka,3.2.8,0,n,0,right,right,right,right,NA,761,5933,10009,761,NA,2,legacy,4,1024,2,48000,-16,experiment,3,odd,7,103047,99675,100838,1996,94638,100840,70904,2003,84629,105052,105814,101845,7938,105052,NA,Sternberg task,11,11634,14,yes,1024
80,80,815.2666667,815.2666667,black,experiment,legacy,legacy,legacy,0,uniform,1,undefined,1,right,14,14,14,0,0,14,14,0,0,14,14,14,0,14,0,10/24/19 12:30,The main experiment item,yes,Sternbergtask SL.osexp,C:/Users/Sarah Linan/Desktop,no,mono,no,18,no,white,no,yes,768,legacy,2,11,C:/Users/Sarah Linan/Desktop/subject-S3.csv,legacy,6 7 5 9,Kafkaesque Koffka,3.2.8,0,n,0,right,right,right,right,NA,595,5933,10009,595,NA,2,legacy,4,1024,2,48000,-16,experiment,3,odd,2,109270,105888,107059,1996,94638,107062,70904,2003,84629,111274,111870,108066,7938,111274,NA,Sternberg task,12,12229,15,yes,1024
81.25,81.25,807.4375,807.4375,black,experiment,legacy,legacy,legacy,0,uniform,1,undefined,1,right,15,15,15,0,0,15,15,0,0,15,15,15,0,15,0,10/24/19 12:30,The main experiment item,yes,Sternbergtask SL.osexp,C:/Users/Sarah Linan/Desktop,no,mono,no,18,no,white,no,yes,768,legacy,3,11,C:/Users/Sarah Linan/Desktop/subject-S3.csv,legacy,6 2 9 3 8 4,Kafkaesque Koffka,3.2.8,0,n,0,right,right,right,right,NA,690,5933,10009,690,NA,2,legacy,6,1024,2,48000,-16,experiment,3,odd,1,115337,111959,113127,1996,94638,113129,70904,2003,84629,117341,118032,114133,7938,117341,NA,Sternberg task,13,12919,16,yes,1024
82.35294118,82.35294118,797.7058824,797.7058824,black,experiment,legacy,legacy,legacy,0,uniform,1,undefined,1,right,16,16,16,0,0,16,16,0,0,16,16,16,0,16,0,10/24/19 12:30,The main experiment item,yes,Sternbergtask SL.osexp,C:/Users/Sarah Linan/Desktop,no,mono,no,18,no,white,no,yes,768,legacy,4,11,C:/Users/Sarah Linan/Desktop/subject-S3.csv,legacy,7 6 4 8 1 2,Kafkaesque Koffka,3.2.8,0,n,0,right,right,right,right,NA,642,5933,10009,642,NA,2,legacy,6,1024,2,48000,-16,experiment,3,odd,9,121451,118060,119242,1996,94638,119245,70904,2003,84629,123453,124096,120247,7938,123453,NA,Sternberg task,14,13561,17,yes,1024
83.33333333,83.33333333,800.1666667,800.1666667,black,experiment,legacy,legacy,legacy,0,uniform,1,undefined,1,right,17,17,17,0,0,17,17,0,0,17,17,17,0,17,0,10/24/19 12:30,The main experiment item,yes,Sternbergtask SL.osexp,C:/Users/Sarah Linan/Desktop,no,mono,no,18,no,white,no,yes,768,legacy,5,11,C:/Users/Sarah Linan/Desktop/subject-S3.csv,legacy,5,Kafkaesque Koffka,3.2.8,0,n,0,right,right,right,right,NA,842,5933,10009,842,NA,2,legacy,1,1024,2,48000,-16,experiment,3,odd,8,127524,124173,125316,1996,94638,125318,70904,2003,84629,129528,130371,126320,7938,129528,NA,Sternberg task,15,14403,18,yes,1024
78.94736842,78.94736842,793.6842105,793.6842105,black,experiment,legacy,legacy,legacy,0,uniform,0,undefined,0,left,18,18,18,0,0,18,18,0,0,18,18,18,0,18,0,10/24/19 12:30,The main experiment item,yes,Sternbergtask SL.osexp,C:/Users/Sarah Linan/Desktop,no,mono,no,18,no,white,no,yes,768,legacy,6,11,C:/Users/Sarah Linan/Desktop/subject-S3.csv,legacy,9 5 3 8 4,Kafkaesque Koffka,3.2.8,1,y,0,right,right,right,right,NA,677,5933,10009,677,NA,2,legacy,5,1024,2,48000,-16,experiment,3,odd,9,133836,130453,131628,1996,94638,131630,70904,2003,84629,135840,136518,132635,7938,135840,NA,Sternberg task,15,15080,19,yes,1024
80,80,784.75,784.75,black,experiment,legacy,legacy,legacy,0,uniform,1,undefined,1,right,19,19,19,0,0,19,19,0,0,19,19,19,0,19,0,10/24/19 12:30,The main experiment item,yes,Sternbergtask SL.osexp,C:/Users/Sarah Linan/Desktop,no,mono,no,18,no,white,no,yes,768,legacy,7,11,C:/Users/Sarah Linan/Desktop/subject-S3.csv,legacy,8 5 7 3 6,Kafkaesque Koffka,3.2.8,0,n,0,right,right,right,right,NA,615,5933,10009,615,NA,2,legacy,5,1024,2,48000,-16,experiment,3,odd,9,139981,130453,137772,1996,94638,137774,136614,2003,84629,141985,142601,138777,7938,141985,NA,Sternberg task,16,15695,20,yes,1024
80.95238095,80.95238095,779.2857143,779.2857143,black,experiment,legacy,legacy,legacy,0,uniform,1,undefined,1,right,20,20,20,0,0,20,20,0,0,20,20,20,0,20,0,10/24/19 12:30,The main experiment item,yes,Sternbergtask SL.osexp,C:/Users/Sarah Linan/Desktop,no,mono,no,18,no,white,no,yes,768,legacy,8,11,C:/Users/Sarah Linan/Desktop/subject-S3.csv,legacy,1 6 4 3 9 7,Kafkaesque Koffka,3.2.8,0,n,0,right,right,right,right,NA,670,5933,10009,670,NA,2,legacy,6,1024,2,48000,-16,experiment,3,odd,8,146073,142681,143863,1996,94638,143865,136614,2003,84629,148075,148745,144869,7938,148075,NA,Sternberg task,17,16365,21,yes,1024
77.27272727,77.27272727,807.3636364,807.3636364,black,experiment,legacy,legacy,legacy,0,uniform,0,undefined,0,left,21,21,21,0,0,21,21,0,0,21,21,21,0,21,0,10/24/19 12:30,The main experiment item,yes,Sternbergtask SL.osexp,C:/Users/Sarah Linan/Desktop,no,mono,no,18,no,white,no,yes,768,legacy,9,11,C:/Users/Sarah Linan/Desktop/subject-S3.csv,legacy,2 4 8 5 1 3,Kafkaesque Koffka,3.2.8,1,y,0,right,right,right,right,NA,1397,5933,10009,1397,NA,2,legacy,6,1024,2,48000,-16,experiment,3,odd,2,152204,148830,149995,1996,94638,149997,136614,2003,84629,154206,155603,151000,7938,154206,NA,Sternberg task,17,17762,22,yes,1024
78.26086957,78.26086957,803.1304348,803.1304348,black,experiment,legacy,legacy,legacy,0,uniform,1,undefined,1,left,22,22,22,0,0,22,22,0,0,22,22,22,0,22,0,10/24/19 12:30,The main experiment item,yes,Sternbergtask SL.osexp,C:/Users/Sarah Linan/Desktop,no,mono,no,18,no,white,no,yes,768,legacy,10,11,C:/Users/Sarah Linan/Desktop/subject-S3.csv,legacy,7 4 2 6 3 5,Kafkaesque Koffka,3.2.8,6,y,0,left,right,right,left,NA,710,5933,10009,710,NA,2,legacy,6,1024,2,48000,-16,experiment,3,odd,5,159046,148830,156838,1996,94638,156840,155687,2003,84629,161050,161761,157842,7938,161049,NA,Sternberg task,18,18472,23,yes,1024
79.16666667,79.16666667,800.1666667,800.1666667,black,experiment,legacy,legacy,legacy,0,uniform,1,undefined,1,left,23,23,23,0,0,23,23,0,0,23,23,23,0,23,0,10/24/19 12:30,The main experiment item,yes,Sternbergtask SL.osexp,C:/Users/Sarah Linan/Desktop,no,mono,no,18,no,white,no,yes,768,legacy,11,11,C:/Users/Sarah Linan/Desktop/subject-S3.csv,legacy,8 3,Kafkaesque Koffka,3.2.8,2,y,0,left,right,right,left,NA,732,5933,10009,732,NA,2,legacy,2,1024,2,48000,-16,experiment,3,odd,3,165214,161845,163004,1996,94638,163008,155687,2003,84629,167219,167952,164010,7938,167218,NA,Sternberg task,19,19204,24,yes,1024
80,80,802.08,802.08,black,experiment,legacy,legacy,legacy,0,uniform,1,undefined,1,right,24,24,24,0,0,24,24,0,0,24,24,24,0,24,0,10/24/19 12:30,The main experiment item,yes,Sternbergtask SL.osexp,C:/Users/Sarah Linan/Desktop,no,mono,no,18,no,white,no,yes,768,legacy,12,11,C:/Users/Sarah Linan/Desktop/subject-S3.csv,legacy,6 9 4 5 2,Kafkaesque Koffka,3.2.8,0,n,0,right,right,right,right,NA,848,5933,10009,848,NA,2,legacy,5,1024,2,48000,-16,experiment,3,odd,1,171395,168034,169188,1996,94638,169189,155687,2003,84629,173399,174247,170191,7938,173399,NA,Sternberg task,20,20052,25,yes,1024
76.92307692,76.92307692,803.6153846,803.6153846,black,experiment,legacy,legacy,legacy,0,uniform,0,undefined,0,left,25,25,25,0,0,25,25,0,0,25,25,25,0,25,0,10/24/19 12:30,The main experiment item,yes,Sternbergtask SL.osexp,C:/Users/Sarah Linan/Desktop,no,mono,no,18,no,white,no,yes,768,legacy,13,11,C:/Users/Sarah Linan/Desktop/subject-S3.csv,legacy,6 9 7 4 5 1,Kafkaesque Koffka,3.2.8,2,y,0,right,right,right,right,NA,842,5933,10009,842,NA,2,legacy,6,1024,2,48000,-16,experiment,3,odd,9,177719,174337,175509,1996,94638,175511,155687,2003,84629,179723,180565,176515,7938,179723,NA,Sternberg task,20,20894,26,yes,1024
77.77777778,77.77777778,818.1481481,818.1481481,black,experiment,legacy,legacy,legacy,0,uniform,1,undefined,1,right,26,26,26,0,0,26,26,0,0,26,26,26,0,26,0,10/24/19 12:30,The main experiment item,yes,Sternbergtask SL.osexp,C:/Users/Sarah Linan/Desktop,no,mono,no,18,no,white,no,yes,768,legacy,14,11,C:/Users/Sarah Linan/Desktop/subject-S3.csv,legacy,7 1 8 4 9 3,Kafkaesque Koffka,3.2.8,0,n,0,right,right,right,right,NA,1196,5933,10009,1196,NA,2,legacy,6,1024,2,48000,-16,experiment,3,odd,6,184026,174337,181817,1996,94638,181819,180650,2003,84629,186028,187225,182821,7938,186028,NA,Sternberg task,21,22090,27,yes,1024
78.57142857,78.57142857,817.1071429,817.1071429,black,experiment,legacy,legacy,legacy,0,uniform,1,undefined,1,right,27,27,27,0,0,27,27,0,0,27,27,27,0,27,0,10/24/19 12:30,The main experiment item,yes,Sternbergtask SL.osexp,C:/Users/Sarah Linan/Desktop,no,mono,no,18,no,white,no,yes,768,legacy,15,11,C:/Users/Sarah Linan/Desktop/subject-S3.csv,legacy,7 1 5 6 3,Kafkaesque Koffka,3.2.8,0,n,0,right,right,right,right,NA,789,5933,10009,789,NA,2,legacy,5,1024,2,48000,-16,experiment,3,odd,8,190680,187307,188469,1996,94638,188472,180650,2003,84629,192682,193471,189476,7938,192682,NA,Sternberg task,22,22879,28,yes,1024
79.31034483,79.31034483,815.8275862,815.8275862,black,experiment,legacy,legacy,legacy,0,uniform,1,undefined,1,right,28,28,28,0,0,28,28,0,0,28,28,28,0,28,0,10/24/19 12:30,The main experiment item,yes,Sternbergtask SL.osexp,C:/Users/Sarah Linan/Desktop,no,mono,no,18,no,white,no,yes,768,legacy,16,11,C:/Users/Sarah Linan/Desktop/subject-S3.csv,legacy,7 9 1 6,Kafkaesque Koffka,3.2.8,0,n,0,right,right,right,right,NA,780,5933,10009,780,NA,2,legacy,4,1024,2,48000,-16,experiment,3,odd,4,196867,193508,194659,1996,94638,194661,180650,2003,84629,198869,199650,195665,7938,198869,NA,Sternberg task,23,23659,29,yes,1024
76.66666667,76.66666667,819.4333333,819.4333333,black,experiment,legacy,legacy,legacy,0,uniform,0,undefined,0,left,29,29,29,0,0,29,29,0,0,29,29,29,0,29,0,10/24/19 12:30,The main experiment item,yes,Sternbergtask SL.osexp,C:/Users/Sarah Linan/Desktop,no,mono,no,18,no,white,no,yes,768,legacy,17,11,C:/Users/Sarah Linan/Desktop/subject-S3.csv,legacy,9 5 8 1,Kafkaesque Koffka,3.2.8,2,y,0,right,right,right,right,NA,924,5933,10009,924,NA,2,legacy,4,1024,2,48000,-16,experiment,3,odd,5,203179,199800,200971,1996,94638,200973,180650,2003,84629,205183,206108,201975,7938,205183,NA,Sternberg task,23,24583,30,yes,1024
77.41935484,77.41935484,821.5483871,821.5483871,black,experiment,legacy,legacy,legacy,0,uniform,1,undefined,1,left,30,30,30,0,0,30,30,0,0,30,30,30,0,30,0,10/24/19 12:30,The main experiment item,yes,Sternbergtask SL.osexp,C:/Users/Sarah Linan/Desktop,no,mono,no,18,no,white,no,yes,768,legacy,18,11,C:/Users/Sarah Linan/Desktop/subject-S3.csv,legacy,6 7 8 5,Kafkaesque Koffka,3.2.8,3,y,0,left,right,right,left,NA,885,5933,10009,885,NA,2,legacy,4,1024,2,48000,-16,experiment,3,odd,8,209579,199800,207368,1996,94638,207371,206192,2003,84629,211583,212469,208375,7938,211583,NA,Sternberg task,24,25468,31,yes,1024
78.125,78.125,820.59375,820.59375,black,experiment,legacy,legacy,legacy,0,uniform,1,undefined,1,left,31,31,31,0,0,31,31,0,0,31,31,31,0,31,0,10/24/19 12:30,The main experiment item,yes,Sternbergtask SL.osexp,C:/Users/Sarah Linan/Desktop,no,mono,no,18,no,white,no,yes,768,legacy,19,11,C:/Users/Sarah Linan/Desktop/subject-S3.csv,legacy,6 1 2,Kafkaesque Koffka,3.2.8,3,y,0,left,right,right,left,NA,791,5933,10009,791,NA,2,legacy,3,1024,2,48000,-16,experiment,3,odd,2,215911,212548,213704,1996,94638,213706,206192,2003,84629,217913,218704,214709,7938,217913,NA,Sternberg task,25,26259,32,yes,1024
75.75757576,75.75757576,824.2424242,824.2424242,black,experiment,legacy,legacy,legacy,0,uniform,0,undefined,0,right,32,32,32,0,0,32,32,0,0,32,32,32,0,32,0,10/24/19 12:30,The main experiment item,yes,Sternbergtask SL.osexp,C:/Users/Sarah Linan/Desktop,no,mono,no,18,no,white,no,yes,768,legacy,20,11,C:/Users/Sarah Linan/Desktop/subject-S3.csv,legacy,1 7 5 2 9,Kafkaesque Koffka,3.2.8,0,n,0,left,right,right,left,NA,941,5933,10009,941,NA,2,legacy,5,1024,2,48000,-16,experiment,3,odd,3,222139,218783,219930,1996,94638,219933,206192,2003,84629,224141,225082,220935,7938,224141,NA,Sternberg task,25,27200,33,yes,1024
73.52941176,73.52941176,824.8823529,824.8823529,black,experiment,legacy,legacy,legacy,0,uniform,0,undefined,0,left,33,33,33,0,0,33,33,0,0,33,33,33,0,33,0,10/24/19 12:30,The main experiment item,yes,Sternbergtask SL.osexp,C:/Users/Sarah Linan/Desktop,no,mono,no,18,no,white,no,yes,768,legacy,21,11,C:/Users/Sarah Linan/Desktop/subject-S3.csv,legacy,6 7 9 3 1 2,Kafkaesque Koffka,3.2.8,1,y,0,right,right,right,right,NA,846,5933,10009,846,NA,2,legacy,6,1024,2,48000,-16,experiment,3,odd,6,228537,218783,226329,1996,94638,226331,225164,2003,84629,230541,231388,227333,7938,230541,NA,Sternberg task,25,28046,34,yes,1024
74.28571429,74.28571429,818.2285714,818.2285714,black,experiment,legacy,legacy,legacy,0,uniform,1,undefined,1,left,34,34,34,0,0,34,34,0,0,34,34,34,0,34,0,10/24/19 12:30,The main experiment item,yes,Sternbergtask SL.osexp,C:/Users/Sarah Linan/Desktop,no,mono,no,18,no,white,no,yes,768,legacy,22,11,C:/Users/Sarah Linan/Desktop/subject-S3.csv,legacy,8 9 5 7 1 6,Kafkaesque Koffka,3.2.8,4,y,0,left,right,right,left,NA,592,5933,10009,592,NA,2,legacy,6,1024,2,48000,-16,experiment,3,odd,7,234872,218783,232663,1996,94638,232665,231478,2003,84629,236876,237469,233668,7938,236876,NA,Sternberg task,26,28638,35,yes,1024
75,75,814.2777778,814.2777778,black,experiment,legacy,legacy,legacy,0,uniform,1,undefined,1,right,35,35,35,0,0,35,35,0,0,35,35,35,0,35,0,10/24/19 12:30,The main experiment item,yes,Sternbergtask SL.osexp,C:/Users/Sarah Linan/Desktop,no,mono,no,18,no,white,no,yes,768,legacy,23,11,C:/Users/Sarah Linan/Desktop/subject-S3.csv,legacy,4 2 6 9,Kafkaesque Koffka,3.2.8,0,n,0,right,right,right,right,NA,676,5933,10009,676,NA,2,legacy,4,1024,2,48000,-16,experiment,3,odd,7,240872,237502,238661,1996,94638,238664,231478,2003,84629,242876,243553,239668,7938,242875,NA,Sternberg task,27,29314,36,yes,1024
75.67567568,75.67567568,807.0810811,807.0810811,black,experiment,legacy,legacy,legacy,0,uniform,1,undefined,1,left,36,36,36,0,0,36,36,0,0,36,36,36,0,36,0,10/24/19 12:30,The main experiment item,yes,Sternbergtask SL.osexp,C:/Users/Sarah Linan/Desktop,no,mono,no,18,no,white,no,yes,768,legacy,24,11,C:/Users/Sarah Linan/Desktop/subject-S3.csv,legacy,7,Kafkaesque Koffka,3.2.8,1,y,0,left,right,right,left,NA,548,5933,10009,548,NA,2,legacy,1,1024,2,48000,-16,experiment,3,odd,7,247021,243638,244810,1996,94638,244812,231478,2003,84629,249026,249575,245817,7938,249025,NA,Sternberg task,28,29862,37,yes,1024
76.31578947,76.31578947,802.8421053,802.8421053,black,experiment,legacy,legacy,legacy,0,uniform,1,undefined,1,left,37,37,37,0,0,37,37,0,0,37,37,37,0,37,0,10/24/19 12:30,The main experiment item,yes,Sternbergtask SL.osexp,C:/Users/Sarah Linan/Desktop,no,mono,no,18,no,white,no,yes,768,legacy,25,11,C:/Users/Sarah Linan/Desktop/subject-S3.csv,legacy,6 8 9 3 4 9,Kafkaesque Koffka,3.2.8,5,y,0,left,right,right,left,NA,646,5933,10009,646,NA,2,legacy,6,1024,2,48000,-16,experiment,3,odd,4,253057,249663,250849,1996,94638,250852,231478,2003,84629,255062,255709,251854,7938,255062,NA,Sternberg task,29,30508,38,yes,1024
76.92307692,76.92307692,811.4358974,811.4358974,black,experiment,legacy,legacy,legacy,0,uniform,1,undefined,1,right,38,38,38,0,0,38,38,0,0,38,38,38,0,38,0,10/24/19 12:30,The main experiment item,yes,Sternbergtask SL.osexp,C:/Users/Sarah Linan/Desktop,no,mono,no,18,no,white,no,yes,768,legacy,26,11,C:/Users/Sarah Linan/Desktop/subject-S3.csv,legacy,1 3 2 6 9,Kafkaesque Koffka,3.2.8,0,n,0,right,right,right,right,NA,1138,5933,10009,1138,NA,2,legacy,5,1024,2,48000,-16,experiment,3,odd,5,259178,255798,256970,1996,94638,256972,231478,2003,84629,261182,262321,257974,7938,261182,NA,Sternberg task,30,31646,39,yes,1024
77.5,77.5,814.1,814.1,black,experiment,legacy,legacy,legacy,0,uniform,1,undefined,1,left,39,39,39,0,0,39,39,0,0,39,39,39,0,39,0,10/24/19 12:30,The main experiment item,yes,Sternbergtask SL.osexp,C:/Users/Sarah Linan/Desktop,no,mono,no,18,no,white,no,yes,768,legacy,27,11,C:/Users/Sarah Linan/Desktop/subject-S3.csv,legacy,8 7 3,Kafkaesque Koffka,3.2.8,1,y,0,left,right,right,left,NA,918,5933,10009,918,NA,2,legacy,3,1024,2,48000,-16,experiment,3,odd,8,265795,262411,263586,1996,94638,263589,231478,2003,84629,267797,268716,264593,7938,267797,NA,Sternberg task,31,32564,40,yes,1024
78.04878049,78.04878049,812.0487805,812.0487805,black,experiment,legacy,legacy,legacy,0,uniform,1,undefined,1,right,40,40,40,0,0,40,40,0,0,40,40,40,0,40,0,10/24/19 12:30,The main experiment item,yes,Sternbergtask SL.osexp,C:/Users/Sarah Linan/Desktop,no,mono,no,18,no,white,no,yes,768,legacy,28,11,C:/Users/Sarah Linan/Desktop/subject-S3.csv,legacy,7 9,Kafkaesque Koffka,3.2.8,0,n,0,right,right,right,right,NA,730,5933,10009,730,NA,2,legacy,2,1024,2,48000,-16,experiment,3,odd,1,272175,268802,269965,1996,94638,269968,231478,2003,84629,274177,274908,270970,7938,274177,NA,Sternberg task,32,33294,41,yes,1024
78.57142857,78.57142857,816.4761905,816.4761905,black,experiment,legacy,legacy,legacy,0,uniform,1,undefined,1,right,41,41,41,0,0,41,41,0,0,41,41,41,0,41,0,10/24/19 12:30,The main experiment item,yes,Sternbergtask SL.osexp,C:/Users/Sarah Linan/Desktop,no,mono,no,18,no,white,no,yes,768,legacy,29,11,C:/Users/Sarah Linan/Desktop/subject-S3.csv,legacy,9 5 3 2 8 6,Kafkaesque Koffka,3.2.8,0,n,0,right,right,right,right,NA,998,5933,10009,998,NA,2,legacy,6,1024,2,48000,-16,experiment,3,odd,7,278354,274992,276144,1996,94638,276146,231478,2003,84629,280358,281357,277150,7938,280358,NA,Sternberg task,33,34292,42,yes,1024
79.06976744,79.06976744,813.3255814,813.3255814,black,experiment,legacy,legacy,legacy,0,uniform,1,undefined,1,right,42,42,42,0,0,42,42,0,0,42,42,42,0,42,0,10/24/19 12:30,The main experiment item,yes,Sternbergtask SL.osexp,C:/Users/Sarah Linan/Desktop,no,mono,no,18,no,white,no,yes,768,legacy,30,11,C:/Users/Sarah Linan/Desktop/subject-S3.csv,legacy,2 8 9,Kafkaesque Koffka,3.2.8,0,n,0,right,right,right,right,NA,681,5933,10009,681,NA,2,legacy,3,1024,2,48000,-16,experiment,3,odd,6,284832,281440,282623,1996,94638,282626,231478,2003,84629,286834,287516,283630,7938,286834,NA,Sternberg task,34,34973,43,yes,1024
79.54545455,79.54545455,811.5,811.5,black,experiment,legacy,legacy,legacy,0,uniform,1,undefined,1,right,43,43,43,0,0,43,43,0,0,43,43,43,0,43,0,10/24/19 12:30,The main experiment item,yes,Sternbergtask SL.osexp,C:/Users/Sarah Linan/Desktop,no,mono,no,18,no,white,no,yes,768,legacy,31,11,C:/Users/Sarah Linan/Desktop/subject-S3.csv,legacy,4 1,Kafkaesque Koffka,3.2.8,0,n,0,right,right,right,right,NA,733,5933,10009,733,NA,2,legacy,2,1024,2,48000,-16,experiment,3,odd,6,290970,287598,288762,1996,94638,288764,231478,2003,84629,292974,293708,289766,7938,292974,NA,Sternberg task,35,35706,44,yes,1024
80,80,820.3333333,820.3333333,black,experiment,legacy,legacy,legacy,0,uniform,1,undefined,1,left,44,44,44,0,0,44,44,0,0,44,44,44,0,44,0,10/24/19 12:30,The main experiment item,yes,Sternbergtask SL.osexp,C:/Users/Sarah Linan/Desktop,no,mono,no,18,no,white,no,yes,768,legacy,32,11,C:/Users/Sarah Linan/Desktop/subject-S3.csv,legacy,6 9 3 1,Kafkaesque Koffka,3.2.8,4,y,0,left,right,right,left,NA,1209,5933,10009,1209,NA,2,legacy,4,1024,2,48000,-16,experiment,3,odd,1,297152,293789,294944,1996,94638,294947,231478,2003,84629,299156,300366,295949,7938,299156,NA,Sternberg task,36,36915,45,yes,1024
80.43478261,80.43478261,836.9782609,836.9782609,black,experiment,legacy,legacy,legacy,0,uniform,1,undefined,1,right,45,45,45,0,0,45,45,0,0,45,45,45,0,45,0,10/24/19 12:30,The main experiment item,yes,Sternbergtask SL.osexp,C:/Users/Sarah Linan/Desktop,no,mono,no,18,no,white,no,yes,768,legacy,33,11,C:/Users/Sarah Linan/Desktop/subject-S3.csv,legacy,7 8 6 1,Kafkaesque Koffka,3.2.8,0,n,0,right,right,right,right,NA,1586,5933,10009,1586,NA,2,legacy,4,1024,2,48000,-16,experiment,3,odd,3,303851,300491,301639,1996,94638,301642,231478,2003,84629,305853,307440,302646,7938,305853,NA,Sternberg task,37,38501,46,yes,1024
80.85106383,80.85106383,835.7446809,835.7446809,black,experiment,legacy,legacy,legacy,0,uniform,1,undefined,1,right,46,46,46,0,0,46,46,0,0,46,46,46,0,46,0,10/24/19 12:30,The main experiment item,yes,Sternbergtask SL.osexp,C:/Users/Sarah Linan/Desktop,no,mono,no,18,no,white,no,yes,768,legacy,34,11,C:/Users/Sarah Linan/Desktop/subject-S3.csv,legacy,6 8 4,Kafkaesque Koffka,3.2.8,0,n,0,right,right,right,right,NA,779,5933,10009,779,NA,2,legacy,3,1024,2,48000,-16,experiment,3,odd,1,310894,307523,308685,1996,94638,308688,231478,2003,84629,312896,313676,309690,7938,312896,NA,Sternberg task,38,39280,47,yes,1024
81.25,81.25,840.4791667,840.4791667,black,experiment,legacy,legacy,legacy,0,uniform,1,undefined,1,left,47,47,47,0,0,47,47,0,0,47,47,47,0,47,0,10/24/19 12:30,The main experiment item,yes,Sternbergtask SL.osexp,C:/Users/Sarah Linan/Desktop,no,mono,no,18,no,white,no,yes,768,legacy,35,11,C:/Users/Sarah Linan/Desktop/subject-S3.csv,legacy,8 9 6 1,Kafkaesque Koffka,3.2.8,2,y,0,left,right,right,left,NA,1063,5933,10009,1063,NA,2,legacy,4,1024,2,48000,-16,experiment,3,odd,9,317134,313760,314926,1996,94638,314928,231478,2003,84629,319138,320201,315930,7938,319137,NA,Sternberg task,39,40343,48,yes,1024
81.63265306,81.63265306,835.4285714,835.4285714,black,experiment,legacy,legacy,legacy,0,uniform,1,undefined,1,left,48,48,48,0,0,48,48,0,0,48,48,48,0,48,0,10/24/19 12:30,The main experiment item,yes,Sternbergtask SL.osexp,C:/Users/Sarah Linan/Desktop,no,mono,no,18,no,white,no,yes,768,legacy,36,11,C:/Users/Sarah Linan/Desktop/subject-S3.csv,legacy,5 2 6,Kafkaesque Koffka,3.2.8,2,y,0,left,right,right,left,NA,593,5933,10009,593,NA,2,legacy,3,1024,2,48000,-16,experiment,3,odd,2,323649,320283,321439,1996,94638,321441,231478,2003,84629,325653,326247,322445,7938,325653,NA,Sternberg task,40,40936,49,yes,1024
82,82,836.74,836.74,black,experiment,legacy,legacy,legacy,0,uniform,1,undefined,1,left,49,49,49,0,0,49,49,0,0,49,49,49,0,49,0,10/24/19 12:30,The main experiment item,yes,Sternbergtask SL.osexp,C:/Users/Sarah Linan/Desktop,no,mono,no,18,no,white,no,yes,768,legacy,37,11,C:/Users/Sarah Linan/Desktop/subject-S3.csv,legacy,7 8 6 3 1,Kafkaesque Koffka,3.2.8,5,y,0,left,right,right,left,NA,901,5933,10009,901,NA,2,legacy,5,1024,2,48000,-16,experiment,3,odd,1,329700,326329,327489,1996,94638,327491,231478,2003,84629,331702,332604,328496,7938,331702,NA,Sternberg task,41,41837,50,yes,1024
82.35294118,82.35294118,834.4117647,834.4117647,black,experiment,legacy,legacy,legacy,0,uniform,1,undefined,1,left,50,50,50,0,0,50,50,0,0,50,50,50,0,50,0,10/24/19 12:30,The main experiment item,yes,Sternbergtask SL.osexp,C:/Users/Sarah Linan/Desktop,no,mono,no,18,no,white,no,yes,768,legacy,38,11,C:/Users/Sarah Linan/Desktop/subject-S3.csv,legacy,9 3 8 2 1 4,Kafkaesque Koffka,3.2.8,3,y,0,left,right,right,left,NA,718,5933,10009,718,NA,2,legacy,6,1024,2,48000,-16,experiment,3,odd,8,336064,332686,333853,1996,94638,333856,231478,2003,84629,338068,338787,334860,7938,338068,NA,Sternberg task,42,42555,51,yes,1024
80.76923077,80.76923077,833.5769231,833.5769231,black,experiment,legacy,legacy,legacy,0,uniform,0,undefined,0,right,51,51,51,0,0,51,51,0,0,51,51,51,0,51,0,10/24/19 12:30,The main experiment item,yes,Sternbergtask SL.osexp,C:/Users/Sarah Linan/Desktop,no,mono,no,18,no,white,no,yes,768,legacy,39,11,C:/Users/Sarah Linan/Desktop/subject-S3.csv,legacy,6 9 4 5 3 2,Kafkaesque Koffka,3.2.8,0,n,0,left,right,right,left,NA,791,5933,10009,791,NA,2,legacy,6,1024,2,48000,-16,experiment,3,odd,8,342228,338868,340020,1996,94638,340022,231478,2003,84629,344232,345024,341024,7938,344232,NA,Sternberg task,42,43346,52,yes,1024
81.13207547,81.13207547,829.5471698,829.5471698,black,experiment,legacy,legacy,legacy,0,uniform,1,undefined,1,left,52,52,52,0,0,52,52,0,0,52,52,52,0,52,0,10/24/19 12:30,The main experiment item,yes,Sternbergtask SL.osexp,C:/Users/Sarah Linan/Desktop,no,mono,no,18,no,white,no,yes,768,legacy,40,11,C:/Users/Sarah Linan/Desktop/subject-S3.csv,legacy,3 4,Kafkaesque Koffka,3.2.8,1,y,0,left,right,right,left,NA,620,5933,10009,620,NA,2,legacy,2,1024,2,48000,-16,experiment,3,odd,3,348410,338868,346202,1996,94638,346204,345047,2003,84629,350414,351036,347206,7938,350414,NA,Sternberg task,43,43966,53,yes,1024
81.48148148,81.48148148,826.4814815,826.4814815,black,experiment,legacy,legacy,legacy,0,uniform,1,undefined,1,left,53,53,53,0,0,53,53,0,0,53,53,53,0,53,0,10/24/19 12:30,The main experiment item,yes,Sternbergtask SL.osexp,C:/Users/Sarah Linan/Desktop,no,mono,no,18,no,white,no,yes,768,legacy,41,11,C:/Users/Sarah Linan/Desktop/subject-S3.csv,legacy,7 6,Kafkaesque Koffka,3.2.8,2,y,0,left,right,right,left,NA,664,5933,10009,664,NA,2,legacy,2,1024,2,48000,-16,experiment,3,odd,6,354493,351117,352284,1996,94638,352287,345047,2003,84629,356497,357162,353291,7938,356497,NA,Sternberg task,44,44630,54,yes,1024
81.81818182,81.81818182,822.0727273,822.0727273,black,experiment,legacy,legacy,legacy,0,uniform,1,undefined,1,left,54,54,54,0,0,54,54,0,0,54,54,54,0,54,0,10/24/19 12:30,The main experiment item,yes,Sternbergtask SL.osexp,C:/Users/Sarah Linan/Desktop,no,mono,no,18,no,white,no,yes,768,legacy,42,11,C:/Users/Sarah Linan/Desktop/subject-S3.csv,legacy,7 2 3,Kafkaesque Koffka,3.2.8,3,y,0,left,right,right,left,NA,584,5933,10009,584,NA,2,legacy,3,1024,2,48000,-16,experiment,3,odd,3,360635,357241,358424,1996,94638,358427,345047,2003,84629,362637,363223,359431,7938,362637,NA,Sternberg task,45,45214,55,yes,1024
82.14285714,82.14285714,821.875,821.875,black,experiment,legacy,legacy,legacy,0,uniform,1,undefined,1,right,55,55,55,0,0,55,55,0,0,55,55,55,0,55,0,10/24/19 12:30,The main experiment item,yes,Sternbergtask SL.osexp,C:/Users/Sarah Linan/Desktop,no,mono,no,18,no,white,no,yes,768,legacy,43,11,C:/Users/Sarah Linan/Desktop/subject-S3.csv,legacy,3 9 8 1 6 4,Kafkaesque Koffka,3.2.8,0,n,0,right,right,right,right,NA,811,5933,10009,811,NA,2,legacy,6,1024,2,48000,-16,experiment,3,odd,7,366761,363378,364550,1996,94638,364552,345047,2003,84629,368763,369575,365557,7938,368763,NA,Sternberg task,46,46025,56,yes,1024
82.45614035,82.45614035,820.3157895,820.3157895,black,experiment,legacy,legacy,legacy,0,uniform,1,undefined,1,left,56,56,56,0,0,56,56,0,0,56,56,56,0,56,0,10/24/19 12:30,The main experiment item,yes,Sternbergtask SL.osexp,C:/Users/Sarah Linan/Desktop,no,mono,no,18,no,white,no,yes,768,legacy,44,11,C:/Users/Sarah Linan/Desktop/subject-S3.csv,legacy,5 2 9 6 1 7,Kafkaesque Koffka,3.2.8,3,y,0,left,right,right,left,NA,733,5933,10009,733,NA,2,legacy,6,1024,2,48000,-16,experiment,3,odd,9,373032,369658,370824,1996,94638,370826,345047,2003,84629,375034,375768,371828,7938,375034,NA,Sternberg task,47,46758,57,yes,1024
82.75862069,82.75862069,818.7068966,818.7068966,black,experiment,legacy,legacy,legacy,0,uniform,1,undefined,1,left,57,57,57,0,0,57,57,0,0,57,57,57,0,57,0,10/24/19 12:30,The main experiment item,yes,Sternbergtask SL.osexp,C:/Users/Sarah Linan/Desktop,no,mono,no,18,no,white,no,yes,768,legacy,45,11,C:/Users/Sarah Linan/Desktop/subject-S3.csv,legacy,9 6 2 4 1,Kafkaesque Koffka,3.2.8,4,y,0,left,right,right,left,NA,727,5933,10009,727,NA,2,legacy,5,1024,2,48000,-16,experiment,3,odd,4,379217,375848,377006,1996,94638,377009,345047,2003,84629,381219,381947,378013,7938,381219,NA,Sternberg task,48,47485,58,yes,1024
81.3559322,81.3559322,824.9830508,824.9830508,black,experiment,legacy,legacy,legacy,0,uniform,0,undefined,0,right,58,58,58,0,0,58,58,0,0,58,58,58,0,58,0,10/24/19 12:30,The main experiment item,yes,Sternbergtask SL.osexp,C:/Users/Sarah Linan/Desktop,no,mono,no,18,no,white,no,yes,768,legacy,46,11,C:/Users/Sarah Linan/Desktop/subject-S3.csv,legacy,7 4 2 8 1 9,Kafkaesque Koffka,3.2.8,0,n,0,left,right,right,left,NA,1189,5933,10009,1189,NA,2,legacy,6,1024,2,48000,-16,experiment,3,odd,5,385416,382029,383205,1996,94638,383208,345047,2003,84629,387418,388608,384212,7938,387418,NA,Sternberg task,48,48674,59,yes,1024
81.66666667,81.66666667,836.9666667,836.9666667,black,experiment,legacy,legacy,legacy,0,uniform,1,undefined,1,left,59,59,59,0,0,59,59,0,0,59,59,59,0,59,0,10/24/19 12:30,The main experiment item,yes,Sternbergtask SL.osexp,C:/Users/Sarah Linan/Desktop,no,mono,no,18,no,white,no,yes,768,legacy,47,11,C:/Users/Sarah Linan/Desktop/subject-S3.csv,legacy,4 1 5,Kafkaesque Koffka,3.2.8,2,y,0,left,right,right,left,NA,1544,5933,10009,1544,NA,2,legacy,3,1024,2,48000,-16,experiment,3,odd,1,392082,382029,389873,1996,94638,389875,388707,2003,84629,394084,395629,390878,7938,394084,NA,Sternberg task,49,50218,60,yes,1024
81.96721311,81.96721311,835.4918033,835.4918033,black,experiment,legacy,legacy,legacy,0,uniform,1,undefined,1,right,60,60,60,0,0,60,60,0,0,60,60,60,0,60,0,10/24/19 12:30,The main experiment item,yes,Sternbergtask SL.osexp,C:/Users/Sarah Linan/Desktop,no,mono,no,18,no,white,no,yes,768,legacy,48,11,C:/Users/Sarah Linan/Desktop/subject-S3.csv,legacy,1 7 5 2,Kafkaesque Koffka,3.2.8,0,n,0,right,right,right,right,NA,747,5933,10009,747,NA,2,legacy,4,1024,2,48000,-16,experiment,3,odd,3,399056,395698,396847,1996,94638,396850,388707,2003,84629,401060,401808,397852,7938,401059,NA,Sternberg task,50,50965,61,yes,1024
82.25806452,82.25806452,832.483871,832.483871,black,experiment,legacy,legacy,legacy,0,uniform,1,undefined,1,left,61,61,61,0,0,61,61,0,0,61,61,61,0,61,0,10/24/19 12:30,The main experiment item,yes,Sternbergtask SL.osexp,C:/Users/Sarah Linan/Desktop,no,mono,no,18,no,white,no,yes,768,legacy,49,11,C:/Users/Sarah Linan/Desktop/subject-S3.csv,legacy,2 4 6 9,Kafkaesque Koffka,3.2.8,3,y,0,left,right,right,left,NA,649,5933,10009,649,NA,2,legacy,4,1024,2,48000,-16,experiment,3,odd,6,405253,401889,403043,1996,94638,403045,388707,2003,84629,407255,407905,404049,7938,407255,NA,Sternberg task,51,51614,62,yes,1024
82.53968254,82.53968254,831.2063492,831.2063492,black,experiment,legacy,legacy,legacy,0,uniform,1,undefined,1,right,62,62,62,0,0,62,62,0,0,62,62,62,0,62,0,10/24/19 12:30,The main experiment item,yes,Sternbergtask SL.osexp,C:/Users/Sarah Linan/Desktop,no,mono,no,18,no,white,no,yes,768,legacy,50,11,C:/Users/Sarah Linan/Desktop/subject-S3.csv,legacy,1 8 7,Kafkaesque Koffka,3.2.8,0,n,0,right,right,right,right,NA,752,5933,10009,752,NA,2,legacy,3,1024,2,48000,-16,experiment,3,odd,4,411414,408058,409206,1996,94638,409208,388707,2003,84629,413416,414169,410210,7938,413416,NA,Sternberg task,52,52366,63,yes,1024
81.25,81.25,830,830,black,experiment,legacy,legacy,legacy,0,uniform,0,undefined,0,right,63,63,63,0,0,63,63,0,0,63,63,63,0,63,0,10/24/19 12:30,The main experiment item,yes,Sternbergtask SL.osexp,C:/Users/Sarah Linan/Desktop,no,mono,no,18,no,white,no,yes,768,legacy,51,11,C:/Users/Sarah Linan/Desktop/subject-S3.csv,legacy,2 8 9 4 1,Kafkaesque Koffka,3.2.8,0,n,0,left,right,right,left,NA,754,5933,10009,754,NA,2,legacy,5,1024,2,48000,-16,experiment,3,odd,5,417656,414271,415447,1996,94638,415449,388707,2003,84629,419660,420415,416452,7938,419660,NA,Sternberg task,52,53120,64,yes,1024
81.53846154,81.53846154,828.0153846,828.0153846,black,experiment,legacy,legacy,legacy,0,uniform,1,undefined,1,right,64,64,64,0,0,64,64,0,0,64,64,64,0,64,0,10/24/19 12:30,The main experiment item,yes,Sternbergtask SL.osexp,C:/Users/Sarah Linan/Desktop,no,mono,no,18,no,white,no,yes,768,legacy,52,11,C:/Users/Sarah Linan/Desktop/subject-S3.csv,legacy,7 3 2 8,Kafkaesque Koffka,3.2.8,0,n,0,right,right,right,right,NA,701,5933,10009,701,NA,2,legacy,4,1024,2,48000,-16,experiment,3,odd,4,423860,414271,421649,1996,94638,421652,420496,2003,84629,425862,426564,422656,7938,425862,NA,Sternberg task,53,53821,65,yes,1024
80.3030303,80.3030303,830.0454545,830.0454545,black,experiment,legacy,legacy,legacy,0,uniform,0,undefined,0,left,65,65,65,0,0,65,65,0,0,65,65,65,0,65,0,10/24/19 12:30,The main experiment item,yes,Sternbergtask SL.osexp,C:/Users/Sarah Linan/Desktop,no,mono,no,18,no,white,no,yes,768,legacy,53,11,C:/Users/Sarah Linan/Desktop/subject-S3.csv,legacy,1 4 9 3 2 5,Kafkaesque Koffka,3.2.8,3,y,0,right,right,right,right,NA,962,5933,10009,962,NA,2,legacy,6,1024,2,48000,-16,experiment,3,odd,9,430041,426654,427833,1996,94638,427835,420496,2003,84629,432043,433006,428837,7938,432043,NA,Sternberg task,53,54783,66,yes,1024
80.59701493,80.59701493,828.0298507,828.0298507,black,experiment,legacy,legacy,legacy,0,uniform,1,undefined,1,left,66,66,66,0,0,66,66,0,0,66,66,66,0,66,0,10/24/19 12:30,The main experiment item,yes,Sternbergtask SL.osexp,C:/Users/Sarah Linan/Desktop,no,mono,no,18,no,white,no,yes,768,legacy,54,11,C:/Users/Sarah Linan/Desktop/subject-S3.csv,legacy,6 5,Kafkaesque Koffka,3.2.8,2,y,0,left,right,right,left,NA,695,5933,10009,695,NA,2,legacy,2,1024,2,48000,-16,experiment,3,odd,5,436417,426654,434207,1996,94638,434209,433032,2003,84629,438421,439117,435213,7938,438421,NA,Sternberg task,54,55478,67,yes,1024
79.41176471,79.41176471,829.3676471,829.3676471,black,experiment,legacy,legacy,legacy,0,uniform,0,undefined,0,right,67,67,67,0,0,67,67,0,0,67,67,67,0,67,0,10/24/19 12:30,The main experiment item,yes,Sternbergtask SL.osexp,C:/Users/Sarah Linan/Desktop,no,mono,no,18,no,white,no,yes,768,legacy,55,11,C:/Users/Sarah Linan/Desktop/subject-S3.csv,legacy,2 3 8 5 6 7,Kafkaesque Koffka,3.2.8,0,n,0,left,right,right,left,NA,919,5933,10009,919,NA,2,legacy,6,1024,2,48000,-16,experiment,3,odd,1,442568,439202,440359,1996,94638,440361,433032,2003,84629,444570,445491,441366,7938,444570,NA,Sternberg task,54,56397,68,yes,1024
79.71014493,79.71014493,825.6956522,825.6956522,black,experiment,legacy,legacy,legacy,0,uniform,1,undefined,1,left,68,68,68,0,0,68,68,0,0,68,68,68,0,68,0,10/24/19 12:30,The main experiment item,yes,Sternbergtask SL.osexp,C:/Users/Sarah Linan/Desktop,no,mono,no,18,no,white,no,yes,768,legacy,56,11,C:/Users/Sarah Linan/Desktop/subject-S3.csv,legacy,3 5 7 1,Kafkaesque Koffka,3.2.8,3,y,0,left,right,right,left,NA,576,5933,10009,576,NA,2,legacy,4,1024,2,48000,-16,experiment,3,odd,7,448886,439202,446675,1996,94638,446678,445515,2003,84629,450890,451467,447682,7938,450890,NA,Sternberg task,55,56973,69,yes,1024
78.57142857,78.57142857,822.1857143,822.1857143,black,experiment,legacy,legacy,legacy,0,uniform,0,undefined,0,right,69,69,69,0,0,69,69,0,0,69,69,69,0,69,0,10/24/19 12:30,The main experiment item,yes,Sternbergtask SL.osexp,C:/Users/Sarah Linan/Desktop,no,mono,no,18,no,white,no,yes,768,legacy,57,11,C:/Users/Sarah Linan/Desktop/subject-S3.csv,legacy,6 9 5,Kafkaesque Koffka,3.2.8,0,n,0,left,right,right,left,NA,580,5933,10009,580,NA,2,legacy,3,1024,2,48000,-16,experiment,3,odd,8,454925,451550,452715,1996,94638,452716,445515,2003,84629,456927,457508,453721,7938,456927,NA,Sternberg task,55,57553,70,yes,1024
78.87323944,78.87323944,821.056338,821.056338,black,experiment,legacy,legacy,legacy,0,uniform,1,undefined,1,left,70,70,70,0,0,70,70,0,0,70,70,70,0,70,0,10/24/19 12:30,The main experiment item,yes,Sternbergtask SL.osexp,C:/Users/Sarah Linan/Desktop,no,mono,no,18,no,white,no,yes,768,legacy,58,11,C:/Users/Sarah Linan/Desktop/subject-S3.csv,legacy,2 8 5 1,Kafkaesque Koffka,3.2.8,4,y,0,left,right,right,left,NA,742,5933,10009,742,NA,2,legacy,4,1024,2,48000,-16,experiment,3,odd,1,460967,451550,458758,1996,94638,458761,457599,2003,84629,462969,463712,459765,7938,462969,NA,Sternberg task,56,58295,71,yes,1024
77.77777778,77.77777778,819.6666667,819.6666667,black,experiment,legacy,legacy,legacy,0,uniform,0,undefined,0,right,71,71,71,0,0,71,71,0,0,71,71,71,0,71,0,10/24/19 12:30,The main experiment item,yes,Sternbergtask SL.osexp,C:/Users/Sarah Linan/Desktop,no,mono,no,18,no,white,no,yes,768,legacy,59,11,C:/Users/Sarah Linan/Desktop/subject-S3.csv,legacy,3 9 1,Kafkaesque Koffka,3.2.8,0,n,0,left,right,right,left,NA,721,5933,10009,721,NA,2,legacy,3,1024,2,48000,-16,experiment,3,odd,7,467118,463744,464908,1996,94638,464910,457599,2003,84629,469122,469844,465913,7938,469121,NA,Sternberg task,56,59016,72,yes,1024
78.08219178,78.08219178,819.109589,819.109589,black,experiment,legacy,legacy,legacy,0,uniform,1,undefined,1,left,72,72,72,0,0,72,72,0,0,72,72,72,0,72,0,10/24/19 12:30,The main experiment item,yes,Sternbergtask SL.osexp,C:/Users/Sarah Linan/Desktop,no,mono,no,18,no,white,no,yes,768,legacy,60,11,C:/Users/Sarah Linan/Desktop/subject-S3.csv,legacy,4 7 6 8 2 3,Kafkaesque Koffka,3.2.8,6,y,0,left,right,right,left,NA,779,5933,10009,779,NA,2,legacy,6,1024,2,48000,-16,experiment,3,odd,3,473307,463744,471096,1996,94638,471099,469924,2003,84629,475311,476091,472103,7938,475311,NA,Sternberg task,57,59795,73,yes,1024
78.37837838,78.37837838,815.9189189,815.9189189,black,experiment,legacy,legacy,legacy,0,uniform,1,undefined,1,left,73,73,73,0,0,73,73,0,0,73,73,73,0,73,0,10/24/19 12:30,The main experiment item,yes,Sternbergtask SL.osexp,C:/Users/Sarah Linan/Desktop,no,mono,no,18,no,white,no,yes,768,legacy,61,11,C:/Users/Sarah Linan/Desktop/subject-S3.csv,legacy,8 5 1 3 9,Kafkaesque Koffka,3.2.8,4,y,0,left,right,right,left,NA,583,5933,10009,583,NA,2,legacy,5,1024,2,48000,-16,experiment,3,odd,3,479552,476171,477343,1996,94638,477346,469924,2003,84629,481556,482140,478350,7938,481556,NA,Sternberg task,58,60378,74,yes,1024
78.66666667,78.66666667,814.1333333,814.1333333,black,experiment,legacy,legacy,legacy,0,uniform,1,undefined,1,left,74,74,74,0,0,74,74,0,0,74,74,74,0,74,0,10/24/19 12:30,The main experiment item,yes,Sternbergtask SL.osexp,C:/Users/Sarah Linan/Desktop,no,mono,no,18,no,white,no,yes,768,legacy,62,11,C:/Users/Sarah Linan/Desktop/subject-S3.csv,legacy,6 2,Kafkaesque Koffka,3.2.8,1,y,0,left,right,right,left,NA,682,5933,10009,682,NA,2,legacy,2,1024,2,48000,-16,experiment,3,odd,6,485584,482229,483373,1996,94638,483376,469924,2003,84629,487586,488269,484380,7938,487586,NA,Sternberg task,59,61060,75,yes,1024
78.94736842,78.94736842,813.9736842,813.9736842,black,experiment,legacy,legacy,legacy,0,uniform,1,undefined,1,left,75,75,75,0,0,75,75,0,0,75,75,75,0,75,0,10/24/19 12:30,The main experiment item,yes,Sternbergtask SL.osexp,C:/Users/Sarah Linan/Desktop,no,mono,no,18,no,white,no,yes,768,legacy,63,11,C:/Users/Sarah Linan/Desktop/subject-S3.csv,legacy,2 3 7 4,Kafkaesque Koffka,3.2.8,1,y,0,left,right,right,left,NA,802,5933,10009,802,NA,2,legacy,4,1024,2,48000,-16,experiment,3,odd,2,491716,488354,489506,1996,94638,489508,469924,2003,84629,493718,494521,490512,7938,493718,NA,Sternberg task,60,61862,76,yes,1024
77.92207792,77.92207792,821.8571429,821.8571429,black,experiment,legacy,legacy,legacy,0,uniform,0,undefined,0,left,76,76,76,0,0,76,76,0,0,76,76,76,0,76,0,10/24/19 12:30,The main experiment item,yes,Sternbergtask SL.osexp,C:/Users/Sarah Linan/Desktop,no,mono,no,18,no,white,no,yes,768,legacy,64,11,C:/Users/Sarah Linan/Desktop/subject-S3.csv,legacy,9 1 6 7 8,Kafkaesque Koffka,3.2.8,1,y,0,right,right,right,right,NA,1421,5933,10009,1421,NA,2,legacy,5,1024,2,48000,-16,experiment,3,odd,9,497911,494545,495703,1996,94638,495705,469924,2003,84629,499915,501337,496707,7938,499914,NA,Sternberg task,60,63283,77,yes,1024
78.20512821,78.20512821,817.8333333,817.8333333,black,experiment,legacy,legacy,legacy,0,uniform,1,undefined,1,left,77,77,77,0,0,77,77,0,0,77,77,77,0,77,0,10/24/19 12:30,The main experiment item,yes,Sternbergtask SL.osexp,C:/Users/Sarah Linan/Desktop,no,mono,no,18,no,white,no,yes,768,legacy,65,11,C:/Users/Sarah Linan/Desktop/subject-S3.csv,legacy,5 7 8 2 3 8,Kafkaesque Koffka,3.2.8,5,y,0,left,right,right,left,NA,508,5933,10009,508,NA,2,legacy,6,1024,2,48000,-16,experiment,3,odd,3,504759,494545,502548,1996,94638,502551,501380,2003,84629,506761,507270,503555,7938,506761,NA,Sternberg task,61,63791,78,yes,1024
78.48101266,78.48101266,814.1265823,814.1265823,black,experiment,legacy,legacy,legacy,0,uniform,1,undefined,1,left,78,78,78,0,0,78,78,0,0,78,78,78,0,78,0,10/24/19 12:30,The main experiment item,yes,Sternbergtask SL.osexp,C:/Users/Sarah Linan/Desktop,no,mono,no,18,no,white,no,yes,768,legacy,66,11,C:/Users/Sarah Linan/Desktop/subject-S3.csv,legacy,3 4 9 6 2 9,Kafkaesque Koffka,3.2.8,5,y,0,left,right,right,left,NA,525,5933,10009,525,NA,2,legacy,6,1024,2,48000,-16,experiment,3,odd,2,510737,507361,508526,1996,94638,508529,501380,2003,84629,512741,513268,509533,7938,512741,NA,Sternberg task,62,64316,79,yes,1024
78.75,78.75,811.375,811.375,black,experiment,legacy,legacy,legacy,0,uniform,1,undefined,1,right,79,79,79,0,0,79,79,0,0,79,79,79,0,79,0,10/24/19 12:30,The main experiment item,yes,Sternbergtask SL.osexp,C:/Users/Sarah Linan/Desktop,no,mono,no,18,no,white,no,yes,768,legacy,67,11,C:/Users/Sarah Linan/Desktop/subject-S3.csv,legacy,2 8 6 3 1,Kafkaesque Koffka,3.2.8,0,n,0,right,right,right,right,NA,594,5933,10009,594,NA,2,legacy,5,1024,2,48000,-16,experiment,3,odd,7,516751,513352,514540,1996,94638,514542,501380,2003,84629,518755,519351,515547,7938,518755,NA,Sternberg task,63,64910,80,yes,1024
79.01234568,79.01234568,812.9382716,812.9382716,black,experiment,legacy,legacy,legacy,0,uniform,1,undefined,1,right,80,80,80,0,0,80,80,0,0,80,80,80,0,80,0,10/24/19 12:30,The main experiment item,yes,Sternbergtask SL.osexp,C:/Users/Sarah Linan/Desktop,no,mono,no,18,no,white,no,yes,768,legacy,68,11,C:/Users/Sarah Linan/Desktop/subject-S3.csv,legacy,6 9 7 3 8 2,Kafkaesque Koffka,3.2.8,0,n,0,right,right,right,right,NA,938,5933,10009,938,NA,2,legacy,6,1024,2,48000,-16,experiment,3,odd,5,522801,519421,520589,1996,94638,520592,501380,2003,84629,524803,525742,521596,7938,524803,NA,Sternberg task,64,65848,81,yes,1024
79.26829268,79.26829268,817.2195122,817.2195122,black,experiment,legacy,legacy,legacy,0,uniform,1,undefined,1,right,81,81,81,0,0,81,81,0,0,81,81,81,0,81,0,10/24/19 12:30,The main experiment item,yes,Sternbergtask SL.osexp,C:/Users/Sarah Linan/Desktop,no,mono,no,18,no,white,no,yes,768,legacy,69,11,C:/Users/Sarah Linan/Desktop/subject-S3.csv,legacy,1 4 9 3,Kafkaesque Koffka,3.2.8,0,n,0,right,right,right,right,NA,1164,5933,10009,1164,NA,2,legacy,4,1024,2,48000,-16,experiment,3,odd,5,529198,525821,526989,1996,94638,526992,501380,2003,84629,531202,532368,527994,7938,531202,NA,Sternberg task,65,67012,82,yes,1024
79.51807229,79.51807229,816.2891566,816.2891566,black,experiment,legacy,legacy,legacy,0,uniform,1,undefined,1,right,82,82,82,0,0,82,82,0,0,82,82,82,0,82,0,10/24/19 12:30,The main experiment item,yes,Sternbergtask SL.osexp,C:/Users/Sarah Linan/Desktop,no,mono,no,18,no,white,no,yes,768,legacy,70,11,C:/Users/Sarah Linan/Desktop/subject-S3.csv,legacy,8 4 3 9,Kafkaesque Koffka,3.2.8,0,n,0,right,right,right,right,NA,740,5933,10009,740,NA,2,legacy,4,1024,2,48000,-16,experiment,3,odd,5,535830,532458,533621,1996,94638,533624,501380,2003,84629,537832,538573,534626,7938,537832,NA,Sternberg task,66,67752,83,yes,1024
79.76190476,79.76190476,814.7261905,814.7261905,black,experiment,legacy,legacy,legacy,0,uniform,1,undefined,1,right,83,83,83,0,0,83,83,0,0,83,83,83,0,83,0,10/24/19 12:30,The main experiment item,yes,Sternbergtask SL.osexp,C:/Users/Sarah Linan/Desktop,no,mono,no,18,no,white,no,yes,768,legacy,71,11,C:/Users/Sarah Linan/Desktop/subject-S3.csv,legacy,4 2 7 6 1 3,Kafkaesque Koffka,3.2.8,0,n,0,right,right,right,right,NA,685,5933,10009,685,NA,2,legacy,6,1024,2,48000,-16,experiment,3,odd,8,542031,538660,539819,1996,94638,539822,501380,2003,84629,544034,544720,540826,7938,544034,NA,Sternberg task,67,68437,84,yes,1024
80,80,812.0352941,812.0352941,black,experiment,legacy,legacy,legacy,0,uniform,1,undefined,1,left,84,84,84,0,0,84,84,0,0,84,84,84,0,84,0,10/24/19 12:30,The main experiment item,yes,Sternbergtask SL.osexp,C:/Users/Sarah Linan/Desktop,no,mono,no,18,no,white,no,yes,768,legacy,72,11,C:/Users/Sarah Linan/Desktop/subject-S3.csv,legacy,9 3 1 2 5,Kafkaesque Koffka,3.2.8,4,y,0,left,right,right,left,NA,586,5933,10009,586,NA,2,legacy,5,1024,2,48000,-16,experiment,3,odd,2,548113,544750,545904,1996,94638,545907,501380,2003,84629,550118,550705,546909,7938,550117,NA,Sternberg task,68,69023,85,yes,1024
80.23255814,80.23255814,815.1976744,815.1976744,black,experiment,legacy,legacy,legacy,0,uniform,1,undefined,1,right,85,85,85,0,0,85,85,0,0,85,85,85,0,85,0,10/24/19 12:30,The main experiment item,yes,Sternbergtask SL.osexp,C:/Users/Sarah Linan/Desktop,no,mono,no,18,no,white,no,yes,768,legacy,73,11,C:/Users/Sarah Linan/Desktop/subject-S3.csv,legacy,8 9,Kafkaesque Koffka,3.2.8,0,n,0,right,right,right,right,NA,1084,5933,10009,1084,NA,2,legacy,2,1024,2,48000,-16,experiment,3,odd,5,554163,550798,551953,1996,94638,551955,501380,2003,84629,556167,557252,552959,7938,556167,NA,Sternberg task,69,70107,86,yes,1024
79.31034483,79.31034483,814.9310345,814.9310345,black,experiment,legacy,legacy,legacy,0,uniform,0,undefined,0,left,86,86,86,0,0,86,86,0,0,86,86,86,0,86,0,10/24/19 12:30,The main experiment item,yes,Sternbergtask SL.osexp,C:/Users/Sarah Linan/Desktop,no,mono,no,18,no,white,no,yes,768,legacy,74,11,C:/Users/Sarah Linan/Desktop/subject-S3.csv,legacy,3 2 1 4 7,Kafkaesque Koffka,3.2.8,2,y,0,right,right,right,right,NA,792,5933,10009,792,NA,2,legacy,5,1024,2,48000,-16,experiment,3,odd,2,560712,557331,558502,1996,94638,558504,501380,2003,84629,562714,563507,559508,7938,562714,NA,Sternberg task,69,70899,87,yes,1024
79.54545455,79.54545455,812.0227273,812.0227273,black,experiment,legacy,legacy,legacy,0,uniform,1,undefined,1,right,87,87,87,0,0,87,87,0,0,87,87,87,0,87,0,10/24/19 12:30,The main experiment item,yes,Sternbergtask SL.osexp,C:/Users/Sarah Linan/Desktop,no,mono,no,18,no,white,no,yes,768,legacy,75,11,C:/Users/Sarah Linan/Desktop/subject-S3.csv,legacy,1 4 9 2 5,Kafkaesque Koffka,3.2.8,0,n,0,right,right,right,right,NA,559,5933,10009,559,NA,2,legacy,5,1024,2,48000,-16,experiment,3,odd,7,566956,557331,564749,1996,94638,564752,563600,2003,84629,568958,569519,565754,7938,568958,NA,Sternberg task,70,71458,88,yes,1024
79.7752809,79.7752809,811.494382,811.494382,black,experiment,legacy,legacy,legacy,0,uniform,1,undefined,1,right,88,88,88,0,0,88,88,0,0,88,88,88,0,88,0,10/24/19 12:30,The main experiment item,yes,Sternbergtask SL.osexp,C:/Users/Sarah Linan/Desktop,no,mono,no,18,no,white,no,yes,768,legacy,76,11,C:/Users/Sarah Linan/Desktop/subject-S3.csv,legacy,1,Kafkaesque Koffka,3.2.8,0,n,0,right,right,right,right,NA,765,5933,10009,765,NA,2,legacy,1,1024,2,48000,-16,experiment,3,odd,7,572962,569601,570755,1996,94638,570758,563600,2003,84629,574966,575732,571760,7938,574966,NA,Sternberg task,71,72223,89,yes,1024
78.88888889,78.88888889,812.8444444,812.8444444,black,experiment,legacy,legacy,legacy,0,uniform,0,undefined,0,left,89,89,89,0,0,89,89,0,0,89,89,89,0,89,0,10/24/19 12:30,The main experiment item,yes,Sternbergtask SL.osexp,C:/Users/Sarah Linan/Desktop,no,mono,no,18,no,white,no,yes,768,legacy,77,11,C:/Users/Sarah Linan/Desktop/subject-S3.csv,legacy,9 1 7 2,Kafkaesque Koffka,3.2.8,2,y,0,right,right,right,right,NA,933,5933,10009,933,NA,2,legacy,4,1024,2,48000,-16,experiment,3,odd,1,579194,575814,576986,1996,94638,576989,563600,2003,84629,581196,582130,577991,7938,581196,NA,Sternberg task,71,73156,90,yes,1024
79.12087912,79.12087912,810.5604396,810.5604396,black,experiment,legacy,legacy,legacy,0,uniform,1,undefined,1,left,90,90,90,0,0,90,90,0,0,90,90,90,0,90,0,10/24/19 12:30,The main experiment item,yes,Sternbergtask SL.osexp,C:/Users/Sarah Linan/Desktop,no,mono,no,18,no,white,no,yes,768,legacy,78,11,C:/Users/Sarah Linan/Desktop/subject-S3.csv,legacy,9 4 2,Kafkaesque Koffka,3.2.8,1,y,0,left,right,right,left,NA,605,5933,10009,605,NA,2,legacy,3,1024,2,48000,-16,experiment,3,odd,9,585582,575814,583374,1996,94638,583376,582218,2003,84629,587586,588194,584380,7938,587586,NA,Sternberg task,72,73761,91,yes,1024
79.34782609,79.34782609,808.1413043,808.1413043,black,experiment,legacy,legacy,legacy,0,uniform,1,undefined,1,right,91,91,91,0,0,91,91,0,0,91,91,91,0,91,0,10/24/19 12:30,The main experiment item,yes,Sternbergtask SL.osexp,C:/Users/Sarah Linan/Desktop,no,mono,no,18,no,white,no,yes,768,legacy,79,11,C:/Users/Sarah Linan/Desktop/subject-S3.csv,legacy,9 8 2 7 4,Kafkaesque Koffka,3.2.8,0,n,0,right,right,right,right,NA,588,5933,10009,588,NA,2,legacy,5,1024,2,48000,-16,experiment,3,odd,5,591643,588275,589433,1996,94638,589435,582218,2003,84629,593645,594235,590439,7938,593645,NA,Sternberg task,73,74349,92,yes,1024
79.56989247,79.56989247,807.4946237,807.4946237,black,experiment,legacy,legacy,legacy,0,uniform,1,undefined,1,right,92,92,92,0,0,92,92,0,0,92,92,92,0,92,0,10/24/19 12:30,The main experiment item,yes,Sternbergtask SL.osexp,C:/Users/Sarah Linan/Desktop,no,mono,no,18,no,white,no,yes,768,legacy,80,11,C:/Users/Sarah Linan/Desktop/subject-S3.csv,legacy,5 7 3,Kafkaesque Koffka,3.2.8,0,n,0,right,right,right,right,NA,748,5933,10009,748,NA,2,legacy,3,1024,2,48000,-16,experiment,3,odd,9,597708,594321,595498,1996,94638,595500,582218,2003,84629,599712,600462,596504,7938,599712,NA,Sternberg task,74,75097,93,yes,1024
78.72340426,78.72340426,806.3829787,806.3829787,black,experiment,legacy,legacy,legacy,0,uniform,0,undefined,0,left,93,93,93,0,0,93,93,0,0,93,93,93,0,93,0,10/24/19 12:30,The main experiment item,yes,Sternbergtask SL.osexp,C:/Users/Sarah Linan/Desktop,no,mono,no,18,no,white,no,yes,768,legacy,81,11,C:/Users/Sarah Linan/Desktop/subject-S3.csv,legacy,3 5 4 7,Kafkaesque Koffka,3.2.8,1,y,0,right,right,right,right,NA,703,5933,10009,703,NA,2,legacy,4,1024,2,48000,-16,experiment,3,odd,3,603907,600547,601696,1996,94638,601699,582218,2003,84629,605911,606615,602703,7938,605911,NA,Sternberg task,74,75800,94,yes,1024
78.94736842,78.94736842,803.4421053,803.4421053,black,experiment,legacy,legacy,legacy,0,uniform,1,undefined,1,right,94,94,94,0,0,94,94,0,0,94,94,94,0,94,0,10/24/19 12:30,The main experiment item,yes,Sternbergtask SL.osexp,C:/Users/Sarah Linan/Desktop,no,mono,no,18,no,white,no,yes,768,legacy,82,11,C:/Users/Sarah Linan/Desktop/subject-S3.csv,legacy,5 9 2 3,Kafkaesque Koffka,3.2.8,0,n,0,right,right,right,right,NA,527,5933,10009,527,NA,2,legacy,4,1024,2,48000,-16,experiment,3,odd,8,610064,600547,607854,1996,94638,607856,606693,2003,84629,612068,612596,608860,7938,612068,NA,Sternberg task,75,76327,95,yes,1024
79.16666667,79.16666667,802.7083333,802.7083333,black,experiment,legacy,legacy,legacy,0,uniform,1,undefined,1,left,95,95,95,0,0,95,95,0,0,95,95,95,0,95,0,10/24/19 12:30,The main experiment item,yes,Sternbergtask SL.osexp,C:/Users/Sarah Linan/Desktop,no,mono,no,18,no,white,no,yes,768,legacy,83,11,C:/Users/Sarah Linan/Desktop/subject-S3.csv,legacy,2 6 1 7 4,Kafkaesque Koffka,3.2.8,2,y,0,left,right,right,left,NA,733,5933,10009,733,NA,2,legacy,5,1024,2,48000,-16,experiment,3,odd,6,616052,612673,613842,1996,94638,613844,606693,2003,84629,618054,618788,614848,7938,618054,NA,Sternberg task,76,77060,96,yes,1024
78.35051546,78.35051546,804.443299,804.443299,black,experiment,legacy,legacy,legacy,0,uniform,0,undefined,0,left,96,96,96,0,0,96,96,0,0,96,96,96,0,96,0,10/24/19 12:30,The main experiment item,yes,Sternbergtask SL.osexp,C:/Users/Sarah Linan/Desktop,no,mono,no,18,no,white,no,yes,768,legacy,84,11,C:/Users/Sarah Linan/Desktop/subject-S3.csv,legacy,4,Kafkaesque Koffka,3.2.8,1,y,0,right,right,right,right,NA,971,5933,10009,971,NA,2,legacy,1,1024,2,48000,-16,experiment,3,odd,4,622228,618863,620018,1996,94638,620021,606693,2003,84629,624231,625203,621023,7938,624231,NA,Sternberg task,76,78031,97,yes,1024
78.57142857,78.57142857,802.2857143,802.2857143,black,experiment,legacy,legacy,legacy,0,uniform,1,undefined,1,right,97,97,97,0,0,97,97,0,0,97,97,97,0,97,0,10/24/19 12:30,The main experiment item,yes,Sternbergtask SL.osexp,C:/Users/Sarah Linan/Desktop,no,mono,no,18,no,white,no,yes,768,legacy,85,11,C:/Users/Sarah Linan/Desktop/subject-S3.csv,legacy,7 1,Kafkaesque Koffka,3.2.8,0,n,0,right,right,right,right,NA,593,5933,10009,593,NA,2,legacy,2,1024,2,48000,-16,experiment,3,odd,8,628591,618863,626380,1996,94638,626382,625233,2003,84629,630595,631189,627386,7938,630594,NA,Sternberg task,77,78624,98,yes,1024
78.78787879,78.78787879,800.8585859,800.8585859,black,experiment,legacy,legacy,legacy,0,uniform,1,undefined,1,right,98,98,98,0,0,98,98,0,0,98,98,98,0,98,0,10/24/19 12:30,The main experiment item,yes,Sternbergtask SL.osexp,C:/Users/Sarah Linan/Desktop,no,mono,no,18,no,white,no,yes,768,legacy,86,11,C:/Users/Sarah Linan/Desktop/subject-S3.csv,legacy,1 5 3 2 8,Kafkaesque Koffka,3.2.8,0,n,0,right,right,right,right,NA,661,5933,10009,661,NA,2,legacy,5,1024,2,48000,-16,experiment,3,odd,4,634634,631269,632426,1996,94638,632428,625233,2003,84629,636638,637300,633430,7938,636638,NA,Sternberg task,78,79285,99,yes,1024
78,78,802.82,802.82,black,experiment,legacy,legacy,legacy,0,uniform,0,undefined,0,right,99,99,99,0,0,99,99,0,0,99,99,99,0,99,0,10/24/19 12:30,The main experiment item,yes,Sternbergtask SL.osexp,C:/Users/Sarah Linan/Desktop,no,mono,no,18,no,white,no,yes,768,legacy,87,11,C:/Users/Sarah Linan/Desktop/subject-S3.csv,legacy,6 3 1 7 9 8,Kafkaesque Koffka,3.2.8,0,n,0,left,right,right,left,NA,997,5933,10009,997,NA,2,legacy,6,1024,2,48000,-16,experiment,3,odd,4,640749,637382,638539,1996,94638,638541,625233,2003,84629,642751,643750,639545,7938,642751,NA,Sternberg task,78,80282,100,yes,1024
77.22772277,77.22772277,804.2475248,804.2475248,black,experiment,legacy,legacy,legacy,0,uniform,0,undefined,0,left,100,100,100,0,0,100,100,0,0,100,100,100,0,100,0,10/24/19 12:30,The main experiment item,yes,Sternbergtask SL.osexp,C:/Users/Sarah Linan/Desktop,no,mono,no,18,no,white,no,yes,768,legacy,88,11,C:/Users/Sarah Linan/Desktop/subject-S3.csv,legacy,3 9 6 2,Kafkaesque Koffka,3.2.8,4,y,0,right,right,right,right,NA,947,5933,10009,947,NA,2,legacy,4,1024,2,48000,-16,experiment,3,odd,2,647202,637382,644994,1996,94638,644996,643829,2003,84629,649204,650153,645998,7938,649204,NA,Sternberg task,78,81229,101,yes,1024
77.45098039,77.45098039,801.9411765,801.9411765,black,experiment,legacy,legacy,legacy,0,uniform,1,undefined,1,left,101,101,101,0,0,101,101,0,0,101,101,101,0,101,0,10/24/19 12:30,The main experiment item,yes,Sternbergtask SL.osexp,C:/Users/Sarah Linan/Desktop,no,mono,no,18,no,white,no,yes,768,legacy,89,11,C:/Users/Sarah Linan/Desktop/subject-S3.csv,legacy,7 8 4 6 9 5,Kafkaesque Koffka,3.2.8,4,y,0,left,right,right,left,NA,569,5933,10009,569,NA,2,legacy,6,1024,2,48000,-16,experiment,3,odd,6,653613,637382,651402,1996,94638,651404,650230,2003,84629,655617,656188,652409,7938,655617,NA,Sternberg task,79,81798,102,yes,1024
77.66990291,77.66990291,800.223301,800.223301,black,experiment,legacy,legacy,legacy,0,uniform,1,undefined,1,right,102,102,102,0,0,102,102,0,0,102,102,102,0,102,0,10/24/19 12:30,The main experiment item,yes,Sternbergtask SL.osexp,C:/Users/Sarah Linan/Desktop,no,mono,no,18,no,white,no,yes,768,legacy,90,11,C:/Users/Sarah Linan/Desktop/subject-S3.csv,legacy,1 4 3 6 5,Kafkaesque Koffka,3.2.8,0,n,0,right,right,right,right,NA,625,5933,10009,625,NA,2,legacy,5,1024,2,48000,-16,experiment,3,odd,8,659586,656210,657375,1996,94638,657378,650230,2003,84629,661590,662217,658382,7938,661590,NA,Sternberg task,80,82423,103,yes,1024
77.88461538,77.88461538,799.7980769,799.7980769,black,experiment,legacy,legacy,legacy,0,uniform,1,undefined,1,right,103,103,103,0,0,103,103,0,0,103,103,103,0,103,0,10/24/19 12:30,The main experiment item,yes,Sternbergtask SL.osexp,C:/Users/Sarah Linan/Desktop,no,mono,no,18,no,white,no,yes,768,legacy,91,11,C:/Users/Sarah Linan/Desktop/subject-S3.csv,legacy,1 7 8 3 9,Kafkaesque Koffka,3.2.8,0,n,0,right,right,right,right,NA,756,5933,10009,756,NA,2,legacy,5,1024,2,48000,-16,experiment,3,odd,2,665660,662302,663450,1996,94638,663453,650230,2003,84629,667664,668422,664456,7938,667663,NA,Sternberg task,81,83179,104,yes,1024
78.0952381,78.0952381,799.752381,799.752381,black,experiment,legacy,legacy,legacy,0,uniform,1,undefined,1,left,104,104,104,0,0,104,104,0,0,104,104,104,0,104,0,10/24/19 12:30,The main experiment item,yes,Sternbergtask SL.osexp,C:/Users/Sarah Linan/Desktop,no,mono,no,18,no,white,no,yes,768,legacy,92,11,C:/Users/Sarah Linan/Desktop/subject-S3.csv,legacy,4 9 7 8 5 3,Kafkaesque Koffka,3.2.8,4,y,0,left,right,right,left,NA,795,5933,10009,795,NA,2,legacy,6,1024,2,48000,-16,experiment,3,odd,8,671865,668504,669655,1996,94638,669657,650230,2003,84629,673869,674665,670661,7938,673869,NA,Sternberg task,82,83974,105,yes,1024
78.30188679,78.30188679,799.2169811,799.2169811,black,experiment,legacy,legacy,legacy,0,uniform,1,undefined,1,right,105,105,105,0,0,105,105,0,0,105,105,105,0,105,0,10/24/19 12:30,The main experiment item,yes,Sternbergtask SL.osexp,C:/Users/Sarah Linan/Desktop,no,mono,no,18,no,white,no,yes,768,legacy,93,11,C:/Users/Sarah Linan/Desktop/subject-S3.csv,legacy,2 5 1 4,Kafkaesque Koffka,3.2.8,0,n,0,right,right,right,right,NA,743,5933,10009,743,NA,2,legacy,4,1024,2,48000,-16,experiment,3,odd,6,678052,674698,675843,1996,94638,675846,650230,2003,84629,680056,680801,676848,7938,680056,NA,Sternberg task,83,84717,106,yes,1024
77.57009346,77.57009346,800.4205607,800.4205607,black,experiment,legacy,legacy,legacy,0,uniform,0,undefined,0,right,106,106,106,0,0,106,106,0,0,106,106,106,0,106,0,10/24/19 12:30,The main experiment item,yes,Sternbergtask SL.osexp,C:/Users/Sarah Linan/Desktop,no,mono,no,18,no,white,no,yes,768,legacy,94,11,C:/Users/Sarah Linan/Desktop/subject-S3.csv,legacy,9 7 4 5 8,Kafkaesque Koffka,3.2.8,0,n,0,left,right,right,left,NA,928,5933,10009,928,NA,2,legacy,5,1024,2,48000,-16,experiment,3,odd,6,684257,680894,682048,1996,94638,682051,650230,2003,84629,686262,687191,683055,7938,686262,NA,Sternberg task,83,85645,107,yes,1024
76.85185185,76.85185185,799.7777778,799.7777778,black,experiment,legacy,legacy,legacy,0,uniform,0,undefined,0,right,107,107,107,0,0,107,107,0,0,107,107,107,0,107,0,10/24/19 12:30,The main experiment item,yes,Sternbergtask SL.osexp,C:/Users/Sarah Linan/Desktop,no,mono,no,18,no,white,no,yes,768,legacy,95,11,C:/Users/Sarah Linan/Desktop/subject-S3.csv,legacy,8 2 1 4 5 9,Kafkaesque Koffka,3.2.8,0,n,0,left,right,right,left,NA,731,5933,10009,731,NA,2,legacy,6,1024,2,48000,-16,experiment,3,odd,7,690609,680894,688398,1996,94638,688401,687235,2003,84629,692613,693346,689405,7938,692613,NA,Sternberg task,83,86376,108,yes,1024
77.06422018,77.06422018,799.3853211,799.3853211,black,experiment,legacy,legacy,legacy,0,uniform,1,undefined,1,left,108,108,108,0,0,108,108,0,0,108,108,108,0,108,0,10/24/19 12:30,The main experiment item,yes,Sternbergtask SL.osexp,C:/Users/Sarah Linan/Desktop,no,mono,no,18,no,white,no,yes,768,legacy,96,11,C:/Users/Sarah Linan/Desktop/subject-S3.csv,legacy,2 5 4 8 7,Kafkaesque Koffka,3.2.8,3,y,0,left,right,right,left,NA,757,5933,10009,757,NA,2,legacy,5,1024,2,48000,-16,experiment,3,odd,4,696798,680894,694588,1996,94638,694590,693424,2003,84629,698802,699561,695594,7938,698801,NA,Sternberg task,84,87133,109,yes,1024
77.27272727,77.27272727,802.7181818,802.7181818,black,experiment,legacy,legacy,legacy,0,uniform,1,undefined,1,left,109,109,109,0,0,109,109,0,0,109,109,109,0,109,0,10/24/19 12:30,The main experiment item,yes,Sternbergtask SL.osexp,C:/Users/Sarah Linan/Desktop,no,mono,no,18,no,white,no,yes,768,legacy,97,11,C:/Users/Sarah Linan/Desktop/subject-S3.csv,legacy,4 6 5 8,Kafkaesque Koffka,3.2.8,1,y,0,left,right,right,left,NA,1166,5933,10009,1166,NA,2,legacy,4,1024,2,48000,-16,experiment,3,odd,4,702969,699592,700762,1996,94638,700765,693424,2003,84629,704971,706139,701767,7938,704971,NA,Sternberg task,85,88299,110,yes,1024
77.47747748,77.47747748,801.6936937,801.6936937,black,experiment,legacy,legacy,legacy,0,uniform,1,undefined,1,right,110,110,110,0,0,110,110,0,0,110,110,110,0,110,0,10/24/19 12:30,The main experiment item,yes,Sternbergtask SL.osexp,C:/Users/Sarah Linan/Desktop,no,mono,no,18,no,white,no,yes,768,legacy,98,11,C:/Users/Sarah Linan/Desktop/subject-S3.csv,legacy,6 8,Kafkaesque Koffka,3.2.8,0,n,0,right,right,right,right,NA,689,5933,10009,689,NA,2,legacy,2,1024,2,48000,-16,experiment,3,odd,9,709540,706170,707330,1996,94638,707332,693424,2003,84629,711544,712235,708336,7938,711543,NA,Sternberg task,86,88988,111,yes,1024
77.67857143,77.67857143,800.9285714,800.9285714,black,experiment,legacy,legacy,legacy,0,uniform,1,undefined,1,right,111,111,111,0,0,111,111,0,0,111,111,111,0,111,0,10/24/19 12:30,The main experiment item,yes,Sternbergtask SL.osexp,C:/Users/Sarah Linan/Desktop,no,mono,no,18,no,white,no,yes,768,legacy,99,11,C:/Users/Sarah Linan/Desktop/subject-S3.csv,legacy,1 6 4,Kafkaesque Koffka,3.2.8,0,n,0,right,right,right,right,NA,716,5933,10009,716,NA,2,legacy,3,1024,2,48000,-16,experiment,3,odd,7,715704,712320,713493,1996,94638,713496,693424,2003,84629,717708,718425,714499,7938,717708,NA,Sternberg task,87,89704,112,yes,1024
77.87610619,77.87610619,803.0088496,803.0088496,black,experiment,legacy,legacy,legacy,0,uniform,1,undefined,1,left,112,112,112,0,0,112,112,0,0,112,112,112,0,112,0,10/24/19 12:30,The main experiment item,yes,Sternbergtask SL.osexp,C:/Users/Sarah Linan/Desktop,no,mono,no,18,no,white,no,yes,768,legacy,100,11,C:/Users/Sarah Linan/Desktop/subject-S3.csv,legacy,2 3,Kafkaesque Koffka,3.2.8,1,y,0,left,right,right,left,NA,1036,5933,10009,1036,NA,2,legacy,2,1024,2,48000,-16,experiment,3,odd,2,721882,718510,719674,1996,94638,719677,693424,2003,84629,723886,724923,720678,7938,723886,NA,Sternberg task,88,90740,113,yes,1024
78.07017544,78.07017544,802.622807,802.622807,black,experiment,legacy,legacy,legacy,0,uniform,1,undefined,1,left,113,113,113,0,0,113,113,0,0,113,113,113,0,113,0,10/24/19 12:30,The main experiment item,yes,Sternbergtask SL.osexp,C:/Users/Sarah Linan/Desktop,no,mono,no,18,no,white,no,yes,768,legacy,101,11,C:/Users/Sarah Linan/Desktop/subject-S3.csv,legacy,4 6 2 5 1,Kafkaesque Koffka,3.2.8,5,y,0,left,right,right,left,NA,759,5933,10009,759,NA,2,legacy,5,1024,2,48000,-16,experiment,3,odd,1,728315,724956,726105,1996,94638,726107,693424,2003,84629,730319,731079,727112,7938,730319,NA,Sternberg task,89,91499,114,yes,1024
78.26086957,78.26086957,800.3652174,800.3652174,black,experiment,legacy,legacy,legacy,0,uniform,1,undefined,1,left,114,114,114,0,0,114,114,0,0,114,114,114,0,114,0,10/24/19 12:30,The main experiment item,yes,Sternbergtask SL.osexp,C:/Users/Sarah Linan/Desktop,no,mono,no,18,no,white,no,yes,768,legacy,102,11,C:/Users/Sarah Linan/Desktop/subject-S3.csv,legacy,7 1 3,Kafkaesque Koffka,3.2.8,2,y,0,left,right,right,left,NA,543,5933,10009,543,NA,2,legacy,3,1024,2,48000,-16,experiment,3,odd,1,734521,731159,732311,1996,94638,732313,693424,2003,84629,736525,737070,733317,7938,736524,NA,Sternberg task,90,92042,115,yes,1024
77.5862069,77.5862069,801.2758621,801.2758621,black,experiment,legacy,legacy,legacy,0,uniform,0,undefined,0,left,115,115,115,0,0,115,115,0,0,115,115,115,0,115,0,10/24/19 12:30,The main experiment item,yes,Sternbergtask SL.osexp,C:/Users/Sarah Linan/Desktop,no,mono,no,18,no,white,no,yes,768,legacy,103,11,C:/Users/Sarah Linan/Desktop/subject-S3.csv,legacy,8 5 4 7 3 1,Kafkaesque Koffka,3.2.8,2,y,0,right,right,right,right,NA,906,5933,10009,906,NA,2,legacy,6,1024,2,48000,-16,experiment,3,odd,5,740532,737150,738322,1996,94638,738324,693424,2003,84629,742536,743443,739328,7938,742535,NA,Sternberg task,90,92948,116,yes,1024
77.77777778,77.77777778,799.7264957,799.7264957,black,experiment,legacy,legacy,legacy,0,uniform,1,undefined,1,right,116,116,116,0,0,116,116,0,0,116,116,116,0,116,0,10/24/19 12:30,The main experiment item,yes,Sternbergtask SL.osexp,C:/Users/Sarah Linan/Desktop,no,mono,no,18,no,white,no,yes,768,legacy,104,11,C:/Users/Sarah Linan/Desktop/subject-S3.csv,legacy,8 5 4 2 9 6,Kafkaesque Koffka,3.2.8,0,n,0,right,right,right,right,NA,620,5933,10009,620,NA,2,legacy,6,1024,2,48000,-16,experiment,3,odd,3,746916,737150,744709,1996,94638,744711,743542,2003,84629,748920,749542,745713,7938,748920,NA,Sternberg task,91,93568,117,yes,1024
77.11864407,77.11864407,798.559322,798.559322,black,experiment,legacy,legacy,legacy,0,uniform,0,undefined,0,right,117,117,117,0,0,117,117,0,0,117,117,117,0,117,0,10/24/19 12:30,The main experiment item,yes,Sternbergtask SL.osexp,C:/Users/Sarah Linan/Desktop,no,mono,no,18,no,white,no,yes,768,legacy,105,11,C:/Users/Sarah Linan/Desktop/subject-S3.csv,legacy,5 3 2 6 9 8,Kafkaesque Koffka,3.2.8,0,n,0,left,right,right,left,NA,662,5933,10009,662,NA,2,legacy,6,1024,2,48000,-16,experiment,3,odd,4,753000,749621,750794,1996,94638,750796,743542,2003,84629,755002,755666,751798,7938,755002,NA,Sternberg task,91,94230,118,yes,1024
77.31092437,77.31092437,796.9411765,796.9411765,black,experiment,legacy,legacy,legacy,0,uniform,1,undefined,1,left,118,118,118,0,0,118,118,0,0,118,118,118,0,118,0,10/24/19 12:30,The main experiment item,yes,Sternbergtask SL.osexp,C:/Users/Sarah Linan/Desktop,no,mono,no,18,no,white,no,yes,768,legacy,106,11,C:/Users/Sarah Linan/Desktop/subject-S3.csv,legacy,3 9 7 6 4,Kafkaesque Koffka,3.2.8,3,y,0,left,right,right,left,NA,606,5933,10009,606,NA,2,legacy,5,1024,2,48000,-16,experiment,3,odd,7,759127,749621,756916,1996,94638,756918,755746,2003,84629,761129,761737,757923,7938,761129,NA,Sternberg task,92,94836,119,yes,1024
76.66666667,76.66666667,796.7166667,796.7166667,black,experiment,legacy,legacy,legacy,0,uniform,0,undefined,0,right,119,119,119,0,0,119,119,0,0,119,119,119,0,119,0,10/24/19 12:30,The main experiment item,yes,Sternbergtask SL.osexp,C:/Users/Sarah Linan/Desktop,no,mono,no,18,no,white,no,yes,768,legacy,107,11,C:/Users/Sarah Linan/Desktop/subject-S3.csv,legacy,2 7 5,Kafkaesque Koffka,3.2.8,0,n,0,left,right,right,left,NA,770,5933,10009,770,NA,2,legacy,3,1024,2,48000,-16,experiment,3,odd,8,765188,761814,762978,1996,94638,762980,755746,2003,84629,767192,767963,763983,7938,767191,NA,Sternberg task,92,95606,120,yes,1024
76.85950413,76.85950413,796.4628099,796.4628099,black,experiment,legacy,legacy,legacy,0,uniform,1,undefined,1,left,120,120,120,0,0,120,120,0,0,120,120,120,0,120,0,10/24/19 12:30,The main experiment item,yes,Sternbergtask SL.osexp,C:/Users/Sarah Linan/Desktop,no,mono,no,18,no,white,no,yes,768,legacy,108,11,C:/Users/Sarah Linan/Desktop/subject-S3.csv,legacy,4 1 8 7 5,Kafkaesque Koffka,3.2.8,3,y,0,left,right,right,left,NA,766,5933,10009,766,NA,2,legacy,5,1024,2,48000,-16,experiment,3,odd,8,771407,761814,769197,1996,94638,769200,768051,2003,84629,773412,774180,770204,7938,773412,NA,Sternberg task,93,96372,121,yes,1024
76.2295082,76.2295082,795.6229508,795.6229508,black,experiment,legacy,legacy,legacy,0,uniform,0,undefined,0,right,121,121,121,0,0,121,121,0,0,121,121,121,0,121,0,10/24/19 12:30,The main experiment item,yes,Sternbergtask SL.osexp,C:/Users/Sarah Linan/Desktop,no,mono,no,18,no,white,no,yes,768,legacy,109,11,C:/Users/Sarah Linan/Desktop/subject-S3.csv,legacy,5 2,Kafkaesque Koffka,3.2.8,0,n,0,left,right,right,left,NA,694,5933,10009,694,NA,2,legacy,2,1024,2,48000,-16,experiment,3,odd,7,777634,774263,775425,1996,94638,775427,768051,2003,84629,779638,780334,776430,7938,779638,NA,Sternberg task,93,97066,122,yes,1024
76.42276423,76.42276423,798.8780488,798.8780488,black,experiment,legacy,legacy,legacy,0,uniform,1,undefined,1,left,122,122,122,0,0,122,122,0,0,122,122,122,0,122,0,10/24/19 12:30,The main experiment item,yes,Sternbergtask SL.osexp,C:/Users/Sarah Linan/Desktop,no,mono,no,18,no,white,no,yes,768,legacy,110,11,C:/Users/Sarah Linan/Desktop/subject-S3.csv,legacy,8 1 6,Kafkaesque Koffka,3.2.8,3,y,0,left,right,right,left,NA,1196,5933,10009,1196,NA,2,legacy,3,1024,2,48000,-16,experiment,3,odd,6,783789,774263,781580,1996,94638,781583,780422,2003,84629,785791,786989,782585,7938,785791,NA,Sternberg task,94,98262,123,yes,1024
75.80645161,75.80645161,808.5645161,808.5645161,black,experiment,legacy,legacy,legacy,0,uniform,0,undefined,0,right,123,123,123,0,0,123,123,0,0,123,123,123,0,123,0,10/24/19 12:30,The main experiment item,yes,Sternbergtask SL.osexp,C:/Users/Sarah Linan/Desktop,no,mono,no,18,no,white,no,yes,768,legacy,111,11,C:/Users/Sarah Linan/Desktop/subject-S3.csv,legacy,5 3 8 7 2 4,Kafkaesque Koffka,3.2.8,0,n,0,None,right,right,None,NA,2000,5933,10009,2000,NA,2,legacy,6,1024,2,48000,-16,experiment,3,odd,9,790440,787067,788229,1996,94638,788232,780422,2003,84629,792444,794445,789236,7938,792444,NA,Sternberg task,94,100262,124,yes,1024
75.2,75.2,811.624,811.624,black,experiment,legacy,legacy,legacy,0,uniform,0,undefined,0,left,124,124,124,0,0,124,124,0,0,124,124,124,0,124,0,10/24/19 12:30,The main experiment item,yes,Sternbergtask SL.osexp,C:/Users/Sarah Linan/Desktop,no,mono,no,18,no,white,no,yes,768,legacy,112,11,C:/Users/Sarah Linan/Desktop/subject-S3.csv,legacy,8 5 3 7 4 6,Kafkaesque Koffka,3.2.8,6,y,0,right,right,right,right,NA,1191,5933,10009,1191,NA,2,legacy,6,1024,2,48000,-16,experiment,3,odd,6,797856,787067,795649,1996,94638,795651,794491,2003,84629,799858,801051,796653,7938,799858,NA,Sternberg task,94,101453,125,yes,1024
75.3968254,75.3968254,810.7142857,810.7142857,black,experiment,legacy,legacy,legacy,0,uniform,1,undefined,1,right,125,125,125,0,0,125,125,0,0,125,125,125,0,125,0,10/24/19 12:30,The main experiment item,yes,Sternbergtask SL.osexp,C:/Users/Sarah Linan/Desktop,no,mono,no,18,no,white,no,yes,768,legacy,113,11,C:/Users/Sarah Linan/Desktop/subject-S3.csv,legacy,8 6 3 4 7,Kafkaesque Koffka,3.2.8,0,n,0,right,right,right,right,NA,697,5933,10009,697,NA,2,legacy,5,1024,2,48000,-16,experiment,3,odd,1,804519,787067,802308,1996,94638,802311,801135,2003,84629,806523,807222,803315,7938,806523,NA,Sternberg task,95,102150,126,yes,1024
75.59055118,75.59055118,812.2519685,812.2519685,black,experiment,legacy,legacy,legacy,0,uniform,1,undefined,1,right,126,126,126,0,0,126,126,0,0,126,126,126,0,126,0,10/24/19 12:30,The main experiment item,yes,Sternbergtask SL.osexp,C:/Users/Sarah Linan/Desktop,no,mono,no,18,no,white,no,yes,768,legacy,114,11,C:/Users/Sarah Linan/Desktop/subject-S3.csv,legacy,3 4 9 6 7 8,Kafkaesque Koffka,3.2.8,0,n,0,right,right,right,right,NA,1006,5933,10009,1006,NA,2,legacy,6,1024,2,48000,-16,experiment,3,odd,2,810688,807305,808477,1996,94638,808480,801135,2003,84629,812692,813700,809484,7938,812692,NA,Sternberg task,96,103156,127,yes,1024
75,75,812.1171875,812.1171875,black,experiment,legacy,legacy,legacy,0,uniform,0,undefined,0,left,127,127,127,0,0,127,127,0,0,127,127,127,0,127,0,10/24/19 12:30,The main experiment item,yes,Sternbergtask SL.osexp,C:/Users/Sarah Linan/Desktop,no,mono,no,18,no,white,no,yes,768,legacy,115,11,C:/Users/Sarah Linan/Desktop/subject-S3.csv,legacy,7 1 8 5 6 2,Kafkaesque Koffka,3.2.8,2,y,0,right,right,right,right,NA,795,5933,10009,795,NA,2,legacy,6,1024,2,48000,-16,experiment,3,odd,1,817150,813784,814939,1996,94638,814941,801135,2003,84629,819152,819948,815946,7938,819152,NA,Sternberg task,96,103951,128,yes,1024
75.19379845,75.19379845,810.8682171,810.8682171,black,experiment,legacy,legacy,legacy,0,uniform,1,undefined,1,right,128,128,128,0,0,128,128,0,0,128,128,128,0,128,0,10/24/19 12:30,The main experiment item,yes,Sternbergtask SL.osexp,C:/Users/Sarah Linan/Desktop,no,mono,no,18,no,white,no,yes,768,legacy,116,11,C:/Users/Sarah Linan/Desktop/subject-S3.csv,legacy,2 6 4 3 9,Kafkaesque Koffka,3.2.8,0,n,0,right,right,right,right,NA,651,5933,10009,651,NA,2,legacy,5,1024,2,48000,-16,experiment,3,odd,1,823340,813784,821129,1996,94638,821132,819978,2003,84629,825344,825997,822136,7938,825344,NA,Sternberg task,97,104602,129,yes,1024
75.38461538,75.38461538,811.7923077,811.7923077,black,experiment,legacy,legacy,legacy,0,uniform,1,undefined,1,left,129,129,129,0,0,129,129,0,0,129,129,129,0,129,0,10/24/19 12:30,The main experiment item,yes,Sternbergtask SL.osexp,C:/Users/Sarah Linan/Desktop,no,mono,no,18,no,white,no,yes,768,legacy,117,11,C:/Users/Sarah Linan/Desktop/subject-S3.csv,legacy,8,Kafkaesque Koffka,3.2.8,1,y,0,left,right,right,left,NA,931,5933,10009,931,NA,2,legacy,1,1024,2,48000,-16,experiment,3,odd,8,829431,826078,827222,1996,94638,827225,819978,2003,84629,831435,832369,828227,7938,831434,NA,Sternberg task,98,105533,130,yes,1024
75.57251908,75.57251908,812.1603053,812.1603053,black,experiment,legacy,legacy,legacy,0,uniform,1,undefined,1,right,130,130,130,0,0,130,130,0,0,130,130,130,0,130,0,10/24/19 12:30,The main experiment item,yes,Sternbergtask SL.osexp,C:/Users/Sarah Linan/Desktop,no,mono,no,18,no,white,no,yes,768,legacy,118,11,C:/Users/Sarah Linan/Desktop/subject-S3.csv,legacy,9,Kafkaesque Koffka,3.2.8,0,n,0,right,right,right,right,NA,860,5933,10009,860,NA,2,legacy,1,1024,2,48000,-16,experiment,3,odd,6,835846,832458,833636,1996,94638,833638,819978,2003,84629,837848,838710,834642,7938,837848,NA,Sternberg task,99,106393,131,yes,1024
75.75757576,75.75757576,813.4545455,813.4545455,black,experiment,legacy,legacy,legacy,0,uniform,1,undefined,1,left,131,131,131,0,0,131,131,0,0,131,131,131,0,131,0,10/24/19 12:30,The main experiment item,yes,Sternbergtask SL.osexp,C:/Users/Sarah Linan/Desktop,no,mono,no,18,no,white,no,yes,768,legacy,119,11,C:/Users/Sarah Linan/Desktop/subject-S3.csv,legacy,4 3 2 5 8,Kafkaesque Koffka,3.2.8,2,y,0,left,right,right,left,NA,983,5933,10009,983,NA,2,legacy,5,1024,2,48000,-16,experiment,3,odd,3,842163,838793,839955,1996,94638,839957,819978,2003,84629,844165,845151,840961,7938,844165,NA,Sternberg task,100,107376,132,yes,1024
75.93984962,75.93984962,812.7744361,812.7744361,black,experiment,legacy,legacy,legacy,0,uniform,1,undefined,1,left,132,132,132,0,0,132,132,0,0,132,132,132,0,132,0,10/24/19 12:30,The main experiment item,yes,Sternbergtask SL.osexp,C:/Users/Sarah Linan/Desktop,no,mono,no,18,no,white,no,yes,768,legacy,120,11,C:/Users/Sarah Linan/Desktop/subject-S3.csv,legacy,8 9 5 6 7,Kafkaesque Koffka,3.2.8,1,y,0,left,right,right,left,NA,723,5933,10009,723,NA,2,legacy,5,1024,2,48000,-16,experiment,3,odd,8,848563,845196,846353,1996,94638,846355,819978,2003,84629,850568,851293,847359,7938,850568,NA,Sternberg task,101,108099,133,yes,1024
75.37313433,75.37313433,813.0895522,813.0895522,black,experiment,legacy,legacy,legacy,0,uniform,0,undefined,0,left,133,133,133,0,0,133,133,0,0,133,133,133,0,133,0,10/24/19 12:30,The main experiment item,yes,Sternbergtask SL.osexp,C:/Users/Sarah Linan/Desktop,no,mono,no,18,no,white,no,yes,768,legacy,121,11,C:/Users/Sarah Linan/Desktop/subject-S3.csv,legacy,5 7 3 6 2,Kafkaesque Koffka,3.2.8,5,y,0,right,right,right,right,NA,855,5933,10009,855,NA,2,legacy,5,1024,2,48000,-16,experiment,3,odd,2,854753,851376,852544,1996,94638,852546,819978,2003,84629,856757,857614,853550,7938,856757,NA,Sternberg task,101,108954,134,yes,1024
74.81481481,74.81481481,811.9555556,811.9555556,black,experiment,legacy,legacy,legacy,0,uniform,0,undefined,0,right,134,134,134,0,0,134,134,0,0,134,134,134,0,134,0,10/24/19 12:30,The main experiment item,yes,Sternbergtask SL.osexp,C:/Users/Sarah Linan/Desktop,no,mono,no,18,no,white,no,yes,768,legacy,122,11,C:/Users/Sarah Linan/Desktop/subject-S3.csv,legacy,8 4 3 5,Kafkaesque Koffka,3.2.8,0,n,0,left,right,right,left,NA,660,5933,10009,660,NA,2,legacy,4,1024,2,48000,-16,experiment,3,odd,6,861056,851376,858849,1996,94638,858852,857699,2003,84629,863058,863720,859854,7938,863058,NA,Sternberg task,101,109614,135,yes,1024
75,75,810.8602941,810.8602941,black,experiment,legacy,legacy,legacy,0,uniform,1,undefined,1,left,135,135,135,0,0,135,135,0,0,135,135,135,0,135,0,10/24/19 12:30,The main experiment item,yes,Sternbergtask SL.osexp,C:/Users/Sarah Linan/Desktop,no,mono,no,18,no,white,no,yes,768,legacy,123,11,C:/Users/Sarah Linan/Desktop/subject-S3.csv,legacy,9 8 4,Kafkaesque Koffka,3.2.8,1,y,0,left,right,right,left,NA,663,5933,10009,663,NA,2,legacy,3,1024,2,48000,-16,experiment,3,odd,9,867110,851376,864902,1996,94638,864905,863748,2003,84629,869112,869777,865907,7938,869112,NA,Sternberg task,102,110277,136,yes,1024
75.18248175,75.18248175,809.7956204,809.7956204,black,experiment,legacy,legacy,legacy,0,uniform,1,undefined,1,right,136,136,136,0,0,136,136,0,0,136,136,136,0,136,0,10/24/19 12:30,The main experiment item,yes,Sternbergtask SL.osexp,C:/Users/Sarah Linan/Desktop,no,mono,no,18,no,white,no,yes,768,legacy,124,11,C:/Users/Sarah Linan/Desktop/subject-S3.csv,legacy,3 4 2,Kafkaesque Koffka,3.2.8,0,n,0,right,right,right,right,NA,665,5933,10009,665,NA,2,legacy,3,1024,2,48000,-16,experiment,3,odd,5,873176,869815,870967,1996,94638,870970,863748,2003,84629,875180,875846,871974,7938,875180,NA,Sternberg task,103,110942,137,yes,1024
74.63768116,74.63768116,808.0507246,808.0507246,black,experiment,legacy,legacy,legacy,0,uniform,0,undefined,0,right,137,137,137,0,0,137,137,0,0,137,137,137,0,137,0,10/24/19 12:30,The main experiment item,yes,Sternbergtask SL.osexp,C:/Users/Sarah Linan/Desktop,no,mono,no,18,no,white,no,yes,768,legacy,125,11,C:/Users/Sarah Linan/Desktop/subject-S3.csv,legacy,2 8 7 9 5 3,Kafkaesque Koffka,3.2.8,0,n,0,left,right,right,left,NA,569,5933,10009,569,NA,2,legacy,6,1024,2,48000,-16,experiment,3,odd,6,879287,875929,877078,1996,94638,877081,863748,2003,84629,881291,881862,878083,7938,881291,NA,Sternberg task,103,111511,138,yes,1024