acc,accuracy,average_response_time,avg_rt,background,block,canvas_backend,clock_backend,color_backend,compensation,coordinates,correct,correct_instructions1,correct_new_keyboard_response,correct_response,count_ISI,count_correctFeedback,count_expSequence,count_experiment,count_experimentLoop,count_fixation,count_incorrectFeedback,count_instructions1,count_instructions2,count_logger,count_memorySet,count_new_keyboard_response,count_practiceLoop,count_probe,count_thankYou,datetime,description,disable_garbage_collection,experiment_file,experiment_path,font_bold,font_family,font_italic,font_size,font_underline,foreground,form_clicks,fullscreen,height,keyboard_backend,live_row,live_row_practiceLoop,logfile,mouse_backend,numberSet,opensesame_codename,opensesame_version,posInSet,present,repeat_cycle,response,response_instructions1,response_instructions2,response_new_keyboard_response,response_thankYou,response_time,response_time_instructions1,response_time_instructions2,response_time_new_keyboard_response,response_time_thankYou,round_decimals,sampler_backend,setSize,sound_buf_size,sound_channels,sound_freq,sound_sample_size,start,subject_nr,subject_parity,target,time_ISI,time_correctFeedback,time_expSequence,time_experiment,time_experimentLoop,time_fixation,time_incorrectFeedback,time_instructions1,time_instructions2,time_logger,time_memorySet,time_new_keyboard_response,time_practiceLoop,time_probe,time_thankYou,title,total_correct,total_response_time,total_responses,uniform_coordinates,width
100,100,1129,1129,black,practice,legacy,legacy,legacy,0,uniform,1,undefined,1,right,0,0,0,0,0,0,0,0,0,0,0,0,0,0,0,10/27/19 12:12,The main experiment item,yes,Sternbergtask.osexp,C:/Users/Breena Riley/Desktop/2019 Fall/MultQuant/lab 3.1,no,mono,no,18,no,white,no,yes,768,legacy,0,0,C:/Users/Breena Riley/Desktop/2019 Fall/MultQuant/lab 3.1/BR-subject-3.csv,legacy,9 6 7 4 5,Kafkaesque Koffka,3.2.8,0,n,0,right,left,NA,right,NA,1129,107879,NA,1129,NA,2,legacy,5,1024,2,48000,-16,experiment,3,odd,3,114847,NA,112641,4087,NA,112643,NA,4100,NA,117977,113645,116848,111979,116848,NA,Sternberg task,1,1129,1,yes,1024
100,100,907,907,black,practice,legacy,legacy,legacy,0,uniform,1,undefined,1,left,1,1,1,0,0,1,1,0,0,1,1,1,0,1,0,10/27/19 12:12,The main experiment item,yes,Sternbergtask.osexp,C:/Users/Breena Riley/Desktop/2019 Fall/MultQuant/lab 3.1,no,mono,no,18,no,white,no,yes,768,legacy,1,1,C:/Users/Breena Riley/Desktop/2019 Fall/MultQuant/lab 3.1/BR-subject-3.csv,legacy,1 5 2 9,Kafkaesque Koffka,3.2.8,2,y,0,left,left,NA,left,NA,685,107879,NA,685,NA,2,legacy,4,1024,2,48000,-16,experiment,3,odd,5,121368,118067,119163,4087,NA,119165,NA,4100,NA,124055,120167,123370,111979,123370,NA,Sternberg task,2,1814,2,yes,1024
100,100,780,780,black,practice,legacy,legacy,legacy,0,uniform,1,undefined,1,right,2,2,2,0,0,2,2,0,0,2,2,2,0,2,0,10/27/19 12:12,The main experiment item,yes,Sternbergtask.osexp,C:/Users/Breena Riley/Desktop/2019 Fall/MultQuant/lab 3.1,no,mono,no,18,no,white,no,yes,768,legacy,2,2,C:/Users/Breena Riley/Desktop/2019 Fall/MultQuant/lab 3.1/BR-subject-3.csv,legacy,5,Kafkaesque Koffka,3.2.8,0,n,0,right,left,NA,right,NA,526,107879,NA,526,NA,2,legacy,1,1024,2,48000,-16,experiment,3,odd,3,127358,124063,125153,4087,NA,125155,NA,4100,NA,129887,126157,129360,111979,129359,NA,Sternberg task,3,2340,3,yes,1024
100,100,815.5,815.5,black,practice,legacy,legacy,legacy,0,uniform,1,undefined,1,right,3,3,3,0,0,3,3,0,0,3,3,3,0,3,0,10/27/19 12:12,The main experiment item,yes,Sternbergtask.osexp,C:/Users/Breena Riley/Desktop/2019 Fall/MultQuant/lab 3.1,no,mono,no,18,no,white,no,yes,768,legacy,3,3,C:/Users/Breena Riley/Desktop/2019 Fall/MultQuant/lab 3.1/BR-subject-3.csv,legacy,5 7 8 4 1 2,Kafkaesque Koffka,3.2.8,0,n,0,right,left,NA,right,NA,922,107879,NA,922,NA,2,legacy,6,1024,2,48000,-16,experiment,3,odd,6,133193,129894,130988,4087,NA,130990,NA,4100,NA,136117,131991,135195,111979,135194,NA,Sternberg task,4,3262,4,yes,1024
100,100,739.6,739.6,black,practice,legacy,legacy,legacy,0,uniform,1,undefined,1,left,4,4,4,0,0,4,4,0,0,4,4,4,0,4,0,10/27/19 12:12,The main experiment item,yes,Sternbergtask.osexp,C:/Users/Breena Riley/Desktop/2019 Fall/MultQuant/lab 3.1,no,mono,no,18,no,white,no,yes,768,legacy,4,4,C:/Users/Breena Riley/Desktop/2019 Fall/MultQuant/lab 3.1/BR-subject-3.csv,legacy,4 3 1 7 9 8,Kafkaesque Koffka,3.2.8,1,y,0,left,left,NA,left,NA,436,107879,NA,436,NA,2,legacy,6,1024,2,48000,-16,experiment,3,odd,4,139422,136125,137217,4087,NA,137219,NA,4100,NA,141861,138220,141424,111979,141424,NA,Sternberg task,5,3698,5,yes,1024
100,100,709.8333333,709.8333333,black,practice,legacy,legacy,legacy,0,uniform,1,undefined,1,left,5,5,5,0,0,5,5,0,0,5,5,5,0,5,0,10/27/19 12:12,The main experiment item,yes,Sternbergtask.osexp,C:/Users/Breena Riley/Desktop/2019 Fall/MultQuant/lab 3.1,no,mono,no,18,no,white,no,yes,768,legacy,5,5,C:/Users/Breena Riley/Desktop/2019 Fall/MultQuant/lab 3.1/BR-subject-3.csv,legacy,4 8,Kafkaesque Koffka,3.2.8,1,y,0,left,left,NA,left,NA,561,107879,NA,561,NA,2,legacy,2,1024,2,48000,-16,experiment,3,odd,4,145162,141869,142958,4087,NA,142960,NA,4100,NA,147724,143961,147163,111979,147163,NA,Sternberg task,6,4259,6,yes,1024
100,100,679.8571429,679.8571429,black,practice,legacy,legacy,legacy,0,uniform,1,undefined,1,left,6,6,6,0,0,6,6,0,0,6,6,6,0,6,0,10/27/19 12:12,The main experiment item,yes,Sternbergtask.osexp,C:/Users/Breena Riley/Desktop/2019 Fall/MultQuant/lab 3.1,no,mono,no,18,no,white,no,yes,768,legacy,6,6,C:/Users/Breena Riley/Desktop/2019 Fall/MultQuant/lab 3.1/BR-subject-3.csv,legacy,6,Kafkaesque Koffka,3.2.8,1,y,0,left,left,NA,left,NA,500,107879,NA,500,NA,2,legacy,1,1024,2,48000,-16,experiment,3,odd,6,151028,147732,148823,4087,NA,148825,NA,4100,NA,153530,149827,153030,111979,153029,NA,Sternberg task,7,4759,7,yes,1024
100,100,661.75,661.75,black,practice,legacy,legacy,legacy,0,uniform,1,undefined,1,right,7,7,7,0,0,7,7,0,0,7,7,7,0,7,0,10/27/19 12:12,The main experiment item,yes,Sternbergtask.osexp,C:/Users/Breena Riley/Desktop/2019 Fall/MultQuant/lab 3.1,no,mono,no,18,no,white,no,yes,768,legacy,7,7,C:/Users/Breena Riley/Desktop/2019 Fall/MultQuant/lab 3.1/BR-subject-3.csv,legacy,4 1 5,Kafkaesque Koffka,3.2.8,0,n,0,right,left,NA,right,NA,535,107879,NA,535,NA,2,legacy,3,1024,2,48000,-16,experiment,3,odd,2,156839,153539,154631,4087,NA,154635,NA,4100,NA,159376,155637,158840,111979,158840,NA,Sternberg task,8,5294,8,yes,1024
88.88888889,88.88888889,657.5555556,657.5555556,black,practice,legacy,legacy,legacy,0,uniform,0,undefined,0,left,8,8,8,0,0,8,8,0,0,8,8,8,0,8,0,10/27/19 12:12,The main experiment item,yes,Sternbergtask.osexp,C:/Users/Breena Riley/Desktop/2019 Fall/MultQuant/lab 3.1,no,mono,no,18,no,white,no,yes,768,legacy,8,8,C:/Users/Breena Riley/Desktop/2019 Fall/MultQuant/lab 3.1/BR-subject-3.csv,legacy,1 7 9 8 5,Kafkaesque Koffka,3.2.8,4,y,0,right,left,NA,right,NA,624,107879,NA,624,NA,2,legacy,5,1024,2,48000,-16,experiment,3,odd,8,162683,159384,160476,4087,NA,160479,NA,4100,NA,165308,161480,164684,111979,164684,NA,Sternberg task,8,5918,9,yes,1024
90,90,645,645,black,practice,legacy,legacy,legacy,0,uniform,1,undefined,1,right,9,9,9,0,0,9,9,0,0,9,9,9,0,9,0,10/27/19 12:12,The main experiment item,yes,Sternbergtask.osexp,C:/Users/Breena Riley/Desktop/2019 Fall/MultQuant/lab 3.1,no,mono,no,18,no,white,no,yes,768,legacy,9,9,C:/Users/Breena Riley/Desktop/2019 Fall/MultQuant/lab 3.1/BR-subject-3.csv,legacy,2 1,Kafkaesque Koffka,3.2.8,0,n,0,right,left,NA,right,NA,532,107879,NA,532,NA,2,legacy,2,1024,2,48000,-16,experiment,3,odd,5,168612,159384,166408,4087,NA,166410,165316,4100,NA,171146,167411,170613,111979,170613,NA,Sternberg task,9,6450,10,yes,1024
90.90909091,90.90909091,639.5454545,639.5454545,black,practice,legacy,legacy,legacy,0,uniform,1,undefined,1,left,10,10,10,0,0,10,10,0,0,10,10,10,0,10,0,10/27/19 12:12,The main experiment item,yes,Sternbergtask.osexp,C:/Users/Breena Riley/Desktop/2019 Fall/MultQuant/lab 3.1,no,mono,no,18,no,white,no,yes,768,legacy,10,10,C:/Users/Breena Riley/Desktop/2019 Fall/MultQuant/lab 3.1/BR-subject-3.csv,legacy,2 9 4,Kafkaesque Koffka,3.2.8,3,y,0,left,left,NA,left,NA,585,107879,NA,585,NA,2,legacy,3,1024,2,48000,-16,experiment,3,odd,4,174450,171154,172244,4087,NA,172245,165316,4100,NA,177037,173248,176451,111979,176451,NA,Sternberg task,10,7035,11,yes,1024
91.66666667,91.66666667,644.25,644.25,black,practice,legacy,legacy,legacy,0,uniform,1,undefined,1,right,11,11,11,0,0,11,11,0,0,11,11,11,0,11,0,10/27/19 12:12,The main experiment item,yes,Sternbergtask.osexp,C:/Users/Breena Riley/Desktop/2019 Fall/MultQuant/lab 3.1,no,mono,no,18,no,white,no,yes,768,legacy,11,11,C:/Users/Breena Riley/Desktop/2019 Fall/MultQuant/lab 3.1/BR-subject-3.csv,legacy,3 1 9 4,Kafkaesque Koffka,3.2.8,0,n,0,right,left,NA,right,NA,696,107879,NA,696,NA,2,legacy,4,1024,2,48000,-16,experiment,3,odd,6,180340,177045,178136,4087,NA,178138,165316,4100,NA,183038,179139,182342,111979,182342,NA,Sternberg task,11,7731,12,yes,1024
92.30769231,92.30769231,638.8461538,638.8461538,black,experiment,legacy,legacy,legacy,0,uniform,1,undefined,1,right,12,12,12,0,0,12,12,0,0,12,12,12,0,12,0,10/27/19 12:12,The main experiment item,yes,Sternbergtask.osexp,C:/Users/Breena Riley/Desktop/2019 Fall/MultQuant/lab 3.1,no,mono,no,18,no,white,no,yes,768,legacy,0,11,C:/Users/Breena Riley/Desktop/2019 Fall/MultQuant/lab 3.1/BR-subject-3.csv,legacy,2 8 9 4 1,Kafkaesque Koffka,3.2.8,0,n,0,right,left,right,right,NA,574,107879,71286,574,NA,2,legacy,5,1024,2,48000,-16,experiment,3,odd,5,257663,183046,255458,4087,255349,255460,165316,4100,184063,260238,256461,259664,111979,259664,NA,Sternberg task,12,8305,13,yes,1024
85.71428571,85.71428571,631.8571429,631.8571429,black,experiment,legacy,legacy,legacy,0,uniform,0,undefined,0,left,13,13,13,0,0,13,13,0,0,13,13,13,0,13,0,10/27/19 12:12,The main experiment item,yes,Sternbergtask.osexp,C:/Users/Breena Riley/Desktop/2019 Fall/MultQuant/lab 3.1,no,mono,no,18,no,white,no,yes,768,legacy,1,11,C:/Users/Breena Riley/Desktop/2019 Fall/MultQuant/lab 3.1/BR-subject-3.csv,legacy,8 5 3 7 4 6,Kafkaesque Koffka,3.2.8,6,y,0,right,left,right,right,NA,541,107879,71286,541,NA,2,legacy,6,1024,2,48000,-16,experiment,3,odd,6,263543,260246,261338,4087,255349,261340,165316,4100,184063,266086,262342,265545,111979,265545,NA,Sternberg task,12,8846,14,yes,1024
80,80,637.9333333,637.9333333,black,experiment,legacy,legacy,legacy,0,uniform,0,undefined,0,left,14,14,14,0,0,14,14,0,0,14,14,14,0,14,0,10/27/19 12:12,The main experiment item,yes,Sternbergtask.osexp,C:/Users/Breena Riley/Desktop/2019 Fall/MultQuant/lab 3.1,no,mono,no,18,no,white,no,yes,768,legacy,2,11,C:/Users/Breena Riley/Desktop/2019 Fall/MultQuant/lab 3.1/BR-subject-3.csv,legacy,6 9 7 4 5 1,Kafkaesque Koffka,3.2.8,2,y,0,right,left,right,right,NA,723,107879,71286,723,NA,2,legacy,6,1024,2,48000,-16,experiment,3,odd,9,269385,260246,267181,4087,255349,267183,266090,4100,184063,272110,268184,271387,111979,271387,NA,Sternberg task,12,9569,15,yes,1024
81.25,81.25,653.375,653.375,black,experiment,legacy,legacy,legacy,0,uniform,1,undefined,1,left,15,15,15,0,0,15,15,0,0,15,15,15,0,15,0,10/27/19 12:12,The main experiment item,yes,Sternbergtask.osexp,C:/Users/Breena Riley/Desktop/2019 Fall/MultQuant/lab 3.1,no,mono,no,18,no,white,no,yes,768,legacy,3,11,C:/Users/Breena Riley/Desktop/2019 Fall/MultQuant/lab 3.1/BR-subject-3.csv,legacy,4 3 2 5 8,Kafkaesque Koffka,3.2.8,2,y,0,left,left,right,left,NA,885,107879,71286,885,NA,2,legacy,5,1024,2,48000,-16,experiment,3,odd,3,275413,260246,273209,4087,255349,273211,272118,4100,184063,278299,274211,277414,111979,277414,NA,Sternberg task,13,10454,16,yes,1024
82.35294118,82.35294118,649.2941176,649.2941176,black,experiment,legacy,legacy,legacy,0,uniform,1,undefined,1,left,16,16,16,0,0,16,16,0,0,16,16,16,0,16,0,10/27/19 12:12,The main experiment item,yes,Sternbergtask.osexp,C:/Users/Breena Riley/Desktop/2019 Fall/MultQuant/lab 3.1,no,mono,no,18,no,white,no,yes,768,legacy,4,11,C:/Users/Breena Riley/Desktop/2019 Fall/MultQuant/lab 3.1/BR-subject-3.csv,legacy,3 4,Kafkaesque Koffka,3.2.8,1,y,0,left,left,right,left,NA,584,107879,71286,584,NA,2,legacy,2,1024,2,48000,-16,experiment,3,odd,3,281605,278307,279400,4087,255349,279402,272118,4100,184063,284190,280403,283606,111979,283605,NA,Sternberg task,14,11038,17,yes,1024
77.77777778,77.77777778,654.3888889,654.3888889,black,experiment,legacy,legacy,legacy,0,uniform,0,undefined,0,right,17,17,17,0,0,17,17,0,0,17,17,17,0,17,0,10/27/19 12:12,The main experiment item,yes,Sternbergtask.osexp,C:/Users/Breena Riley/Desktop/2019 Fall/MultQuant/lab 3.1,no,mono,no,18,no,white,no,yes,768,legacy,5,11,C:/Users/Breena Riley/Desktop/2019 Fall/MultQuant/lab 3.1/BR-subject-3.csv,legacy,8 5 4 2 9 6,Kafkaesque Koffka,3.2.8,0,n,0,left,left,right,left,NA,741,107879,71286,741,NA,2,legacy,6,1024,2,48000,-16,experiment,3,odd,3,287495,284198,285290,4087,255349,285292,272118,4100,184063,290239,286294,289497,111979,289497,NA,Sternberg task,14,11779,18,yes,1024
73.68421053,73.68421053,670.9473684,670.9473684,black,experiment,legacy,legacy,legacy,0,uniform,0,undefined,0,left,18,18,18,0,0,18,18,0,0,18,18,18,0,18,0,10/27/19 12:12,The main experiment item,yes,Sternbergtask.osexp,C:/Users/Breena Riley/Desktop/2019 Fall/MultQuant/lab 3.1,no,mono,no,18,no,white,no,yes,768,legacy,6,11,C:/Users/Breena Riley/Desktop/2019 Fall/MultQuant/lab 3.1/BR-subject-3.csv,legacy,3 9 6 2,Kafkaesque Koffka,3.2.8,4,y,0,right,left,right,right,NA,969,107879,71286,969,NA,2,legacy,4,1024,2,48000,-16,experiment,3,odd,2,293544,284198,291337,4087,255349,291339,290248,4100,184063,296516,292342,295546,111979,295546,NA,Sternberg task,14,12748,19,yes,1024
75,75,688.55,688.55,black,experiment,legacy,legacy,legacy,0,uniform,1,undefined,1,right,19,19,19,0,0,19,19,0,0,19,19,19,0,19,0,10/27/19 12:12,The main experiment item,yes,Sternbergtask.osexp,C:/Users/Breena Riley/Desktop/2019 Fall/MultQuant/lab 3.1,no,mono,no,18,no,white,no,yes,768,legacy,7,11,C:/Users/Breena Riley/Desktop/2019 Fall/MultQuant/lab 3.1/BR-subject-3.csv,legacy,8 4 3 9,Kafkaesque Koffka,3.2.8,0,n,0,right,left,right,right,NA,1023,107879,71286,1023,NA,2,legacy,4,1024,2,48000,-16,experiment,3,odd,5,299821,284198,297616,4087,255349,297618,296524,4100,184063,302846,298620,301823,111979,301823,NA,Sternberg task,15,13771,20,yes,1024
76.19047619,76.19047619,710,710,black,experiment,legacy,legacy,legacy,0,uniform,1,undefined,1,right,20,20,20,0,0,20,20,0,0,20,20,20,0,20,0,10/27/19 12:12,The main experiment item,yes,Sternbergtask.osexp,C:/Users/Breena Riley/Desktop/2019 Fall/MultQuant/lab 3.1,no,mono,no,18,no,white,no,yes,768,legacy,8,11,C:/Users/Breena Riley/Desktop/2019 Fall/MultQuant/lab 3.1/BR-subject-3.csv,legacy,4 2 7 6 1 3,Kafkaesque Koffka,3.2.8,0,n,0,right,left,right,right,NA,1139,107879,71286,1139,NA,2,legacy,6,1024,2,48000,-16,experiment,3,odd,8,306151,302854,303946,4087,255349,303948,296524,4100,184063,309291,304950,308152,111979,308152,NA,Sternberg task,16,14910,21,yes,1024
77.27272727,77.27272727,715.1818182,715.1818182,black,experiment,legacy,legacy,legacy,0,uniform,1,undefined,1,left,21,21,21,0,0,21,21,0,0,21,21,21,0,21,0,10/27/19 12:12,The main experiment item,yes,Sternbergtask.osexp,C:/Users/Breena Riley/Desktop/2019 Fall/MultQuant/lab 3.1,no,mono,no,18,no,white,no,yes,768,legacy,9,11,C:/Users/Breena Riley/Desktop/2019 Fall/MultQuant/lab 3.1/BR-subject-3.csv,legacy,5 7 3 6 2,Kafkaesque Koffka,3.2.8,5,y,0,left,left,right,left,NA,824,107879,71286,824,NA,2,legacy,5,1024,2,48000,-16,experiment,3,odd,2,312596,309299,310392,4087,255349,310394,296524,4100,184063,315422,311395,314598,111979,314598,NA,Sternberg task,17,15734,22,yes,1024
73.91304348,73.91304348,712.6956522,712.6956522,black,experiment,legacy,legacy,legacy,0,uniform,0,undefined,0,left,22,22,22,0,0,22,22,0,0,22,22,22,0,22,0,10/27/19 12:12,The main experiment item,yes,Sternbergtask.osexp,C:/Users/Breena Riley/Desktop/2019 Fall/MultQuant/lab 3.1,no,mono,no,18,no,white,no,yes,768,legacy,10,11,C:/Users/Breena Riley/Desktop/2019 Fall/MultQuant/lab 3.1/BR-subject-3.csv,legacy,3 2 1 4 7,Kafkaesque Koffka,3.2.8,2,y,0,right,left,right,right,NA,658,107879,71286,658,NA,2,legacy,5,1024,2,48000,-16,experiment,3,odd,2,318723,315430,316519,4087,255349,316521,296524,4100,184063,321385,317522,320726,111979,320726,NA,Sternberg task,17,16392,23,yes,1024
75,75,704.875,704.875,black,experiment,legacy,legacy,legacy,0,uniform,1,undefined,1,left,23,23,23,0,0,23,23,0,0,23,23,23,0,23,0,10/27/19 12:12,The main experiment item,yes,Sternbergtask.osexp,C:/Users/Breena Riley/Desktop/2019 Fall/MultQuant/lab 3.1,no,mono,no,18,no,white,no,yes,768,legacy,11,11,C:/Users/Breena Riley/Desktop/2019 Fall/MultQuant/lab 3.1/BR-subject-3.csv,legacy,5 2 6,Kafkaesque Koffka,3.2.8,2,y,0,left,left,right,left,NA,525,107879,71286,525,NA,2,legacy,3,1024,2,48000,-16,experiment,3,odd,2,324687,315430,322483,4087,255349,322485,321393,4100,184063,327215,323486,326689,111979,326689,NA,Sternberg task,18,16917,24,yes,1024
76,76,706.96,706.96,black,experiment,legacy,legacy,legacy,0,uniform,1,undefined,1,right,24,24,24,0,0,24,24,0,0,24,24,24,0,24,0,10/27/19 12:12,The main experiment item,yes,Sternbergtask.osexp,C:/Users/Breena Riley/Desktop/2019 Fall/MultQuant/lab 3.1,no,mono,no,18,no,white,no,yes,768,legacy,12,11,C:/Users/Breena Riley/Desktop/2019 Fall/MultQuant/lab 3.1/BR-subject-3.csv,legacy,5 2,Kafkaesque Koffka,3.2.8,0,n,0,right,left,right,right,NA,757,107879,71286,757,NA,2,legacy,2,1024,2,48000,-16,experiment,3,odd,7,330524,327223,328318,4087,255349,328320,321393,4100,184063,333283,329322,332526,111979,332526,NA,Sternberg task,19,17674,25,yes,1024
76.92307692,76.92307692,718.1923077,718.1923077,black,experiment,legacy,legacy,legacy,0,uniform,1,undefined,1,right,25,25,25,0,0,25,25,0,0,25,25,25,0,25,0,10/27/19 12:12,The main experiment item,yes,Sternbergtask.osexp,C:/Users/Breena Riley/Desktop/2019 Fall/MultQuant/lab 3.1,no,mono,no,18,no,white,no,yes,768,legacy,13,11,C:/Users/Breena Riley/Desktop/2019 Fall/MultQuant/lab 3.1/BR-subject-3.csv,legacy,9 7 4 5 8,Kafkaesque Koffka,3.2.8,0,n,0,right,left,right,right,NA,999,107879,71286,999,NA,2,legacy,5,1024,2,48000,-16,experiment,3,odd,6,336589,333291,334383,4087,255349,334385,321393,4100,184063,339590,335387,338590,111979,338590,NA,Sternberg task,20,18673,26,yes,1024
77.77777778,77.77777778,712.7777778,712.7777778,black,experiment,legacy,legacy,legacy,0,uniform,1,undefined,1,right,26,26,26,0,0,26,26,0,0,26,26,26,0,26,0,10/27/19 12:12,The main experiment item,yes,Sternbergtask.osexp,C:/Users/Breena Riley/Desktop/2019 Fall/MultQuant/lab 3.1,no,mono,no,18,no,white,no,yes,768,legacy,14,11,C:/Users/Breena Riley/Desktop/2019 Fall/MultQuant/lab 3.1/BR-subject-3.csv,legacy,2 8 9,Kafkaesque Koffka,3.2.8,0,n,0,right,left,right,right,NA,572,107879,71286,572,NA,2,legacy,3,1024,2,48000,-16,experiment,3,odd,6,342898,339598,340693,4087,255349,340695,321393,4100,184063,345472,341697,344900,111979,344899,NA,Sternberg task,21,19245,27,yes,1024
78.57142857,78.57142857,723.5714286,723.5714286,black,experiment,legacy,legacy,legacy,0,uniform,1,undefined,1,right,27,27,27,0,0,27,27,0,0,27,27,27,0,27,0,10/27/19 12:12,The main experiment item,yes,Sternbergtask.osexp,C:/Users/Breena Riley/Desktop/2019 Fall/MultQuant/lab 3.1,no,mono,no,18,no,white,no,yes,768,legacy,15,11,C:/Users/Breena Riley/Desktop/2019 Fall/MultQuant/lab 3.1/BR-subject-3.csv,legacy,1 7 5 2 9,Kafkaesque Koffka,3.2.8,0,n,0,right,left,right,right,NA,1015,107879,71286,1015,NA,2,legacy,5,1024,2,48000,-16,experiment,3,odd,3,348776,345480,346572,4087,255349,346574,321393,4100,184063,351792,347575,350777,111979,350777,NA,Sternberg task,22,20260,28,yes,1024
79.31034483,79.31034483,725.5517241,725.5517241,black,experiment,legacy,legacy,legacy,0,uniform,1,undefined,1,right,28,28,28,0,0,28,28,0,0,28,28,28,0,28,0,10/27/19 12:12,The main experiment item,yes,Sternbergtask.osexp,C:/Users/Breena Riley/Desktop/2019 Fall/MultQuant/lab 3.1,no,mono,no,18,no,white,no,yes,768,legacy,16,11,C:/Users/Breena Riley/Desktop/2019 Fall/MultQuant/lab 3.1/BR-subject-3.csv,legacy,9 5 3 2 8 6,Kafkaesque Koffka,3.2.8,0,n,0,right,left,right,right,NA,781,107879,71286,781,NA,2,legacy,6,1024,2,48000,-16,experiment,3,odd,7,355096,351800,352891,4087,255349,352893,321393,4100,184063,357879,353895,357097,111979,357097,NA,Sternberg task,23,21041,29,yes,1024
80,80,723.6666667,723.6666667,black,experiment,legacy,legacy,legacy,0,uniform,1,undefined,1,left,29,29,29,0,0,29,29,0,0,29,29,29,0,29,0,10/27/19 12:12,The main experiment item,yes,Sternbergtask.osexp,C:/Users/Breena Riley/Desktop/2019 Fall/MultQuant/lab 3.1,no,mono,no,18,no,white,no,yes,768,legacy,17,11,C:/Users/Breena Riley/Desktop/2019 Fall/MultQuant/lab 3.1/BR-subject-3.csv,legacy,3 4 9 6 2 9,Kafkaesque Koffka,3.2.8,5,y,0,left,left,right,left,NA,669,107879,71286,669,NA,2,legacy,6,1024,2,48000,-16,experiment,3,odd,2,361190,357887,358985,4087,255349,358987,321393,4100,184063,363862,359988,363192,111979,363192,NA,Sternberg task,24,21710,30,yes,1024
80.64516129,80.64516129,721.3870968,721.3870968,black,experiment,legacy,legacy,legacy,0,uniform,1,undefined,1,right,30,30,30,0,0,30,30,0,0,30,30,30,0,30,0,10/27/19 12:12,The main experiment item,yes,Sternbergtask.osexp,C:/Users/Breena Riley/Desktop/2019 Fall/MultQuant/lab 3.1,no,mono,no,18,no,white,no,yes,768,legacy,18,11,C:/Users/Breena Riley/Desktop/2019 Fall/MultQuant/lab 3.1/BR-subject-3.csv,legacy,1 8 7,Kafkaesque Koffka,3.2.8,0,n,0,right,left,right,right,NA,653,107879,71286,653,NA,2,legacy,3,1024,2,48000,-16,experiment,3,odd,4,367166,363869,364961,4087,255349,364963,321393,4100,184063,369821,365965,369168,111979,369168,NA,Sternberg task,25,22363,31,yes,1024
81.25,81.25,715.15625,715.15625,black,experiment,legacy,legacy,legacy,0,uniform,1,undefined,1,right,31,31,31,0,0,31,31,0,0,31,31,31,0,31,0,10/27/19 12:12,The main experiment item,yes,Sternbergtask.osexp,C:/Users/Breena Riley/Desktop/2019 Fall/MultQuant/lab 3.1,no,mono,no,18,no,white,no,yes,768,legacy,19,11,C:/Users/Breena Riley/Desktop/2019 Fall/MultQuant/lab 3.1/BR-subject-3.csv,legacy,4 1,Kafkaesque Koffka,3.2.8,0,n,0,right,left,right,right,NA,522,107879,71286,522,NA,2,legacy,2,1024,2,48000,-16,experiment,3,odd,6,373122,369828,370918,4087,255349,370920,321393,4100,184063,375645,371921,375123,111979,375123,NA,Sternberg task,26,22885,32,yes,1024
81.81818182,81.81818182,710,710,black,experiment,legacy,legacy,legacy,0,uniform,1,undefined,1,right,32,32,32,0,0,32,32,0,0,32,32,32,0,32,0,10/27/19 12:12,The main experiment item,yes,Sternbergtask.osexp,C:/Users/Breena Riley/Desktop/2019 Fall/MultQuant/lab 3.1,no,mono,no,18,no,white,no,yes,768,legacy,20,11,C:/Users/Breena Riley/Desktop/2019 Fall/MultQuant/lab 3.1/BR-subject-3.csv,legacy,9,Kafkaesque Koffka,3.2.8,0,n,0,right,left,right,right,NA,545,107879,71286,545,NA,2,legacy,1,1024,2,48000,-16,experiment,3,odd,6,378948,375654,376743,4087,255349,376744,321393,4100,184063,381494,377747,380949,111979,380949,NA,Sternberg task,27,23430,33,yes,1024
82.35294118,82.35294118,706.5,706.5,black,experiment,legacy,legacy,legacy,0,uniform,1,undefined,1,right,33,33,33,0,0,33,33,0,0,33,33,33,0,33,0,10/27/19 12:12,The main experiment item,yes,Sternbergtask.osexp,C:/Users/Breena Riley/Desktop/2019 Fall/MultQuant/lab 3.1,no,mono,no,18,no,white,no,yes,768,legacy,21,11,C:/Users/Breena Riley/Desktop/2019 Fall/MultQuant/lab 3.1/BR-subject-3.csv,legacy,3 4 9 6 7 8,Kafkaesque Koffka,3.2.8,0,n,0,right,left,right,right,NA,591,107879,71286,591,NA,2,legacy,6,1024,2,48000,-16,experiment,3,odd,2,384803,381502,382598,4087,255349,382600,321393,4100,184063,387396,383602,386805,111979,386805,NA,Sternberg task,28,24021,34,yes,1024
82.85714286,82.85714286,702.5714286,702.5714286,black,experiment,legacy,legacy,legacy,0,uniform,1,undefined,1,right,34,34,34,0,0,34,34,0,0,34,34,34,0,34,0,10/27/19 12:12,The main experiment item,yes,Sternbergtask.osexp,C:/Users/Breena Riley/Desktop/2019 Fall/MultQuant/lab 3.1,no,mono,no,18,no,white,no,yes,768,legacy,22,11,C:/Users/Breena Riley/Desktop/2019 Fall/MultQuant/lab 3.1/BR-subject-3.csv,legacy,8 6 3 4 7,Kafkaesque Koffka,3.2.8,0,n,0,right,left,right,right,NA,569,107879,71286,569,NA,2,legacy,5,1024,2,48000,-16,experiment,3,odd,1,390698,387404,388493,4087,255349,388495,321393,4100,184063,393270,389496,392700,111979,392700,NA,Sternberg task,29,24590,35,yes,1024
83.33333333,83.33333333,705.1666667,705.1666667,black,experiment,legacy,legacy,legacy,0,uniform,1,undefined,1,left,35,35,35,0,0,35,35,0,0,35,35,35,0,35,0,10/27/19 12:12,The main experiment item,yes,Sternbergtask.osexp,C:/Users/Breena Riley/Desktop/2019 Fall/MultQuant/lab 3.1,no,mono,no,18,no,white,no,yes,768,legacy,23,11,C:/Users/Breena Riley/Desktop/2019 Fall/MultQuant/lab 3.1/BR-subject-3.csv,legacy,8 1 6,Kafkaesque Koffka,3.2.8,3,y,0,left,left,right,left,NA,796,107879,71286,796,NA,2,legacy,3,1024,2,48000,-16,experiment,3,odd,6,396569,393277,394364,4087,255349,394367,321393,4100,184063,399367,395368,398570,111979,398570,NA,Sternberg task,30,25386,36,yes,1024
83.78378378,83.78378378,703,703,black,experiment,legacy,legacy,legacy,0,uniform,1,undefined,1,left,36,36,36,0,0,36,36,0,0,36,36,36,0,36,0,10/27/19 12:12,The main experiment item,yes,Sternbergtask.osexp,C:/Users/Breena Riley/Desktop/2019 Fall/MultQuant/lab 3.1,no,mono,no,18,no,white,no,yes,768,legacy,24,11,C:/Users/Breena Riley/Desktop/2019 Fall/MultQuant/lab 3.1/BR-subject-3.csv,legacy,4 6 5 8,Kafkaesque Koffka,3.2.8,1,y,0,left,left,right,left,NA,625,107879,71286,625,NA,2,legacy,4,1024,2,48000,-16,experiment,3,odd,4,402670,399375,400465,4087,255349,400467,321393,4100,184063,405297,401468,404672,111979,404672,NA,Sternberg task,31,26011,37,yes,1024
81.57894737,81.57894737,706.4473684,706.4473684,black,experiment,legacy,legacy,legacy,0,uniform,0,undefined,0,right,37,37,37,0,0,37,37,0,0,37,37,37,0,37,0,10/27/19 12:12,The main experiment item,yes,Sternbergtask.osexp,C:/Users/Breena Riley/Desktop/2019 Fall/MultQuant/lab 3.1,no,mono,no,18,no,white,no,yes,768,legacy,25,11,C:/Users/Breena Riley/Desktop/2019 Fall/MultQuant/lab 3.1/BR-subject-3.csv,legacy,8 5 7 3 6,Kafkaesque Koffka,3.2.8,0,n,0,left,left,right,left,NA,834,107879,71286,834,NA,2,legacy,5,1024,2,48000,-16,experiment,3,odd,9,408597,405302,406392,4087,255349,406394,321393,4100,184063,411434,407395,410599,111979,410599,NA,Sternberg task,31,26845,38,yes,1024
82.05128205,82.05128205,713.7435897,713.7435897,black,experiment,legacy,legacy,legacy,0,uniform,1,undefined,1,left,38,38,38,0,0,38,38,0,0,38,38,38,0,38,0,10/27/19 12:12,The main experiment item,yes,Sternbergtask.osexp,C:/Users/Breena Riley/Desktop/2019 Fall/MultQuant/lab 3.1,no,mono,no,18,no,white,no,yes,768,legacy,26,11,C:/Users/Breena Riley/Desktop/2019 Fall/MultQuant/lab 3.1/BR-subject-3.csv,legacy,7 8 6 3 1,Kafkaesque Koffka,3.2.8,5,y,0,left,left,right,left,NA,991,107879,71286,991,NA,2,legacy,5,1024,2,48000,-16,experiment,3,odd,1,414739,405302,412534,4087,255349,412537,411441,4100,184063,417732,413538,416740,111979,416740,NA,Sternberg task,32,27836,39,yes,1024
82.5,82.5,711.275,711.275,black,experiment,legacy,legacy,legacy,0,uniform,1,undefined,1,left,39,39,39,0,0,39,39,0,0,39,39,39,0,39,0,10/27/19 12:12,The main experiment item,yes,Sternbergtask.osexp,C:/Users/Breena Riley/Desktop/2019 Fall/MultQuant/lab 3.1,no,mono,no,18,no,white,no,yes,768,legacy,27,11,C:/Users/Breena Riley/Desktop/2019 Fall/MultQuant/lab 3.1/BR-subject-3.csv,legacy,7 4 2 6 3 5,Kafkaesque Koffka,3.2.8,6,y,0,left,left,right,left,NA,615,107879,71286,615,NA,2,legacy,6,1024,2,48000,-16,experiment,3,odd,5,421039,417740,418834,4087,255349,418836,411441,4100,184063,423657,419837,423041,111979,423041,NA,Sternberg task,33,28451,40,yes,1024
82.92682927,82.92682927,705.0243902,705.0243902,black,experiment,legacy,legacy,legacy,0,uniform,1,undefined,1,left,40,40,40,0,0,40,40,0,0,40,40,40,0,40,0,10/27/19 12:12,The main experiment item,yes,Sternbergtask.osexp,C:/Users/Breena Riley/Desktop/2019 Fall/MultQuant/lab 3.1,no,mono,no,18,no,white,no,yes,768,legacy,28,11,C:/Users/Breena Riley/Desktop/2019 Fall/MultQuant/lab 3.1/BR-subject-3.csv,legacy,4,Kafkaesque Koffka,3.2.8,1,y,0,left,left,right,left,NA,455,107879,71286,455,NA,2,legacy,1,1024,2,48000,-16,experiment,3,odd,4,426960,423665,424755,4087,255349,424757,411441,4100,184063,429418,425759,428962,111979,428962,NA,Sternberg task,34,28906,41,yes,1024
83.33333333,83.33333333,702.7619048,702.7619048,black,experiment,legacy,legacy,legacy,0,uniform,1,undefined,1,right,41,41,41,0,0,41,41,0,0,41,41,41,0,41,0,10/27/19 12:12,The main experiment item,yes,Sternbergtask.osexp,C:/Users/Breena Riley/Desktop/2019 Fall/MultQuant/lab 3.1,no,mono,no,18,no,white,no,yes,768,legacy,29,11,C:/Users/Breena Riley/Desktop/2019 Fall/MultQuant/lab 3.1/BR-subject-3.csv,legacy,6 2 9 3 8 4,Kafkaesque Koffka,3.2.8,0,n,0,right,left,right,right,NA,610,107879,71286,610,NA,2,legacy,6,1024,2,48000,-16,experiment,3,odd,1,432728,429427,430523,4087,255349,430525,411441,4100,184063,435341,431527,434730,111979,434730,NA,Sternberg task,35,29516,42,yes,1024
83.72093023,83.72093023,701.744186,701.744186,black,experiment,legacy,legacy,legacy,0,uniform,1,undefined,1,left,42,42,42,0,0,42,42,0,0,42,42,42,0,42,0,10/27/19 12:12,The main experiment item,yes,Sternbergtask.osexp,C:/Users/Breena Riley/Desktop/2019 Fall/MultQuant/lab 3.1,no,mono,no,18,no,white,no,yes,768,legacy,30,11,C:/Users/Breena Riley/Desktop/2019 Fall/MultQuant/lab 3.1/BR-subject-3.csv,legacy,5 2 9 6 1 7,Kafkaesque Koffka,3.2.8,3,y,0,left,left,right,left,NA,659,107879,71286,659,NA,2,legacy,6,1024,2,48000,-16,experiment,3,odd,9,438646,435349,436440,4087,255349,436442,411441,4100,184063,441308,437444,440648,111979,440648,NA,Sternberg task,36,30175,43,yes,1024
84.09090909,84.09090909,697.5909091,697.5909091,black,experiment,legacy,legacy,legacy,0,uniform,1,undefined,1,left,43,43,43,0,0,43,43,0,0,43,43,43,0,43,0,10/27/19 12:12,The main experiment item,yes,Sternbergtask.osexp,C:/Users/Breena Riley/Desktop/2019 Fall/MultQuant/lab 3.1,no,mono,no,18,no,white,no,yes,768,legacy,31,11,C:/Users/Breena Riley/Desktop/2019 Fall/MultQuant/lab 3.1/BR-subject-3.csv,legacy,9 5 3 8 4,Kafkaesque Koffka,3.2.8,1,y,0,left,left,right,left,NA,519,107879,71286,519,NA,2,legacy,5,1024,2,48000,-16,experiment,3,odd,9,444610,441316,442405,4087,255349,442407,411441,4100,184063,447132,443408,446612,111979,446612,NA,Sternberg task,37,30694,44,yes,1024
84.44444444,84.44444444,704.2222222,704.2222222,black,experiment,legacy,legacy,legacy,0,uniform,1,undefined,1,right,44,44,44,0,0,44,44,0,0,44,44,44,0,44,0,10/27/19 12:12,The main experiment item,yes,Sternbergtask.osexp,C:/Users/Breena Riley/Desktop/2019 Fall/MultQuant/lab 3.1,no,mono,no,18,no,white,no,yes,768,legacy,32,11,C:/Users/Breena Riley/Desktop/2019 Fall/MultQuant/lab 3.1/BR-subject-3.csv,legacy,6 7 5 9,Kafkaesque Koffka,3.2.8,0,n,0,right,left,right,right,NA,996,107879,71286,996,NA,2,legacy,4,1024,2,48000,-16,experiment,3,odd,2,450439,447137,448235,4087,255349,448237,411441,4100,184063,453436,449238,452440,111979,452440,NA,Sternberg task,38,31690,45,yes,1024
84.7826087,84.7826087,701.5,701.5,black,experiment,legacy,legacy,legacy,0,uniform,1,undefined,1,right,45,45,45,0,0,45,45,0,0,45,45,45,0,45,0,10/27/19 12:12,The main experiment item,yes,Sternbergtask.osexp,C:/Users/Breena Riley/Desktop/2019 Fall/MultQuant/lab 3.1,no,mono,no,18,no,white,no,yes,768,legacy,33,11,C:/Users/Breena Riley/Desktop/2019 Fall/MultQuant/lab 3.1/BR-subject-3.csv,legacy,6 9 7 3 8 2,Kafkaesque Koffka,3.2.8,0,n,0,right,left,right,right,NA,579,107879,71286,579,NA,2,legacy,6,1024,2,48000,-16,experiment,3,odd,5,456742,453445,454537,4087,255349,454539,411441,4100,184063,459323,455541,458743,111979,458743,NA,Sternberg task,39,32269,46,yes,1024
85.10638298,85.10638298,696.6595745,696.6595745,black,experiment,legacy,legacy,legacy,0,uniform,1,undefined,1,left,46,46,46,0,0,46,46,0,0,46,46,46,0,46,0,10/27/19 12:12,The main experiment item,yes,Sternbergtask.osexp,C:/Users/Breena Riley/Desktop/2019 Fall/MultQuant/lab 3.1,no,mono,no,18,no,white,no,yes,768,legacy,34,11,C:/Users/Breena Riley/Desktop/2019 Fall/MultQuant/lab 3.1/BR-subject-3.csv,legacy,3 5 9 6 2 4,Kafkaesque Koffka,3.2.8,1,y,0,left,left,right,left,NA,474,107879,71286,474,NA,2,legacy,6,1024,2,48000,-16,experiment,3,odd,3,462625,459331,460421,4087,255349,460423,411441,4100,184063,465102,461424,464628,111979,464627,NA,Sternberg task,40,32743,47,yes,1024
85.41666667,85.41666667,692.8333333,692.8333333,black,experiment,legacy,legacy,legacy,0,uniform,1,undefined,1,left,47,47,47,0,0,47,47,0,0,47,47,47,0,47,0,10/27/19 12:12,The main experiment item,yes,Sternbergtask.osexp,C:/Users/Breena Riley/Desktop/2019 Fall/MultQuant/lab 3.1,no,mono,no,18,no,white,no,yes,768,legacy,35,11,C:/Users/Breena Riley/Desktop/2019 Fall/MultQuant/lab 3.1/BR-subject-3.csv,legacy,2 3,Kafkaesque Koffka,3.2.8,1,y,0,left,left,right,left,NA,513,107879,71286,513,NA,2,legacy,2,1024,2,48000,-16,experiment,3,odd,2,468408,465110,466203,4087,255349,466205,411441,4100,184063,470923,467206,470409,111979,470409,NA,Sternberg task,41,33256,48,yes,1024
85.71428571,85.71428571,693.2040816,693.2040816,black,experiment,legacy,legacy,legacy,0,uniform,1,undefined,1,right,48,48,48,0,0,48,48,0,0,48,48,48,0,48,0,10/27/19 12:12,The main experiment item,yes,Sternbergtask.osexp,C:/Users/Breena Riley/Desktop/2019 Fall/MultQuant/lab 3.1,no,mono,no,18,no,white,no,yes,768,legacy,36,11,C:/Users/Breena Riley/Desktop/2019 Fall/MultQuant/lab 3.1/BR-subject-3.csv,legacy,5 3 2 6 9 8,Kafkaesque Koffka,3.2.8,0,n,0,right,left,right,right,NA,711,107879,71286,711,NA,2,legacy,6,1024,2,48000,-16,experiment,3,odd,4,474228,470931,472023,4087,255349,472025,411441,4100,184063,476941,473027,476229,111979,476229,NA,Sternberg task,42,33967,49,yes,1024
86,86,688.58,688.58,black,experiment,legacy,legacy,legacy,0,uniform,1,undefined,1,right,49,49,49,0,0,49,49,0,0,49,49,49,0,49,0,10/27/19 12:12,The main experiment item,yes,Sternbergtask.osexp,C:/Users/Breena Riley/Desktop/2019 Fall/MultQuant/lab 3.1,no,mono,no,18,no,white,no,yes,768,legacy,37,11,C:/Users/Breena Riley/Desktop/2019 Fall/MultQuant/lab 3.1/BR-subject-3.csv,legacy,7 1,Kafkaesque Koffka,3.2.8,0,n,0,right,left,right,right,NA,462,107879,71286,462,NA,2,legacy,2,1024,2,48000,-16,experiment,3,odd,8,480241,476945,478035,4087,255349,478037,411441,4100,184063,482705,479039,482242,111979,482242,NA,Sternberg task,43,34429,50,yes,1024
86.2745098,86.2745098,688.1960784,688.1960784,black,experiment,legacy,legacy,legacy,0,uniform,1,undefined,1,left,50,50,50,0,0,50,50,0,0,50,50,50,0,50,0,10/27/19 12:12,The main experiment item,yes,Sternbergtask.osexp,C:/Users/Breena Riley/Desktop/2019 Fall/MultQuant/lab 3.1,no,mono,no,18,no,white,no,yes,768,legacy,38,11,C:/Users/Breena Riley/Desktop/2019 Fall/MultQuant/lab 3.1/BR-subject-3.csv,legacy,7 6,Kafkaesque Koffka,3.2.8,2,y,0,left,left,right,left,NA,669,107879,71286,669,NA,2,legacy,2,1024,2,48000,-16,experiment,3,odd,6,486008,482714,483803,4087,255349,483805,411441,4100,184063,488681,484807,488010,111979,488010,NA,Sternberg task,44,35098,51,yes,1024
86.53846154,86.53846154,685.9615385,685.9615385,black,experiment,legacy,legacy,legacy,0,uniform,1,undefined,1,right,51,51,51,0,0,51,51,0,0,51,51,51,0,51,0,10/27/19 12:12,The main experiment item,yes,Sternbergtask.osexp,C:/Users/Breena Riley/Desktop/2019 Fall/MultQuant/lab 3.1,no,mono,no,18,no,white,no,yes,768,legacy,39,11,C:/Users/Breena Riley/Desktop/2019 Fall/MultQuant/lab 3.1/BR-subject-3.csv,legacy,7 6 4 8 1 2,Kafkaesque Koffka,3.2.8,0,n,0,right,left,right,right,NA,572,107879,71286,572,NA,2,legacy,6,1024,2,48000,-16,experiment,3,odd,9,491988,488690,489783,4087,255349,489785,411441,4100,184063,494562,490787,493989,111979,493989,NA,Sternberg task,45,35670,52,yes,1024
84.90566038,84.90566038,685.754717,685.754717,black,experiment,legacy,legacy,legacy,0,uniform,0,undefined,0,right,52,52,52,0,0,52,52,0,0,52,52,52,0,52,0,10/27/19 12:12,The main experiment item,yes,Sternbergtask.osexp,C:/Users/Breena Riley/Desktop/2019 Fall/MultQuant/lab 3.1,no,mono,no,18,no,white,no,yes,768,legacy,40,11,C:/Users/Breena Riley/Desktop/2019 Fall/MultQuant/lab 3.1/BR-subject-3.csv,legacy,1 6 4 3 9 7,Kafkaesque Koffka,3.2.8,0,n,0,left,left,right,left,NA,675,107879,71286,675,NA,2,legacy,6,1024,2,48000,-16,experiment,3,odd,8,497870,494570,495666,4087,255349,495668,411441,4100,184063,500548,496669,499872,111979,499872,NA,Sternberg task,45,36345,53,yes,1024
85.18518519,85.18518519,686.1666667,686.1666667,black,experiment,legacy,legacy,legacy,0,uniform,1,undefined,1,right,53,53,53,0,0,53,53,0,0,53,53,53,0,53,0,10/27/19 12:12,The main experiment item,yes,Sternbergtask.osexp,C:/Users/Breena Riley/Desktop/2019 Fall/MultQuant/lab 3.1,no,mono,no,18,no,white,no,yes,768,legacy,41,11,C:/Users/Breena Riley/Desktop/2019 Fall/MultQuant/lab 3.1/BR-subject-3.csv,legacy,5 3 8 7 2 4,Kafkaesque Koffka,3.2.8,0,n,0,right,left,right,right,NA,708,107879,71286,708,NA,2,legacy,6,1024,2,48000,-16,experiment,3,odd,9,503859,494570,501654,4087,255349,501656,500556,4100,184063,506570,502657,505861,111979,505861,NA,Sternberg task,46,37053,54,yes,1024
83.63636364,83.63636364,685.1818182,685.1818182,black,experiment,legacy,legacy,legacy,0,uniform,0,undefined,0,right,54,54,54,0,0,54,54,0,0,54,54,54,0,54,0,10/27/19 12:12,The main experiment item,yes,Sternbergtask.osexp,C:/Users/Breena Riley/Desktop/2019 Fall/MultQuant/lab 3.1,no,mono,no,18,no,white,no,yes,768,legacy,42,11,C:/Users/Breena Riley/Desktop/2019 Fall/MultQuant/lab 3.1/BR-subject-3.csv,legacy,2 3 8 5 6 7,Kafkaesque Koffka,3.2.8,0,n,0,left,left,right,left,NA,632,107879,71286,632,NA,2,legacy,6,1024,2,48000,-16,experiment,3,odd,1,509878,506577,507674,4087,255349,507675,500556,4100,184063,512511,508677,511879,111979,511879,NA,Sternberg task,46,37685,55,yes,1024
83.92857143,83.92857143,688.9821429,688.9821429,black,experiment,legacy,legacy,legacy,0,uniform,1,undefined,1,right,55,55,55,0,0,55,55,0,0,55,55,55,0,55,0,10/27/19 12:12,The main experiment item,yes,Sternbergtask.osexp,C:/Users/Breena Riley/Desktop/2019 Fall/MultQuant/lab 3.1,no,mono,no,18,no,white,no,yes,768,legacy,43,11,C:/Users/Breena Riley/Desktop/2019 Fall/MultQuant/lab 3.1/BR-subject-3.csv,legacy,6 3 1 7 9 8,Kafkaesque Koffka,3.2.8,0,n,0,right,left,right,right,NA,898,107879,71286,898,NA,2,legacy,6,1024,2,48000,-16,experiment,3,odd,4,515817,506577,513612,4087,255349,513615,512519,4100,184063,518717,514616,517818,111979,517818,NA,Sternberg task,47,38583,56,yes,1024
84.21052632,84.21052632,688.3157895,688.3157895,black,experiment,legacy,legacy,legacy,0,uniform,1,undefined,1,right,56,56,56,0,0,56,56,0,0,56,56,56,0,56,0,10/27/19 12:12,The main experiment item,yes,Sternbergtask.osexp,C:/Users/Breena Riley/Desktop/2019 Fall/MultQuant/lab 3.1,no,mono,no,18,no,white,no,yes,768,legacy,44,11,C:/Users/Breena Riley/Desktop/2019 Fall/MultQuant/lab 3.1/BR-subject-3.csv,legacy,5 7 3,Kafkaesque Koffka,3.2.8,0,n,0,right,left,right,right,NA,651,107879,71286,651,NA,2,legacy,3,1024,2,48000,-16,experiment,3,odd,9,522019,518725,519813,4087,255349,519815,512519,4100,184063,524673,520817,524020,111979,524020,NA,Sternberg task,48,39234,57,yes,1024
82.75862069,82.75862069,692.7413793,692.7413793,black,experiment,legacy,legacy,legacy,0,uniform,0,undefined,0,right,57,57,57,0,0,57,57,0,0,57,57,57,0,57,0,10/27/19 12:12,The main experiment item,yes,Sternbergtask.osexp,C:/Users/Breena Riley/Desktop/2019 Fall/MultQuant/lab 3.1,no,mono,no,18,no,white,no,yes,768,legacy,45,11,C:/Users/Breena Riley/Desktop/2019 Fall/MultQuant/lab 3.1/BR-subject-3.csv,legacy,5 9 2 3,Kafkaesque Koffka,3.2.8,0,n,0,left,left,right,left,NA,945,107879,71286,945,NA,2,legacy,4,1024,2,48000,-16,experiment,3,odd,8,527980,524683,525775,4087,255349,525777,512519,4100,184063,530927,526778,529981,111979,529981,NA,Sternberg task,48,40179,58,yes,1024
83.05084746,83.05084746,693.7966102,693.7966102,black,experiment,legacy,legacy,legacy,0,uniform,1,undefined,1,right,58,58,58,0,0,58,58,0,0,58,58,58,0,58,0,10/27/19 12:12,The main experiment item,yes,Sternbergtask.osexp,C:/Users/Breena Riley/Desktop/2019 Fall/MultQuant/lab 3.1,no,mono,no,18,no,white,no,yes,768,legacy,46,11,C:/Users/Breena Riley/Desktop/2019 Fall/MultQuant/lab 3.1/BR-subject-3.csv,legacy,8 9,Kafkaesque Koffka,3.2.8,0,n,0,right,left,right,right,NA,755,107879,71286,755,NA,2,legacy,2,1024,2,48000,-16,experiment,3,odd,5,534231,524683,532025,4087,255349,532028,530936,4100,184063,536988,533029,536232,111979,536232,NA,Sternberg task,49,40934,59,yes,1024
81.66666667,81.66666667,693.2166667,693.2166667,black,experiment,legacy,legacy,legacy,0,uniform,0,undefined,0,left,59,59,59,0,0,59,59,0,0,59,59,59,0,59,0,10/27/19 12:12,The main experiment item,yes,Sternbergtask.osexp,C:/Users/Breena Riley/Desktop/2019 Fall/MultQuant/lab 3.1,no,mono,no,18,no,white,no,yes,768,legacy,47,11,C:/Users/Breena Riley/Desktop/2019 Fall/MultQuant/lab 3.1/BR-subject-3.csv,legacy,2 6 1 7 4,Kafkaesque Koffka,3.2.8,2,y,0,right,left,right,right,NA,659,107879,71286,659,NA,2,legacy,5,1024,2,48000,-16,experiment,3,odd,6,540292,536995,538087,4087,255349,538089,530936,4100,184063,542952,539091,542293,111979,542293,NA,Sternberg task,49,41593,60,yes,1024
81.96721311,81.96721311,690.5901639,690.5901639,black,experiment,legacy,legacy,legacy,0,uniform,1,undefined,1,left,60,60,60,0,0,60,60,0,0,60,60,60,0,60,0,10/27/19 12:12,The main experiment item,yes,Sternbergtask.osexp,C:/Users/Breena Riley/Desktop/2019 Fall/MultQuant/lab 3.1,no,mono,no,18,no,white,no,yes,768,legacy,48,11,C:/Users/Breena Riley/Desktop/2019 Fall/MultQuant/lab 3.1/BR-subject-3.csv,legacy,9 1 7 2,Kafkaesque Koffka,3.2.8,2,y,0,left,left,right,left,NA,533,107879,71286,533,NA,2,legacy,4,1024,2,48000,-16,experiment,3,odd,1,546256,536995,544051,4087,255349,544053,542961,4100,184063,548790,545054,548257,111979,548257,NA,Sternberg task,50,42126,61,yes,1024
82.25806452,82.25806452,689,689,black,experiment,legacy,legacy,legacy,0,uniform,1,undefined,1,right,61,61,61,0,0,61,61,0,0,61,61,61,0,61,0,10/27/19 12:12,The main experiment item,yes,Sternbergtask.osexp,C:/Users/Breena Riley/Desktop/2019 Fall/MultQuant/lab 3.1,no,mono,no,18,no,white,no,yes,768,legacy,49,11,C:/Users/Breena Riley/Desktop/2019 Fall/MultQuant/lab 3.1/BR-subject-3.csv,legacy,1 4 9 3,Kafkaesque Koffka,3.2.8,0,n,0,right,left,right,right,NA,592,107879,71286,592,NA,2,legacy,4,1024,2,48000,-16,experiment,3,odd,5,552097,548798,549892,4087,255349,549894,542961,4100,184063,554692,550895,554098,111979,554098,NA,Sternberg task,51,42718,62,yes,1024
82.53968254,82.53968254,688.6349206,688.6349206,black,experiment,legacy,legacy,legacy,0,uniform,1,undefined,1,right,62,62,62,0,0,62,62,0,0,62,62,62,0,62,0,10/27/19 12:12,The main experiment item,yes,Sternbergtask.osexp,C:/Users/Breena Riley/Desktop/2019 Fall/MultQuant/lab 3.1,no,mono,no,18,no,white,no,yes,768,legacy,50,11,C:/Users/Breena Riley/Desktop/2019 Fall/MultQuant/lab 3.1/BR-subject-3.csv,legacy,2 5 1 4,Kafkaesque Koffka,3.2.8,0,n,0,right,left,right,right,NA,666,107879,71286,666,NA,2,legacy,4,1024,2,48000,-16,experiment,3,odd,6,557994,554701,555790,4087,255349,555792,542961,4100,184063,560664,556793,559996,111979,559996,NA,Sternberg task,52,43384,63,yes,1024
82.8125,82.8125,686.75,686.75,black,experiment,legacy,legacy,legacy,0,uniform,1,undefined,1,right,63,63,63,0,0,63,63,0,0,63,63,63,0,63,0,10/27/19 12:12,The main experiment item,yes,Sternbergtask.osexp,C:/Users/Breena Riley/Desktop/2019 Fall/MultQuant/lab 3.1,no,mono,no,18,no,white,no,yes,768,legacy,51,11,C:/Users/Breena Riley/Desktop/2019 Fall/MultQuant/lab 3.1/BR-subject-3.csv,legacy,2 7 5,Kafkaesque Koffka,3.2.8,0,n,0,right,left,right,right,NA,568,107879,71286,568,NA,2,legacy,3,1024,2,48000,-16,experiment,3,odd,8,563966,560671,561761,4087,255349,561763,542961,4100,184063,566537,562764,565968,111979,565967,NA,Sternberg task,53,43952,64,yes,1024
83.07692308,83.07692308,687.9230769,687.9230769,black,experiment,legacy,legacy,legacy,0,uniform,1,undefined,1,left,64,64,64,0,0,64,64,0,0,64,64,64,0,64,0,10/27/19 12:12,The main experiment item,yes,Sternbergtask.osexp,C:/Users/Breena Riley/Desktop/2019 Fall/MultQuant/lab 3.1,no,mono,no,18,no,white,no,yes,768,legacy,52,11,C:/Users/Breena Riley/Desktop/2019 Fall/MultQuant/lab 3.1/BR-subject-3.csv,legacy,8,Kafkaesque Koffka,3.2.8,1,y,0,left,left,right,left,NA,763,107879,71286,763,NA,2,legacy,1,1024,2,48000,-16,experiment,3,odd,8,569848,566545,567643,4087,255349,567645,542961,4100,184063,572614,568647,571850,111979,571850,NA,Sternberg task,54,44715,65,yes,1024
81.81818182,81.81818182,687.1666667,687.1666667,black,experiment,legacy,legacy,legacy,0,uniform,0,undefined,0,left,65,65,65,0,0,65,65,0,0,65,65,65,0,65,0,10/27/19 12:12,The main experiment item,yes,Sternbergtask.osexp,C:/Users/Breena Riley/Desktop/2019 Fall/MultQuant/lab 3.1,no,mono,no,18,no,white,no,yes,768,legacy,53,11,C:/Users/Breena Riley/Desktop/2019 Fall/MultQuant/lab 3.1/BR-subject-3.csv,legacy,7 1 8 5 6 2,Kafkaesque Koffka,3.2.8,2,y,0,right,left,right,right,NA,638,107879,71286,638,NA,2,legacy,6,1024,2,48000,-16,experiment,3,odd,1,575919,572623,573714,4087,255349,573716,542961,4100,184063,578558,574718,577920,111979,577920,NA,Sternberg task,54,45353,66,yes,1024
82.08955224,82.08955224,687.9104478,687.9104478,black,experiment,legacy,legacy,legacy,0,uniform,1,undefined,1,left,66,66,66,0,0,66,66,0,0,66,66,66,0,66,0,10/27/19 12:12,The main experiment item,yes,Sternbergtask.osexp,C:/Users/Breena Riley/Desktop/2019 Fall/MultQuant/lab 3.1,no,mono,no,18,no,white,no,yes,768,legacy,54,11,C:/Users/Breena Riley/Desktop/2019 Fall/MultQuant/lab 3.1/BR-subject-3.csv,legacy,8 3,Kafkaesque Koffka,3.2.8,2,y,0,left,left,right,left,NA,737,107879,71286,737,NA,2,legacy,2,1024,2,48000,-16,experiment,3,odd,3,581884,572623,579678,4087,255349,579681,578566,4100,184063,584624,580682,583885,111979,583885,NA,Sternberg task,55,46090,67,yes,1024
80.88235294,80.88235294,687.8823529,687.8823529,black,experiment,legacy,legacy,legacy,0,uniform,0,undefined,0,left,67,67,67,0,0,67,67,0,0,67,67,67,0,67,0,10/27/19 12:12,The main experiment item,yes,Sternbergtask.osexp,C:/Users/Breena Riley/Desktop/2019 Fall/MultQuant/lab 3.1,no,mono,no,18,no,white,no,yes,768,legacy,55,11,C:/Users/Breena Riley/Desktop/2019 Fall/MultQuant/lab 3.1/BR-subject-3.csv,legacy,8 5 4 7 3 1,Kafkaesque Koffka,3.2.8,2,y,0,right,left,right,right,NA,686,107879,71286,686,NA,2,legacy,6,1024,2,48000,-16,experiment,3,odd,5,587937,584632,585731,4087,255349,585733,578566,4100,184063,590624,586735,589938,111979,589938,NA,Sternberg task,55,46776,68,yes,1024
81.15942029,81.15942029,687.2173913,687.2173913,black,experiment,legacy,legacy,legacy,0,uniform,1,undefined,1,right,68,68,68,0,0,68,68,0,0,68,68,68,0,68,0,10/27/19 12:12,The main experiment item,yes,Sternbergtask.osexp,C:/Users/Breena Riley/Desktop/2019 Fall/MultQuant/lab 3.1,no,mono,no,18,no,white,no,yes,768,legacy,56,11,C:/Users/Breena Riley/Desktop/2019 Fall/MultQuant/lab 3.1/BR-subject-3.csv,legacy,6 8,Kafkaesque Koffka,3.2.8,0,n,0,right,left,right,right,NA,642,107879,71286,642,NA,2,legacy,2,1024,2,48000,-16,experiment,3,odd,9,593933,584632,591729,4087,255349,591731,590632,4100,184063,596578,592732,595936,111979,595935,NA,Sternberg task,56,47418,69,yes,1024
81.42857143,81.42857143,684.3857143,684.3857143,black,experiment,legacy,legacy,legacy,0,uniform,1,undefined,1,left,69,69,69,0,0,69,69,0,0,69,69,69,0,69,0,10/27/19 12:12,The main experiment item,yes,Sternbergtask.osexp,C:/Users/Breena Riley/Desktop/2019 Fall/MultQuant/lab 3.1,no,mono,no,18,no,white,no,yes,768,legacy,57,11,C:/Users/Breena Riley/Desktop/2019 Fall/MultQuant/lab 3.1/BR-subject-3.csv,legacy,3 5 4 7,Kafkaesque Koffka,3.2.8,1,y,0,left,left,right,left,NA,489,107879,71286,489,NA,2,legacy,4,1024,2,48000,-16,experiment,3,odd,3,599885,596586,597681,4087,255349,597683,590632,4100,184063,602377,598684,601887,111979,601886,NA,Sternberg task,57,47907,70,yes,1024
81.69014085,81.69014085,682.971831,682.971831,black,experiment,legacy,legacy,legacy,0,uniform,1,undefined,1,left,70,70,70,0,0,70,70,0,0,70,70,70,0,70,0,10/27/19 12:12,The main experiment item,yes,Sternbergtask.osexp,C:/Users/Breena Riley/Desktop/2019 Fall/MultQuant/lab 3.1,no,mono,no,18,no,white,no,yes,768,legacy,58,11,C:/Users/Breena Riley/Desktop/2019 Fall/MultQuant/lab 3.1/BR-subject-3.csv,legacy,4 9 7 8 5 3,Kafkaesque Koffka,3.2.8,4,y,0,left,left,right,left,NA,584,107879,71286,584,NA,2,legacy,6,1024,2,48000,-16,experiment,3,odd,8,605678,602385,603474,4087,255349,603476,590632,4100,184063,608264,604477,607679,111979,607679,NA,Sternberg task,58,48491,71,yes,1024
81.94444444,81.94444444,679.9166667,679.9166667,black,experiment,legacy,legacy,legacy,0,uniform,1,undefined,1,left,71,71,71,0,0,71,71,0,0,71,71,71,0,71,0,10/27/19 12:12,The main experiment item,yes,Sternbergtask.osexp,C:/Users/Breena Riley/Desktop/2019 Fall/MultQuant/lab 3.1,no,mono,no,18,no,white,no,yes,768,legacy,59,11,C:/Users/Breena Riley/Desktop/2019 Fall/MultQuant/lab 3.1/BR-subject-3.csv,legacy,2 4 6 9,Kafkaesque Koffka,3.2.8,3,y,0,left,left,right,left,NA,463,107879,71286,463,NA,2,legacy,4,1024,2,48000,-16,experiment,3,odd,6,611569,608273,609365,4087,255349,609367,590632,4100,184063,614035,610368,613571,111979,613571,NA,Sternberg task,59,48954,72,yes,1024
82.19178082,82.19178082,677.1917808,677.1917808,black,experiment,legacy,legacy,legacy,0,uniform,1,undefined,1,left,72,72,72,0,0,72,72,0,0,72,72,72,0,72,0,10/27/19 12:12,The main experiment item,yes,Sternbergtask.osexp,C:/Users/Breena Riley/Desktop/2019 Fall/MultQuant/lab 3.1,no,mono,no,18,no,white,no,yes,768,legacy,60,11,C:/Users/Breena Riley/Desktop/2019 Fall/MultQuant/lab 3.1/BR-subject-3.csv,legacy,8 7 3,Kafkaesque Koffka,3.2.8,1,y,0,left,left,right,left,NA,481,107879,71286,481,NA,2,legacy,3,1024,2,48000,-16,experiment,3,odd,8,617339,614043,615133,4087,255349,615135,590632,4100,184063,619822,616137,619340,111979,619340,NA,Sternberg task,60,49435,73,yes,1024
82.43243243,82.43243243,679.2972973,679.2972973,black,experiment,legacy,legacy,legacy,0,uniform,1,undefined,1,left,73,73,73,0,0,73,73,0,0,73,73,73,0,73,0,10/27/19 12:12,The main experiment item,yes,Sternbergtask.osexp,C:/Users/Breena Riley/Desktop/2019 Fall/MultQuant/lab 3.1,no,mono,no,18,no,white,no,yes,768,legacy,61,11,C:/Users/Breena Riley/Desktop/2019 Fall/MultQuant/lab 3.1/BR-subject-3.csv,legacy,6 1 2,Kafkaesque Koffka,3.2.8,3,y,0,left,left,right,left,NA,833,107879,71286,833,NA,2,legacy,3,1024,2,48000,-16,experiment,3,odd,2,623132,619830,620928,4087,255349,620929,590632,4100,184063,625966,621930,625133,111979,625133,NA,Sternberg task,61,50268,74,yes,1024
82.66666667,82.66666667,678.3866667,678.3866667,black,experiment,legacy,legacy,legacy,0,uniform,1,undefined,1,right,74,74,74,0,0,74,74,0,0,74,74,74,0,74,0,10/27/19 12:12,The main experiment item,yes,Sternbergtask.osexp,C:/Users/Breena Riley/Desktop/2019 Fall/MultQuant/lab 3.1,no,mono,no,18,no,white,no,yes,768,legacy,62,11,C:/Users/Breena Riley/Desktop/2019 Fall/MultQuant/lab 3.1/BR-subject-3.csv,legacy,1 4 9 2 5,Kafkaesque Koffka,3.2.8,0,n,0,right,left,right,right,NA,611,107879,71286,611,NA,2,legacy,5,1024,2,48000,-16,experiment,3,odd,7,629270,625974,627066,4087,255349,627068,590632,4100,184063,631883,628069,631271,111979,631271,NA,Sternberg task,62,50879,75,yes,1024
82.89473684,82.89473684,678.3026316,678.3026316,black,experiment,legacy,legacy,legacy,0,uniform,1,undefined,1,right,75,75,75,0,0,75,75,0,0,75,75,75,0,75,0,10/27/19 12:12,The main experiment item,yes,Sternbergtask.osexp,C:/Users/Breena Riley/Desktop/2019 Fall/MultQuant/lab 3.1,no,mono,no,18,no,white,no,yes,768,legacy,63,11,C:/Users/Breena Riley/Desktop/2019 Fall/MultQuant/lab 3.1/BR-subject-3.csv,legacy,6 9 4 5 2,Kafkaesque Koffka,3.2.8,0,n,0,right,left,right,right,NA,672,107879,71286,672,NA,2,legacy,5,1024,2,48000,-16,experiment,3,odd,1,635190,631892,632985,4087,255349,632987,590632,4100,184063,637863,633988,637191,111979,637191,NA,Sternberg task,63,51551,76,yes,1024
83.11688312,83.11688312,676.5194805,676.5194805,black,experiment,legacy,legacy,legacy,0,uniform,1,undefined,1,left,76,76,76,0,0,76,76,0,0,76,76,76,0,76,0,10/27/19 12:12,The main experiment item,yes,Sternbergtask.osexp,C:/Users/Breena Riley/Desktop/2019 Fall/MultQuant/lab 3.1,no,mono,no,18,no,white,no,yes,768,legacy,64,11,C:/Users/Breena Riley/Desktop/2019 Fall/MultQuant/lab 3.1/BR-subject-3.csv,legacy,6 7 8 5,Kafkaesque Koffka,3.2.8,3,y,0,left,left,right,left,NA,541,107879,71286,541,NA,2,legacy,4,1024,2,48000,-16,experiment,3,odd,8,641169,637871,638965,4087,255349,638967,590632,4100,184063,643713,639968,643171,111979,643170,NA,Sternberg task,64,52092,77,yes,1024
83.33333333,83.33333333,674.5512821,674.5512821,black,experiment,legacy,legacy,legacy,0,uniform,1,undefined,1,right,77,77,77,0,0,77,77,0,0,77,77,77,0,77,0,10/27/19 12:12,The main experiment item,yes,Sternbergtask.osexp,C:/Users/Breena Riley/Desktop/2019 Fall/MultQuant/lab 3.1,no,mono,no,18,no,white,no,yes,768,legacy,65,11,C:/Users/Breena Riley/Desktop/2019 Fall/MultQuant/lab 3.1/BR-subject-3.csv,legacy,1,Kafkaesque Koffka,3.2.8,0,n,0,right,left,right,right,NA,523,107879,71286,523,NA,2,legacy,1,1024,2,48000,-16,experiment,3,odd,7,647019,643721,644814,4087,255349,644816,590632,4100,184063,649545,645817,649021,111979,649020,NA,Sternberg task,65,52615,78,yes,1024
83.5443038,83.5443038,672.9493671,672.9493671,black,experiment,legacy,legacy,legacy,0,uniform,1,undefined,1,right,78,78,78,0,0,78,78,0,0,78,78,78,0,78,0,10/27/19 12:12,The main experiment item,yes,Sternbergtask.osexp,C:/Users/Breena Riley/Desktop/2019 Fall/MultQuant/lab 3.1,no,mono,no,18,no,white,no,yes,768,legacy,66,11,C:/Users/Breena Riley/Desktop/2019 Fall/MultQuant/lab 3.1/BR-subject-3.csv,legacy,1 6 4,Kafkaesque Koffka,3.2.8,0,n,0,right,left,right,right,NA,548,107879,71286,548,NA,2,legacy,3,1024,2,48000,-16,experiment,3,odd,7,652869,649553,650664,4087,255349,650667,590632,4100,184063,655418,651668,654870,111979,654870,NA,Sternberg task,66,53163,79,yes,1024
82.5,82.5,672.775,672.775,black,experiment,legacy,legacy,legacy,0,uniform,0,undefined,0,right,79,79,79,0,0,79,79,0,0,79,79,79,0,79,0,10/27/19 12:12,The main experiment item,yes,Sternbergtask.osexp,C:/Users/Breena Riley/Desktop/2019 Fall/MultQuant/lab 3.1,no,mono,no,18,no,white,no,yes,768,legacy,67,11,C:/Users/Breena Riley/Desktop/2019 Fall/MultQuant/lab 3.1/BR-subject-3.csv,legacy,6 9 4 5 3 2,Kafkaesque Koffka,3.2.8,0,n,0,left,left,right,left,NA,659,107879,71286,659,NA,2,legacy,6,1024,2,48000,-16,experiment,3,odd,8,658722,655426,656517,4087,255349,656519,590632,4100,184063,661383,657520,660723,111979,660723,NA,Sternberg task,66,53822,80,yes,1024
82.71604938,82.71604938,672.1604938,672.1604938,black,experiment,legacy,legacy,legacy,0,uniform,1,undefined,1,left,80,80,80,0,0,80,80,0,0,80,80,80,0,80,0,10/27/19 12:12,The main experiment item,yes,Sternbergtask.osexp,C:/Users/Breena Riley/Desktop/2019 Fall/MultQuant/lab 3.1,no,mono,no,18,no,white,no,yes,768,legacy,68,11,C:/Users/Breena Riley/Desktop/2019 Fall/MultQuant/lab 3.1/BR-subject-3.csv,legacy,7 8 4 6 9 5,Kafkaesque Koffka,3.2.8,4,y,0,left,left,right,left,NA,623,107879,71286,623,NA,2,legacy,6,1024,2,48000,-16,experiment,3,odd,6,664687,655426,662482,4087,255349,662484,661391,4100,184063,667313,663485,666689,111979,666688,NA,Sternberg task,67,54445,81,yes,1024
82.92682927,82.92682927,673.4634146,673.4634146,black,experiment,legacy,legacy,legacy,0,uniform,1,undefined,1,right,81,81,81,0,0,81,81,0,0,81,81,81,0,81,0,10/27/19 12:12,The main experiment item,yes,Sternbergtask.osexp,C:/Users/Breena Riley/Desktop/2019 Fall/MultQuant/lab 3.1,no,mono,no,18,no,white,no,yes,768,legacy,69,11,C:/Users/Breena Riley/Desktop/2019 Fall/MultQuant/lab 3.1/BR-subject-3.csv,legacy,7 3 2 8,Kafkaesque Koffka,3.2.8,0,n,0,right,left,right,right,NA,779,107879,71286,779,NA,2,legacy,4,1024,2,48000,-16,experiment,3,odd,4,670617,667321,668412,4087,255349,668414,661391,4100,184063,673399,669415,672619,111979,672619,NA,Sternberg task,68,55224,82,yes,1024
83.13253012,83.13253012,672.7951807,672.7951807,black,experiment,legacy,legacy,legacy,0,uniform,1,undefined,1,left,82,82,82,0,0,82,82,0,0,82,82,82,0,82,0,10/27/19 12:12,The main experiment item,yes,Sternbergtask.osexp,C:/Users/Breena Riley/Desktop/2019 Fall/MultQuant/lab 3.1,no,mono,no,18,no,white,no,yes,768,legacy,70,11,C:/Users/Breena Riley/Desktop/2019 Fall/MultQuant/lab 3.1/BR-subject-3.csv,legacy,1 4 9 3 2 5,Kafkaesque Koffka,3.2.8,3,y,0,left,left,right,left,NA,618,107879,71286,618,NA,2,legacy,6,1024,2,48000,-16,experiment,3,odd,9,676701,673407,674497,4087,255349,674498,661391,4100,184063,679322,675500,678703,111979,678702,NA,Sternberg task,69,55842,83,yes,1024
83.33333333,83.33333333,671.3095238,671.3095238,black,experiment,legacy,legacy,legacy,0,uniform,1,undefined,1,right,83,83,83,0,0,83,83,0,0,83,83,83,0,83,0,10/27/19 12:12,The main experiment item,yes,Sternbergtask.osexp,C:/Users/Breena Riley/Desktop/2019 Fall/MultQuant/lab 3.1,no,mono,no,18,no,white,no,yes,768,legacy,71,11,C:/Users/Breena Riley/Desktop/2019 Fall/MultQuant/lab 3.1/BR-subject-3.csv,legacy,2 8 6 3 1,Kafkaesque Koffka,3.2.8,0,n,0,right,left,right,right,NA,548,107879,71286,548,NA,2,legacy,5,1024,2,48000,-16,experiment,3,odd,7,682628,679332,680422,4087,255349,680424,661391,4100,184063,685179,681426,684630,111979,684630,NA,Sternberg task,70,56390,84,yes,1024
82.35294118,82.35294118,672.2117647,672.2117647,black,experiment,legacy,legacy,legacy,0,uniform,0,undefined,0,right,84,84,84,0,0,84,84,0,0,84,84,84,0,84,0,10/27/19 12:12,The main experiment item,yes,Sternbergtask.osexp,C:/Users/Breena Riley/Desktop/2019 Fall/MultQuant/lab 3.1,no,mono,no,18,no,white,no,yes,768,legacy,72,11,C:/Users/Breena Riley/Desktop/2019 Fall/MultQuant/lab 3.1/BR-subject-3.csv,legacy,1 7 5 2,Kafkaesque Koffka,3.2.8,0,n,0,left,left,right,left,NA,748,107879,71286,748,NA,2,legacy,4,1024,2,48000,-16,experiment,3,odd,3,688483,685188,686277,4087,255349,686280,661391,4100,184063,691235,687281,690486,111979,690486,NA,Sternberg task,70,57138,85,yes,1024
82.55813953,82.55813953,671.5232558,671.5232558,black,experiment,legacy,legacy,legacy,0,uniform,1,undefined,1,left,85,85,85,0,0,85,85,0,0,85,85,85,0,85,0,10/27/19 12:12,The main experiment item,yes,Sternbergtask.osexp,C:/Users/Breena Riley/Desktop/2019 Fall/MultQuant/lab 3.1,no,mono,no,18,no,white,no,yes,768,legacy,73,11,C:/Users/Breena Riley/Desktop/2019 Fall/MultQuant/lab 3.1/BR-subject-3.csv,legacy,2 4 8 5 1 3,Kafkaesque Koffka,3.2.8,1,y,0,left,left,right,left,NA,613,107879,71286,613,NA,2,legacy,6,1024,2,48000,-16,experiment,3,odd,2,694539,685188,692334,4087,255349,692336,691243,4100,184063,697153,693338,696540,111979,696540,NA,Sternberg task,71,57751,86,yes,1024
82.75862069,82.75862069,671.0229885,671.0229885,black,experiment,legacy,legacy,legacy,0,uniform,1,undefined,1,left,86,86,86,0,0,86,86,0,0,86,86,86,0,86,0,10/27/19 12:12,The main experiment item,yes,Sternbergtask.osexp,C:/Users/Breena Riley/Desktop/2019 Fall/MultQuant/lab 3.1,no,mono,no,18,no,white,no,yes,768,legacy,74,11,C:/Users/Breena Riley/Desktop/2019 Fall/MultQuant/lab 3.1/BR-subject-3.csv,legacy,9 5 8 1,Kafkaesque Koffka,3.2.8,2,y,0,left,left,right,left,NA,628,107879,71286,628,NA,2,legacy,4,1024,2,48000,-16,experiment,3,odd,5,700458,697161,698253,4087,255349,698255,691243,4100,184063,703088,699257,702459,111979,702459,NA,Sternberg task,72,58379,87,yes,1024
82.95454545,82.95454545,669.1363636,669.1363636,black,experiment,legacy,legacy,legacy,0,uniform,1,undefined,1,left,87,87,87,0,0,87,87,0,0,87,87,87,0,87,0,10/27/19 12:12,The main experiment item,yes,Sternbergtask.osexp,C:/Users/Breena Riley/Desktop/2019 Fall/MultQuant/lab 3.1,no,mono,no,18,no,white,no,yes,768,legacy,75,11,C:/Users/Breena Riley/Desktop/2019 Fall/MultQuant/lab 3.1/BR-subject-3.csv,legacy,7,Kafkaesque Koffka,3.2.8,1,y,0,left,left,right,left,NA,505,107879,71286,505,NA,2,legacy,1,1024,2,48000,-16,experiment,3,odd,7,706392,703096,704187,4087,255349,704189,691243,4100,184063,708899,705191,708393,111979,708393,NA,Sternberg task,73,58884,88,yes,1024
83.14606742,83.14606742,668.4719101,668.4719101,black,experiment,legacy,legacy,legacy,0,uniform,1,undefined,1,left,88,88,88,0,0,88,88,0,0,88,88,88,0,88,0,10/27/19 12:12,The main experiment item,yes,Sternbergtask.osexp,C:/Users/Breena Riley/Desktop/2019 Fall/MultQuant/lab 3.1,no,mono,no,18,no,white,no,yes,768,legacy,76,11,C:/Users/Breena Riley/Desktop/2019 Fall/MultQuant/lab 3.1/BR-subject-3.csv,legacy,3 9 7 6 4,Kafkaesque Koffka,3.2.8,3,y,0,left,left,right,left,NA,610,107879,71286,610,NA,2,legacy,5,1024,2,48000,-16,experiment,3,odd,7,712203,708907,709997,4087,255349,709999,691243,4100,184063,714816,711000,714205,111979,714205,NA,Sternberg task,74,59494,89,yes,1024
83.33333333,83.33333333,667.9333333,667.9333333,black,experiment,legacy,legacy,legacy,0,uniform,1,undefined,1,left,89,89,89,0,0,89,89,0,0,89,89,89,0,89,0,10/27/19 12:12,The main experiment item,yes,Sternbergtask.osexp,C:/Users/Breena Riley/Desktop/2019 Fall/MultQuant/lab 3.1,no,mono,no,18,no,white,no,yes,768,legacy,77,11,C:/Users/Breena Riley/Desktop/2019 Fall/MultQuant/lab 3.1/BR-subject-3.csv,legacy,6 5,Kafkaesque Koffka,3.2.8,2,y,0,left,left,right,left,NA,620,107879,71286,620,NA,2,legacy,2,1024,2,48000,-16,experiment,3,odd,5,718117,714823,715912,4087,255349,715915,691243,4100,184063,720739,716916,720118,111979,720118,NA,Sternberg task,75,60114,90,yes,1024
83.51648352,83.51648352,666.6153846,666.6153846,black,experiment,legacy,legacy,legacy,0,uniform,1,undefined,1,right,90,90,90,0,0,90,90,0,0,90,90,90,0,90,0,10/27/19 12:12,The main experiment item,yes,Sternbergtask.osexp,C:/Users/Breena Riley/Desktop/2019 Fall/MultQuant/lab 3.1,no,mono,no,18,no,white,no,yes,768,legacy,78,11,C:/Users/Breena Riley/Desktop/2019 Fall/MultQuant/lab 3.1/BR-subject-3.csv,legacy,6 9 5,Kafkaesque Koffka,3.2.8,0,n,0,right,left,right,right,NA,548,107879,71286,548,NA,2,legacy,3,1024,2,48000,-16,experiment,3,odd,8,724040,720747,721836,4087,255349,721838,691243,4100,184063,726590,722839,726041,111979,726041,NA,Sternberg task,76,60662,91,yes,1024
82.60869565,82.60869565,668.0869565,668.0869565,black,experiment,legacy,legacy,legacy,0,uniform,0,undefined,0,right,91,91,91,0,0,91,91,0,0,91,91,91,0,91,0,10/27/19 12:12,The main experiment item,yes,Sternbergtask.osexp,C:/Users/Breena Riley/Desktop/2019 Fall/MultQuant/lab 3.1,no,mono,no,18,no,white,no,yes,768,legacy,79,11,C:/Users/Breena Riley/Desktop/2019 Fall/MultQuant/lab 3.1/BR-subject-3.csv,legacy,7 9 1 6,Kafkaesque Koffka,3.2.8,0,n,0,left,left,right,left,NA,802,107879,71286,802,NA,2,legacy,4,1024,2,48000,-16,experiment,3,odd,4,729900,726597,727694,4087,255349,727696,691243,4100,184063,732704,728698,731901,111979,731901,NA,Sternberg task,76,61464,92,yes,1024
82.79569892,82.79569892,667.2903226,667.2903226,black,experiment,legacy,legacy,legacy,0,uniform,1,undefined,1,left,92,92,92,0,0,92,92,0,0,92,92,92,0,92,0,10/27/19 12:12,The main experiment item,yes,Sternbergtask.osexp,C:/Users/Breena Riley/Desktop/2019 Fall/MultQuant/lab 3.1,no,mono,no,18,no,white,no,yes,768,legacy,80,11,C:/Users/Breena Riley/Desktop/2019 Fall/MultQuant/lab 3.1/BR-subject-3.csv,legacy,2 3 7 4,Kafkaesque Koffka,3.2.8,1,y,0,left,left,right,left,NA,594,107879,71286,594,NA,2,legacy,4,1024,2,48000,-16,experiment,3,odd,2,736007,726597,733802,4087,255349,733804,732712,4100,184063,738603,734806,738008,111979,738008,NA,Sternberg task,77,62058,93,yes,1024
82.9787234,82.9787234,667.6702128,667.6702128,black,experiment,legacy,legacy,legacy,0,uniform,1,undefined,1,left,93,93,93,0,0,93,93,0,0,93,93,93,0,93,0,10/27/19 12:12,The main experiment item,yes,Sternbergtask.osexp,C:/Users/Breena Riley/Desktop/2019 Fall/MultQuant/lab 3.1,no,mono,no,18,no,white,no,yes,768,legacy,81,11,C:/Users/Breena Riley/Desktop/2019 Fall/MultQuant/lab 3.1/BR-subject-3.csv,legacy,4 7 6 8 2 3,Kafkaesque Koffka,3.2.8,6,y,0,left,left,right,left,NA,703,107879,71286,703,NA,2,legacy,6,1024,2,48000,-16,experiment,3,odd,3,741918,738611,739712,4087,255349,739714,732712,4100,184063,744623,740716,743919,111979,743919,NA,Sternberg task,78,62761,94,yes,1024
83.15789474,83.15789474,666.8526316,666.8526316,black,experiment,legacy,legacy,legacy,0,uniform,1,undefined,1,right,94,94,94,0,0,94,94,0,0,94,94,94,0,94,0,10/27/19 12:12,The main experiment item,yes,Sternbergtask.osexp,C:/Users/Breena Riley/Desktop/2019 Fall/MultQuant/lab 3.1,no,mono,no,18,no,white,no,yes,768,legacy,82,11,C:/Users/Breena Riley/Desktop/2019 Fall/MultQuant/lab 3.1/BR-subject-3.csv,legacy,7 1 5 6 3,Kafkaesque Koffka,3.2.8,0,n,0,right,left,right,right,NA,590,107879,71286,590,NA,2,legacy,5,1024,2,48000,-16,experiment,3,odd,8,747937,744631,745732,4087,255349,745734,732712,4100,184063,750530,746736,749939,111979,749938,NA,Sternberg task,79,63351,95,yes,1024
82.29166667,82.29166667,666.59375,666.59375,black,experiment,legacy,legacy,legacy,0,uniform,0,undefined,0,right,95,95,95,0,0,95,95,0,0,95,95,95,0,95,0,10/27/19 12:12,The main experiment item,yes,Sternbergtask.osexp,C:/Users/Breena Riley/Desktop/2019 Fall/MultQuant/lab 3.1,no,mono,no,18,no,white,no,yes,768,legacy,83,11,C:/Users/Breena Riley/Desktop/2019 Fall/MultQuant/lab 3.1/BR-subject-3.csv,legacy,2 8 7 9 5 3,Kafkaesque Koffka,3.2.8,0,n,0,left,left,right,left,NA,642,107879,71286,642,NA,2,legacy,6,1024,2,48000,-16,experiment,3,odd,6,753835,750538,751629,4087,255349,751631,732712,4100,184063,756480,752633,755837,111979,755835,NA,Sternberg task,79,63993,96,yes,1024
82.4742268,82.4742268,667.4123711,667.4123711,black,experiment,legacy,legacy,legacy,0,uniform,1,undefined,1,left,96,96,96,0,0,96,96,0,0,96,96,96,0,96,0,10/27/19 12:12,The main experiment item,yes,Sternbergtask.osexp,C:/Users/Breena Riley/Desktop/2019 Fall/MultQuant/lab 3.1,no,mono,no,18,no,white,no,yes,768,legacy,84,11,C:/Users/Breena Riley/Desktop/2019 Fall/MultQuant/lab 3.1/BR-subject-3.csv,legacy,2 5 4 8 7,Kafkaesque Koffka,3.2.8,3,y,0,left,left,right,left,NA,746,107879,71286,746,NA,2,legacy,5,1024,2,48000,-16,experiment,3,odd,4,759787,750538,757582,4087,255349,757584,756488,4100,184063,762536,758585,761789,111979,761789,NA,Sternberg task,80,64739,97,yes,1024
82.65306122,82.65306122,666.1938776,666.1938776,black,experiment,legacy,legacy,legacy,0,uniform,1,undefined,1,left,97,97,97,0,0,97,97,0,0,97,97,97,0,97,0,10/27/19 12:12,The main experiment item,yes,Sternbergtask.osexp,C:/Users/Breena Riley/Desktop/2019 Fall/MultQuant/lab 3.1,no,mono,no,18,no,white,no,yes,768,legacy,85,11,C:/Users/Breena Riley/Desktop/2019 Fall/MultQuant/lab 3.1/BR-subject-3.csv,legacy,9 8 4,Kafkaesque Koffka,3.2.8,1,y,0,left,left,right,left,NA,548,107879,71286,548,NA,2,legacy,3,1024,2,48000,-16,experiment,3,odd,9,765856,762544,763650,4087,255349,763653,756488,4100,184063,768405,764655,767857,111979,767857,NA,Sternberg task,81,65287,98,yes,1024
82.82828283,82.82828283,668.7979798,668.7979798,black,experiment,legacy,legacy,legacy,0,uniform,1,undefined,1,right,98,98,98,0,0,98,98,0,0,98,98,98,0,98,0,10/27/19 12:12,The main experiment item,yes,Sternbergtask.osexp,C:/Users/Breena Riley/Desktop/2019 Fall/MultQuant/lab 3.1,no,mono,no,18,no,white,no,yes,768,legacy,86,11,C:/Users/Breena Riley/Desktop/2019 Fall/MultQuant/lab 3.1/BR-subject-3.csv,legacy,7 8 6 1,Kafkaesque Koffka,3.2.8,0,n,0,right,left,right,right,NA,924,107879,71286,924,NA,2,legacy,4,1024,2,48000,-16,experiment,3,odd,3,771713,768414,769508,4087,255349,769510,756488,4100,184063,774640,770512,773714,111979,773714,NA,Sternberg task,82,66211,99,yes,1024
83,83,666.74,666.74,black,experiment,legacy,legacy,legacy,0,uniform,1,undefined,1,left,99,99,99,0,0,99,99,0,0,99,99,99,0,99,0,10/27/19 12:12,The main experiment item,yes,Sternbergtask.osexp,C:/Users/Breena Riley/Desktop/2019 Fall/MultQuant/lab 3.1,no,mono,no,18,no,white,no,yes,768,legacy,87,11,C:/Users/Breena Riley/Desktop/2019 Fall/MultQuant/lab 3.1/BR-subject-3.csv,legacy,6 2,Kafkaesque Koffka,3.2.8,1,y,0,left,left,right,left,NA,463,107879,71286,463,NA,2,legacy,2,1024,2,48000,-16,experiment,3,odd,6,777948,774650,775743,4087,255349,775746,756488,4100,184063,780413,776747,779949,111979,779949,NA,Sternberg task,83,66674,100,yes,1024
83.16831683,83.16831683,665.6435644,665.6435644,black,experiment,legacy,legacy,legacy,0,uniform,1,undefined,1,right,100,100,100,0,0,100,100,0,0,100,100,100,0,100,0,10/27/19 12:12,The main experiment item,yes,Sternbergtask.osexp,C:/Users/Breena Riley/Desktop/2019 Fall/MultQuant/lab 3.1,no,mono,no,18,no,white,no,yes,768,legacy,88,11,C:/Users/Breena Riley/Desktop/2019 Fall/MultQuant/lab 3.1/BR-subject-3.csv,legacy,3 9 8 1 6 4,Kafkaesque Koffka,3.2.8,0,n,0,right,left,right,right,NA,556,107879,71286,556,NA,2,legacy,6,1024,2,48000,-16,experiment,3,odd,7,783717,780421,781512,4087,255349,781514,756488,4100,184063,786276,782515,785718,111979,785718,NA,Sternberg task,84,67230,101,yes,1024
82.35294118,82.35294118,666.1470588,666.1470588,black,experiment,legacy,legacy,legacy,0,uniform,0,undefined,0,right,101,101,101,0,0,101,101,0,0,101,101,101,0,101,0,10/27/19 12:12,The main experiment item,yes,Sternbergtask.osexp,C:/Users/Breena Riley/Desktop/2019 Fall/MultQuant/lab 3.1,no,mono,no,18,no,white,no,yes,768,legacy,89,11,C:/Users/Breena Riley/Desktop/2019 Fall/MultQuant/lab 3.1/BR-subject-3.csv,legacy,7 1 8 4 9 3,Kafkaesque Koffka,3.2.8,0,n,0,left,left,right,left,NA,717,107879,71286,717,NA,2,legacy,6,1024,2,48000,-16,experiment,3,odd,6,789579,786283,787374,4087,255349,787377,756488,4100,184063,792298,788378,791580,111979,791580,NA,Sternberg task,84,67947,102,yes,1024
82.52427184,82.52427184,665.1747573,665.1747573,black,experiment,legacy,legacy,legacy,0,uniform,1,undefined,1,left,102,102,102,0,0,102,102,0,0,102,102,102,0,102,0,10/27/19 12:12,The main experiment item,yes,Sternbergtask.osexp,C:/Users/Breena Riley/Desktop/2019 Fall/MultQuant/lab 3.1,no,mono,no,18,no,white,no,yes,768,legacy,90,11,C:/Users/Breena Riley/Desktop/2019 Fall/MultQuant/lab 3.1/BR-subject-3.csv,legacy,8 5 1 3 9,Kafkaesque Koffka,3.2.8,4,y,0,left,left,right,left,NA,566,107879,71286,566,NA,2,legacy,5,1024,2,48000,-16,experiment,3,odd,3,795600,786283,793396,4087,255349,793398,792306,4100,184063,798168,794399,797601,111979,797601,NA,Sternberg task,85,68513,103,yes,1024
82.69230769,82.69230769,663.8365385,663.8365385,black,experiment,legacy,legacy,legacy,0,uniform,1,undefined,1,right,103,103,103,0,0,103,103,0,0,103,103,103,0,103,0,10/27/19 12:12,The main experiment item,yes,Sternbergtask.osexp,C:/Users/Breena Riley/Desktop/2019 Fall/MultQuant/lab 3.1,no,mono,no,18,no,white,no,yes,768,legacy,91,11,C:/Users/Breena Riley/Desktop/2019 Fall/MultQuant/lab 3.1/BR-subject-3.csv,legacy,7 9,Kafkaesque Koffka,3.2.8,0,n,0,right,left,right,right,NA,526,107879,71286,526,NA,2,legacy,2,1024,2,48000,-16,experiment,3,odd,1,801477,798176,799271,4087,255349,799273,792306,4100,184063,804007,800275,803479,111979,803479,NA,Sternberg task,86,69039,104,yes,1024
82.85714286,82.85714286,664.2666667,664.2666667,black,experiment,legacy,legacy,legacy,0,uniform,1,undefined,1,right,104,104,104,0,0,104,104,0,0,104,104,104,0,104,0,10/27/19 12:12,The main experiment item,yes,Sternbergtask.osexp,C:/Users/Breena Riley/Desktop/2019 Fall/MultQuant/lab 3.1,no,mono,no,18,no,white,no,yes,768,legacy,92,11,C:/Users/Breena Riley/Desktop/2019 Fall/MultQuant/lab 3.1/BR-subject-3.csv,legacy,7 4 2 8 1 9,Kafkaesque Koffka,3.2.8,0,n,0,right,left,right,right,NA,709,107879,71286,709,NA,2,legacy,6,1024,2,48000,-16,experiment,3,odd,5,807309,804014,805105,4087,255349,805107,792306,4100,184063,810021,806108,809311,111979,809311,NA,Sternberg task,87,69748,105,yes,1024
83.01886792,83.01886792,664.1226415,664.1226415,black,experiment,legacy,legacy,legacy,0,uniform,1,undefined,1,left,105,105,105,0,0,105,105,0,0,105,105,105,0,105,0,10/27/19 12:12,The main experiment item,yes,Sternbergtask.osexp,C:/Users/Breena Riley/Desktop/2019 Fall/MultQuant/lab 3.1,no,mono,no,18,no,white,no,yes,768,legacy,93,11,C:/Users/Breena Riley/Desktop/2019 Fall/MultQuant/lab 3.1/BR-subject-3.csv,legacy,7 2 3,Kafkaesque Koffka,3.2.8,3,y,0,left,left,right,left,NA,649,107879,71286,649,NA,2,legacy,3,1024,2,48000,-16,experiment,3,odd,3,813322,810028,811117,4087,255349,811120,792306,4100,184063,815972,812121,815323,111979,815323,NA,Sternberg task,88,70397,106,yes,1024
83.17757009,83.17757009,663.5794393,663.5794393,black,experiment,legacy,legacy,legacy,0,uniform,1,undefined,1,right,106,106,106,0,0,106,106,0,0,106,106,106,0,106,0,10/27/19 12:12,The main experiment item,yes,Sternbergtask.osexp,C:/Users/Breena Riley/Desktop/2019 Fall/MultQuant/lab 3.1,no,mono,no,18,no,white,no,yes,768,legacy,94,11,C:/Users/Breena Riley/Desktop/2019 Fall/MultQuant/lab 3.1/BR-subject-3.csv,legacy,5,Kafkaesque Koffka,3.2.8,0,n,0,right,left,right,right,NA,606,107879,71286,606,NA,2,legacy,1,1024,2,48000,-16,experiment,3,odd,8,819281,815981,817075,4087,255349,817077,792306,4100,184063,821890,818078,821283,111979,821283,NA,Sternberg task,89,71003,107,yes,1024
83.33333333,83.33333333,662.5277778,662.5277778,black,experiment,legacy,legacy,legacy,0,uniform,1,undefined,1,left,107,107,107,0,0,107,107,0,0,107,107,107,0,107,0,10/27/19 12:12,The main experiment item,yes,Sternbergtask.osexp,C:/Users/Breena Riley/Desktop/2019 Fall/MultQuant/lab 3.1,no,mono,no,18,no,white,no,yes,768,legacy,95,11,C:/Users/Breena Riley/Desktop/2019 Fall/MultQuant/lab 3.1/BR-subject-3.csv,legacy,9 6 2 4 1,Kafkaesque Koffka,3.2.8,4,y,0,left,left,right,left,NA,550,107879,71286,550,NA,2,legacy,5,1024,2,48000,-16,experiment,3,odd,4,825193,821898,822989,4087,255349,822991,792306,4100,184063,827748,823992,827195,111979,827194,NA,Sternberg task,90,71553,108,yes,1024
83.48623853,83.48623853,662.2201835,662.2201835,black,experiment,legacy,legacy,legacy,0,uniform,1,undefined,1,left,108,108,108,0,0,108,108,0,0,108,108,108,0,108,0,10/27/19 12:12,The main experiment item,yes,Sternbergtask.osexp,C:/Users/Breena Riley/Desktop/2019 Fall/MultQuant/lab 3.1,no,mono,no,18,no,white,no,yes,768,legacy,96,11,C:/Users/Breena Riley/Desktop/2019 Fall/MultQuant/lab 3.1/BR-subject-3.csv,legacy,2 8 5 1,Kafkaesque Koffka,3.2.8,4,y,0,left,left,right,left,NA,629,107879,71286,629,NA,2,legacy,4,1024,2,48000,-16,experiment,3,odd,1,831056,827757,828850,4087,255349,828852,792306,4100,184063,833689,829854,833057,111979,833057,NA,Sternberg task,91,72182,109,yes,1024
83.63636364,83.63636364,661.8,661.8,black,experiment,legacy,legacy,legacy,0,uniform,1,undefined,1,left,109,109,109,0,0,109,109,0,0,109,109,109,0,109,0,10/27/19 12:12,The main experiment item,yes,Sternbergtask.osexp,C:/Users/Breena Riley/Desktop/2019 Fall/MultQuant/lab 3.1,no,mono,no,18,no,white,no,yes,768,legacy,97,11,C:/Users/Breena Riley/Desktop/2019 Fall/MultQuant/lab 3.1/BR-subject-3.csv,legacy,4 1 5,Kafkaesque Koffka,3.2.8,2,y,0,left,left,right,left,NA,616,107879,71286,616,NA,2,legacy,3,1024,2,48000,-16,experiment,3,odd,1,836995,833699,834789,4087,255349,834791,792306,4100,184063,839614,835792,838997,111979,838997,NA,Sternberg task,92,72798,110,yes,1024
83.78378378,83.78378378,661.8378378,661.8378378,black,experiment,legacy,legacy,legacy,0,uniform,1,undefined,1,left,110,110,110,0,0,110,110,0,0,110,110,110,0,110,0,10/27/19 12:12,The main experiment item,yes,Sternbergtask.osexp,C:/Users/Breena Riley/Desktop/2019 Fall/MultQuant/lab 3.1,no,mono,no,18,no,white,no,yes,768,legacy,98,11,C:/Users/Breena Riley/Desktop/2019 Fall/MultQuant/lab 3.1/BR-subject-3.csv,legacy,8 9 6 1,Kafkaesque Koffka,3.2.8,2,y,0,left,left,right,left,NA,666,107879,71286,666,NA,2,legacy,4,1024,2,48000,-16,experiment,3,odd,9,842931,839622,840727,4087,255349,840729,792306,4100,184063,845600,841730,844932,111979,844932,NA,Sternberg task,93,73464,111,yes,1024
83.92857143,83.92857143,661.8214286,661.8214286,black,experiment,legacy,legacy,legacy,0,uniform,1,undefined,1,right,111,111,111,0,0,111,111,0,0,111,111,111,0,111,0,10/27/19 12:12,The main experiment item,yes,Sternbergtask.osexp,C:/Users/Breena Riley/Desktop/2019 Fall/MultQuant/lab 3.1,no,mono,no,18,no,white,no,yes,768,legacy,99,11,C:/Users/Breena Riley/Desktop/2019 Fall/MultQuant/lab 3.1/BR-subject-3.csv,legacy,6 8 4,Kafkaesque Koffka,3.2.8,0,n,0,right,left,right,right,NA,660,107879,71286,660,NA,2,legacy,3,1024,2,48000,-16,experiment,3,odd,1,848909,845604,846703,4087,255349,846706,792306,4100,184063,851571,847707,850910,111979,850910,NA,Sternberg task,94,74124,112,yes,1024
84.07079646,84.07079646,661.920354,661.920354,black,experiment,legacy,legacy,legacy,0,uniform,1,undefined,1,right,112,112,112,0,0,112,112,0,0,112,112,112,0,112,0,10/27/19 12:12,The main experiment item,yes,Sternbergtask.osexp,C:/Users/Breena Riley/Desktop/2019 Fall/MultQuant/lab 3.1,no,mono,no,18,no,white,no,yes,768,legacy,100,11,C:/Users/Breena Riley/Desktop/2019 Fall/MultQuant/lab 3.1/BR-subject-3.csv,legacy,1 3 2 6 9,Kafkaesque Koffka,3.2.8,0,n,0,right,left,right,right,NA,673,107879,71286,673,NA,2,legacy,5,1024,2,48000,-16,experiment,3,odd,5,854891,851579,852685,4087,255349,852687,792306,4100,184063,857566,853688,856892,111979,856892,NA,Sternberg task,95,74797,113,yes,1024
84.21052632,84.21052632,663.8421053,663.8421053,black,experiment,legacy,legacy,legacy,0,uniform,1,undefined,1,right,113,113,113,0,0,113,113,0,0,113,113,113,0,113,0,10/27/19 12:12,The main experiment item,yes,Sternbergtask.osexp,C:/Users/Breena Riley/Desktop/2019 Fall/MultQuant/lab 3.1,no,mono,no,18,no,white,no,yes,768,legacy,101,11,C:/Users/Breena Riley/Desktop/2019 Fall/MultQuant/lab 3.1/BR-subject-3.csv,legacy,8 4 3 5,Kafkaesque Koffka,3.2.8,0,n,0,right,left,right,right,NA,881,107879,71286,881,NA,2,legacy,4,1024,2,48000,-16,experiment,3,odd,6,860875,857574,858670,4087,255349,858672,792306,4100,184063,863759,859673,862877,111979,862876,NA,Sternberg task,96,75678,114,yes,1024
84.34782609,84.34782609,662.5652174,662.5652174,black,experiment,legacy,legacy,legacy,0,uniform,1,undefined,1,right,114,114,114,0,0,114,114,0,0,114,114,114,0,114,0,10/27/19 12:12,The main experiment item,yes,Sternbergtask.osexp,C:/Users/Breena Riley/Desktop/2019 Fall/MultQuant/lab 3.1,no,mono,no,18,no,white,no,yes,768,legacy,102,11,C:/Users/Breena Riley/Desktop/2019 Fall/MultQuant/lab 3.1/BR-subject-3.csv,legacy,1 4 3 6 5,Kafkaesque Koffka,3.2.8,0,n,0,right,left,right,right,NA,517,107879,71286,517,NA,2,legacy,5,1024,2,48000,-16,experiment,3,odd,8,867066,863767,864859,4087,255349,864861,792306,4100,184063,869586,865864,869067,111979,869067,NA,Sternberg task,97,76195,115,yes,1024
84.48275862,84.48275862,662.9310345,662.9310345,black,experiment,legacy,legacy,legacy,0,uniform,1,undefined,1,right,115,115,115,0,0,115,115,0,0,115,115,115,0,115,0,10/27/19 12:12,The main experiment item,yes,Sternbergtask.osexp,C:/Users/Breena Riley/Desktop/2019 Fall/MultQuant/lab 3.1,no,mono,no,18,no,white,no,yes,768,legacy,103,11,C:/Users/Breena Riley/Desktop/2019 Fall/MultQuant/lab 3.1/BR-subject-3.csv,legacy,3 4 2,Kafkaesque Koffka,3.2.8,0,n,0,right,left,right,right,NA,705,107879,71286,705,NA,2,legacy,3,1024,2,48000,-16,experiment,3,odd,5,872899,869593,870694,4087,255349,870696,792306,4100,184063,875606,871697,874900,111979,874900,NA,Sternberg task,98,76900,116,yes,1024
84.61538462,84.61538462,662.5811966,662.5811966,black,experiment,legacy,legacy,legacy,0,uniform,1,undefined,1,left,116,116,116,0,0,116,116,0,0,116,116,116,0,116,0,10/27/19 12:12,The main experiment item,yes,Sternbergtask.osexp,C:/Users/Breena Riley/Desktop/2019 Fall/MultQuant/lab 3.1,no,mono,no,18,no,white,no,yes,768,legacy,104,11,C:/Users/Breena Riley/Desktop/2019 Fall/MultQuant/lab 3.1/BR-subject-3.csv,legacy,4 6 2 5 1,Kafkaesque Koffka,3.2.8,5,y,0,left,left,right,left,NA,622,107879,71286,622,NA,2,legacy,5,1024,2,48000,-16,experiment,3,odd,1,878924,875615,876719,4087,255349,876721,792306,4100,184063,881549,877722,880925,111979,880925,NA,Sternberg task,99,77522,117,yes,1024
84.74576271,84.74576271,661.8644068,661.8644068,black,experiment,legacy,legacy,legacy,0,uniform,1,undefined,1,left,117,117,117,0,0,117,117,0,0,117,117,117,0,117,0,10/27/19 12:12,The main experiment item,yes,Sternbergtask.osexp,C:/Users/Breena Riley/Desktop/2019 Fall/MultQuant/lab 3.1,no,mono,no,18,no,white,no,yes,768,legacy,105,11,C:/Users/Breena Riley/Desktop/2019 Fall/MultQuant/lab 3.1/BR-subject-3.csv,legacy,6 7 9 3 1 2,Kafkaesque Koffka,3.2.8,1,y,0,left,left,right,left,NA,578,107879,71286,578,NA,2,legacy,6,1024,2,48000,-16,experiment,3,odd,6,884865,881557,882661,4087,255349,882663,792306,4100,184063,887445,883664,886867,111979,886867,NA,Sternberg task,100,78100,118,yes,1024
84.87394958,84.87394958,660.6554622,660.6554622,black,experiment,legacy,legacy,legacy,0,uniform,1,undefined,1,right,118,118,118,0,0,118,118,0,0,118,118,118,0,118,0,10/27/19 12:12,The main experiment item,yes,Sternbergtask.osexp,C:/Users/Breena Riley/Desktop/2019 Fall/MultQuant/lab 3.1,no,mono,no,18,no,white,no,yes,768,legacy,106,11,C:/Users/Breena Riley/Desktop/2019 Fall/MultQuant/lab 3.1/BR-subject-3.csv,legacy,4 8 1 2,Kafkaesque Koffka,3.2.8,0,n,0,right,left,right,right,NA,518,107879,71286,518,NA,2,legacy,4,1024,2,48000,-16,experiment,3,odd,7,890748,887453,888543,4087,255349,888545,792306,4100,184063,893269,889546,892749,111979,892749,NA,Sternberg task,101,78618,119,yes,1024
85,85,659.9166667,659.9166667,black,experiment,legacy,legacy,legacy,0,uniform,1,undefined,1,left,119,119,119,0,0,119,119,0,0,119,119,119,0,119,0,10/27/19 12:12,The main experiment item,yes,Sternbergtask.osexp,C:/Users/Breena Riley/Desktop/2019 Fall/MultQuant/lab 3.1,no,mono,no,18,no,white,no,yes,768,legacy,107,11,C:/Users/Breena Riley/Desktop/2019 Fall/MultQuant/lab 3.1/BR-subject-3.csv,legacy,6 9 3 1,Kafkaesque Koffka,3.2.8,4,y,0,left,left,right,left,NA,572,107879,71286,572,NA,2,legacy,4,1024,2,48000,-16,experiment,3,odd,1,896573,893277,894368,4087,255349,894370,792306,4100,184063,899149,895371,898575,111979,898574,NA,Sternberg task,102,79190,120,yes,1024
84.29752066,84.29752066,660.1322314,660.1322314,black,experiment,legacy,legacy,legacy,0,uniform,0,undefined,0,left,120,120,120,0,0,120,120,0,0,120,120,120,0,120,0,10/27/19 12:12,The main experiment item,yes,Sternbergtask.osexp,C:/Users/Breena Riley/Desktop/2019 Fall/MultQuant/lab 3.1,no,mono,no,18,no,white,no,yes,768,legacy,108,11,C:/Users/Breena Riley/Desktop/2019 Fall/MultQuant/lab 3.1/BR-subject-3.csv,legacy,5 7 8 2 3 8,Kafkaesque Koffka,3.2.8,5,y,0,right,left,right,right,NA,686,107879,71286,686,NA,2,legacy,6,1024,2,48000,-16,experiment,3,odd,3,902452,899157,900247,4087,255349,900249,792306,4100,184063,905142,901250,904454,111979,904453,NA,Sternberg task,102,79876,121,yes,1024
84.42622951,84.42622951,660.7295082,660.7295082,black,experiment,legacy,legacy,legacy,0,uniform,1,undefined,1,right,121,121,121,0,0,121,121,0,0,121,121,121,0,121,0,10/27/19 12:12,The main experiment item,yes,Sternbergtask.osexp,C:/Users/Breena Riley/Desktop/2019 Fall/MultQuant/lab 3.1,no,mono,no,18,no,white,no,yes,768,legacy,109,11,C:/Users/Breena Riley/Desktop/2019 Fall/MultQuant/lab 3.1/BR-subject-3.csv,legacy,9 8 2 7 4,Kafkaesque Koffka,3.2.8,0,n,0,right,left,right,right,NA,733,107879,71286,733,NA,2,legacy,5,1024,2,48000,-16,experiment,3,odd,5,908443,899157,906239,4087,255349,906241,905150,4100,184063,911179,907242,910445,111979,910445,NA,Sternberg task,103,80609,122,yes,1024
84.55284553,84.55284553,660.902439,660.902439,black,experiment,legacy,legacy,legacy,0,uniform,1,undefined,1,left,122,122,122,0,0,122,122,0,0,122,122,122,0,122,0,10/27/19 12:12,The main experiment item,yes,Sternbergtask.osexp,C:/Users/Breena Riley/Desktop/2019 Fall/MultQuant/lab 3.1,no,mono,no,18,no,white,no,yes,768,legacy,110,11,C:/Users/Breena Riley/Desktop/2019 Fall/MultQuant/lab 3.1/BR-subject-3.csv,legacy,4 1 8 7 5,Kafkaesque Koffka,3.2.8,3,y,0,left,left,right,left,NA,682,107879,71286,682,NA,2,legacy,5,1024,2,48000,-16,experiment,3,odd,8,914482,911187,912277,4087,255349,912279,905150,4100,184063,917166,913280,916483,111979,916483,NA,Sternberg task,104,81291,123,yes,1024
84.67741935,84.67741935,659.9032258,659.9032258,black,experiment,legacy,legacy,legacy,0,uniform,1,undefined,1,right,123,123,123,0,0,123,123,0,0,123,123,123,0,123,0,10/27/19 12:12,The main experiment item,yes,Sternbergtask.osexp,C:/Users/Breena Riley/Desktop/2019 Fall/MultQuant/lab 3.1,no,mono,no,18,no,white,no,yes,768,legacy,111,11,C:/Users/Breena Riley/Desktop/2019 Fall/MultQuant/lab 3.1/BR-subject-3.csv,legacy,2 6 4 3 9,Kafkaesque Koffka,3.2.8,0,n,0,right,left,right,right,NA,537,107879,71286,537,NA,2,legacy,5,1024,2,48000,-16,experiment,3,odd,1,920470,917174,918265,4087,255349,918267,905150,4100,184063,923009,919268,922471,111979,922471,NA,Sternberg task,105,81828,124,yes,1024
84.8,84.8,659.296,659.296,black,experiment,legacy,legacy,legacy,0,uniform,1,undefined,1,left,124,124,124,0,0,124,124,0,0,124,124,124,0,124,0,10/27/19 12:12,The main experiment item,yes,Sternbergtask.osexp,C:/Users/Breena Riley/Desktop/2019 Fall/MultQuant/lab 3.1,no,mono,no,18,no,white,no,yes,768,legacy,112,11,C:/Users/Breena Riley/Desktop/2019 Fall/MultQuant/lab 3.1/BR-subject-3.csv,legacy,9 4 2,Kafkaesque Koffka,3.2.8,1,y,0,left,left,right,left,NA,584,107879,71286,584,NA,2,legacy,3,1024,2,48000,-16,experiment,3,odd,9,926311,923017,924107,4087,255349,924109,905150,4100,184063,928898,925110,928313,111979,928313,NA,Sternberg task,106,82412,125,yes,1024
84.92063492,84.92063492,658.6825397,658.6825397,black,experiment,legacy,legacy,legacy,0,uniform,1,undefined,1,left,125,125,125,0,0,125,125,0,0,125,125,125,0,125,0,10/27/19 12:12,The main experiment item,yes,Sternbergtask.osexp,C:/Users/Breena Riley/Desktop/2019 Fall/MultQuant/lab 3.1,no,mono,no,18,no,white,no,yes,768,legacy,113,11,C:/Users/Breena Riley/Desktop/2019 Fall/MultQuant/lab 3.1/BR-subject-3.csv,legacy,3 5 7 1,Kafkaesque Koffka,3.2.8,3,y,0,left,left,right,left,NA,582,107879,71286,582,NA,2,legacy,4,1024,2,48000,-16,experiment,3,odd,7,932201,928905,929996,4087,255349,929998,905150,4100,184063,934787,930999,934203,111979,934202,NA,Sternberg task,107,82994,126,yes,1024
85.03937008,85.03937008,657.496063,657.496063,black,experiment,legacy,legacy,legacy,0,uniform,1,undefined,1,left,126,126,126,0,0,126,126,0,0,126,126,126,0,126,0,10/27/19 12:12,The main experiment item,yes,Sternbergtask.osexp,C:/Users/Breena Riley/Desktop/2019 Fall/MultQuant/lab 3.1,no,mono,no,18,no,white,no,yes,768,legacy,114,11,C:/Users/Breena Riley/Desktop/2019 Fall/MultQuant/lab 3.1/BR-subject-3.csv,legacy,7 1 3,Kafkaesque Koffka,3.2.8,2,y,0,left,left,right,left,NA,508,107879,71286,508,NA,2,legacy,3,1024,2,48000,-16,experiment,3,odd,1,938090,934795,935887,4087,255349,935888,905150,4100,184063,940601,936889,940092,111979,940092,NA,Sternberg task,108,83502,127,yes,1024
85.15625,85.15625,656.4765625,656.4765625,black,experiment,legacy,legacy,legacy,0,uniform,1,undefined,1,left,127,127,127,0,0,127,127,0,0,127,127,127,0,127,0,10/27/19 12:12,The main experiment item,yes,Sternbergtask.osexp,C:/Users/Breena Riley/Desktop/2019 Fall/MultQuant/lab 3.1,no,mono,no,18,no,white,no,yes,768,legacy,115,11,C:/Users/Breena Riley/Desktop/2019 Fall/MultQuant/lab 3.1/BR-subject-3.csv,legacy,9 1 6 7 8,Kafkaesque Koffka,3.2.8,1,y,0,left,left,right,left,NA,527,107879,71286,527,NA,2,legacy,5,1024,2,48000,-16,experiment,3,odd,9,943939,940609,941735,4087,255349,941737,905150,4100,184063,946468,942738,945940,111979,945940,NA,Sternberg task,109,84029,128,yes,1024
85.27131783,85.27131783,656.255814,656.255814,black,experiment,legacy,legacy,legacy,0,uniform,1,undefined,1,left,128,128,128,0,0,128,128,0,0,128,128,128,0,128,0,10/27/19 12:12,The main experiment item,yes,Sternbergtask.osexp,C:/Users/Breena Riley/Desktop/2019 Fall/MultQuant/lab 3.1,no,mono,no,18,no,white,no,yes,768,legacy,116,11,C:/Users/Breena Riley/Desktop/2019 Fall/MultQuant/lab 3.1/BR-subject-3.csv,legacy,9 3 8 2 1 4,Kafkaesque Koffka,3.2.8,3,y,0,left,left,right,left,NA,628,107879,71286,628,NA,2,legacy,6,1024,2,48000,-16,experiment,3,odd,8,949770,946472,947564,4087,255349,947567,905150,4100,184063,952400,948568,951771,111979,951771,NA,Sternberg task,110,84657,129,yes,1024
84.61538462,84.61538462,655.5230769,655.5230769,black,experiment,legacy,legacy,legacy,0,uniform,0,undefined,0,left,129,129,129,0,0,129,129,0,0,129,129,129,0,129,0,10/27/19 12:12,The main experiment item,yes,Sternbergtask.osexp,C:/Users/Breena Riley/Desktop/2019 Fall/MultQuant/lab 3.1,no,mono,no,18,no,white,no,yes,768,legacy,117,11,C:/Users/Breena Riley/Desktop/2019 Fall/MultQuant/lab 3.1/BR-subject-3.csv,legacy,8 9 5 7 1 6,Kafkaesque Koffka,3.2.8,4,y,0,right,left,right,right,NA,561,107879,71286,561,NA,2,legacy,6,1024,2,48000,-16,experiment,3,odd,7,955703,952408,953500,4087,255349,953502,905150,4100,184063,958268,954503,957705,111979,957704,NA,Sternberg task,110,85218,130,yes,1024
83.96946565,83.96946565,656.4503817,656.4503817,black,experiment,legacy,legacy,legacy,0,uniform,0,undefined,0,left,130,130,130,0,0,130,130,0,0,130,130,130,0,130,0,10/27/19 12:12,The main experiment item,yes,Sternbergtask.osexp,C:/Users/Breena Riley/Desktop/2019 Fall/MultQuant/lab 3.1,no,mono,no,18,no,white,no,yes,768,legacy,118,11,C:/Users/Breena Riley/Desktop/2019 Fall/MultQuant/lab 3.1/BR-subject-3.csv,legacy,9 3 1 2 5,Kafkaesque Koffka,3.2.8,4,y,0,right,left,right,right,NA,777,107879,71286,777,NA,2,legacy,5,1024,2,48000,-16,experiment,3,odd,2,961574,952408,959370,4087,255349,959372,958277,4100,184063,964353,960373,963575,111979,963575,NA,Sternberg task,110,85995,131,yes,1024
84.09090909,84.09090909,655.7424242,655.7424242,black,experiment,legacy,legacy,legacy,0,uniform,1,undefined,1,left,131,131,131,0,0,131,131,0,0,131,131,131,0,131,0,10/27/19 12:12,The main experiment item,yes,Sternbergtask.osexp,C:/Users/Breena Riley/Desktop/2019 Fall/MultQuant/lab 3.1,no,mono,no,18,no,white,no,yes,768,legacy,119,11,C:/Users/Breena Riley/Desktop/2019 Fall/MultQuant/lab 3.1/BR-subject-3.csv,legacy,8 9 5 6 7,Kafkaesque Koffka,3.2.8,1,y,0,left,left,right,left,NA,563,107879,71286,563,NA,2,legacy,5,1024,2,48000,-16,experiment,3,odd,8,967660,952408,965456,4087,255349,965458,964361,4100,184063,970227,966459,969662,111979,969661,NA,Sternberg task,111,86558,132,yes,1024
84.21052632,84.21052632,655.112782,655.112782,black,experiment,legacy,legacy,legacy,0,uniform,1,undefined,1,right,132,132,132,0,0,132,132,0,0,132,132,132,0,132,0,10/27/19 12:12,The main experiment item,yes,Sternbergtask.osexp,C:/Users/Breena Riley/Desktop/2019 Fall/MultQuant/lab 3.1,no,mono,no,18,no,white,no,yes,768,legacy,120,11,C:/Users/Breena Riley/Desktop/2019 Fall/MultQuant/lab 3.1/BR-subject-3.csv,legacy,3 9 1,Kafkaesque Koffka,3.2.8,0,n,0,right,left,right,right,NA,572,107879,71286,572,NA,2,legacy,3,1024,2,48000,-16,experiment,3,odd,7,973531,970235,971327,4087,255349,971329,964361,4100,184063,976107,972330,975533,111979,975533,NA,Sternberg task,112,87130,133,yes,1024
84.32835821,84.32835821,655.7686567,655.7686567,black,experiment,legacy,legacy,legacy,0,uniform,1,undefined,1,right,133,133,133,0,0,133,133,0,0,133,133,133,0,133,0,10/27/19 12:12,The main experiment item,yes,Sternbergtask.osexp,C:/Users/Breena Riley/Desktop/2019 Fall/MultQuant/lab 3.1,no,mono,no,18,no,white,no,yes,768,legacy,121,11,C:/Users/Breena Riley/Desktop/2019 Fall/MultQuant/lab 3.1/BR-subject-3.csv,legacy,4 2 6 9,Kafkaesque Koffka,3.2.8,0,n,0,right,left,right,right,NA,743,107879,71286,743,NA,2,legacy,4,1024,2,48000,-16,experiment,3,odd,7,979409,976115,977205,4087,255349,977207,964361,4100,184063,982153,978208,981410,111979,981410,NA,Sternberg task,113,87873,134,yes,1024
84.44444444,84.44444444,656.1777778,656.1777778,black,experiment,legacy,legacy,legacy,0,uniform,1,undefined,1,right,134,134,134,0,0,134,134,0,0,134,134,134,0,134,0,10/27/19 12:12,The main experiment item,yes,Sternbergtask.osexp,C:/Users/Breena Riley/Desktop/2019 Fall/MultQuant/lab 3.1,no,mono,no,18,no,white,no,yes,768,legacy,122,11,C:/Users/Breena Riley/Desktop/2019 Fall/MultQuant/lab 3.1/BR-subject-3.csv,legacy,1 5 3 2 8,Kafkaesque Koffka,3.2.8,0,n,0,right,left,right,right,NA,711,107879,71286,711,NA,2,legacy,5,1024,2,48000,-16,experiment,3,odd,4,985455,982162,983252,4087,255349,983253,964361,4100,184063,988170,984254,987457,111979,987457,NA,Sternberg task,114,88584,135,yes,1024
83.82352941,83.82352941,656.25,656.25,black,experiment,legacy,legacy,legacy,0,uniform,0,undefined,0,right,135,135,135,0,0,135,135,0,0,135,135,135,0,135,0,10/27/19 12:12,The main experiment item,yes,Sternbergtask.osexp,C:/Users/Breena Riley/Desktop/2019 Fall/MultQuant/lab 3.1,no,mono,no,18,no,white,no,yes,768,legacy,123,11,C:/Users/Breena Riley/Desktop/2019 Fall/MultQuant/lab 3.1/BR-subject-3.csv,legacy,1 7 8 3 9,Kafkaesque Koffka,3.2.8,0,n,0,left,left,right,left,NA,666,107879,71286,666,NA,2,legacy,5,1024,2,48000,-16,experiment,3,odd,2,991476,988177,989271,4087,255349,989273,964361,4100,184063,994144,990274,993477,111979,993477,NA,Sternberg task,114,89250,136,yes,1024
83.21167883,83.21167883,656.4817518,656.4817518,black,experiment,legacy,legacy,legacy,0,uniform,0,undefined,0,left,136,136,136,0,0,136,136,0,0,136,136,136,0,136,0,10/27/19 12:12,The main experiment item,yes,Sternbergtask.osexp,C:/Users/Breena Riley/Desktop/2019 Fall/MultQuant/lab 3.1,no,mono,no,18,no,white,no,yes,768,legacy,124,11,C:/Users/Breena Riley/Desktop/2019 Fall/MultQuant/lab 3.1/BR-subject-3.csv,legacy,6 8 9 3 4 9,Kafkaesque Koffka,3.2.8,5,y,0,right,left,right,right,NA,688,107879,71286,688,NA,2,legacy,6,1024,2,48000,-16,experiment,3,odd,4,997449,988177,995243,4087,255349,995245,994150,4100,184063,1000140,996248,999451,111979,999450,NA,Sternberg task,114,89938,137,yes,1024
83.33333333,83.33333333,656.615942,656.615942,black,experiment,legacy,legacy,legacy,0,uniform,1,undefined,1,right,137,137,137,0,0,137,137,0,0,137,137,137,0,137,0,10/27/19 12:12,The main experiment item,yes,Sternbergtask.osexp,C:/Users/Breena Riley/Desktop/2019 Fall/MultQuant/lab 3.1,no,mono,no,18,no,white,no,yes,768,legacy,125,11,C:/Users/Breena Riley/Desktop/2019 Fall/MultQuant/lab 3.1/BR-subject-3.csv,legacy,8 2 1 4 5 9,Kafkaesque Koffka,3.2.8,0,n,0,right,left,right,right,NA,675,107879,71286,675,NA,2,legacy,6,1024,2,48000,-16,experiment,3,odd,7,1003449,988177,1001245,4087,255349,1001247,1000150,4100,184063,1006126,1002248,1005450,111979,1005450,NA,Sternberg task,115,90613,138,yes,1024