acc,accuracy,average_response_time,avg_rt,background,block,canvas_backend,clock_backend,color_backend,compensation,coordinates,correct,correct_instruction1,correct_keyboard_response,correct_response,count_ISI,count_correctFeedback,count_expSequence,count_experiment,count_experimentLoop,count_fixation,count_getting_started,count_incorrectFeedback,count_instruction1,count_instructions2,count_keyboard_response,count_logger,count_memorySet,count_practiceLoop,count_probe,count_thankYou,count_welcome,datetime,description,disable_garbage_collection,experiment_file,experiment_path,font_bold,font_family,font_italic,font_size,font_underline,foreground,form_clicks,fullscreen,height,keyboard_backend,live_row,live_row_practiceLoop,logfile,mouse_backend,numberSet,opensesame_codename,opensesame_version,posInSet,present,repeat_cycle,response,response_instruction1,response_instructions2,response_keyboard_response,response_thankYou,response_time,response_time_instruction1,response_time_instructions2,response_time_keyboard_response,response_time_thankYou,round_decimals,sampler_backend,setSize,sound_buf_size,sound_channels,sound_freq,sound_sample_size,start,subject_nr,subject_parity,target,time_ISI,time_correctFeedback,time_expSequence,time_experiment,time_experimentLoop,time_fixation,time_getting_started,time_incorrectFeedback,time_instruction1,time_instructions2,time_keyboard_response,time_logger,time_memorySet,time_practiceLoop,time_probe,time_thankYou,time_welcome,title,total_correct,total_response_time,total_responses,uniform_coordinates,width
100,100,764,764,black,practice,legacy,legacy,legacy,0,uniform,1,undefined,1,right,0,0,0,0,0,0,NA,0,0,0,0,0,0,0,0,0,NA,Sun Oct 20 20:56:20 2019,The main experiment item,yes,Sternbergtask.osexp,/Users/danielrazo0311/Desktop,no,mono,no,18,no,white,no,yes,768,legacy,0,0,/Users/danielrazo0311/Desktop/subject-1.csv,legacy,5,Kafkaesque Koffka,3.2.8,0,n,0,right,left,NA,right,NA,764,3591,NA,764,NA,2,legacy,1,1024,2,48000,-16,experiment,1,odd,3,13440,NA,11199,5544,NA,11212,NA,NA,5564,NA,15452,16218,12225,9180,15452,NA,NA,Sternberg task,1,764,1,yes,1024
100,100,883.5,883.5,black,practice,legacy,legacy,legacy,0,uniform,1,undefined,1,left,1,1,1,0,0,1,NA,1,0,0,1,1,1,0,1,0,NA,Sun Oct 20 20:56:20 2019,The main experiment item,yes,Sternbergtask.osexp,/Users/danielrazo0311/Desktop,no,mono,no,18,no,white,no,yes,768,legacy,1,1,/Users/danielrazo0311/Desktop/subject-1.csv,legacy,1 5 2 9,Kafkaesque Koffka,3.2.8,2,y,0,left,left,NA,left,NA,1003,3591,NA,1003,NA,2,legacy,4,1024,2,48000,-16,experiment,1,odd,5,19712,16308,17471,5544,NA,17483,NA,NA,5564,NA,21725,22730,18496,9180,21725,NA,NA,Sternberg task,2,1767,2,yes,1024
100,100,855,855,black,practice,legacy,legacy,legacy,0,uniform,1,undefined,1,right,2,2,2,0,0,2,NA,2,0,0,2,2,2,0,2,0,NA,Sun Oct 20 20:56:20 2019,The main experiment item,yes,Sternbergtask.osexp,/Users/danielrazo0311/Desktop,no,mono,no,18,no,white,no,yes,768,legacy,2,2,/Users/danielrazo0311/Desktop/subject-1.csv,legacy,3 1 9 4,Kafkaesque Koffka,3.2.8,0,n,0,right,left,NA,right,NA,798,3591,NA,798,NA,2,legacy,4,1024,2,48000,-16,experiment,1,odd,6,26235,22851,23997,5544,NA,24009,NA,NA,5564,NA,28249,29049,25023,9180,28248,NA,NA,Sternberg task,3,2565,3,yes,1024
100,100,856.25,856.25,black,practice,legacy,legacy,legacy,0,uniform,1,undefined,1,right,3,3,3,0,0,3,NA,3,0,0,3,3,3,0,3,0,NA,Sun Oct 20 20:56:20 2019,The main experiment item,yes,Sternbergtask.osexp,/Users/danielrazo0311/Desktop,no,mono,no,18,no,white,no,yes,768,legacy,3,3,/Users/danielrazo0311/Desktop/subject-1.csv,legacy,9 6 7 4 5,Kafkaesque Koffka,3.2.8,0,n,0,right,left,NA,right,NA,860,3591,NA,860,NA,2,legacy,5,1024,2,48000,-16,experiment,1,odd,3,32455,29065,30212,5544,NA,30224,NA,NA,5564,NA,34467,35329,31239,9180,34467,NA,NA,Sternberg task,4,3425,4,yes,1024
100,100,818.2,818.2,black,practice,legacy,legacy,legacy,0,uniform,1,undefined,1,left,4,4,4,0,0,4,NA,4,0,0,4,4,4,0,4,0,NA,Sun Oct 20 20:56:20 2019,The main experiment item,yes,Sternbergtask.osexp,/Users/danielrazo0311/Desktop,no,mono,no,18,no,white,no,yes,768,legacy,4,4,/Users/danielrazo0311/Desktop/subject-1.csv,legacy,2 9 4,Kafkaesque Koffka,3.2.8,3,y,0,left,left,NA,left,NA,666,3591,NA,666,NA,2,legacy,3,1024,2,48000,-16,experiment,1,odd,4,38737,35344,36496,5544,NA,36508,NA,NA,5564,NA,40749,41417,37521,9180,40749,NA,NA,Sternberg task,5,4091,5,yes,1024
100,100,821.3333333,821.3333333,black,practice,legacy,legacy,legacy,0,uniform,1,undefined,1,left,5,5,5,0,0,5,NA,5,0,0,5,5,5,0,5,0,NA,Sun Oct 20 20:56:20 2019,The main experiment item,yes,Sternbergtask.osexp,/Users/danielrazo0311/Desktop,no,mono,no,18,no,white,no,yes,768,legacy,5,5,/Users/danielrazo0311/Desktop/subject-1.csv,legacy,1 7 9 8 5,Kafkaesque Koffka,3.2.8,4,y,0,left,left,NA,left,NA,837,3591,NA,837,NA,2,legacy,5,1024,2,48000,-16,experiment,1,odd,8,44821,41433,42579,5544,NA,42591,NA,NA,5564,NA,46834,47673,43606,9180,46834,NA,NA,Sternberg task,6,4928,6,yes,1024
100,100,793.2857143,793.2857143,black,practice,legacy,legacy,legacy,0,uniform,1,undefined,1,right,6,6,6,0,0,6,NA,6,0,0,6,6,6,0,6,0,NA,Sun Oct 20 20:56:20 2019,The main experiment item,yes,Sternbergtask.osexp,/Users/danielrazo0311/Desktop,no,mono,no,18,no,white,no,yes,768,legacy,6,6,/Users/danielrazo0311/Desktop/subject-1.csv,legacy,5 7 8 4 1 2,Kafkaesque Koffka,3.2.8,0,n,0,right,left,NA,right,NA,625,3591,NA,625,NA,2,legacy,6,1024,2,48000,-16,experiment,1,odd,6,51163,47775,48923,5544,NA,48935,NA,NA,5564,NA,53175,53802,49949,9180,53175,NA,NA,Sternberg task,7,5553,7,yes,1024
100,100,774.625,774.625,black,practice,legacy,legacy,legacy,0,uniform,1,undefined,1,left,7,7,7,0,0,7,NA,7,0,0,7,7,7,0,7,0,NA,Sun Oct 20 20:56:20 2019,The main experiment item,yes,Sternbergtask.osexp,/Users/danielrazo0311/Desktop,no,mono,no,18,no,white,no,yes,768,legacy,7,7,/Users/danielrazo0311/Desktop/subject-1.csv,legacy,6,Kafkaesque Koffka,3.2.8,1,y,0,left,left,NA,left,NA,644,3591,NA,644,NA,2,legacy,1,1024,2,48000,-16,experiment,1,odd,6,57204,53819,54964,5544,NA,54976,NA,NA,5564,NA,59219,59865,55989,9180,59219,NA,NA,Sternberg task,8,6197,8,yes,1024
100,100,744.4444444,744.4444444,black,practice,legacy,legacy,legacy,0,uniform,1,undefined,1,right,8,8,8,0,0,8,NA,8,0,0,8,8,8,0,8,0,NA,Sun Oct 20 20:56:20 2019,The main experiment item,yes,Sternbergtask.osexp,/Users/danielrazo0311/Desktop,no,mono,no,18,no,white,no,yes,768,legacy,8,8,/Users/danielrazo0311/Desktop/subject-1.csv,legacy,2 1,Kafkaesque Koffka,3.2.8,0,n,0,right,left,NA,right,NA,503,3591,NA,503,NA,2,legacy,2,1024,2,48000,-16,experiment,1,odd,5,63277,59884,61040,5544,NA,61053,NA,NA,5564,NA,65296,65801,62065,9180,65296,NA,NA,Sternberg task,9,6700,9,yes,1024
100,100,742,742,black,practice,legacy,legacy,legacy,0,uniform,1,undefined,1,left,9,9,9,0,0,9,NA,9,0,0,9,9,9,0,9,0,NA,Sun Oct 20 20:56:20 2019,The main experiment item,yes,Sternbergtask.osexp,/Users/danielrazo0311/Desktop,no,mono,no,18,no,white,no,yes,768,legacy,9,9,/Users/danielrazo0311/Desktop/subject-1.csv,legacy,4 3 1 7 9 8,Kafkaesque Koffka,3.2.8,1,y,0,left,left,NA,left,NA,720,3591,NA,720,NA,2,legacy,6,1024,2,48000,-16,experiment,1,odd,4,69225,65823,66983,5544,NA,66995,NA,NA,5564,NA,71239,71961,68008,9180,71239,NA,NA,Sternberg task,10,7420,10,yes,1024
100,100,724.2727273,724.2727273,black,practice,legacy,legacy,legacy,0,uniform,1,undefined,1,right,10,10,10,0,0,10,NA,10,0,0,10,10,10,0,10,0,NA,Sun Oct 20 20:56:20 2019,The main experiment item,yes,Sternbergtask.osexp,/Users/danielrazo0311/Desktop,no,mono,no,18,no,white,no,yes,768,legacy,10,10,/Users/danielrazo0311/Desktop/subject-1.csv,legacy,4 1 5,Kafkaesque Koffka,3.2.8,0,n,0,right,left,NA,right,NA,547,3591,NA,547,NA,2,legacy,3,1024,2,48000,-16,experiment,1,odd,2,75367,71976,73129,5544,NA,73141,NA,NA,5564,NA,77380,77929,74154,9180,77380,NA,NA,Sternberg task,11,7967,11,yes,1024
100,100,714,714,black,practice,legacy,legacy,legacy,0,uniform,1,undefined,1,left,11,11,11,0,0,11,NA,11,0,0,11,11,11,0,11,0,NA,Sun Oct 20 20:56:20 2019,The main experiment item,yes,Sternbergtask.osexp,/Users/danielrazo0311/Desktop,no,mono,no,18,no,white,no,yes,768,legacy,11,11,/Users/danielrazo0311/Desktop/subject-1.csv,legacy,4 8,Kafkaesque Koffka,3.2.8,1,y,0,left,left,NA,left,NA,601,3591,NA,601,NA,2,legacy,2,1024,2,48000,-16,experiment,1,odd,4,81337,77945,79095,5544,NA,79108,NA,NA,5564,NA,83350,83953,80122,9180,83350,NA,NA,Sternberg task,12,8568,12,yes,1024
92.30769231,92.30769231,703.3846154,703.3846154,black,experiment,legacy,legacy,legacy,0,uniform,0,undefined,0,left,12,12,12,0,0,12,NA,12,0,0,12,12,12,0,12,0,NA,Sun Oct 20 20:56:20 2019,The main experiment item,yes,Sternbergtask.osexp,/Users/danielrazo0311/Desktop,no,mono,no,18,no,white,no,yes,768,legacy,0,11,/Users/danielrazo0311/Desktop/subject-1.csv,legacy,3 4 9 6 2 9,Kafkaesque Koffka,3.2.8,5,y,0,right,left,left,right,NA,576,3591,4823,576,NA,2,legacy,6,1024,2,48000,-16,experiment,1,odd,2,92265,83968,90022,5544,89833,90034,NA,NA,5564,85008,94278,94856,91050,9180,94278,NA,NA,Sternberg task,12,9144,13,yes,1024
92.85714286,92.85714286,693.0714286,693.0714286,black,experiment,legacy,legacy,legacy,0,uniform,1,undefined,1,right,13,13,13,0,0,13,NA,13,0,0,13,13,13,0,13,0,NA,Sun Oct 20 20:56:20 2019,The main experiment item,yes,Sternbergtask.osexp,/Users/danielrazo0311/Desktop,no,mono,no,18,no,white,no,yes,768,legacy,1,11,/Users/danielrazo0311/Desktop/subject-1.csv,legacy,4 8 1 2,Kafkaesque Koffka,3.2.8,0,n,0,right,left,left,right,NA,559,3591,4823,559,NA,2,legacy,4,1024,2,48000,-16,experiment,1,odd,7,98266,83968,96024,5544,89833,96036,NA,94872,5564,85008,100279,100840,97050,9180,100279,NA,NA,Sternberg task,13,9703,14,yes,1024
86.66666667,86.66666667,701.6,701.6,black,experiment,legacy,legacy,legacy,0,uniform,0,undefined,0,left,14,14,14,0,0,14,NA,14,0,0,14,14,14,0,14,0,NA,Sun Oct 20 20:56:20 2019,The main experiment item,yes,Sternbergtask.osexp,/Users/danielrazo0311/Desktop,no,mono,no,18,no,white,no,yes,768,legacy,2,11,/Users/danielrazo0311/Desktop/subject-1.csv,legacy,7 4 2 6 3 5,Kafkaesque Koffka,3.2.8,6,y,0,right,left,left,right,NA,821,3591,4823,821,NA,2,legacy,6,1024,2,48000,-16,experiment,1,odd,5,104242,100855,102000,5544,89833,102012,NA,94872,5564,85008,106255,107079,103025,9180,106255,NA,NA,Sternberg task,13,10524,15,yes,1024
87.5,87.5,695.25,695.25,black,experiment,legacy,legacy,legacy,0,uniform,1,undefined,1,right,15,15,15,0,0,15,NA,15,0,0,15,15,15,0,15,0,NA,Sun Oct 20 20:56:20 2019,The main experiment item,yes,Sternbergtask.osexp,/Users/danielrazo0311/Desktop,no,mono,no,18,no,white,no,yes,768,legacy,3,11,/Users/danielrazo0311/Desktop/subject-1.csv,legacy,5 9 2 3,Kafkaesque Koffka,3.2.8,0,n,0,right,left,left,right,NA,600,3591,4823,600,NA,2,legacy,4,1024,2,48000,-16,experiment,1,odd,8,110483,100855,108242,5544,89833,108254,NA,107094,5564,85008,112496,113098,109268,9180,112495,NA,NA,Sternberg task,14,11124,16,yes,1024
88.23529412,88.23529412,685.7058824,685.7058824,black,experiment,legacy,legacy,legacy,0,uniform,1,undefined,1,left,16,16,16,0,0,16,NA,16,0,0,16,16,16,0,16,0,NA,Sun Oct 20 20:56:20 2019,The main experiment item,yes,Sternbergtask.osexp,/Users/danielrazo0311/Desktop,no,mono,no,18,no,white,no,yes,768,legacy,4,11,/Users/danielrazo0311/Desktop/subject-1.csv,legacy,6 5,Kafkaesque Koffka,3.2.8,2,y,0,left,left,left,left,NA,533,3591,4823,533,NA,2,legacy,2,1024,2,48000,-16,experiment,1,odd,5,116523,113120,114278,5544,89833,114291,NA,107094,5564,85008,118535,119070,115304,9180,118535,NA,NA,Sternberg task,15,11657,17,yes,1024
88.88888889,88.88888889,683.7777778,683.7777778,black,experiment,legacy,legacy,legacy,0,uniform,1,undefined,1,left,17,17,17,0,0,17,NA,17,0,0,17,17,17,0,17,0,NA,Sun Oct 20 20:56:20 2019,The main experiment item,yes,Sternbergtask.osexp,/Users/danielrazo0311/Desktop,no,mono,no,18,no,white,no,yes,768,legacy,5,11,/Users/danielrazo0311/Desktop/subject-1.csv,legacy,4 6 5 8,Kafkaesque Koffka,3.2.8,1,y,0,left,left,left,left,NA,651,3591,4823,651,NA,2,legacy,4,1024,2,48000,-16,experiment,1,odd,4,122475,119085,120232,5544,89833,120244,NA,107094,5564,85008,124489,125142,121259,9180,124489,NA,NA,Sternberg task,16,12308,18,yes,1024
89.47368421,89.47368421,678.3157895,678.3157895,black,experiment,legacy,legacy,legacy,0,uniform,1,undefined,1,right,18,18,18,0,0,18,NA,18,0,0,18,18,18,0,18,0,NA,Sun Oct 20 20:56:20 2019,The main experiment item,yes,Sternbergtask.osexp,/Users/danielrazo0311/Desktop,no,mono,no,18,no,white,no,yes,768,legacy,6,11,/Users/danielrazo0311/Desktop/subject-1.csv,legacy,6 8 4,Kafkaesque Koffka,3.2.8,0,n,0,right,left,left,right,NA,580,3591,4823,580,NA,2,legacy,3,1024,2,48000,-16,experiment,1,odd,1,128545,125157,126303,5544,89833,126316,NA,107094,5564,85008,130558,131140,127329,9180,130558,NA,NA,Sternberg task,17,12888,19,yes,1024
90,90,688.1,688.1,black,experiment,legacy,legacy,legacy,0,uniform,1,undefined,1,left,19,19,19,0,0,19,NA,19,0,0,19,19,19,0,19,0,NA,Sun Oct 20 20:56:20 2019,The main experiment item,yes,Sternbergtask.osexp,/Users/danielrazo0311/Desktop,no,mono,no,18,no,white,no,yes,768,legacy,7,11,/Users/danielrazo0311/Desktop/subject-1.csv,legacy,8 5 3 7 4 6,Kafkaesque Koffka,3.2.8,6,y,0,left,left,left,left,NA,874,3591,4823,874,NA,2,legacy,6,1024,2,48000,-16,experiment,1,odd,6,134546,131156,132305,5544,89833,132317,NA,107094,5564,85008,136560,137436,133330,9180,136559,NA,NA,Sternberg task,18,13762,20,yes,1024
90.47619048,90.47619048,685.7142857,685.7142857,black,experiment,legacy,legacy,legacy,0,uniform,1,undefined,1,left,20,20,20,0,0,20,NA,20,0,0,20,20,20,0,20,0,NA,Sun Oct 20 20:56:20 2019,The main experiment item,yes,Sternbergtask.osexp,/Users/danielrazo0311/Desktop,no,mono,no,18,no,white,no,yes,768,legacy,8,11,/Users/danielrazo0311/Desktop/subject-1.csv,legacy,2 6 1 7 4,Kafkaesque Koffka,3.2.8,2,y,0,left,left,left,left,NA,638,3591,4823,638,NA,2,legacy,5,1024,2,48000,-16,experiment,1,odd,6,140839,137451,138596,5544,89833,138609,NA,107094,5564,85008,142852,143492,139622,9180,142852,NA,NA,Sternberg task,19,14400,21,yes,1024
90.90909091,90.90909091,681.6363636,681.6363636,black,experiment,legacy,legacy,legacy,0,uniform,1,undefined,1,right,21,21,21,0,0,21,NA,21,0,0,21,21,21,0,21,0,NA,Sun Oct 20 20:56:20 2019,The main experiment item,yes,Sternbergtask.osexp,/Users/danielrazo0311/Desktop,no,mono,no,18,no,white,no,yes,768,legacy,9,11,/Users/danielrazo0311/Desktop/subject-1.csv,legacy,2 8 6 3 1,Kafkaesque Koffka,3.2.8,0,n,0,right,left,left,right,NA,596,3591,4823,596,NA,2,legacy,5,1024,2,48000,-16,experiment,1,odd,7,146901,143507,144659,5544,89833,144671,NA,107094,5564,85008,148914,149513,145686,9180,148913,NA,NA,Sternberg task,20,14996,22,yes,1024
86.95652174,86.95652174,680.826087,680.826087,black,experiment,legacy,legacy,legacy,0,uniform,0,undefined,0,left,22,22,22,0,0,22,NA,22,0,0,22,22,22,0,22,0,NA,Sun Oct 20 20:56:20 2019,The main experiment item,yes,Sternbergtask.osexp,/Users/danielrazo0311/Desktop,no,mono,no,18,no,white,no,yes,768,legacy,10,11,/Users/danielrazo0311/Desktop/subject-1.csv,legacy,4 1 5,Kafkaesque Koffka,3.2.8,2,y,0,right,left,left,right,NA,663,3591,4823,663,NA,2,legacy,3,1024,2,48000,-16,experiment,1,odd,1,152931,149542,150688,5544,89833,150701,NA,107094,5564,85008,154944,155609,151716,9180,154943,NA,NA,Sternberg task,20,15659,23,yes,1024
87.5,87.5,688.4583333,688.4583333,black,experiment,legacy,legacy,legacy,0,uniform,1,undefined,1,left,23,23,23,0,0,23,NA,23,0,0,23,23,23,0,23,0,NA,Sun Oct 20 20:56:20 2019,The main experiment item,yes,Sternbergtask.osexp,/Users/danielrazo0311/Desktop,no,mono,no,18,no,white,no,yes,768,legacy,11,11,/Users/danielrazo0311/Desktop/subject-1.csv,legacy,8 5 1 3 9,Kafkaesque Koffka,3.2.8,4,y,0,left,left,left,left,NA,864,3591,4823,864,NA,2,legacy,5,1024,2,48000,-16,experiment,1,odd,3,159012,149542,156772,5544,89833,156785,NA,155625,5564,85008,161026,161892,157799,9180,161025,NA,NA,Sternberg task,21,16523,24,yes,1024
88,88,684.64,684.64,black,experiment,legacy,legacy,legacy,0,uniform,1,undefined,1,right,24,24,24,0,0,24,NA,24,0,0,24,24,24,0,24,0,NA,Sun Oct 20 20:56:20 2019,The main experiment item,yes,Sternbergtask.osexp,/Users/danielrazo0311/Desktop,no,mono,no,18,no,white,no,yes,768,legacy,12,11,/Users/danielrazo0311/Desktop/subject-1.csv,legacy,8 5 7 3 6,Kafkaesque Koffka,3.2.8,0,n,0,right,left,left,right,NA,593,3591,4823,593,NA,2,legacy,5,1024,2,48000,-16,experiment,1,odd,9,165292,161907,163053,5544,89833,163066,NA,155625,5564,85008,167305,167900,164079,9180,167305,NA,NA,Sternberg task,22,17116,25,yes,1024
88.46153846,88.46153846,685.0384615,685.0384615,black,experiment,legacy,legacy,legacy,0,uniform,1,undefined,1,right,25,25,25,0,0,25,NA,25,0,0,25,25,25,0,25,0,NA,Sun Oct 20 20:56:20 2019,The main experiment item,yes,Sternbergtask.osexp,/Users/danielrazo0311/Desktop,no,mono,no,18,no,white,no,yes,768,legacy,13,11,/Users/danielrazo0311/Desktop/subject-1.csv,legacy,2 3 8 5 6 7,Kafkaesque Koffka,3.2.8,0,n,0,right,left,left,right,NA,695,3591,4823,695,NA,2,legacy,6,1024,2,48000,-16,experiment,1,odd,1,171303,167915,169062,5544,89833,169074,NA,155625,5564,85008,173318,174015,170087,9180,173317,NA,NA,Sternberg task,23,17811,26,yes,1024
88.88888889,88.88888889,679.3703704,679.3703704,black,experiment,legacy,legacy,legacy,0,uniform,1,undefined,1,right,26,26,26,0,0,26,NA,26,0,0,26,26,26,0,26,0,NA,Sun Oct 20 20:56:20 2019,The main experiment item,yes,Sternbergtask.osexp,/Users/danielrazo0311/Desktop,no,mono,no,18,no,white,no,yes,768,legacy,14,11,/Users/danielrazo0311/Desktop/subject-1.csv,legacy,4 2 6 9,Kafkaesque Koffka,3.2.8,0,n,0,right,left,left,right,NA,532,3591,4823,532,NA,2,legacy,4,1024,2,48000,-16,experiment,1,odd,7,177420,174030,175178,5544,89833,175191,NA,155625,5564,85008,179433,179968,176204,9180,179433,NA,NA,Sternberg task,24,18343,27,yes,1024
89.28571429,89.28571429,676.3214286,676.3214286,black,experiment,legacy,legacy,legacy,0,uniform,1,undefined,1,left,27,27,27,0,0,27,NA,27,0,0,27,27,27,0,27,0,NA,Sun Oct 20 20:56:20 2019,The main experiment item,yes,Sternbergtask.osexp,/Users/danielrazo0311/Desktop,no,mono,no,18,no,white,no,yes,768,legacy,15,11,/Users/danielrazo0311/Desktop/subject-1.csv,legacy,3 5 7 1,Kafkaesque Koffka,3.2.8,3,y,0,left,left,left,left,NA,594,3591,4823,594,NA,2,legacy,4,1024,2,48000,-16,experiment,1,odd,7,183381,179988,181139,5544,89833,181151,NA,155625,5564,85008,185393,185989,182165,9180,185393,NA,NA,Sternberg task,25,18937,28,yes,1024
89.65517241,89.65517241,670.0689655,670.0689655,black,experiment,legacy,legacy,legacy,0,uniform,1,undefined,1,right,28,28,28,0,0,28,NA,28,0,0,28,28,28,0,28,0,NA,Sun Oct 20 20:56:20 2019,The main experiment item,yes,Sternbergtask.osexp,/Users/danielrazo0311/Desktop,no,mono,no,18,no,white,no,yes,768,legacy,16,11,/Users/danielrazo0311/Desktop/subject-1.csv,legacy,5 7 3,Kafkaesque Koffka,3.2.8,0,n,0,right,left,left,right,NA,495,3591,4823,495,NA,2,legacy,3,1024,2,48000,-16,experiment,1,odd,9,189393,186004,187152,5544,89833,187164,NA,155625,5564,85008,191409,191906,188179,9180,191409,NA,NA,Sternberg task,26,19432,29,yes,1024
90,90,672.9333333,672.9333333,black,experiment,legacy,legacy,legacy,0,uniform,1,undefined,1,right,29,29,29,0,0,29,NA,29,0,0,29,29,29,0,29,0,NA,Sun Oct 20 20:56:20 2019,The main experiment item,yes,Sternbergtask.osexp,/Users/danielrazo0311/Desktop,no,mono,no,18,no,white,no,yes,768,legacy,17,11,/Users/danielrazo0311/Desktop/subject-1.csv,legacy,6 9 4 5 3 2,Kafkaesque Koffka,3.2.8,0,n,0,right,left,left,right,NA,756,3591,4823,756,NA,2,legacy,6,1024,2,48000,-16,experiment,1,odd,8,195310,191921,193066,5544,89833,193078,NA,155625,5564,85008,197323,198081,194092,9180,197322,NA,NA,Sternberg task,27,20188,30,yes,1024
90.32258065,90.32258065,669.4516129,669.4516129,black,experiment,legacy,legacy,legacy,0,uniform,1,undefined,1,right,30,30,30,0,0,30,NA,30,0,0,30,30,30,0,30,0,NA,Sun Oct 20 20:56:20 2019,The main experiment item,yes,Sternbergtask.osexp,/Users/danielrazo0311/Desktop,no,mono,no,18,no,white,no,yes,768,legacy,18,11,/Users/danielrazo0311/Desktop/subject-1.csv,legacy,2 6 4 3 9,Kafkaesque Koffka,3.2.8,0,n,0,right,left,left,right,NA,565,3591,4823,565,NA,2,legacy,5,1024,2,48000,-16,experiment,1,odd,1,201484,198096,199242,5544,89833,199254,NA,155625,5564,85008,203497,204065,200268,9180,203497,NA,NA,Sternberg task,28,20753,31,yes,1024
90.625,90.625,667.5,667.5,black,experiment,legacy,legacy,legacy,0,uniform,1,undefined,1,left,31,31,31,0,0,31,NA,31,0,0,31,31,31,0,31,0,NA,Sun Oct 20 20:56:20 2019,The main experiment item,yes,Sternbergtask.osexp,/Users/danielrazo0311/Desktop,no,mono,no,18,no,white,no,yes,768,legacy,19,11,/Users/danielrazo0311/Desktop/subject-1.csv,legacy,8 7 3,Kafkaesque Koffka,3.2.8,1,y,0,left,left,left,left,NA,607,3591,4823,607,NA,2,legacy,3,1024,2,48000,-16,experiment,1,odd,8,207466,204080,205226,5544,89833,205238,NA,155625,5564,85008,209479,210088,206251,9180,209479,NA,NA,Sternberg task,29,21360,32,yes,1024
90.90909091,90.90909091,662.1818182,662.1818182,black,experiment,legacy,legacy,legacy,0,uniform,1,undefined,1,left,32,32,32,0,0,32,NA,32,0,0,32,32,32,0,32,0,NA,Sun Oct 20 20:56:20 2019,The main experiment item,yes,Sternbergtask.osexp,/Users/danielrazo0311/Desktop,no,mono,no,18,no,white,no,yes,768,legacy,20,11,/Users/danielrazo0311/Desktop/subject-1.csv,legacy,4 9 7 8 5 3,Kafkaesque Koffka,3.2.8,4,y,0,left,left,left,left,NA,492,3591,4823,492,NA,2,legacy,6,1024,2,48000,-16,experiment,1,odd,8,213495,210105,211254,5544,89833,211266,NA,155625,5564,85008,215508,216002,212279,9180,215508,NA,NA,Sternberg task,30,21852,33,yes,1024
91.17647059,91.17647059,656.8823529,656.8823529,black,experiment,legacy,legacy,legacy,0,uniform,1,undefined,1,left,33,33,33,0,0,33,NA,33,0,0,33,33,33,0,33,0,NA,Sun Oct 20 20:56:20 2019,The main experiment item,yes,Sternbergtask.osexp,/Users/danielrazo0311/Desktop,no,mono,no,18,no,white,no,yes,768,legacy,21,11,/Users/danielrazo0311/Desktop/subject-1.csv,legacy,4,Kafkaesque Koffka,3.2.8,1,y,0,left,left,left,left,NA,482,3591,4823,482,NA,2,legacy,1,1024,2,48000,-16,experiment,1,odd,4,219410,216017,217168,5544,89833,217181,NA,155625,5564,85008,221422,221907,218195,9180,221422,NA,NA,Sternberg task,31,22334,34,yes,1024
91.42857143,91.42857143,653.6285714,653.6285714,black,experiment,legacy,legacy,legacy,0,uniform,1,undefined,1,right,34,34,34,0,0,34,NA,34,0,0,34,34,34,0,34,0,NA,Sun Oct 20 20:56:20 2019,The main experiment item,yes,Sternbergtask.osexp,/Users/danielrazo0311/Desktop,no,mono,no,18,no,white,no,yes,768,legacy,22,11,/Users/danielrazo0311/Desktop/subject-1.csv,legacy,7 4 2 8 1 9,Kafkaesque Koffka,3.2.8,0,n,0,right,left,left,right,NA,543,3591,4823,543,NA,2,legacy,6,1024,2,48000,-16,experiment,1,odd,5,225312,221922,223069,5544,89833,223082,NA,155625,5564,85008,227325,227870,224097,9180,227325,NA,NA,Sternberg task,32,22877,35,yes,1024
91.66666667,91.66666667,654.5833333,654.5833333,black,experiment,legacy,legacy,legacy,0,uniform,1,undefined,1,left,35,35,35,0,0,35,NA,35,0,0,35,35,35,0,35,0,NA,Sun Oct 20 20:56:20 2019,The main experiment item,yes,Sternbergtask.osexp,/Users/danielrazo0311/Desktop,no,mono,no,18,no,white,no,yes,768,legacy,23,11,/Users/danielrazo0311/Desktop/subject-1.csv,legacy,8 3,Kafkaesque Koffka,3.2.8,2,y,0,left,left,left,left,NA,688,3591,4823,688,NA,2,legacy,2,1024,2,48000,-16,experiment,1,odd,3,231269,227885,229029,5544,89833,229041,NA,155625,5564,85008,233282,233972,230055,9180,233282,NA,NA,Sternberg task,33,23565,36,yes,1024
91.89189189,91.89189189,657.2432432,657.2432432,black,experiment,legacy,legacy,legacy,0,uniform,1,undefined,1,left,36,36,36,0,0,36,NA,36,0,0,36,36,36,0,36,0,NA,Sun Oct 20 20:56:20 2019,The main experiment item,yes,Sternbergtask.osexp,/Users/danielrazo0311/Desktop,no,mono,no,18,no,white,no,yes,768,legacy,24,11,/Users/danielrazo0311/Desktop/subject-1.csv,legacy,9 8 4,Kafkaesque Koffka,3.2.8,1,y,0,left,left,left,left,NA,753,3591,4823,753,NA,2,legacy,3,1024,2,48000,-16,experiment,1,odd,9,237378,233987,235134,5544,89833,235150,NA,155625,5564,85008,239392,240148,236165,9180,239392,NA,NA,Sternberg task,34,24318,37,yes,1024
92.10526316,92.10526316,656.3421053,656.3421053,black,experiment,legacy,legacy,legacy,0,uniform,1,undefined,1,left,37,37,37,0,0,37,NA,37,0,0,37,37,37,0,37,0,NA,Sun Oct 20 20:56:20 2019,The main experiment item,yes,Sternbergtask.osexp,/Users/danielrazo0311/Desktop,no,mono,no,18,no,white,no,yes,768,legacy,25,11,/Users/danielrazo0311/Desktop/subject-1.csv,legacy,2 4 6 9,Kafkaesque Koffka,3.2.8,3,y,0,left,left,left,left,NA,623,3591,4823,623,NA,2,legacy,4,1024,2,48000,-16,experiment,1,odd,6,243561,240167,241318,5544,89833,241330,NA,155625,5564,85008,245580,246205,242345,9180,245579,NA,NA,Sternberg task,35,24941,38,yes,1024
92.30769231,92.30769231,655.2051282,655.2051282,black,experiment,legacy,legacy,legacy,0,uniform,1,undefined,1,left,38,38,38,0,0,38,NA,38,0,0,38,38,38,0,38,0,NA,Sun Oct 20 20:56:20 2019,The main experiment item,yes,Sternbergtask.osexp,/Users/danielrazo0311/Desktop,no,mono,no,18,no,white,no,yes,768,legacy,26,11,/Users/danielrazo0311/Desktop/subject-1.csv,legacy,1 4 9 3 2 5,Kafkaesque Koffka,3.2.8,3,y,0,left,left,left,left,NA,612,3591,4823,612,NA,2,legacy,6,1024,2,48000,-16,experiment,1,odd,9,249612,246220,247369,5544,89833,247381,NA,155625,5564,85008,251626,252241,248396,9180,251625,NA,NA,Sternberg task,36,25553,39,yes,1024
92.5,92.5,659.7,659.7,black,experiment,legacy,legacy,legacy,0,uniform,1,undefined,1,left,39,39,39,0,0,39,NA,39,0,0,39,39,39,0,39,0,NA,Sun Oct 20 20:56:20 2019,The main experiment item,yes,Sternbergtask.osexp,/Users/danielrazo0311/Desktop,no,mono,no,18,no,white,no,yes,768,legacy,27,11,/Users/danielrazo0311/Desktop/subject-1.csv,legacy,6 9 3 1,Kafkaesque Koffka,3.2.8,4,y,0,left,left,left,left,NA,835,3591,4823,835,NA,2,legacy,4,1024,2,48000,-16,experiment,1,odd,1,255648,252260,253407,5544,89833,253419,NA,155625,5564,85008,257660,258497,254432,9180,257660,NA,NA,Sternberg task,37,26388,40,yes,1024
92.68292683,92.68292683,662.4146341,662.4146341,black,experiment,legacy,legacy,legacy,0,uniform,1,undefined,1,right,40,40,40,0,0,40,NA,40,0,0,40,40,40,0,40,0,NA,Sun Oct 20 20:56:20 2019,The main experiment item,yes,Sternbergtask.osexp,/Users/danielrazo0311/Desktop,no,mono,no,18,no,white,no,yes,768,legacy,28,11,/Users/danielrazo0311/Desktop/subject-1.csv,legacy,1 4 9 3,Kafkaesque Koffka,3.2.8,0,n,0,right,left,left,right,NA,771,3591,4823,771,NA,2,legacy,4,1024,2,48000,-16,experiment,1,odd,5,261901,258512,259657,5544,89833,259670,NA,155625,5564,85008,263916,264690,260684,9180,263916,NA,NA,Sternberg task,38,27159,41,yes,1024
92.85714286,92.85714286,664.7857143,664.7857143,black,experiment,legacy,legacy,legacy,0,uniform,1,undefined,1,right,41,41,41,0,0,41,NA,41,0,0,41,41,41,0,41,0,NA,Sun Oct 20 20:56:20 2019,The main experiment item,yes,Sternbergtask.osexp,/Users/danielrazo0311/Desktop,no,mono,no,18,no,white,no,yes,768,legacy,29,11,/Users/danielrazo0311/Desktop/subject-1.csv,legacy,7 3 2 8,Kafkaesque Koffka,3.2.8,0,n,0,right,left,left,right,NA,762,3591,4823,762,NA,2,legacy,4,1024,2,48000,-16,experiment,1,odd,4,268093,264705,265855,5544,89833,265868,NA,155625,5564,85008,270106,270871,266880,9180,270105,NA,NA,Sternberg task,39,27921,42,yes,1024
90.69767442,90.69767442,664.5813953,664.5813953,black,experiment,legacy,legacy,legacy,0,uniform,0,undefined,0,left,42,42,42,0,0,42,NA,42,0,0,42,42,42,0,42,0,NA,Sun Oct 20 20:56:20 2019,The main experiment item,yes,Sternbergtask.osexp,/Users/danielrazo0311/Desktop,no,mono,no,18,no,white,no,yes,768,legacy,30,11,/Users/danielrazo0311/Desktop/subject-1.csv,legacy,3 2 1 4 7,Kafkaesque Koffka,3.2.8,2,y,0,right,left,left,right,NA,656,3591,4823,656,NA,2,legacy,5,1024,2,48000,-16,experiment,1,odd,2,274277,270887,272033,5544,89833,272045,NA,155625,5564,85008,276291,276949,273060,9180,276290,NA,NA,Sternberg task,39,28577,43,yes,1024
90.90909091,90.90909091,661.4772727,661.4772727,black,experiment,legacy,legacy,legacy,0,uniform,1,undefined,1,right,43,43,43,0,0,43,NA,43,0,0,43,43,43,0,43,0,NA,Sun Oct 20 20:56:20 2019,The main experiment item,yes,Sternbergtask.osexp,/Users/danielrazo0311/Desktop,no,mono,no,18,no,white,no,yes,768,legacy,31,11,/Users/danielrazo0311/Desktop/subject-1.csv,legacy,4 1,Kafkaesque Koffka,3.2.8,0,n,0,right,left,left,right,NA,528,3591,4823,528,NA,2,legacy,2,1024,2,48000,-16,experiment,1,odd,6,280352,270887,278108,5544,89833,278120,NA,276965,5564,85008,282366,282898,279136,9180,282365,NA,NA,Sternberg task,40,29105,44,yes,1024
91.11111111,91.11111111,659.1555556,659.1555556,black,experiment,legacy,legacy,legacy,0,uniform,1,undefined,1,right,44,44,44,0,0,44,NA,44,0,0,44,44,44,0,44,0,NA,Sun Oct 20 20:56:20 2019,The main experiment item,yes,Sternbergtask.osexp,/Users/danielrazo0311/Desktop,no,mono,no,18,no,white,no,yes,768,legacy,32,11,/Users/danielrazo0311/Desktop/subject-1.csv,legacy,1 7 5 2,Kafkaesque Koffka,3.2.8,0,n,0,right,left,left,right,NA,557,3591,4823,557,NA,2,legacy,4,1024,2,48000,-16,experiment,1,odd,3,286301,282913,284061,5544,89833,284073,NA,276965,5564,85008,288313,288872,285088,9180,288313,NA,NA,Sternberg task,41,29662,45,yes,1024
91.30434783,91.30434783,657.6304348,657.6304348,black,experiment,legacy,legacy,legacy,0,uniform,1,undefined,1,left,45,45,45,0,0,45,NA,45,0,0,45,45,45,0,45,0,NA,Sun Oct 20 20:56:20 2019,The main experiment item,yes,Sternbergtask.osexp,/Users/danielrazo0311/Desktop,no,mono,no,18,no,white,no,yes,768,legacy,33,11,/Users/danielrazo0311/Desktop/subject-1.csv,legacy,5 7 8 2 3 8,Kafkaesque Koffka,3.2.8,5,y,0,left,left,left,left,NA,589,3591,4823,589,NA,2,legacy,6,1024,2,48000,-16,experiment,1,odd,3,292277,288887,290034,5544,89833,290046,NA,276965,5564,85008,294290,294881,291059,9180,294290,NA,NA,Sternberg task,42,30251,46,yes,1024
91.4893617,91.4893617,661.8723404,661.8723404,black,experiment,legacy,legacy,legacy,0,uniform,1,undefined,1,right,46,46,46,0,0,46,NA,46,0,0,46,46,46,0,46,0,NA,Sun Oct 20 20:56:20 2019,The main experiment item,yes,Sternbergtask.osexp,/Users/danielrazo0311/Desktop,no,mono,no,18,no,white,no,yes,768,legacy,34,11,/Users/danielrazo0311/Desktop/subject-1.csv,legacy,9 8 2 7 4,Kafkaesque Koffka,3.2.8,0,n,0,right,left,left,right,NA,857,3591,4823,857,NA,2,legacy,5,1024,2,48000,-16,experiment,1,odd,5,298283,294896,296042,5544,89833,296054,NA,276965,5564,85008,300296,301156,297068,9180,300296,NA,NA,Sternberg task,43,31108,47,yes,1024
91.66666667,91.66666667,657.0625,657.0625,black,experiment,legacy,legacy,legacy,0,uniform,1,undefined,1,left,47,47,47,0,0,47,NA,47,0,0,47,47,47,0,47,0,NA,Sun Oct 20 20:56:20 2019,The main experiment item,yes,Sternbergtask.osexp,/Users/danielrazo0311/Desktop,no,mono,no,18,no,white,no,yes,768,legacy,35,11,/Users/danielrazo0311/Desktop/subject-1.csv,legacy,7,Kafkaesque Koffka,3.2.8,1,y,0,left,left,left,left,NA,431,3591,4823,431,NA,2,legacy,1,1024,2,48000,-16,experiment,1,odd,7,304568,301183,302327,5544,89833,302339,NA,276965,5564,85008,306581,307015,303353,9180,306581,NA,NA,Sternberg task,44,31539,48,yes,1024
91.83673469,91.83673469,656.5918367,656.5918367,black,experiment,legacy,legacy,legacy,0,uniform,1,undefined,1,left,48,48,48,0,0,48,NA,48,0,0,48,48,48,0,48,0,NA,Sun Oct 20 20:56:20 2019,The main experiment item,yes,Sternbergtask.osexp,/Users/danielrazo0311/Desktop,no,mono,no,18,no,white,no,yes,768,legacy,36,11,/Users/danielrazo0311/Desktop/subject-1.csv,legacy,6 7 8 5,Kafkaesque Koffka,3.2.8,3,y,0,left,left,left,left,NA,634,3591,4823,634,NA,2,legacy,4,1024,2,48000,-16,experiment,1,odd,8,310417,307030,308176,5544,89833,308188,NA,276965,5564,85008,312430,313067,309201,9180,312430,NA,NA,Sternberg task,45,32173,49,yes,1024
92,92,656.44,656.44,black,experiment,legacy,legacy,legacy,0,uniform,1,undefined,1,left,49,49,49,0,0,49,NA,49,0,0,49,49,49,0,49,0,NA,Sun Oct 20 20:56:20 2019,The main experiment item,yes,Sternbergtask.osexp,/Users/danielrazo0311/Desktop,no,mono,no,18,no,white,no,yes,768,legacy,37,11,/Users/danielrazo0311/Desktop/subject-1.csv,legacy,6 7 9 3 1 2,Kafkaesque Koffka,3.2.8,1,y,0,left,left,left,left,NA,649,3591,4823,649,NA,2,legacy,6,1024,2,48000,-16,experiment,1,odd,6,316471,313082,314230,5544,89833,314242,NA,276965,5564,85008,318484,319135,315255,9180,318484,NA,NA,Sternberg task,46,32822,50,yes,1024
92.15686275,92.15686275,653.2745098,653.2745098,black,experiment,legacy,legacy,legacy,0,uniform,1,undefined,1,left,50,50,50,0,0,50,NA,50,0,0,50,50,50,0,50,0,NA,Sun Oct 20 20:56:20 2019,The main experiment item,yes,Sternbergtask.osexp,/Users/danielrazo0311/Desktop,no,mono,no,18,no,white,no,yes,768,legacy,38,11,/Users/danielrazo0311/Desktop/subject-1.csv,legacy,7 6,Kafkaesque Koffka,3.2.8,2,y,0,left,left,left,left,NA,495,3591,4823,495,NA,2,legacy,2,1024,2,48000,-16,experiment,1,odd,6,322538,319150,320296,5544,89833,320308,NA,276965,5564,85008,324551,325049,321322,9180,324551,NA,NA,Sternberg task,47,33317,51,yes,1024
90.38461538,90.38461538,651.1153846,651.1153846,black,experiment,legacy,legacy,legacy,0,uniform,0,undefined,0,right,51,51,51,0,0,51,NA,51,0,0,51,51,51,0,51,0,NA,Sun Oct 20 20:56:20 2019,The main experiment item,yes,Sternbergtask.osexp,/Users/danielrazo0311/Desktop,no,mono,no,18,no,white,no,yes,768,legacy,39,11,/Users/danielrazo0311/Desktop/subject-1.csv,legacy,2 8 7 9 5 3,Kafkaesque Koffka,3.2.8,0,n,0,left,left,left,left,NA,541,3591,4823,541,NA,2,legacy,6,1024,2,48000,-16,experiment,1,odd,6,328453,325064,326210,5544,89833,326223,NA,276965,5564,85008,330466,331010,327240,9180,330465,NA,NA,Sternberg task,47,33858,52,yes,1024
90.56603774,90.56603774,649.754717,649.754717,black,experiment,legacy,legacy,legacy,0,uniform,1,undefined,1,right,52,52,52,0,0,52,NA,52,0,0,52,52,52,0,52,0,NA,Sun Oct 20 20:56:20 2019,The main experiment item,yes,Sternbergtask.osexp,/Users/danielrazo0311/Desktop,no,mono,no,18,no,white,no,yes,768,legacy,40,11,/Users/danielrazo0311/Desktop/subject-1.csv,legacy,8 4 3 5,Kafkaesque Koffka,3.2.8,0,n,0,right,left,left,right,NA,579,3591,4823,579,NA,2,legacy,4,1024,2,48000,-16,experiment,1,odd,6,334417,325064,332177,5544,89833,332189,NA,331025,5564,85008,336430,337012,333203,9180,336429,NA,NA,Sternberg task,48,34437,53,yes,1024
90.74074074,90.74074074,658.7592593,658.7592593,black,experiment,legacy,legacy,legacy,0,uniform,1,undefined,1,left,53,53,53,0,0,53,NA,53,0,0,53,53,53,0,53,0,NA,Sun Oct 20 20:56:20 2019,The main experiment item,yes,Sternbergtask.osexp,/Users/danielrazo0311/Desktop,no,mono,no,18,no,white,no,yes,768,legacy,41,11,/Users/danielrazo0311/Desktop/subject-1.csv,legacy,2 5 4 8 7,Kafkaesque Koffka,3.2.8,3,y,0,left,left,left,left,NA,1136,3591,4823,1136,NA,2,legacy,5,1024,2,48000,-16,experiment,1,odd,4,340416,337027,338173,5544,89833,338185,NA,331025,5564,85008,342433,343572,339200,9180,342432,NA,NA,Sternberg task,49,35573,54,yes,1024
90.90909091,90.90909091,657.7818182,657.7818182,black,experiment,legacy,legacy,legacy,0,uniform,1,undefined,1,left,54,54,54,0,0,54,NA,54,0,0,54,54,54,0,54,0,NA,Sun Oct 20 20:56:20 2019,The main experiment item,yes,Sternbergtask.osexp,/Users/danielrazo0311/Desktop,no,mono,no,18,no,white,no,yes,768,legacy,42,11,/Users/danielrazo0311/Desktop/subject-1.csv,legacy,9 5 3 8 4,Kafkaesque Koffka,3.2.8,1,y,0,left,left,left,left,NA,605,3591,4823,605,NA,2,legacy,5,1024,2,48000,-16,experiment,1,odd,9,346983,343586,344739,5544,89833,344751,NA,331025,5564,85008,348996,349604,345766,9180,348996,NA,NA,Sternberg task,50,36178,55,yes,1024
91.07142857,91.07142857,655.4821429,655.4821429,black,experiment,legacy,legacy,legacy,0,uniform,1,undefined,1,left,55,55,55,0,0,55,NA,55,0,0,55,55,55,0,55,0,NA,Sun Oct 20 20:56:20 2019,The main experiment item,yes,Sternbergtask.osexp,/Users/danielrazo0311/Desktop,no,mono,no,18,no,white,no,yes,768,legacy,43,11,/Users/danielrazo0311/Desktop/subject-1.csv,legacy,6 9 7 4 5 1,Kafkaesque Koffka,3.2.8,2,y,0,left,left,left,left,NA,529,3591,4823,529,NA,2,legacy,6,1024,2,48000,-16,experiment,1,odd,9,353003,349618,350767,5544,89833,350779,NA,331025,5564,85008,355016,355548,351791,9180,355016,NA,NA,Sternberg task,51,36707,56,yes,1024
91.22807018,91.22807018,652.7894737,652.7894737,black,experiment,legacy,legacy,legacy,0,uniform,1,undefined,1,right,56,56,56,0,0,56,NA,56,0,0,56,56,56,0,56,0,NA,Sun Oct 20 20:56:20 2019,The main experiment item,yes,Sternbergtask.osexp,/Users/danielrazo0311/Desktop,no,mono,no,18,no,white,no,yes,768,legacy,44,11,/Users/danielrazo0311/Desktop/subject-1.csv,legacy,6 9 5,Kafkaesque Koffka,3.2.8,0,n,0,right,left,left,right,NA,502,3591,4823,502,NA,2,legacy,3,1024,2,48000,-16,experiment,1,odd,8,358974,355588,356734,5544,89833,356747,NA,331025,5564,85008,360987,361492,357761,9180,360987,NA,NA,Sternberg task,52,37209,57,yes,1024
89.65517241,89.65517241,649.4655172,649.4655172,black,experiment,legacy,legacy,legacy,0,uniform,0,undefined,0,left,57,57,57,0,0,57,NA,57,0,0,57,57,57,0,57,0,NA,Sun Oct 20 20:56:20 2019,The main experiment item,yes,Sternbergtask.osexp,/Users/danielrazo0311/Desktop,no,mono,no,18,no,white,no,yes,768,legacy,45,11,/Users/danielrazo0311/Desktop/subject-1.csv,legacy,9 5 8 1,Kafkaesque Koffka,3.2.8,2,y,0,right,left,left,right,NA,460,3591,4823,460,NA,2,legacy,4,1024,2,48000,-16,experiment,1,odd,5,364895,361509,362655,5544,89833,362667,NA,331025,5564,85008,366908,367371,363679,9180,366907,NA,NA,Sternberg task,52,37669,58,yes,1024
89.83050847,89.83050847,647.2711864,647.2711864,black,experiment,legacy,legacy,legacy,0,uniform,1,undefined,1,left,58,58,58,0,0,58,NA,58,0,0,58,58,58,0,58,0,NA,Sun Oct 20 20:56:20 2019,The main experiment item,yes,Sternbergtask.osexp,/Users/danielrazo0311/Desktop,no,mono,no,18,no,white,no,yes,768,legacy,46,11,/Users/danielrazo0311/Desktop/subject-1.csv,legacy,4 3 2 5 8,Kafkaesque Koffka,3.2.8,2,y,0,left,left,left,left,NA,520,3591,4823,520,NA,2,legacy,5,1024,2,48000,-16,experiment,1,odd,3,370779,361509,368539,5544,89833,368551,NA,367386,5564,85008,372792,373315,369564,9180,372791,NA,NA,Sternberg task,53,38189,59,yes,1024
88.33333333,88.33333333,646.95,646.95,black,experiment,legacy,legacy,legacy,0,uniform,0,undefined,0,left,59,59,59,0,0,59,NA,59,0,0,59,59,59,0,59,0,NA,Sun Oct 20 20:56:20 2019,The main experiment item,yes,Sternbergtask.osexp,/Users/danielrazo0311/Desktop,no,mono,no,18,no,white,no,yes,768,legacy,47,11,/Users/danielrazo0311/Desktop/subject-1.csv,legacy,9 3 1 2 5,Kafkaesque Koffka,3.2.8,4,y,0,right,left,left,right,NA,628,3591,4823,628,NA,2,legacy,5,1024,2,48000,-16,experiment,1,odd,2,376716,373329,374476,5544,89833,374489,NA,367386,5564,85008,378729,379360,375502,9180,378729,NA,NA,Sternberg task,53,38817,60,yes,1024
88.52459016,88.52459016,648.1311475,648.1311475,black,experiment,legacy,legacy,legacy,0,uniform,1,undefined,1,right,60,60,60,0,0,60,NA,60,0,0,60,60,60,0,60,0,NA,Sun Oct 20 20:56:20 2019,The main experiment item,yes,Sternbergtask.osexp,/Users/danielrazo0311/Desktop,no,mono,no,18,no,white,no,yes,768,legacy,48,11,/Users/danielrazo0311/Desktop/subject-1.csv,legacy,2 5 1 4,Kafkaesque Koffka,3.2.8,0,n,0,right,left,left,right,NA,719,3591,4823,719,NA,2,legacy,4,1024,2,48000,-16,experiment,1,odd,6,382767,373329,380524,5544,89833,380536,NA,379378,5564,85008,384780,385503,381550,9180,384780,NA,NA,Sternberg task,54,39536,61,yes,1024
88.70967742,88.70967742,645.7903226,645.7903226,black,experiment,legacy,legacy,legacy,0,uniform,1,undefined,1,right,61,61,61,0,0,61,NA,61,0,0,61,61,61,0,61,0,NA,Sun Oct 20 20:56:20 2019,The main experiment item,yes,Sternbergtask.osexp,/Users/danielrazo0311/Desktop,no,mono,no,18,no,white,no,yes,768,legacy,49,11,/Users/danielrazo0311/Desktop/subject-1.csv,legacy,2 7 5,Kafkaesque Koffka,3.2.8,0,n,0,right,left,left,right,NA,503,3591,4823,503,NA,2,legacy,3,1024,2,48000,-16,experiment,1,odd,8,388916,385520,386677,5544,89833,386689,NA,379378,5564,85008,390930,391436,387703,9180,390929,NA,NA,Sternberg task,55,40039,62,yes,1024
88.88888889,88.88888889,646.9365079,646.9365079,black,experiment,legacy,legacy,legacy,0,uniform,1,undefined,1,right,62,62,62,0,0,62,NA,62,0,0,62,62,62,0,62,0,NA,Sun Oct 20 20:56:20 2019,The main experiment item,yes,Sternbergtask.osexp,/Users/danielrazo0311/Desktop,no,mono,no,18,no,white,no,yes,768,legacy,50,11,/Users/danielrazo0311/Desktop/subject-1.csv,legacy,1 4 3 6 5,Kafkaesque Koffka,3.2.8,0,n,0,right,left,left,right,NA,718,3591,4823,718,NA,2,legacy,5,1024,2,48000,-16,experiment,1,odd,8,394841,391451,392599,5544,89833,392611,NA,379378,5564,85008,396853,397574,393628,9180,396853,NA,NA,Sternberg task,56,40757,63,yes,1024
89.0625,89.0625,646.421875,646.421875,black,experiment,legacy,legacy,legacy,0,uniform,1,undefined,1,right,63,63,63,0,0,63,NA,63,0,0,63,63,63,0,63,0,NA,Sun Oct 20 20:56:20 2019,The main experiment item,yes,Sternbergtask.osexp,/Users/danielrazo0311/Desktop,no,mono,no,18,no,white,no,yes,768,legacy,51,11,/Users/danielrazo0311/Desktop/subject-1.csv,legacy,6 2 9 3 8 4,Kafkaesque Koffka,3.2.8,0,n,0,right,left,left,right,NA,614,3591,4823,614,NA,2,legacy,6,1024,2,48000,-16,experiment,1,odd,1,400989,397589,398744,5544,89833,398757,NA,379378,5564,85008,403001,403618,399771,9180,403001,NA,NA,Sternberg task,57,41371,64,yes,1024
89.23076923,89.23076923,645.4615385,645.4615385,black,experiment,legacy,legacy,legacy,0,uniform,1,undefined,1,right,64,64,64,0,0,64,NA,64,0,0,64,64,64,0,64,0,NA,Sun Oct 20 20:56:20 2019,The main experiment item,yes,Sternbergtask.osexp,/Users/danielrazo0311/Desktop,no,mono,no,18,no,white,no,yes,768,legacy,52,11,/Users/danielrazo0311/Desktop/subject-1.csv,legacy,7 9 1 6,Kafkaesque Koffka,3.2.8,0,n,0,right,left,left,right,NA,584,3591,4823,584,NA,2,legacy,4,1024,2,48000,-16,experiment,1,odd,4,407025,403633,404782,5544,89833,404794,NA,379378,5564,85008,409038,409625,405809,9180,409038,NA,NA,Sternberg task,58,41955,65,yes,1024
89.39393939,89.39393939,647.5909091,647.5909091,black,experiment,legacy,legacy,legacy,0,uniform,1,undefined,1,left,65,65,65,0,0,65,NA,65,0,0,65,65,65,0,65,0,NA,Sun Oct 20 20:56:20 2019,The main experiment item,yes,Sternbergtask.osexp,/Users/danielrazo0311/Desktop,no,mono,no,18,no,white,no,yes,768,legacy,53,11,/Users/danielrazo0311/Desktop/subject-1.csv,legacy,9 3 8 2 1 4,Kafkaesque Koffka,3.2.8,3,y,0,left,left,left,left,NA,786,3591,4823,786,NA,2,legacy,6,1024,2,48000,-16,experiment,1,odd,8,413032,409640,410788,5544,89833,410800,NA,379378,5564,85008,415046,415836,411817,9180,415046,NA,NA,Sternberg task,59,42741,66,yes,1024
89.55223881,89.55223881,645.2985075,645.2985075,black,experiment,legacy,legacy,legacy,0,uniform,1,undefined,1,left,66,66,66,0,0,66,NA,66,0,0,66,66,66,0,66,0,NA,Sun Oct 20 20:56:20 2019,The main experiment item,yes,Sternbergtask.osexp,/Users/danielrazo0311/Desktop,no,mono,no,18,no,white,no,yes,768,legacy,54,11,/Users/danielrazo0311/Desktop/subject-1.csv,legacy,4 6 2 5 1,Kafkaesque Koffka,3.2.8,5,y,0,left,left,left,left,NA,494,3591,4823,494,NA,2,legacy,5,1024,2,48000,-16,experiment,1,odd,1,419259,415858,417021,5544,89833,417033,NA,379378,5564,85008,421275,421772,418047,9180,421275,NA,NA,Sternberg task,60,43235,67,yes,1024
89.70588235,89.70588235,646.8676471,646.8676471,black,experiment,legacy,legacy,legacy,0,uniform,1,undefined,1,right,67,67,67,0,0,67,NA,67,0,0,67,67,67,0,67,0,NA,Sun Oct 20 20:56:20 2019,The main experiment item,yes,Sternbergtask.osexp,/Users/danielrazo0311/Desktop,no,mono,no,18,no,white,no,yes,768,legacy,55,11,/Users/danielrazo0311/Desktop/subject-1.csv,legacy,8 6 3 4 7,Kafkaesque Koffka,3.2.8,0,n,0,right,left,left,right,NA,752,3591,4823,752,NA,2,legacy,5,1024,2,48000,-16,experiment,1,odd,1,425177,421786,422938,5544,89833,422950,NA,379378,5564,85008,427192,427948,423963,9180,427191,NA,NA,Sternberg task,61,43987,68,yes,1024
89.85507246,89.85507246,644.6376812,644.6376812,black,experiment,legacy,legacy,legacy,0,uniform,1,undefined,1,left,68,68,68,0,0,68,NA,68,0,0,68,68,68,0,68,0,NA,Sun Oct 20 20:56:20 2019,The main experiment item,yes,Sternbergtask.osexp,/Users/danielrazo0311/Desktop,no,mono,no,18,no,white,no,yes,768,legacy,56,11,/Users/danielrazo0311/Desktop/subject-1.csv,legacy,4 1 8 7 5,Kafkaesque Koffka,3.2.8,3,y,0,left,left,left,left,NA,493,3591,4823,493,NA,2,legacy,5,1024,2,48000,-16,experiment,1,odd,8,431359,427963,429120,5544,89833,429133,NA,379378,5564,85008,433371,433867,430146,9180,433371,NA,NA,Sternberg task,62,44480,69,yes,1024
90,90,645.9857143,645.9857143,black,experiment,legacy,legacy,legacy,0,uniform,1,undefined,1,right,69,69,69,0,0,69,NA,69,0,0,69,69,69,0,69,0,NA,Sun Oct 20 20:56:20 2019,The main experiment item,yes,Sternbergtask.osexp,/Users/danielrazo0311/Desktop,no,mono,no,18,no,white,no,yes,768,legacy,57,11,/Users/danielrazo0311/Desktop/subject-1.csv,legacy,1 5 3 2 8,Kafkaesque Koffka,3.2.8,0,n,0,right,left,left,right,NA,739,3591,4823,739,NA,2,legacy,5,1024,2,48000,-16,experiment,1,odd,4,437266,433882,435028,5544,89833,435040,NA,379378,5564,85008,439279,440021,436053,9180,439279,NA,NA,Sternberg task,63,45219,70,yes,1024
90.14084507,90.14084507,644.6478873,644.6478873,black,experiment,legacy,legacy,legacy,0,uniform,1,undefined,1,right,70,70,70,0,0,70,NA,70,0,0,70,70,70,0,70,0,NA,Sun Oct 20 20:56:20 2019,The main experiment item,yes,Sternbergtask.osexp,/Users/danielrazo0311/Desktop,no,mono,no,18,no,white,no,yes,768,legacy,58,11,/Users/danielrazo0311/Desktop/subject-1.csv,legacy,9 5 3 2 8 6,Kafkaesque Koffka,3.2.8,0,n,0,right,left,left,right,NA,551,3591,4823,551,NA,2,legacy,6,1024,2,48000,-16,experiment,1,odd,7,443424,440035,441181,5544,89833,441194,NA,379378,5564,85008,445436,445990,442208,9180,445436,NA,NA,Sternberg task,64,45770,71,yes,1024
90.27777778,90.27777778,643.2083333,643.2083333,black,experiment,legacy,legacy,legacy,0,uniform,1,undefined,1,right,71,71,71,0,0,71,NA,71,0,0,71,71,71,0,71,0,NA,Sun Oct 20 20:56:20 2019,The main experiment item,yes,Sternbergtask.osexp,/Users/danielrazo0311/Desktop,no,mono,no,18,no,white,no,yes,768,legacy,59,11,/Users/danielrazo0311/Desktop/subject-1.csv,legacy,1 7 8 3 9,Kafkaesque Koffka,3.2.8,0,n,0,right,left,left,right,NA,541,3591,4823,541,NA,2,legacy,5,1024,2,48000,-16,experiment,1,odd,2,449394,446005,447152,5544,89833,447164,NA,379378,5564,85008,451407,451951,448177,9180,451407,NA,NA,Sternberg task,65,46311,72,yes,1024
90.4109589,90.4109589,648.6712329,648.6712329,black,experiment,legacy,legacy,legacy,0,uniform,1,undefined,1,right,72,72,72,0,0,72,NA,72,0,0,72,72,72,0,72,0,NA,Sun Oct 20 20:56:20 2019,The main experiment item,yes,Sternbergtask.osexp,/Users/danielrazo0311/Desktop,no,mono,no,18,no,white,no,yes,768,legacy,60,11,/Users/danielrazo0311/Desktop/subject-1.csv,legacy,6 7 5 9,Kafkaesque Koffka,3.2.8,0,n,0,right,left,left,right,NA,1042,3591,4823,1042,NA,2,legacy,4,1024,2,48000,-16,experiment,1,odd,2,455356,451966,453112,5544,89833,453125,NA,379378,5564,85008,457368,458412,454138,9180,457368,NA,NA,Sternberg task,66,47353,73,yes,1024
90.54054054,90.54054054,654.2297297,654.2297297,black,experiment,legacy,legacy,legacy,0,uniform,1,undefined,1,left,73,73,73,0,0,73,NA,73,0,0,73,73,73,0,73,0,NA,Sun Oct 20 20:56:20 2019,The main experiment item,yes,Sternbergtask.osexp,/Users/danielrazo0311/Desktop,no,mono,no,18,no,white,no,yes,768,legacy,61,11,/Users/danielrazo0311/Desktop/subject-1.csv,legacy,4 7 6 8 2 3,Kafkaesque Koffka,3.2.8,6,y,0,left,left,left,left,NA,1060,3591,4823,1060,NA,2,legacy,6,1024,2,48000,-16,experiment,1,odd,3,461814,458427,459574,5544,89833,459586,NA,379378,5564,85008,463827,464890,460600,9180,463827,NA,NA,Sternberg task,67,48413,74,yes,1024
90.66666667,90.66666667,657.6266667,657.6266667,black,experiment,legacy,legacy,legacy,0,uniform,1,undefined,1,left,74,74,74,0,0,74,NA,74,0,0,74,74,74,0,74,0,NA,Sun Oct 20 20:56:20 2019,The main experiment item,yes,Sternbergtask.osexp,/Users/danielrazo0311/Desktop,no,mono,no,18,no,white,no,yes,768,legacy,62,11,/Users/danielrazo0311/Desktop/subject-1.csv,legacy,6 8 9 3 4 9,Kafkaesque Koffka,3.2.8,5,y,0,left,left,left,left,NA,909,3591,4823,909,NA,2,legacy,6,1024,2,48000,-16,experiment,1,odd,4,468293,464905,466053,5544,89833,466065,NA,379378,5564,85008,470305,471218,467077,9180,470305,NA,NA,Sternberg task,68,49322,75,yes,1024
90.78947368,90.78947368,654.9078947,654.9078947,black,experiment,legacy,legacy,legacy,0,uniform,1,undefined,1,left,75,75,75,0,0,75,NA,75,0,0,75,75,75,0,75,0,NA,Sun Oct 20 20:56:20 2019,The main experiment item,yes,Sternbergtask.osexp,/Users/danielrazo0311/Desktop,no,mono,no,18,no,white,no,yes,768,legacy,63,11,/Users/danielrazo0311/Desktop/subject-1.csv,legacy,9 6 2 4 1,Kafkaesque Koffka,3.2.8,4,y,0,left,left,left,left,NA,451,3591,4823,451,NA,2,legacy,5,1024,2,48000,-16,experiment,1,odd,4,474619,471233,472379,5544,89833,472392,NA,379378,5564,85008,476631,477085,473404,9180,476631,NA,NA,Sternberg task,69,49773,76,yes,1024
90.90909091,90.90909091,653.1558442,653.1558442,black,experiment,legacy,legacy,legacy,0,uniform,1,undefined,1,left,76,76,76,0,0,76,NA,76,0,0,76,76,76,0,76,0,NA,Sun Oct 20 20:56:20 2019,The main experiment item,yes,Sternbergtask.osexp,/Users/danielrazo0311/Desktop,no,mono,no,18,no,white,no,yes,768,legacy,64,11,/Users/danielrazo0311/Desktop/subject-1.csv,legacy,6 2,Kafkaesque Koffka,3.2.8,1,y,0,left,left,left,left,NA,520,3591,4823,520,NA,2,legacy,2,1024,2,48000,-16,experiment,1,odd,6,480506,477119,478264,5544,89833,478276,NA,379378,5564,85008,482520,483043,479290,9180,482520,NA,NA,Sternberg task,70,50293,77,yes,1024
91.02564103,91.02564103,653.6538462,653.6538462,black,experiment,legacy,legacy,legacy,0,uniform,1,undefined,1,right,77,77,77,0,0,77,NA,77,0,0,77,77,77,0,77,0,NA,Sun Oct 20 20:56:20 2019,The main experiment item,yes,Sternbergtask.osexp,/Users/danielrazo0311/Desktop,no,mono,no,18,no,white,no,yes,768,legacy,65,11,/Users/danielrazo0311/Desktop/subject-1.csv,legacy,4 2 7 6 1 3,Kafkaesque Koffka,3.2.8,0,n,0,right,left,left,right,NA,692,3591,4823,692,NA,2,legacy,6,1024,2,48000,-16,experiment,1,odd,8,486447,483061,484208,5544,89833,484220,NA,379378,5564,85008,488462,489157,485234,9180,488462,NA,NA,Sternberg task,71,50985,78,yes,1024
89.87341772,89.87341772,654.3291139,654.3291139,black,experiment,legacy,legacy,legacy,0,uniform,0,undefined,0,left,78,78,78,0,0,78,NA,78,0,0,78,78,78,0,78,0,NA,Sun Oct 20 20:56:20 2019,The main experiment item,yes,Sternbergtask.osexp,/Users/danielrazo0311/Desktop,no,mono,no,18,no,white,no,yes,768,legacy,66,11,/Users/danielrazo0311/Desktop/subject-1.csv,legacy,7 1 8 5 6 2,Kafkaesque Koffka,3.2.8,2,y,0,right,left,left,right,NA,707,3591,4823,707,NA,2,legacy,6,1024,2,48000,-16,experiment,1,odd,1,492562,489171,490320,5544,89833,490332,NA,379378,5564,85008,494575,495285,491346,9180,494575,NA,NA,Sternberg task,71,51692,79,yes,1024
90,90,657.25,657.25,black,experiment,legacy,legacy,legacy,0,uniform,1,undefined,1,right,79,79,79,0,0,79,NA,79,0,0,79,79,79,0,79,0,NA,Sun Oct 20 20:56:20 2019,The main experiment item,yes,Sternbergtask.osexp,/Users/danielrazo0311/Desktop,no,mono,no,18,no,white,no,yes,768,legacy,67,11,/Users/danielrazo0311/Desktop/subject-1.csv,legacy,8 5 4 2 9 6,Kafkaesque Koffka,3.2.8,0,n,0,right,left,left,right,NA,888,3591,4823,888,NA,2,legacy,6,1024,2,48000,-16,experiment,1,odd,3,498686,489171,496447,5544,89833,496459,NA,495300,5564,85008,500699,501590,497471,9180,500699,NA,NA,Sternberg task,72,52580,80,yes,1024
88.88888889,88.88888889,660.3703704,660.3703704,black,experiment,legacy,legacy,legacy,0,uniform,0,undefined,0,left,80,80,80,0,0,80,NA,80,0,0,80,80,80,0,80,0,NA,Sun Oct 20 20:56:20 2019,The main experiment item,yes,Sternbergtask.osexp,/Users/danielrazo0311/Desktop,no,mono,no,18,no,white,no,yes,768,legacy,68,11,/Users/danielrazo0311/Desktop/subject-1.csv,legacy,2 4 8 5 1 3,Kafkaesque Koffka,3.2.8,1,y,0,right,left,left,right,NA,910,3591,4823,910,NA,2,legacy,6,1024,2,48000,-16,experiment,1,odd,2,504991,501605,502751,5544,89833,502763,NA,495300,5564,85008,507005,507918,503776,9180,507004,NA,NA,Sternberg task,72,53490,81,yes,1024
87.80487805,87.80487805,666.0243902,666.0243902,black,experiment,legacy,legacy,legacy,0,uniform,0,undefined,0,left,81,81,81,0,0,81,NA,81,0,0,81,81,81,0,81,0,NA,Sun Oct 20 20:56:20 2019,The main experiment item,yes,Sternbergtask.osexp,/Users/danielrazo0311/Desktop,no,mono,no,18,no,white,no,yes,768,legacy,69,11,/Users/danielrazo0311/Desktop/subject-1.csv,legacy,8 5 4 7 3 1,Kafkaesque Koffka,3.2.8,2,y,0,right,left,left,right,NA,1124,3591,4823,1124,NA,2,legacy,6,1024,2,48000,-16,experiment,1,odd,5,511329,501605,509089,5544,89833,509101,NA,507933,5564,85008,513343,514471,510115,9180,513342,NA,NA,Sternberg task,72,54614,82,yes,1024
87.95180723,87.95180723,664.5421687,664.5421687,black,experiment,legacy,legacy,legacy,0,uniform,1,undefined,1,right,82,82,82,0,0,82,NA,82,0,0,82,82,82,0,82,0,NA,Sun Oct 20 20:56:20 2019,The main experiment item,yes,Sternbergtask.osexp,/Users/danielrazo0311/Desktop,no,mono,no,18,no,white,no,yes,768,legacy,70,11,/Users/danielrazo0311/Desktop/subject-1.csv,legacy,7 9,Kafkaesque Koffka,3.2.8,0,n,0,right,left,left,right,NA,543,3591,4823,543,NA,2,legacy,2,1024,2,48000,-16,experiment,1,odd,1,517874,501605,515632,5544,89833,515644,NA,514486,5564,85008,519888,520435,516658,9180,519888,NA,NA,Sternberg task,73,55157,83,yes,1024
88.0952381,88.0952381,663.2261905,663.2261905,black,experiment,legacy,legacy,legacy,0,uniform,1,undefined,1,right,83,83,83,0,0,83,NA,83,0,0,83,83,83,0,83,0,NA,Sun Oct 20 20:56:20 2019,The main experiment item,yes,Sternbergtask.osexp,/Users/danielrazo0311/Desktop,no,mono,no,18,no,white,no,yes,768,legacy,71,11,/Users/danielrazo0311/Desktop/subject-1.csv,legacy,6 8,Kafkaesque Koffka,3.2.8,0,n,0,right,left,left,right,NA,554,3591,4823,554,NA,2,legacy,2,1024,2,48000,-16,experiment,1,odd,9,523842,520450,521600,5544,89833,521613,NA,514486,5564,85008,525855,526413,522627,9180,525855,NA,NA,Sternberg task,74,55711,84,yes,1024
88.23529412,88.23529412,660.6941176,660.6941176,black,experiment,legacy,legacy,legacy,0,uniform,1,undefined,1,right,84,84,84,0,0,84,NA,84,0,0,84,84,84,0,84,0,NA,Sun Oct 20 20:56:20 2019,The main experiment item,yes,Sternbergtask.osexp,/Users/danielrazo0311/Desktop,no,mono,no,18,no,white,no,yes,768,legacy,72,11,/Users/danielrazo0311/Desktop/subject-1.csv,legacy,1,Kafkaesque Koffka,3.2.8,0,n,0,right,left,left,right,NA,448,3591,4823,448,NA,2,legacy,1,1024,2,48000,-16,experiment,1,odd,7,529820,526428,527579,5544,89833,527591,NA,514486,5564,85008,531834,532284,528603,9180,531834,NA,NA,Sternberg task,75,56159,85,yes,1024
88.37209302,88.37209302,661.3255814,661.3255814,black,experiment,legacy,legacy,legacy,0,uniform,1,undefined,1,left,85,85,85,0,0,85,NA,85,0,0,85,85,85,0,85,0,NA,Sun Oct 20 20:56:20 2019,The main experiment item,yes,Sternbergtask.osexp,/Users/danielrazo0311/Desktop,no,mono,no,18,no,white,no,yes,768,legacy,73,11,/Users/danielrazo0311/Desktop/subject-1.csv,legacy,3 5 9 6 2 4,Kafkaesque Koffka,3.2.8,1,y,0,left,left,left,left,NA,715,3591,4823,715,NA,2,legacy,6,1024,2,48000,-16,experiment,1,odd,3,535704,532299,533459,5544,89833,533473,NA,514486,5564,85008,537718,538437,534490,9180,537717,NA,NA,Sternberg task,76,56874,86,yes,1024
88.50574713,88.50574713,661.2298851,661.2298851,black,experiment,legacy,legacy,legacy,0,uniform,1,undefined,1,left,86,86,86,0,0,86,NA,86,0,0,86,86,86,0,86,0,NA,Sun Oct 20 20:56:20 2019,The main experiment item,yes,Sternbergtask.osexp,/Users/danielrazo0311/Desktop,no,mono,no,18,no,white,no,yes,768,legacy,74,11,/Users/danielrazo0311/Desktop/subject-1.csv,legacy,3 9 6 2,Kafkaesque Koffka,3.2.8,4,y,0,left,left,left,left,NA,653,3591,4823,653,NA,2,legacy,4,1024,2,48000,-16,experiment,1,odd,2,541840,538453,539600,5544,89833,539612,NA,514486,5564,85008,543853,544509,540626,9180,543853,NA,NA,Sternberg task,77,57527,87,yes,1024
88.63636364,88.63636364,659.75,659.75,black,experiment,legacy,legacy,legacy,0,uniform,1,undefined,1,left,87,87,87,0,0,87,NA,87,0,0,87,87,87,0,87,0,NA,Sun Oct 20 20:56:20 2019,The main experiment item,yes,Sternbergtask.osexp,/Users/danielrazo0311/Desktop,no,mono,no,18,no,white,no,yes,768,legacy,75,11,/Users/danielrazo0311/Desktop/subject-1.csv,legacy,9 4 2,Kafkaesque Koffka,3.2.8,1,y,0,left,left,left,left,NA,531,3591,4823,531,NA,2,legacy,3,1024,2,48000,-16,experiment,1,odd,9,547915,544525,545671,5544,89833,545683,NA,514486,5564,85008,549928,550462,546696,9180,549928,NA,NA,Sternberg task,78,58058,88,yes,1024
88.76404494,88.76404494,658.8089888,658.8089888,black,experiment,legacy,legacy,legacy,0,uniform,1,undefined,1,right,88,88,88,0,0,88,NA,88,0,0,88,88,88,0,88,0,NA,Sun Oct 20 20:56:20 2019,The main experiment item,yes,Sternbergtask.osexp,/Users/danielrazo0311/Desktop,no,mono,no,18,no,white,no,yes,768,legacy,76,11,/Users/danielrazo0311/Desktop/subject-1.csv,legacy,3 9 8 1 6 4,Kafkaesque Koffka,3.2.8,0,n,0,right,left,left,right,NA,576,3591,4823,576,NA,2,legacy,6,1024,2,48000,-16,experiment,1,odd,7,553867,550477,551625,5544,89833,551637,NA,514486,5564,85008,555879,556458,552650,9180,555879,NA,NA,Sternberg task,79,58634,89,yes,1024
88.88888889,88.88888889,661.0888889,661.0888889,black,experiment,legacy,legacy,legacy,0,uniform,1,undefined,1,left,89,89,89,0,0,89,NA,89,0,0,89,89,89,0,89,0,NA,Sun Oct 20 20:56:20 2019,The main experiment item,yes,Sternbergtask.osexp,/Users/danielrazo0311/Desktop,no,mono,no,18,no,white,no,yes,768,legacy,77,11,/Users/danielrazo0311/Desktop/subject-1.csv,legacy,5 2 6,Kafkaesque Koffka,3.2.8,2,y,0,left,left,left,left,NA,864,3591,4823,864,NA,2,legacy,3,1024,2,48000,-16,experiment,1,odd,2,559866,556473,557622,5544,89833,557635,NA,514486,5564,85008,561880,562747,558649,9180,561879,NA,NA,Sternberg task,80,59498,90,yes,1024
89.01098901,89.01098901,659.6153846,659.6153846,black,experiment,legacy,legacy,legacy,0,uniform,1,undefined,1,right,90,90,90,0,0,90,NA,90,0,0,90,90,90,0,90,0,NA,Sun Oct 20 20:56:20 2019,The main experiment item,yes,Sternbergtask.osexp,/Users/danielrazo0311/Desktop,no,mono,no,18,no,white,no,yes,768,legacy,78,11,/Users/danielrazo0311/Desktop/subject-1.csv,legacy,3 9 1,Kafkaesque Koffka,3.2.8,0,n,0,right,left,left,right,NA,527,3591,4823,527,NA,2,legacy,3,1024,2,48000,-16,experiment,1,odd,7,566148,562762,563908,5544,89833,563920,NA,514486,5564,85008,568161,568691,564933,9180,568161,NA,NA,Sternberg task,81,60025,91,yes,1024
89.13043478,89.13043478,657.9673913,657.9673913,black,experiment,legacy,legacy,legacy,0,uniform,1,undefined,1,left,91,91,91,0,0,91,NA,91,0,0,91,91,91,0,91,0,NA,Sun Oct 20 20:56:20 2019,The main experiment item,yes,Sternbergtask.osexp,/Users/danielrazo0311/Desktop,no,mono,no,18,no,white,no,yes,768,legacy,79,11,/Users/danielrazo0311/Desktop/subject-1.csv,legacy,8 9 5 6 7,Kafkaesque Koffka,3.2.8,1,y,0,left,left,left,left,NA,508,3591,4823,508,NA,2,legacy,5,1024,2,48000,-16,experiment,1,odd,8,572100,568706,569857,5544,89833,569870,NA,514486,5564,85008,574112,574623,570883,9180,574112,NA,NA,Sternberg task,82,60533,92,yes,1024
89.24731183,89.24731183,659.8494624,659.8494624,black,experiment,legacy,legacy,legacy,0,uniform,1,undefined,1,right,92,92,92,0,0,92,NA,92,0,0,92,92,92,0,92,0,NA,Sun Oct 20 20:56:20 2019,The main experiment item,yes,Sternbergtask.osexp,/Users/danielrazo0311/Desktop,no,mono,no,18,no,white,no,yes,768,legacy,80,11,/Users/danielrazo0311/Desktop/subject-1.csv,legacy,5 3 2 6 9 8,Kafkaesque Koffka,3.2.8,0,n,0,right,left,left,right,NA,833,3591,4823,833,NA,2,legacy,6,1024,2,48000,-16,experiment,1,odd,4,578029,574638,575788,5544,89833,575800,NA,514486,5564,85008,580042,580878,576814,9180,580042,NA,NA,Sternberg task,83,61366,93,yes,1024
88.29787234,88.29787234,659.5531915,659.5531915,black,experiment,legacy,legacy,legacy,0,uniform,0,undefined,0,left,93,93,93,0,0,93,NA,93,0,0,93,93,93,0,93,0,NA,Sun Oct 20 20:56:20 2019,The main experiment item,yes,Sternbergtask.osexp,/Users/danielrazo0311/Desktop,no,mono,no,18,no,white,no,yes,768,legacy,81,11,/Users/danielrazo0311/Desktop/subject-1.csv,legacy,3 9 7 6 4,Kafkaesque Koffka,3.2.8,3,y,0,right,left,left,right,NA,632,3591,4823,632,NA,2,legacy,5,1024,2,48000,-16,experiment,1,odd,7,584281,580893,582038,5544,89833,582051,NA,514486,5564,85008,586294,586929,583065,9180,586293,NA,NA,Sternberg task,83,61998,94,yes,1024
88.42105263,88.42105263,658.7052632,658.7052632,black,experiment,legacy,legacy,legacy,0,uniform,1,undefined,1,right,94,94,94,0,0,94,NA,94,0,0,94,94,94,0,94,0,NA,Sun Oct 20 20:56:20 2019,The main experiment item,yes,Sternbergtask.osexp,/Users/danielrazo0311/Desktop,no,mono,no,18,no,white,no,yes,768,legacy,82,11,/Users/danielrazo0311/Desktop/subject-1.csv,legacy,3 4 2,Kafkaesque Koffka,3.2.8,0,n,0,right,left,left,right,NA,579,3591,4823,579,NA,2,legacy,3,1024,2,48000,-16,experiment,1,odd,5,590329,580893,588089,5544,89833,588102,NA,586944,5564,85008,592343,592925,589114,9180,592342,NA,NA,Sternberg task,84,62577,95,yes,1024
88.54166667,88.54166667,661.1145833,661.1145833,black,experiment,legacy,legacy,legacy,0,uniform,1,undefined,1,right,95,95,95,0,0,95,NA,95,0,0,95,95,95,0,95,0,NA,Sun Oct 20 20:56:20 2019,The main experiment item,yes,Sternbergtask.osexp,/Users/danielrazo0311/Desktop,no,mono,no,18,no,white,no,yes,768,legacy,83,11,/Users/danielrazo0311/Desktop/subject-1.csv,legacy,1 3 2 6 9,Kafkaesque Koffka,3.2.8,0,n,0,right,left,left,right,NA,890,3591,4823,890,NA,2,legacy,5,1024,2,48000,-16,experiment,1,odd,5,596332,592941,594087,5544,89833,594099,NA,586944,5564,85008,598346,599240,595116,9180,598345,NA,NA,Sternberg task,85,63467,96,yes,1024
88.65979381,88.65979381,660.2474227,660.2474227,black,experiment,legacy,legacy,legacy,0,uniform,1,undefined,1,right,96,96,96,0,0,96,NA,96,0,0,96,96,96,0,96,0,NA,Sun Oct 20 20:56:20 2019,The main experiment item,yes,Sternbergtask.osexp,/Users/danielrazo0311/Desktop,no,mono,no,18,no,white,no,yes,768,legacy,84,11,/Users/danielrazo0311/Desktop/subject-1.csv,legacy,1 4 9 2 5,Kafkaesque Koffka,3.2.8,0,n,0,right,left,left,right,NA,577,3591,4823,577,NA,2,legacy,5,1024,2,48000,-16,experiment,1,odd,7,602642,599256,600402,5544,89833,600414,NA,586944,5564,85008,604654,605235,601427,9180,604654,NA,NA,Sternberg task,86,64044,97,yes,1024
88.7755102,88.7755102,658.4795918,658.4795918,black,experiment,legacy,legacy,legacy,0,uniform,1,undefined,1,left,97,97,97,0,0,97,NA,97,0,0,97,97,97,0,97,0,NA,Sun Oct 20 20:56:20 2019,The main experiment item,yes,Sternbergtask.osexp,/Users/danielrazo0311/Desktop,no,mono,no,18,no,white,no,yes,768,legacy,85,11,/Users/danielrazo0311/Desktop/subject-1.csv,legacy,6 1 2,Kafkaesque Koffka,3.2.8,3,y,0,left,left,left,left,NA,487,3591,4823,487,NA,2,legacy,3,1024,2,48000,-16,experiment,1,odd,2,608637,605251,606396,5544,89833,606408,NA,586944,5564,85008,610651,611141,607422,9180,610651,NA,NA,Sternberg task,87,64531,98,yes,1024
88.88888889,88.88888889,657.4848485,657.4848485,black,experiment,legacy,legacy,legacy,0,uniform,1,undefined,1,right,98,98,98,0,0,98,NA,98,0,0,98,98,98,0,98,0,NA,Sun Oct 20 20:56:20 2019,The main experiment item,yes,Sternbergtask.osexp,/Users/danielrazo0311/Desktop,no,mono,no,18,no,white,no,yes,768,legacy,86,11,/Users/danielrazo0311/Desktop/subject-1.csv,legacy,2 8 9 4 1,Kafkaesque Koffka,3.2.8,0,n,0,right,left,left,right,NA,560,3591,4823,560,NA,2,legacy,5,1024,2,48000,-16,experiment,1,odd,5,614547,611156,612304,5544,89833,612317,NA,586944,5564,85008,616561,617125,613331,9180,616560,NA,NA,Sternberg task,88,65091,99,yes,1024
89,89,655.49,655.49,black,experiment,legacy,legacy,legacy,0,uniform,1,undefined,1,left,99,99,99,0,0,99,NA,99,0,0,99,99,99,0,99,0,NA,Sun Oct 20 20:56:20 2019,The main experiment item,yes,Sternbergtask.osexp,/Users/danielrazo0311/Desktop,no,mono,no,18,no,white,no,yes,768,legacy,87,11,/Users/danielrazo0311/Desktop/subject-1.csv,legacy,3 5 4 7,Kafkaesque Koffka,3.2.8,1,y,0,left,left,left,left,NA,458,3591,4823,458,NA,2,legacy,4,1024,2,48000,-16,experiment,1,odd,3,620530,617140,618287,5544,89833,618299,NA,586944,5564,85008,622543,623004,619313,9180,622543,NA,NA,Sternberg task,89,65549,100,yes,1024
89.10891089,89.10891089,656.3762376,656.3762376,black,experiment,legacy,legacy,legacy,0,uniform,1,undefined,1,left,100,100,100,0,0,100,NA,100,0,0,100,100,100,0,100,0,NA,Sun Oct 20 20:56:20 2019,The main experiment item,yes,Sternbergtask.osexp,/Users/danielrazo0311/Desktop,no,mono,no,18,no,white,no,yes,768,legacy,88,11,/Users/danielrazo0311/Desktop/subject-1.csv,legacy,8 9 6 1,Kafkaesque Koffka,3.2.8,2,y,0,left,left,left,left,NA,745,3591,4823,745,NA,2,legacy,4,1024,2,48000,-16,experiment,1,odd,9,626407,623019,624166,5544,89833,624179,NA,586944,5564,85008,628419,629167,625191,9180,628419,NA,NA,Sternberg task,90,66294,101,yes,1024
89.21568627,89.21568627,657.5980392,657.5980392,black,experiment,legacy,legacy,legacy,0,uniform,1,undefined,1,right,101,101,101,0,0,101,NA,101,0,0,101,101,101,0,101,0,NA,Sun Oct 20 20:56:20 2019,The main experiment item,yes,Sternbergtask.osexp,/Users/danielrazo0311/Desktop,no,mono,no,18,no,white,no,yes,768,legacy,89,11,/Users/danielrazo0311/Desktop/subject-1.csv,legacy,2 8 9,Kafkaesque Koffka,3.2.8,0,n,0,right,left,left,right,NA,781,3591,4823,781,NA,2,legacy,3,1024,2,48000,-16,experiment,1,odd,6,632568,629183,630329,5544,89833,630341,NA,586944,5564,85008,634581,635366,631353,9180,634581,NA,NA,Sternberg task,91,67075,102,yes,1024
89.32038835,89.32038835,660.2815534,660.2815534,black,experiment,legacy,legacy,legacy,0,uniform,1,undefined,1,right,102,102,102,0,0,102,NA,102,0,0,102,102,102,0,102,0,NA,Sun Oct 20 20:56:20 2019,The main experiment item,yes,Sternbergtask.osexp,/Users/danielrazo0311/Desktop,no,mono,no,18,no,white,no,yes,768,legacy,90,11,/Users/danielrazo0311/Desktop/subject-1.csv,legacy,6 9 4 5 2,Kafkaesque Koffka,3.2.8,0,n,0,right,left,left,right,NA,934,3591,4823,934,NA,2,legacy,5,1024,2,48000,-16,experiment,1,odd,1,638771,635381,636527,5544,89833,636540,NA,586944,5564,85008,640784,641721,637554,9180,640784,NA,NA,Sternberg task,92,68009,103,yes,1024
89.42307692,89.42307692,659.5480769,659.5480769,black,experiment,legacy,legacy,legacy,0,uniform,1,undefined,1,right,103,103,103,0,0,103,NA,103,0,0,103,103,103,0,103,0,NA,Sun Oct 20 20:56:20 2019,The main experiment item,yes,Sternbergtask.osexp,/Users/danielrazo0311/Desktop,no,mono,no,18,no,white,no,yes,768,legacy,91,11,/Users/danielrazo0311/Desktop/subject-1.csv,legacy,1 6 4,Kafkaesque Koffka,3.2.8,0,n,0,right,left,left,right,NA,584,3591,4823,584,NA,2,legacy,3,1024,2,48000,-16,experiment,1,odd,7,645129,641737,642884,5544,89833,642896,NA,586944,5564,85008,647142,647729,643912,9180,647142,NA,NA,Sternberg task,93,68593,104,yes,1024
89.52380952,89.52380952,658.552381,658.552381,black,experiment,legacy,legacy,legacy,0,uniform,1,undefined,1,right,104,104,104,0,0,104,NA,104,0,0,104,104,104,0,104,0,NA,Sun Oct 20 20:56:20 2019,The main experiment item,yes,Sternbergtask.osexp,/Users/danielrazo0311/Desktop,no,mono,no,18,no,white,no,yes,768,legacy,92,11,/Users/danielrazo0311/Desktop/subject-1.csv,legacy,7 6 4 8 1 2,Kafkaesque Koffka,3.2.8,0,n,0,right,left,left,right,NA,555,3591,4823,555,NA,2,legacy,6,1024,2,48000,-16,experiment,1,odd,9,651132,647744,648890,5544,89833,648903,NA,586944,5564,85008,653147,653705,649916,9180,653146,NA,NA,Sternberg task,94,69148,105,yes,1024
89.62264151,89.62264151,657.4245283,657.4245283,black,experiment,legacy,legacy,legacy,0,uniform,1,undefined,1,left,105,105,105,0,0,105,NA,105,0,0,105,105,105,0,105,0,NA,Sun Oct 20 20:56:20 2019,The main experiment item,yes,Sternbergtask.osexp,/Users/danielrazo0311/Desktop,no,mono,no,18,no,white,no,yes,768,legacy,93,11,/Users/danielrazo0311/Desktop/subject-1.csv,legacy,8 1 6,Kafkaesque Koffka,3.2.8,3,y,0,left,left,left,left,NA,539,3591,4823,539,NA,2,legacy,3,1024,2,48000,-16,experiment,1,odd,6,657117,653720,654875,5544,89833,654888,NA,586944,5564,85008,659131,659673,655902,9180,659131,NA,NA,Sternberg task,95,69687,106,yes,1024
89.71962617,89.71962617,655.2336449,655.2336449,black,experiment,legacy,legacy,legacy,0,uniform,1,undefined,1,right,106,106,106,0,0,106,NA,106,0,0,106,106,106,0,106,0,NA,Sun Oct 20 20:56:20 2019,The main experiment item,yes,Sternbergtask.osexp,/Users/danielrazo0311/Desktop,no,mono,no,18,no,white,no,yes,768,legacy,94,11,/Users/danielrazo0311/Desktop/subject-1.csv,legacy,9,Kafkaesque Koffka,3.2.8,0,n,0,right,left,left,right,NA,423,3591,4823,423,NA,2,legacy,1,1024,2,48000,-16,experiment,1,odd,6,663074,659688,660833,5544,89833,660845,NA,586944,5564,85008,665086,665512,661858,9180,665086,NA,NA,Sternberg task,96,70110,107,yes,1024
89.81481481,89.81481481,653.9351852,653.9351852,black,experiment,legacy,legacy,legacy,0,uniform,1,undefined,1,right,107,107,107,0,0,107,NA,107,0,0,107,107,107,0,107,0,NA,Sun Oct 20 20:56:20 2019,The main experiment item,yes,Sternbergtask.osexp,/Users/danielrazo0311/Desktop,no,mono,no,18,no,white,no,yes,768,legacy,95,11,/Users/danielrazo0311/Desktop/subject-1.csv,legacy,3 4 9 6 7 8,Kafkaesque Koffka,3.2.8,0,n,0,right,left,left,right,NA,515,3591,4823,515,NA,2,legacy,6,1024,2,48000,-16,experiment,1,odd,2,668923,665536,666683,5544,89833,666695,NA,586944,5564,85008,670936,671454,667707,9180,670935,NA,NA,Sternberg task,97,70625,108,yes,1024
89.90825688,89.90825688,655.0275229,655.0275229,black,experiment,legacy,legacy,legacy,0,uniform,1,undefined,1,left,108,108,108,0,0,108,NA,108,0,0,108,108,108,0,108,0,NA,Sun Oct 20 20:56:20 2019,The main experiment item,yes,Sternbergtask.osexp,/Users/danielrazo0311/Desktop,no,mono,no,18,no,white,no,yes,768,legacy,96,11,/Users/danielrazo0311/Desktop/subject-1.csv,legacy,9 1 6 7 8,Kafkaesque Koffka,3.2.8,1,y,0,left,left,left,left,NA,773,3591,4823,773,NA,2,legacy,5,1024,2,48000,-16,experiment,1,odd,9,674860,671469,672617,5544,89833,672630,NA,586944,5564,85008,676878,677654,673643,9180,676877,NA,NA,Sternberg task,98,71398,109,yes,1024
90,90,655.4090909,655.4090909,black,experiment,legacy,legacy,legacy,0,uniform,1,undefined,1,left,109,109,109,0,0,109,NA,109,0,0,109,109,109,0,109,0,NA,Sun Oct 20 20:56:20 2019,The main experiment item,yes,Sternbergtask.osexp,/Users/danielrazo0311/Desktop,no,mono,no,18,no,white,no,yes,768,legacy,97,11,/Users/danielrazo0311/Desktop/subject-1.csv,legacy,7 8 6 3 1,Kafkaesque Koffka,3.2.8,5,y,0,left,left,left,left,NA,697,3591,4823,697,NA,2,legacy,5,1024,2,48000,-16,experiment,1,odd,1,681062,677669,678818,5544,89833,678831,NA,586944,5564,85008,683075,683776,679846,9180,683075,NA,NA,Sternberg task,99,72095,110,yes,1024
90.09009009,90.09009009,656.3243243,656.3243243,black,experiment,legacy,legacy,legacy,0,uniform,1,undefined,1,right,110,110,110,0,0,110,NA,110,0,0,110,110,110,0,110,0,NA,Sun Oct 20 20:56:20 2019,The main experiment item,yes,Sternbergtask.osexp,/Users/danielrazo0311/Desktop,no,mono,no,18,no,white,no,yes,768,legacy,98,11,/Users/danielrazo0311/Desktop/subject-1.csv,legacy,6 3 1 7 9 8,Kafkaesque Koffka,3.2.8,0,n,0,right,left,left,right,NA,757,3591,4823,757,NA,2,legacy,6,1024,2,48000,-16,experiment,1,odd,4,687178,683790,684939,5544,89833,684951,NA,586944,5564,85008,689191,689951,685964,9180,689190,NA,NA,Sternberg task,100,72852,111,yes,1024
89.28571429,89.28571429,655.2053571,655.2053571,black,experiment,legacy,legacy,legacy,0,uniform,0,undefined,0,left,111,111,111,0,0,111,NA,111,0,0,111,111,111,0,111,0,NA,Sun Oct 20 20:56:20 2019,The main experiment item,yes,Sternbergtask.osexp,/Users/danielrazo0311/Desktop,no,mono,no,18,no,white,no,yes,768,legacy,99,11,/Users/danielrazo0311/Desktop/subject-1.csv,legacy,7 2 3,Kafkaesque Koffka,3.2.8,3,y,0,right,left,left,right,NA,531,3591,4823,531,NA,2,legacy,3,1024,2,48000,-16,experiment,1,odd,3,693356,689967,691112,5544,89833,691125,NA,586944,5564,85008,695369,695903,692139,9180,695369,NA,NA,Sternberg task,100,73383,112,yes,1024
89.38053097,89.38053097,659.7345133,659.7345133,black,experiment,legacy,legacy,legacy,0,uniform,1,undefined,1,right,112,112,112,0,0,112,NA,112,0,0,112,112,112,0,112,0,NA,Sun Oct 20 20:56:20 2019,The main experiment item,yes,Sternbergtask.osexp,/Users/danielrazo0311/Desktop,no,mono,no,18,no,white,no,yes,768,legacy,100,11,/Users/danielrazo0311/Desktop/subject-1.csv,legacy,5 3 8 7 2 4,Kafkaesque Koffka,3.2.8,0,n,0,right,left,left,right,NA,1167,3591,4823,1167,NA,2,legacy,6,1024,2,48000,-16,experiment,1,odd,9,699304,689967,697064,5544,89833,697078,NA,695918,5564,85008,701316,702486,698090,9180,701316,NA,NA,Sternberg task,101,74550,113,yes,1024
89.47368421,89.47368421,659.6491228,659.6491228,black,experiment,legacy,legacy,legacy,0,uniform,1,undefined,1,right,113,113,113,0,0,113,NA,113,0,0,113,113,113,0,113,0,NA,Sun Oct 20 20:56:20 2019,The main experiment item,yes,Sternbergtask.osexp,/Users/danielrazo0311/Desktop,no,mono,no,18,no,white,no,yes,768,legacy,101,11,/Users/danielrazo0311/Desktop/subject-1.csv,legacy,6 9 7 3 8 2,Kafkaesque Koffka,3.2.8,0,n,0,right,left,left,right,NA,650,3591,4823,650,NA,2,legacy,6,1024,2,48000,-16,experiment,1,odd,5,705904,702501,703659,5544,89833,703671,NA,695918,5564,85008,707920,708574,704688,9180,707919,NA,NA,Sternberg task,102,75200,114,yes,1024
89.56521739,89.56521739,660.7043478,660.7043478,black,experiment,legacy,legacy,legacy,0,uniform,1,undefined,1,right,114,114,114,0,0,114,NA,114,0,0,114,114,114,0,114,0,NA,Sun Oct 20 20:56:20 2019,The main experiment item,yes,Sternbergtask.osexp,/Users/danielrazo0311/Desktop,no,mono,no,18,no,white,no,yes,768,legacy,102,11,/Users/danielrazo0311/Desktop/subject-1.csv,legacy,1 6 4 3 9 7,Kafkaesque Koffka,3.2.8,0,n,0,right,left,left,right,NA,781,3591,4823,781,NA,2,legacy,6,1024,2,48000,-16,experiment,1,odd,8,711986,708589,709743,5544,89833,709756,NA,695918,5564,85008,713998,714785,710770,9180,713998,NA,NA,Sternberg task,103,75981,115,yes,1024
89.65517241,89.65517241,660.612069,660.612069,black,experiment,legacy,legacy,legacy,0,uniform,1,undefined,1,left,115,115,115,0,0,115,NA,115,0,0,115,115,115,0,115,0,NA,Sun Oct 20 20:56:20 2019,The main experiment item,yes,Sternbergtask.osexp,/Users/danielrazo0311/Desktop,no,mono,no,18,no,white,no,yes,768,legacy,103,11,/Users/danielrazo0311/Desktop/subject-1.csv,legacy,5 7 3 6 2,Kafkaesque Koffka,3.2.8,5,y,0,left,left,left,left,NA,650,3591,4823,650,NA,2,legacy,5,1024,2,48000,-16,experiment,1,odd,2,718212,714806,715968,5544,89833,715981,NA,695918,5564,85008,720225,720879,716995,9180,720224,NA,NA,Sternberg task,104,76631,116,yes,1024
89.74358974,89.74358974,659.1538462,659.1538462,black,experiment,legacy,legacy,legacy,0,uniform,1,undefined,1,right,116,116,116,0,0,116,NA,116,0,0,116,116,116,0,116,0,NA,Sun Oct 20 20:56:20 2019,The main experiment item,yes,Sternbergtask.osexp,/Users/danielrazo0311/Desktop,no,mono,no,18,no,white,no,yes,768,legacy,104,11,/Users/danielrazo0311/Desktop/subject-1.csv,legacy,7 1,Kafkaesque Koffka,3.2.8,0,n,0,right,left,left,right,NA,490,3591,4823,490,NA,2,legacy,2,1024,2,48000,-16,experiment,1,odd,8,724284,720894,722043,5544,89833,722055,NA,695918,5564,85008,726297,726791,723069,9180,726297,NA,NA,Sternberg task,105,77121,117,yes,1024
89.83050847,89.83050847,661.0677966,661.0677966,black,experiment,legacy,legacy,legacy,0,uniform,1,undefined,1,right,117,117,117,0,0,117,NA,117,0,0,117,117,117,0,117,0,NA,Sun Oct 20 20:56:20 2019,The main experiment item,yes,Sternbergtask.osexp,/Users/danielrazo0311/Desktop,no,mono,no,18,no,white,no,yes,768,legacy,105,11,/Users/danielrazo0311/Desktop/subject-1.csv,legacy,7 1 5 6 3,Kafkaesque Koffka,3.2.8,0,n,0,right,left,left,right,NA,885,3591,4823,885,NA,2,legacy,5,1024,2,48000,-16,experiment,1,odd,8,730209,726806,727970,5544,89833,727982,NA,695918,5564,85008,732221,733109,728997,9180,732221,NA,NA,Sternberg task,106,78006,118,yes,1024
89.91596639,89.91596639,661.5630252,661.5630252,black,experiment,legacy,legacy,legacy,0,uniform,1,undefined,1,left,118,118,118,0,0,118,NA,118,0,0,118,118,118,0,118,0,NA,Sun Oct 20 20:56:20 2019,The main experiment item,yes,Sternbergtask.osexp,/Users/danielrazo0311/Desktop,no,mono,no,18,no,white,no,yes,768,legacy,106,11,/Users/danielrazo0311/Desktop/subject-1.csv,legacy,7 1 3,Kafkaesque Koffka,3.2.8,2,y,0,left,left,left,left,NA,720,3591,4823,720,NA,2,legacy,3,1024,2,48000,-16,experiment,1,odd,1,736525,733124,734283,5544,89833,734295,NA,695918,5564,85008,738537,739261,735307,9180,738537,NA,NA,Sternberg task,107,78726,119,yes,1024
90,90,660.3083333,660.3083333,black,experiment,legacy,legacy,legacy,0,uniform,1,undefined,1,right,119,119,119,0,0,119,NA,119,0,0,119,119,119,0,119,0,NA,Sun Oct 20 20:56:20 2019,The main experiment item,yes,Sternbergtask.osexp,/Users/danielrazo0311/Desktop,no,mono,no,18,no,white,no,yes,768,legacy,107,11,/Users/danielrazo0311/Desktop/subject-1.csv,legacy,8 4 3 9,Kafkaesque Koffka,3.2.8,0,n,0,right,left,left,right,NA,511,3591,4823,511,NA,2,legacy,4,1024,2,48000,-16,experiment,1,odd,5,742665,739275,740423,5544,89833,740435,NA,695918,5564,85008,744678,745192,741449,9180,744677,NA,NA,Sternberg task,108,79237,120,yes,1024
90.08264463,90.08264463,659.4958678,659.4958678,black,experiment,legacy,legacy,legacy,0,uniform,1,undefined,1,left,120,120,120,0,0,120,NA,120,0,0,120,120,120,0,120,0,NA,Sun Oct 20 20:56:20 2019,The main experiment item,yes,Sternbergtask.osexp,/Users/danielrazo0311/Desktop,no,mono,no,18,no,white,no,yes,768,legacy,108,11,/Users/danielrazo0311/Desktop/subject-1.csv,legacy,8 9 5 7 1 6,Kafkaesque Koffka,3.2.8,4,y,0,left,left,left,left,NA,562,3591,4823,562,NA,2,legacy,6,1024,2,48000,-16,experiment,1,odd,7,748594,745208,746354,5544,89833,746367,NA,695918,5564,85008,750607,751173,747381,9180,750607,NA,NA,Sternberg task,109,79799,121,yes,1024
90.16393443,90.16393443,657.7459016,657.7459016,black,experiment,legacy,legacy,legacy,0,uniform,1,undefined,1,right,121,121,121,0,0,121,NA,121,0,0,121,121,121,0,121,0,NA,Sun Oct 20 20:56:20 2019,The main experiment item,yes,Sternbergtask.osexp,/Users/danielrazo0311/Desktop,no,mono,no,18,no,white,no,yes,768,legacy,109,11,/Users/danielrazo0311/Desktop/subject-1.csv,legacy,5,Kafkaesque Koffka,3.2.8,0,n,0,right,left,left,right,NA,446,3591,4823,446,NA,2,legacy,1,1024,2,48000,-16,experiment,1,odd,8,754572,751188,752333,5544,89833,752345,NA,695918,5564,85008,756587,757037,753358,9180,756587,NA,NA,Sternberg task,110,80245,122,yes,1024
90.24390244,90.24390244,658.7154472,658.7154472,black,experiment,legacy,legacy,legacy,0,uniform,1,undefined,1,left,122,122,122,0,0,122,NA,122,0,0,122,122,122,0,122,0,NA,Sun Oct 20 20:56:20 2019,The main experiment item,yes,Sternbergtask.osexp,/Users/danielrazo0311/Desktop,no,mono,no,18,no,white,no,yes,768,legacy,110,11,/Users/danielrazo0311/Desktop/subject-1.csv,legacy,8,Kafkaesque Koffka,3.2.8,1,y,0,left,left,left,left,NA,777,3591,4823,777,NA,2,legacy,1,1024,2,48000,-16,experiment,1,odd,8,760470,757071,758226,5544,89833,758238,NA,695918,5564,85008,762483,763264,759253,9180,762483,NA,NA,Sternberg task,111,81022,123,yes,1024
90.32258065,90.32258065,657.2741935,657.2741935,black,experiment,legacy,legacy,legacy,0,uniform,1,undefined,1,left,123,123,123,0,0,123,NA,123,0,0,123,123,123,0,123,0,NA,Sun Oct 20 20:56:20 2019,The main experiment item,yes,Sternbergtask.osexp,/Users/danielrazo0311/Desktop,no,mono,no,18,no,white,no,yes,768,legacy,111,11,/Users/danielrazo0311/Desktop/subject-1.csv,legacy,2 3,Kafkaesque Koffka,3.2.8,1,y,0,left,left,left,left,NA,480,3591,4823,480,NA,2,legacy,2,1024,2,48000,-16,experiment,1,odd,2,766666,763279,764425,5544,89833,764437,NA,695918,5564,85008,768679,769163,765449,9180,768679,NA,NA,Sternberg task,112,81502,124,yes,1024
90.4,90.4,657.816,657.816,black,experiment,legacy,legacy,legacy,0,uniform,1,undefined,1,right,124,124,124,0,0,124,NA,124,0,0,124,124,124,0,124,0,NA,Sun Oct 20 20:56:20 2019,The main experiment item,yes,Sternbergtask.osexp,/Users/danielrazo0311/Desktop,no,mono,no,18,no,white,no,yes,768,legacy,112,11,/Users/danielrazo0311/Desktop/subject-1.csv,legacy,9 7 4 5 8,Kafkaesque Koffka,3.2.8,0,n,0,right,left,left,right,NA,725,3591,4823,725,NA,2,legacy,5,1024,2,48000,-16,experiment,1,odd,6,772565,769178,770324,5544,89833,770336,NA,695918,5564,85008,774577,775307,771349,9180,774577,NA,NA,Sternberg task,113,82227,125,yes,1024
90.47619048,90.47619048,657.4206349,657.4206349,black,experiment,legacy,legacy,legacy,0,uniform,1,undefined,1,right,125,125,125,0,0,125,NA,125,0,0,125,125,125,0,125,0,NA,Sun Oct 20 20:56:20 2019,The main experiment item,yes,Sternbergtask.osexp,/Users/danielrazo0311/Desktop,no,mono,no,18,no,white,no,yes,768,legacy,113,11,/Users/danielrazo0311/Desktop/subject-1.csv,legacy,1 8 7,Kafkaesque Koffka,3.2.8,0,n,0,right,left,left,right,NA,608,3591,4823,608,NA,2,legacy,3,1024,2,48000,-16,experiment,1,odd,4,778710,775322,776470,5544,89833,776482,NA,695918,5564,85008,780723,781335,777495,9180,780722,NA,NA,Sternberg task,114,82835,126,yes,1024
90.5511811,90.5511811,658.7480315,658.7480315,black,experiment,legacy,legacy,legacy,0,uniform,1,undefined,1,left,126,126,126,0,0,126,NA,126,0,0,126,126,126,0,126,0,NA,Sun Oct 20 20:56:20 2019,The main experiment item,yes,Sternbergtask.osexp,/Users/danielrazo0311/Desktop,no,mono,no,18,no,white,no,yes,768,legacy,114,11,/Users/danielrazo0311/Desktop/subject-1.csv,legacy,5 2 9 6 1 7,Kafkaesque Koffka,3.2.8,3,y,0,left,left,left,left,NA,826,3591,4823,826,NA,2,legacy,6,1024,2,48000,-16,experiment,1,odd,9,784748,781350,782506,5544,89833,782519,NA,695918,5564,85008,786761,787591,783531,9180,786761,NA,NA,Sternberg task,115,83661,127,yes,1024
90.625,90.625,659.1484375,659.1484375,black,experiment,legacy,legacy,legacy,0,uniform,1,undefined,1,right,127,127,127,0,0,127,NA,127,0,0,127,127,127,0,127,0,NA,Sun Oct 20 20:56:20 2019,The main experiment item,yes,Sternbergtask.osexp,/Users/danielrazo0311/Desktop,no,mono,no,18,no,white,no,yes,768,legacy,115,11,/Users/danielrazo0311/Desktop/subject-1.csv,legacy,7 8 6 1,Kafkaesque Koffka,3.2.8,0,n,0,right,left,left,right,NA,710,3591,4823,710,NA,2,legacy,4,1024,2,48000,-16,experiment,1,odd,3,790990,787606,788753,5544,89833,788765,NA,695918,5564,85008,793004,793718,789778,9180,793004,NA,NA,Sternberg task,116,84371,128,yes,1024
90.69767442,90.69767442,659.5348837,659.5348837,black,experiment,legacy,legacy,legacy,0,uniform,1,undefined,1,left,128,128,128,0,0,128,NA,128,0,0,128,128,128,0,128,0,NA,Sun Oct 20 20:56:20 2019,The main experiment item,yes,Sternbergtask.osexp,/Users/danielrazo0311/Desktop,no,mono,no,18,no,white,no,yes,768,legacy,116,11,/Users/danielrazo0311/Desktop/subject-1.csv,legacy,3 4,Kafkaesque Koffka,3.2.8,1,y,0,left,left,left,left,NA,709,3591,4823,709,NA,2,legacy,2,1024,2,48000,-16,experiment,1,odd,3,797119,793734,794879,5544,89833,794891,NA,695918,5564,85008,799132,799845,795904,9180,799132,NA,NA,Sternberg task,117,85080,129,yes,1024
90.76923077,90.76923077,659.7307692,659.7307692,black,experiment,legacy,legacy,legacy,0,uniform,1,undefined,1,right,129,129,129,0,0,129,NA,129,0,0,129,129,129,0,129,0,NA,Sun Oct 20 20:56:20 2019,The main experiment item,yes,Sternbergtask.osexp,/Users/danielrazo0311/Desktop,no,mono,no,18,no,white,no,yes,768,legacy,117,11,/Users/danielrazo0311/Desktop/subject-1.csv,legacy,1 7 5 2 9,Kafkaesque Koffka,3.2.8,0,n,0,right,left,left,right,NA,685,3591,4823,685,NA,2,legacy,5,1024,2,48000,-16,experiment,1,odd,3,803274,799883,801034,5544,89833,801047,NA,695918,5564,85008,805288,805976,802059,9180,805288,NA,NA,Sternberg task,118,85765,130,yes,1024
90.83969466,90.83969466,665.2748092,665.2748092,black,experiment,legacy,legacy,legacy,0,uniform,1,undefined,1,right,130,130,130,0,0,130,NA,130,0,0,130,130,130,0,130,0,NA,Sun Oct 20 20:56:20 2019,The main experiment item,yes,Sternbergtask.osexp,/Users/danielrazo0311/Desktop,no,mono,no,18,no,white,no,yes,768,legacy,118,11,/Users/danielrazo0311/Desktop/subject-1.csv,legacy,8 9,Kafkaesque Koffka,3.2.8,0,n,0,right,left,left,right,NA,1386,3591,4823,1386,NA,2,legacy,2,1024,2,48000,-16,experiment,1,odd,5,809388,805992,807144,5544,89833,807158,NA,695918,5564,85008,811402,812792,808172,9180,811402,NA,NA,Sternberg task,119,87151,131,yes,1024
90.90909091,90.90909091,664.3333333,664.3333333,black,experiment,legacy,legacy,legacy,0,uniform,1,undefined,1,left,131,131,131,0,0,131,NA,131,0,0,131,131,131,0,131,0,NA,Sun Oct 20 20:56:20 2019,The main experiment item,yes,Sternbergtask.osexp,/Users/danielrazo0311/Desktop,no,mono,no,18,no,white,no,yes,768,legacy,119,11,/Users/danielrazo0311/Desktop/subject-1.csv,legacy,2 8 5 1,Kafkaesque Koffka,3.2.8,4,y,0,left,left,left,left,NA,541,3591,4823,541,NA,2,legacy,4,1024,2,48000,-16,experiment,1,odd,1,816196,812806,813954,5544,89833,813966,NA,695918,5564,85008,818210,818755,814979,9180,818210,NA,NA,Sternberg task,120,87692,132,yes,1024
90.97744361,90.97744361,664.0601504,664.0601504,black,experiment,legacy,legacy,legacy,0,uniform,1,undefined,1,right,132,132,132,0,0,132,NA,132,0,0,132,132,132,0,132,0,NA,Sun Oct 20 20:56:20 2019,The main experiment item,yes,Sternbergtask.osexp,/Users/danielrazo0311/Desktop,no,mono,no,18,no,white,no,yes,768,legacy,120,11,/Users/danielrazo0311/Desktop/subject-1.csv,legacy,7 1 8 4 9 3,Kafkaesque Koffka,3.2.8,0,n,0,right,left,left,right,NA,628,3591,4823,628,NA,2,legacy,6,1024,2,48000,-16,experiment,1,odd,6,822169,818771,819922,5544,89833,819939,NA,695918,5564,85008,824182,824815,820954,9180,824182,NA,NA,Sternberg task,121,88320,133,yes,1024
91.04477612,91.04477612,662.8208955,662.8208955,black,experiment,legacy,legacy,legacy,0,uniform,1,undefined,1,right,133,133,133,0,0,133,NA,133,0,0,133,133,133,0,133,0,NA,Sun Oct 20 20:56:20 2019,The main experiment item,yes,Sternbergtask.osexp,/Users/danielrazo0311/Desktop,no,mono,no,18,no,white,no,yes,768,legacy,121,11,/Users/danielrazo0311/Desktop/subject-1.csv,legacy,5 2,Kafkaesque Koffka,3.2.8,0,n,0,right,left,left,right,NA,498,3591,4823,498,NA,2,legacy,2,1024,2,48000,-16,experiment,1,odd,7,828249,824839,826009,5544,89833,826022,NA,695918,5564,85008,830263,830767,827035,9180,830263,NA,NA,Sternberg task,122,88818,134,yes,1024
91.11111111,91.11111111,662.362963,662.362963,black,experiment,legacy,legacy,legacy,0,uniform,1,undefined,1,left,134,134,134,0,0,134,NA,134,0,0,134,134,134,0,134,0,NA,Sun Oct 20 20:56:20 2019,The main experiment item,yes,Sternbergtask.osexp,/Users/danielrazo0311/Desktop,no,mono,no,18,no,white,no,yes,768,legacy,122,11,/Users/danielrazo0311/Desktop/subject-1.csv,legacy,9 1 7 2,Kafkaesque Koffka,3.2.8,2,y,0,left,left,left,left,NA,601,3591,4823,601,NA,2,legacy,4,1024,2,48000,-16,experiment,1,odd,1,834172,830784,831931,5544,89833,831943,NA,695918,5564,85008,836185,836791,832956,9180,836185,NA,NA,Sternberg task,123,89419,135,yes,1024
91.17647059,91.17647059,665.2205882,665.2205882,black,experiment,legacy,legacy,legacy,0,uniform,1,undefined,1,left,135,135,135,0,0,135,NA,135,0,0,135,135,135,0,135,0,NA,Sun Oct 20 20:56:20 2019,The main experiment item,yes,Sternbergtask.osexp,/Users/danielrazo0311/Desktop,no,mono,no,18,no,white,no,yes,768,legacy,123,11,/Users/danielrazo0311/Desktop/subject-1.csv,legacy,7 8 4 6 9 5,Kafkaesque Koffka,3.2.8,4,y,0,left,left,left,left,NA,1051,3591,4823,1051,NA,2,legacy,6,1024,2,48000,-16,experiment,1,odd,6,840196,836807,837955,5544,89833,837968,NA,695918,5564,85008,842208,843263,838981,9180,842208,NA,NA,Sternberg task,124,90470,136,yes,1024
91.24087591,91.24087591,665.5109489,665.5109489,black,experiment,legacy,legacy,legacy,0,uniform,1,undefined,1,right,136,136,136,0,0,136,NA,136,0,0,136,136,136,0,136,0,NA,Sun Oct 20 20:56:20 2019,The main experiment item,yes,Sternbergtask.osexp,/Users/danielrazo0311/Desktop,no,mono,no,18,no,white,no,yes,768,legacy,124,11,/Users/danielrazo0311/Desktop/subject-1.csv,legacy,8 2 1 4 5 9,Kafkaesque Koffka,3.2.8,0,n,0,right,left,left,right,NA,705,3591,4823,705,NA,2,legacy,6,1024,2,48000,-16,experiment,1,odd,7,846666,843278,844427,5544,89833,844439,NA,695918,5564,85008,848678,849387,845452,9180,848678,NA,NA,Sternberg task,125,91175,137,yes,1024
91.30434783,91.30434783,667.2681159,667.2681159,black,experiment,legacy,legacy,legacy,0,uniform,1,undefined,1,left,137,137,137,0,0,137,NA,137,0,0,137,137,137,0,137,0,NA,Sun Oct 20 20:56:20 2019,The main experiment item,yes,Sternbergtask.osexp,/Users/danielrazo0311/Desktop,no,mono,no,18,no,white,no,yes,768,legacy,125,11,/Users/danielrazo0311/Desktop/subject-1.csv,legacy,2 3 7 4,Kafkaesque Koffka,3.2.8,1,y,0,left,left,left,left,NA,908,3591,4823,908,NA,2,legacy,4,1024,2,48000,-16,experiment,1,odd,2,852791,849402,850549,5544,89833,850561,NA,695918,5564,85008,854804,855715,851576,9180,854803,NA,NA,Sternberg task,126,92083,138,yes,1024