acc,accuracy,average_response_time,avg_rt,background,block,canvas_backend,clock_backend,color_backend,compensation,coordinates,correct,correct_instruction1,correct_keyboard_response,correct_response,count_ISI,count_correctFeedback,count_expSequence,count_experiment,count_fixation,count_incorrectFeedback,count_instruction1,count_instruction2,count_keyboard_response,count_logger,count_memorySet,count_new_loop,count_practiceLoop,count_probe,count_thankYou,datetime,description,disable_garbage_collection,experiment_file,experiment_path,font_bold,font_family,font_italic,font_size,font_underline,foreground,form_clicks,fullscreen,height,keyboard_backend,live_row,live_row_practiceLoop,logfile,mouse_backend,numberSet,opensesame_codename,opensesame_version,posInSet,present,repeat_cycle,response,response_instruction1,response_instruction2,response_keyboard_response,response_thankYou,response_time,response_time_instruction1,response_time_instruction2,response_time_keyboard_response,response_time_thankYou,round_decimals,sampler_backend,setSize,sound_buf_size,sound_channels,sound_freq,sound_sample_size,start,subject_nr,subject_parity,target,time_ISI,time_correctFeedback,time_expSequence,time_experiment,time_fixation,time_incorrectFeedback,time_instruction1,time_instruction2,time_keyboard_response,time_logger,time_memorySet,time_new_loop,time_practiceLoop,time_probe,time_thankYou,title,total_correct,total_response_time,total_responses,uniform_coordinates,width
100,100,1638,1638,black,practice,legacy,legacy,legacy,0,uniform,1,undefined,1,right,0,0,0,0,0,0,0,0,0,0,0,0,0,0,0,10/27/19 15:29,sternberg task,yes,sternbergtask.osexp,C:/Users/DLGoupil/Desktop,no,mono,no,18,no,white,no,yes,768,legacy,0,0,C:/Users/DLGoupil/Desktop/dg-subject-1.csv,legacy,4 1 5,Kafkaesque Koffka,3.2.8,0,n,0,right,right,NA,right,NA,1638,17297,NA,1638,NA,2,legacy,3,1024,2,48000,-16,experiment,1,odd,2,26667,NA,24458,2648,24461,NA,2652,NA,28670,30309,25464,NA,19950,28670,NA,New experiment,1,1638,1,yes,1024
50,50,1819,1819,black,practice,legacy,legacy,legacy,0,uniform,0,undefined,0,left,1,1,1,0,1,1,0,0,1,1,1,0,0,1,0,10/27/19 15:29,sternberg task,yes,sternbergtask.osexp,C:/Users/DLGoupil/Desktop,no,mono,no,18,no,white,no,yes,768,legacy,1,1,C:/Users/DLGoupil/Desktop/dg-subject-1.csv,legacy,4 8,Kafkaesque Koffka,3.2.8,1,y,0,None,right,NA,None,NA,2000,17297,NA,2000,NA,2,legacy,2,1024,2,48000,-16,experiment,1,odd,4,33736,30381,31528,2648,31530,NA,2652,NA,35739,37739,32533,NA,19950,35739,NA,New experiment,1,3638,2,yes,1024
66.66666667,66.66666667,1662.666667,1662.666667,black,practice,legacy,legacy,legacy,0,uniform,1,undefined,1,right,2,2,2,0,2,2,0,0,2,2,2,0,0,2,0,10/27/19 15:29,sternberg task,yes,sternbergtask.osexp,C:/Users/DLGoupil/Desktop,no,mono,no,18,no,white,no,yes,768,legacy,2,2,C:/Users/DLGoupil/Desktop/dg-subject-1.csv,legacy,3 1 9 4,Kafkaesque Koffka,3.2.8,0,n,0,right,right,NA,right,NA,1350,17297,NA,1350,NA,2,legacy,4,1024,2,48000,-16,experiment,1,odd,6,41091,30381,38883,2648,38885,37744,2652,NA,43094,44445,39888,NA,19950,43094,NA,New experiment,2,4988,3,yes,1024
75,75,1568.75,1568.75,black,practice,legacy,legacy,legacy,0,uniform,1,undefined,1,right,3,3,3,0,3,3,0,0,3,3,3,0,0,3,0,10/27/19 15:29,sternberg task,yes,sternbergtask.osexp,C:/Users/DLGoupil/Desktop,no,mono,no,18,no,white,no,yes,768,legacy,3,3,C:/Users/DLGoupil/Desktop/dg-subject-1.csv,legacy,9 6 7 4 5,Kafkaesque Koffka,3.2.8,0,n,0,right,right,NA,right,NA,1287,17297,NA,1287,NA,2,legacy,5,1024,2,48000,-16,experiment,1,odd,3,47803,44450,45594,2648,45597,37744,2652,NA,49806,51093,46600,NA,19950,49806,NA,New experiment,3,6275,4,yes,1024
80,80,1470,1470,black,practice,legacy,legacy,legacy,0,uniform,1,undefined,1,right,4,4,4,0,4,4,0,0,4,4,4,0,0,4,0,10/27/19 15:29,sternberg task,yes,sternbergtask.osexp,C:/Users/DLGoupil/Desktop,no,mono,no,18,no,white,no,yes,768,legacy,4,4,C:/Users/DLGoupil/Desktop/dg-subject-1.csv,legacy,5,Kafkaesque Koffka,3.2.8,0,n,0,right,right,NA,right,NA,1075,17297,NA,1075,NA,2,legacy,1,1024,2,48000,-16,experiment,1,odd,3,54447,51099,52238,2648,52240,37744,2652,NA,56450,57525,53244,NA,19950,56450,NA,New experiment,4,7350,5,yes,1024
83.33333333,83.33333333,1469,1469,black,practice,legacy,legacy,legacy,0,uniform,1,undefined,1,left,5,5,5,0,5,5,0,0,5,5,5,0,0,5,0,10/27/19 15:29,sternberg task,yes,sternbergtask.osexp,C:/Users/DLGoupil/Desktop,no,mono,no,18,no,white,no,yes,768,legacy,5,5,C:/Users/DLGoupil/Desktop/dg-subject-1.csv,legacy,2 9 4,Kafkaesque Koffka,3.2.8,3,y,0,left,right,NA,left,NA,1464,17297,NA,1464,NA,2,legacy,3,1024,2,48000,-16,experiment,1,odd,4,60874,57530,58666,2648,58668,37744,2652,NA,62877,64341,59671,NA,19950,62877,NA,New experiment,5,8814,6,yes,1024
85.71428571,85.71428571,1434,1434,black,practice,legacy,legacy,legacy,0,uniform,1,undefined,1,right,6,6,6,0,6,6,0,0,6,6,6,0,0,6,0,10/27/19 15:29,sternberg task,yes,sternbergtask.osexp,C:/Users/DLGoupil/Desktop,no,mono,no,18,no,white,no,yes,768,legacy,6,6,C:/Users/DLGoupil/Desktop/dg-subject-1.csv,legacy,5 7 8 4 1 2,Kafkaesque Koffka,3.2.8,0,n,0,right,right,NA,right,NA,1224,17297,NA,1224,NA,2,legacy,6,1024,2,48000,-16,experiment,1,odd,6,67697,64346,65488,2648,65491,37744,2652,NA,69701,70925,66494,NA,19950,69701,NA,New experiment,6,10038,7,yes,1024
87.5,87.5,1376.625,1376.625,black,practice,legacy,legacy,legacy,0,uniform,1,undefined,1,left,7,7,7,0,7,7,0,0,7,7,7,0,0,7,0,10/27/19 15:29,sternberg task,yes,sternbergtask.osexp,C:/Users/DLGoupil/Desktop,no,mono,no,18,no,white,no,yes,768,legacy,7,7,C:/Users/DLGoupil/Desktop/dg-subject-1.csv,legacy,4 3 1 7 9 8,Kafkaesque Koffka,3.2.8,1,y,0,left,right,NA,left,NA,975,17297,NA,975,NA,2,legacy,6,1024,2,48000,-16,experiment,1,odd,4,74275,70931,72067,2648,72069,37744,2652,NA,76278,77254,73072,NA,19950,76278,NA,New experiment,7,11013,8,yes,1024
88.88888889,88.88888889,1357.888889,1357.888889,black,practice,legacy,legacy,legacy,0,uniform,1,undefined,1,left,8,8,8,0,8,8,0,0,8,8,8,0,0,8,0,10/27/19 15:29,sternberg task,yes,sternbergtask.osexp,C:/Users/DLGoupil/Desktop,no,mono,no,18,no,white,no,yes,768,legacy,8,8,C:/Users/DLGoupil/Desktop/dg-subject-1.csv,legacy,1 5 2 9,Kafkaesque Koffka,3.2.8,2,y,0,left,right,NA,left,NA,1208,17297,NA,1208,NA,2,legacy,4,1024,2,48000,-16,experiment,1,odd,5,80602,77259,78394,2648,78396,37744,2652,NA,82605,83814,79399,NA,19950,82605,NA,New experiment,8,12221,9,yes,1024
90,90,1341.4,1341.4,black,practice,legacy,legacy,legacy,0,uniform,1,undefined,1,right,9,9,9,0,9,9,0,0,9,9,9,0,0,9,0,10/27/19 15:29,sternberg task,yes,sternbergtask.osexp,C:/Users/DLGoupil/Desktop,no,mono,no,18,no,white,no,yes,768,legacy,9,9,C:/Users/DLGoupil/Desktop/dg-subject-1.csv,legacy,2 1,Kafkaesque Koffka,3.2.8,0,n,0,right,right,NA,right,NA,1193,17297,NA,1193,NA,2,legacy,2,1024,2,48000,-16,experiment,1,odd,5,87168,83819,84959,2648,84962,37744,2652,NA,89171,90365,85965,NA,19950,89171,NA,New experiment,9,13414,10,yes,1024
90.90909091,90.90909091,1311,1311,black,practice,legacy,legacy,legacy,0,uniform,1,undefined,1,left,10,10,10,0,10,10,0,0,10,10,10,0,0,10,0,10/27/19 15:29,sternberg task,yes,sternbergtask.osexp,C:/Users/DLGoupil/Desktop,no,mono,no,18,no,white,no,yes,768,legacy,10,10,C:/Users/DLGoupil/Desktop/dg-subject-1.csv,legacy,6,Kafkaesque Koffka,3.2.8,1,y,0,left,right,NA,left,NA,1007,17297,NA,1007,NA,2,legacy,1,1024,2,48000,-16,experiment,1,odd,6,93714,90370,91506,2648,91508,37744,2652,NA,95717,96725,92511,NA,19950,95717,NA,New experiment,10,14421,11,yes,1024
91.66666667,91.66666667,1347.583333,1347.583333,black,practice,legacy,legacy,legacy,0,uniform,1,undefined,1,left,11,11,11,0,11,11,0,0,11,11,11,0,0,11,0,10/27/19 15:29,sternberg task,yes,sternbergtask.osexp,C:/Users/DLGoupil/Desktop,no,mono,no,18,no,white,no,yes,768,legacy,11,11,C:/Users/DLGoupil/Desktop/dg-subject-1.csv,legacy,1 7 9 8 5,Kafkaesque Koffka,3.2.8,4,y,0,left,right,NA,left,NA,1750,17297,NA,1750,NA,2,legacy,5,1024,2,48000,-16,experiment,1,odd,8,100075,96730,97866,2648,97869,37744,2652,NA,102078,103829,98872,NA,19950,102078,NA,New experiment,11,16171,12,yes,1024
92.30769231,92.30769231,1325.307692,1325.307692,black,experiment,legacy,legacy,legacy,0,uniform,1,undefined,1,left,12,12,12,0,12,12,0,0,12,12,12,0,0,12,0,10/27/19 15:29,sternberg task,yes,sternbergtask.osexp,C:/Users/DLGoupil/Desktop,no,mono,no,18,no,white,no,yes,768,legacy,0,11,C:/Users/DLGoupil/Desktop/dg-subject-1.csv,legacy,6 7 8 5,Kafkaesque Koffka,3.2.8,3,y,0,left,right,right,left,NA,1058,17297,8780,1058,NA,2,legacy,4,1024,2,48000,-16,experiment,1,odd,8,116016,103834,113807,2648,113809,37744,2652,104865,118019,119077,114813,113646,19950,118019,NA,New experiment,12,17229,13,yes,1024
92.85714286,92.85714286,1360.785714,1360.785714,black,experiment,legacy,legacy,legacy,0,uniform,1,undefined,1,left,13,13,13,0,13,13,0,0,13,13,13,0,0,13,0,10/27/19 15:29,sternberg task,yes,sternbergtask.osexp,C:/Users/DLGoupil/Desktop,no,mono,no,18,no,white,no,yes,768,legacy,1,11,C:/Users/DLGoupil/Desktop/dg-subject-1.csv,legacy,6 9 7 4 5 1,Kafkaesque Koffka,3.2.8,2,y,0,left,right,right,left,NA,1822,17297,8780,1822,NA,2,legacy,6,1024,2,48000,-16,experiment,1,odd,9,122428,119082,120221,2648,120223,37744,2652,104865,124431,126253,121225,113646,19950,124431,NA,New experiment,13,19051,14,yes,1024
93.33333333,93.33333333,1352.733333,1352.733333,black,experiment,legacy,legacy,legacy,0,uniform,1,undefined,1,right,14,14,14,0,14,14,0,0,14,14,14,0,0,14,0,10/27/19 15:29,sternberg task,yes,sternbergtask.osexp,C:/Users/DLGoupil/Desktop,no,mono,no,18,no,white,no,yes,768,legacy,2,11,C:/Users/DLGoupil/Desktop/dg-subject-1.csv,legacy,2 7 5,Kafkaesque Koffka,3.2.8,0,n,0,right,right,right,right,NA,1240,17297,8780,1240,NA,2,legacy,3,1024,2,48000,-16,experiment,1,odd,8,129602,126258,127393,2648,127396,37744,2652,104865,131605,132845,128399,113646,19950,131605,NA,New experiment,14,20291,15,yes,1024
93.75,93.75,1379.625,1379.625,black,experiment,legacy,legacy,legacy,0,uniform,1,undefined,1,right,15,15,15,0,15,15,0,0,15,15,15,0,0,15,0,10/27/19 15:29,sternberg task,yes,sternbergtask.osexp,C:/Users/DLGoupil/Desktop,no,mono,no,18,no,white,no,yes,768,legacy,3,11,C:/Users/DLGoupil/Desktop/dg-subject-1.csv,legacy,2 8 9,Kafkaesque Koffka,3.2.8,0,n,0,right,right,right,right,NA,1783,17297,8780,1783,NA,2,legacy,3,1024,2,48000,-16,experiment,1,odd,6,136194,132850,133985,2648,133988,37744,2652,104865,138197,139981,134991,113646,19950,138197,NA,New experiment,15,22074,16,yes,1024
94.11764706,94.11764706,1380.294118,1380.294118,black,experiment,legacy,legacy,legacy,0,uniform,1,undefined,1,left,16,16,16,0,16,16,0,0,16,16,16,0,0,16,0,10/27/19 15:29,sternberg task,yes,sternbergtask.osexp,C:/Users/DLGoupil/Desktop,no,mono,no,18,no,white,no,yes,768,legacy,4,11,C:/Users/DLGoupil/Desktop/dg-subject-1.csv,legacy,7 8 4 6 9 5,Kafkaesque Koffka,3.2.8,4,y,0,left,right,right,left,NA,1391,17297,8780,1391,NA,2,legacy,6,1024,2,48000,-16,experiment,1,odd,6,143331,139987,141123,2648,141125,37744,2652,104865,145334,146725,142128,113646,19950,145334,NA,New experiment,16,23465,17,yes,1024
94.44444444,94.44444444,1359.444444,1359.444444,black,experiment,legacy,legacy,legacy,0,uniform,1,undefined,1,left,17,17,17,0,17,17,0,0,17,17,17,0,0,17,0,10/27/19 15:29,sternberg task,yes,sternbergtask.osexp,C:/Users/DLGoupil/Desktop,no,mono,no,18,no,white,no,yes,768,legacy,5,11,C:/Users/DLGoupil/Desktop/dg-subject-1.csv,legacy,7 1 8 5 6 2,Kafkaesque Koffka,3.2.8,2,y,0,left,right,right,left,NA,1005,17297,8780,1005,NA,2,legacy,6,1024,2,48000,-16,experiment,1,odd,1,150077,146730,147869,2648,147871,37744,2652,104865,152080,153086,148874,113646,19950,152080,NA,New experiment,17,24470,18,yes,1024
94.73684211,94.73684211,1340.315789,1340.315789,black,experiment,legacy,legacy,legacy,0,uniform,1,undefined,1,right,18,18,18,0,18,18,0,0,18,18,18,0,0,18,0,10/27/19 15:29,sternberg task,yes,sternbergtask.osexp,C:/Users/DLGoupil/Desktop,no,mono,no,18,no,white,no,yes,768,legacy,6,11,C:/Users/DLGoupil/Desktop/dg-subject-1.csv,legacy,9,Kafkaesque Koffka,3.2.8,0,n,0,right,right,right,right,NA,996,17297,8780,996,NA,2,legacy,1,1024,2,48000,-16,experiment,1,odd,6,156430,153090,154221,2648,154224,37744,2652,104865,158433,159429,155227,113646,19950,158433,NA,New experiment,18,25466,19,yes,1024
95,95,1325.75,1325.75,black,experiment,legacy,legacy,legacy,0,uniform,1,undefined,1,left,19,19,19,0,19,19,0,0,19,19,19,0,0,19,0,10/27/19 15:29,sternberg task,yes,sternbergtask.osexp,C:/Users/DLGoupil/Desktop,no,mono,no,18,no,white,no,yes,768,legacy,7,11,C:/Users/DLGoupil/Desktop/dg-subject-1.csv,legacy,6 2,Kafkaesque Koffka,3.2.8,1,y,0,left,right,right,left,NA,1049,17297,8780,1049,NA,2,legacy,2,1024,2,48000,-16,experiment,1,odd,6,162777,159434,160568,2648,160571,37744,2652,104865,164780,165829,161574,113646,19950,164780,NA,New experiment,19,26515,20,yes,1024
95.23809524,95.23809524,1312.142857,1312.142857,black,experiment,legacy,legacy,legacy,0,uniform,1,undefined,1,right,20,20,20,0,20,20,0,0,20,20,20,0,0,20,0,10/27/19 15:29,sternberg task,yes,sternbergtask.osexp,C:/Users/DLGoupil/Desktop,no,mono,no,18,no,white,no,yes,768,legacy,8,11,C:/Users/DLGoupil/Desktop/dg-subject-1.csv,legacy,5 9 2 3,Kafkaesque Koffka,3.2.8,0,n,0,right,right,right,right,NA,1040,17297,8780,1040,NA,2,legacy,4,1024,2,48000,-16,experiment,1,odd,8,169185,165834,166977,2648,166979,37744,2652,104865,171189,172229,167982,113646,19950,171189,NA,New experiment,20,27555,21,yes,1024
90.90909091,90.90909091,1343.409091,1343.409091,black,experiment,legacy,legacy,legacy,0,uniform,0,undefined,0,left,21,21,21,0,21,21,0,0,21,21,21,0,0,21,0,10/27/19 15:29,sternberg task,yes,sternbergtask.osexp,C:/Users/DLGoupil/Desktop,no,mono,no,18,no,white,no,yes,768,legacy,9,11,C:/Users/DLGoupil/Desktop/dg-subject-1.csv,legacy,1 4 9 3 2 5,Kafkaesque Koffka,3.2.8,3,y,0,None,right,right,None,NA,2000,17297,8780,2000,NA,2,legacy,6,1024,2,48000,-16,experiment,1,odd,9,175582,172235,173373,2648,173375,37744,2652,104865,177585,179585,174379,113646,19950,177585,NA,New experiment,20,29555,22,yes,1024
91.30434783,91.30434783,1343.26087,1343.26087,black,experiment,legacy,legacy,legacy,0,uniform,1,undefined,1,right,22,22,22,0,22,22,0,0,22,22,22,0,0,22,0,10/27/19 15:29,sternberg task,yes,sternbergtask.osexp,C:/Users/DLGoupil/Desktop,no,mono,no,18,no,white,no,yes,768,legacy,10,11,C:/Users/DLGoupil/Desktop/dg-subject-1.csv,legacy,2 8 7 9 5 3,Kafkaesque Koffka,3.2.8,0,n,0,right,right,right,right,NA,1340,17297,8780,1340,NA,2,legacy,6,1024,2,48000,-16,experiment,1,odd,6,182933,172235,180724,2648,180727,179590,2652,104865,184936,186277,181730,113646,19950,184936,NA,New experiment,21,30895,23,yes,1024
91.66666667,91.66666667,1327.125,1327.125,black,experiment,legacy,legacy,legacy,0,uniform,1,undefined,1,left,23,23,23,0,23,23,0,0,23,23,23,0,0,23,0,10/27/19 15:29,sternberg task,yes,sternbergtask.osexp,C:/Users/DLGoupil/Desktop,no,mono,no,18,no,white,no,yes,768,legacy,11,11,C:/Users/DLGoupil/Desktop/dg-subject-1.csv,legacy,8 5 1 3 9,Kafkaesque Koffka,3.2.8,4,y,0,left,right,right,left,NA,956,17297,8780,956,NA,2,legacy,5,1024,2,48000,-16,experiment,1,odd,3,189629,186282,187421,2648,187423,179590,2652,104865,191632,192589,188426,113646,19950,191632,NA,New experiment,22,31851,24,yes,1024
92,92,1317.64,1317.64,black,experiment,legacy,legacy,legacy,0,uniform,1,undefined,1,right,24,24,24,0,24,24,0,0,24,24,24,0,0,24,0,10/27/19 15:29,sternberg task,yes,sternbergtask.osexp,C:/Users/DLGoupil/Desktop,no,mono,no,18,no,white,no,yes,768,legacy,12,11,C:/Users/DLGoupil/Desktop/dg-subject-1.csv,legacy,2 6 4 3 9,Kafkaesque Koffka,3.2.8,0,n,0,right,right,right,right,NA,1090,17297,8780,1090,NA,2,legacy,5,1024,2,48000,-16,experiment,1,odd,1,195935,192594,193727,2648,193729,179590,2652,104865,197938,199029,194732,113646,19950,197938,NA,New experiment,23,32941,25,yes,1024
92.30769231,92.30769231,1325.153846,1325.153846,black,experiment,legacy,legacy,legacy,0,uniform,1,undefined,1,right,25,25,25,0,25,25,0,0,25,25,25,0,0,25,0,10/27/19 15:29,sternberg task,yes,sternbergtask.osexp,C:/Users/DLGoupil/Desktop,no,mono,no,18,no,white,no,yes,768,legacy,13,11,C:/Users/DLGoupil/Desktop/dg-subject-1.csv,legacy,8 5 4 2 9 6,Kafkaesque Koffka,3.2.8,0,n,0,right,right,right,right,NA,1513,17297,8780,1513,NA,2,legacy,6,1024,2,48000,-16,experiment,1,odd,3,202376,199034,200168,2648,200170,179590,2652,104865,204379,205893,201173,113646,19950,204379,NA,New experiment,24,34454,26,yes,1024
92.59259259,92.59259259,1323.407407,1323.407407,black,experiment,legacy,legacy,legacy,0,uniform,1,undefined,1,left,26,26,26,0,26,26,0,0,26,26,26,0,0,26,0,10/27/19 15:29,sternberg task,yes,sternbergtask.osexp,C:/Users/DLGoupil/Desktop,no,mono,no,18,no,white,no,yes,768,legacy,14,11,C:/Users/DLGoupil/Desktop/dg-subject-1.csv,legacy,8 5 3 7 4 6,Kafkaesque Koffka,3.2.8,6,y,0,left,right,right,left,NA,1278,17297,8780,1278,NA,2,legacy,6,1024,2,48000,-16,experiment,1,odd,6,209244,205898,207036,2648,207038,179590,2652,104865,211247,212525,208041,113646,19950,211247,NA,New experiment,25,35732,27,yes,1024
92.85714286,92.85714286,1309.25,1309.25,black,experiment,legacy,legacy,legacy,0,uniform,1,undefined,1,left,27,27,27,0,27,27,0,0,27,27,27,0,0,27,0,10/27/19 15:29,sternberg task,yes,sternbergtask.osexp,C:/Users/DLGoupil/Desktop,no,mono,no,18,no,white,no,yes,768,legacy,15,11,C:/Users/DLGoupil/Desktop/dg-subject-1.csv,legacy,3 9 6 2,Kafkaesque Koffka,3.2.8,4,y,0,left,right,right,left,NA,927,17297,8780,927,NA,2,legacy,4,1024,2,48000,-16,experiment,1,odd,2,215874,212530,213665,2648,213667,179590,2652,104865,217877,218805,214671,113646,19950,217877,NA,New experiment,26,36659,28,yes,1024
93.10344828,93.10344828,1299.137931,1299.137931,black,experiment,legacy,legacy,legacy,0,uniform,1,undefined,1,right,28,28,28,0,28,28,0,0,28,28,28,0,0,28,0,10/27/19 15:29,sternberg task,yes,sternbergtask.osexp,C:/Users/DLGoupil/Desktop,no,mono,no,18,no,white,no,yes,768,legacy,16,11,C:/Users/DLGoupil/Desktop/dg-subject-1.csv,legacy,7 1 5 6 3,Kafkaesque Koffka,3.2.8,0,n,0,right,right,right,right,NA,1016,17297,8780,1016,NA,2,legacy,5,1024,2,48000,-16,experiment,1,odd,8,222153,218810,219946,2648,219948,179590,2652,104865,224156,225173,220951,113646,19950,224156,NA,New experiment,27,37675,29,yes,1024
93.33333333,93.33333333,1289.566667,1289.566667,black,experiment,legacy,legacy,legacy,0,uniform,1,undefined,1,left,29,29,29,0,29,29,0,0,29,29,29,0,0,29,0,10/27/19 15:29,sternberg task,yes,sternbergtask.osexp,C:/Users/DLGoupil/Desktop,no,mono,no,18,no,white,no,yes,768,legacy,17,11,C:/Users/DLGoupil/Desktop/dg-subject-1.csv,legacy,8 9 6 1,Kafkaesque Koffka,3.2.8,2,y,0,left,right,right,left,NA,1012,17297,8780,1012,NA,2,legacy,4,1024,2,48000,-16,experiment,1,odd,9,228526,225178,226318,2648,226320,179590,2652,104865,230529,231542,227323,113646,19950,230529,NA,New experiment,28,38687,30,yes,1024
93.5483871,93.5483871,1278.354839,1278.354839,black,experiment,legacy,legacy,legacy,0,uniform,1,undefined,1,right,30,30,30,0,30,30,0,0,30,30,30,0,0,30,0,10/27/19 15:29,sternberg task,yes,sternbergtask.osexp,C:/Users/DLGoupil/Desktop,no,mono,no,18,no,white,no,yes,768,legacy,18,11,C:/Users/DLGoupil/Desktop/dg-subject-1.csv,legacy,1 4 3 6 5,Kafkaesque Koffka,3.2.8,0,n,0,right,right,right,right,NA,942,17297,8780,942,NA,2,legacy,5,1024,2,48000,-16,experiment,1,odd,8,234892,231547,232684,2648,232686,179590,2652,104865,236895,237838,233689,113646,19950,236895,NA,New experiment,29,39629,31,yes,1024
93.75,93.75,1267.3125,1267.3125,black,experiment,legacy,legacy,legacy,0,uniform,1,undefined,1,left,31,31,31,0,31,31,0,0,31,31,31,0,0,31,0,10/27/19 15:29,sternberg task,yes,sternbergtask.osexp,C:/Users/DLGoupil/Desktop,no,mono,no,18,no,white,no,yes,768,legacy,19,11,C:/Users/DLGoupil/Desktop/dg-subject-1.csv,legacy,4 1 5,Kafkaesque Koffka,3.2.8,2,y,0,left,right,right,left,NA,925,17297,8780,925,NA,2,legacy,3,1024,2,48000,-16,experiment,1,odd,1,241189,237843,238980,2648,238982,179590,2652,104865,243192,244118,239986,113646,19950,243192,NA,New experiment,30,40554,32,yes,1024
93.93939394,93.93939394,1261.090909,1261.090909,black,experiment,legacy,legacy,legacy,0,uniform,1,undefined,1,right,32,32,32,0,32,32,0,0,32,32,32,0,0,32,0,10/27/19 15:29,sternberg task,yes,sternbergtask.osexp,C:/Users/DLGoupil/Desktop,no,mono,no,18,no,white,no,yes,768,legacy,20,11,C:/Users/DLGoupil/Desktop/dg-subject-1.csv,legacy,8 2 1 4 5 9,Kafkaesque Koffka,3.2.8,0,n,0,right,right,right,right,NA,1062,17297,8780,1062,NA,2,legacy,6,1024,2,48000,-16,experiment,1,odd,7,247467,244123,245258,2648,245260,179590,2652,104865,249470,250533,246264,113646,19950,249470,NA,New experiment,31,41616,33,yes,1024
94.11764706,94.11764706,1251.529412,1251.529412,black,experiment,legacy,legacy,legacy,0,uniform,1,undefined,1,left,33,33,33,0,33,33,0,0,33,33,33,0,0,33,0,10/27/19 15:29,sternberg task,yes,sternbergtask.osexp,C:/Users/DLGoupil/Desktop,no,mono,no,18,no,white,no,yes,768,legacy,21,11,C:/Users/DLGoupil/Desktop/dg-subject-1.csv,legacy,2 3,Kafkaesque Koffka,3.2.8,1,y,0,left,right,right,left,NA,936,17297,8780,936,NA,2,legacy,2,1024,2,48000,-16,experiment,1,odd,2,253882,250538,251674,2648,251676,179590,2652,104865,255885,256822,252679,113646,19950,255885,NA,New experiment,32,42552,34,yes,1024
94.28571429,94.28571429,1245.628571,1245.628571,black,experiment,legacy,legacy,legacy,0,uniform,1,undefined,1,left,34,34,34,0,34,34,0,0,34,34,34,0,0,34,0,10/27/19 15:29,sternberg task,yes,sternbergtask.osexp,C:/Users/DLGoupil/Desktop,no,mono,no,18,no,white,no,yes,768,legacy,22,11,C:/Users/DLGoupil/Desktop/dg-subject-1.csv,legacy,8,Kafkaesque Koffka,3.2.8,1,y,0,left,right,right,left,NA,1045,17297,8780,1045,NA,2,legacy,1,1024,2,48000,-16,experiment,1,odd,8,260174,256827,257966,2648,257968,179590,2652,104865,262176,263222,258971,113646,19950,262176,NA,New experiment,33,43597,35,yes,1024
94.44444444,94.44444444,1244.083333,1244.083333,black,experiment,legacy,legacy,legacy,0,uniform,1,undefined,1,right,35,35,35,0,35,35,0,0,35,35,35,0,0,35,0,10/27/19 15:29,sternberg task,yes,sternbergtask.osexp,C:/Users/DLGoupil/Desktop,no,mono,no,18,no,white,no,yes,768,legacy,23,11,C:/Users/DLGoupil/Desktop/dg-subject-1.csv,legacy,8 5 7 3 6,Kafkaesque Koffka,3.2.8,0,n,0,right,right,right,right,NA,1190,17297,8780,1190,NA,2,legacy,5,1024,2,48000,-16,experiment,1,odd,9,266571,263227,264362,2648,264365,179590,2652,104865,268575,269766,265368,113646,19950,268575,NA,New experiment,34,44787,36,yes,1024
94.59459459,94.59459459,1245.837838,1245.837838,black,experiment,legacy,legacy,legacy,0,uniform,1,undefined,1,right,36,36,36,0,36,36,0,0,36,36,36,0,0,36,0,10/27/19 15:29,sternberg task,yes,sternbergtask.osexp,C:/Users/DLGoupil/Desktop,no,mono,no,18,no,white,no,yes,768,legacy,24,11,C:/Users/DLGoupil/Desktop/dg-subject-1.csv,legacy,3 4 9 6 7 8,Kafkaesque Koffka,3.2.8,0,n,0,right,right,right,right,NA,1309,17297,8780,1309,NA,2,legacy,6,1024,2,48000,-16,experiment,1,odd,2,273116,269771,270908,2648,270910,179590,2652,104865,275119,276429,271913,113646,19950,275119,NA,New experiment,35,46096,37,yes,1024
94.73684211,94.73684211,1239.105263,1239.105263,black,experiment,legacy,legacy,legacy,0,uniform,1,undefined,1,left,37,37,37,0,37,37,0,0,37,37,37,0,0,37,0,10/27/19 15:29,sternberg task,yes,sternbergtask.osexp,C:/Users/DLGoupil/Desktop,no,mono,no,18,no,white,no,yes,768,legacy,25,11,C:/Users/DLGoupil/Desktop/dg-subject-1.csv,legacy,7 8 6 3 1,Kafkaesque Koffka,3.2.8,5,y,0,left,right,right,left,NA,990,17297,8780,990,NA,2,legacy,5,1024,2,48000,-16,experiment,1,odd,1,279779,276434,277570,2648,277572,179590,2652,104865,281782,282773,278576,113646,19950,281782,NA,New experiment,36,47086,38,yes,1024
94.87179487,94.87179487,1231.25641,1231.25641,black,experiment,legacy,legacy,legacy,0,uniform,1,undefined,1,left,38,38,38,0,38,38,0,0,38,38,38,0,0,38,0,10/27/19 15:29,sternberg task,yes,sternbergtask.osexp,C:/Users/DLGoupil/Desktop,no,mono,no,18,no,white,no,yes,768,legacy,26,11,C:/Users/DLGoupil/Desktop/dg-subject-1.csv,legacy,9 8 4,Kafkaesque Koffka,3.2.8,1,y,0,left,right,right,left,NA,933,17297,8780,933,NA,2,legacy,3,1024,2,48000,-16,experiment,1,odd,9,286125,282778,283917,2648,283919,179590,2652,104865,288128,289062,284922,113646,19950,288128,NA,New experiment,37,48019,39,yes,1024
95,95,1228.075,1228.075,black,experiment,legacy,legacy,legacy,0,uniform,1,undefined,1,right,39,39,39,0,39,39,0,0,39,39,39,0,0,39,0,10/27/19 15:29,sternberg task,yes,sternbergtask.osexp,C:/Users/DLGoupil/Desktop,no,mono,no,18,no,white,no,yes,768,legacy,27,11,C:/Users/DLGoupil/Desktop/dg-subject-1.csv,legacy,2 8 6 3 1,Kafkaesque Koffka,3.2.8,0,n,0,right,right,right,right,NA,1104,17297,8780,1104,NA,2,legacy,5,1024,2,48000,-16,experiment,1,odd,7,292410,289066,290202,2648,290204,179590,2652,104865,294413,295518,291207,113646,19950,294413,NA,New experiment,38,49123,40,yes,1024
95.12195122,95.12195122,1225.04878,1225.04878,black,experiment,legacy,legacy,legacy,0,uniform,1,undefined,1,right,40,40,40,0,40,40,0,0,40,40,40,0,0,40,0,10/27/19 15:29,sternberg task,yes,sternbergtask.osexp,C:/Users/DLGoupil/Desktop,no,mono,no,18,no,white,no,yes,768,legacy,28,11,C:/Users/DLGoupil/Desktop/dg-subject-1.csv,legacy,7 9,Kafkaesque Koffka,3.2.8,0,n,0,right,right,right,right,NA,1104,17297,8780,1104,NA,2,legacy,2,1024,2,48000,-16,experiment,1,odd,1,298874,295523,296666,2648,296668,179590,2652,104865,300877,301981,297671,113646,19950,300877,NA,New experiment,39,50227,41,yes,1024
92.85714286,92.85714286,1222.714286,1222.714286,black,experiment,legacy,legacy,legacy,0,uniform,0,undefined,0,left,41,41,41,0,41,41,0,0,41,41,41,0,0,41,0,10/27/19 15:29,sternberg task,yes,sternbergtask.osexp,C:/Users/DLGoupil/Desktop,no,mono,no,18,no,white,no,yes,768,legacy,29,11,C:/Users/DLGoupil/Desktop/dg-subject-1.csv,legacy,6 8 9 3 4 9,Kafkaesque Koffka,3.2.8,5,y,0,right,right,right,right,NA,1127,17297,8780,1127,NA,2,legacy,6,1024,2,48000,-16,experiment,1,odd,4,305330,301986,303122,2648,303124,179590,2652,104865,307333,308461,304127,113646,19950,307333,NA,New experiment,39,51354,42,yes,1024
93.02325581,93.02325581,1220.465116,1220.465116,black,experiment,legacy,legacy,legacy,0,uniform,1,undefined,1,right,42,42,42,0,42,42,0,0,42,42,42,0,0,42,0,10/27/19 15:29,sternberg task,yes,sternbergtask.osexp,C:/Users/DLGoupil/Desktop,no,mono,no,18,no,white,no,yes,768,legacy,30,11,C:/Users/DLGoupil/Desktop/dg-subject-1.csv,legacy,2 3 8 5 6 7,Kafkaesque Koffka,3.2.8,0,n,0,right,right,right,right,NA,1126,17297,8780,1126,NA,2,legacy,6,1024,2,48000,-16,experiment,1,odd,1,311811,301986,309603,2648,309605,308466,2652,104865,313814,314941,310608,113646,19950,313814,NA,New experiment,40,52480,43,yes,1024
93.18181818,93.18181818,1216.363636,1216.363636,black,experiment,legacy,legacy,legacy,0,uniform,1,undefined,1,right,43,43,43,0,43,43,0,0,43,43,43,0,0,43,0,10/27/19 15:29,sternberg task,yes,sternbergtask.osexp,C:/Users/DLGoupil/Desktop,no,mono,no,18,no,white,no,yes,768,legacy,31,11,C:/Users/DLGoupil/Desktop/dg-subject-1.csv,legacy,6 9 5,Kafkaesque Koffka,3.2.8,0,n,0,right,right,right,right,NA,1040,17297,8780,1040,NA,2,legacy,3,1024,2,48000,-16,experiment,1,odd,8,318290,314946,316081,2648,316083,308466,2652,104865,320293,321333,317087,113646,19950,320293,NA,New experiment,41,53520,44,yes,1024
93.33333333,93.33333333,1208.844444,1208.844444,black,experiment,legacy,legacy,legacy,0,uniform,1,undefined,1,left,44,44,44,0,44,44,0,0,44,44,44,0,0,44,0,10/27/19 15:29,sternberg task,yes,sternbergtask.osexp,C:/Users/DLGoupil/Desktop,no,mono,no,18,no,white,no,yes,768,legacy,32,11,C:/Users/DLGoupil/Desktop/dg-subject-1.csv,legacy,9 4 2,Kafkaesque Koffka,3.2.8,1,y,0,left,right,right,left,NA,878,17297,8780,878,NA,2,legacy,3,1024,2,48000,-16,experiment,1,odd,9,324683,321338,322475,2648,322477,308466,2652,104865,326686,327565,323480,113646,19950,326686,NA,New experiment,42,54398,45,yes,1024
93.47826087,93.47826087,1201.782609,1201.782609,black,experiment,legacy,legacy,legacy,0,uniform,1,undefined,1,left,45,45,45,0,45,45,0,0,45,45,45,0,0,45,0,10/27/19 15:29,sternberg task,yes,sternbergtask.osexp,C:/Users/DLGoupil/Desktop,no,mono,no,18,no,white,no,yes,768,legacy,33,11,C:/Users/DLGoupil/Desktop/dg-subject-1.csv,legacy,9 3 1 2 5,Kafkaesque Koffka,3.2.8,4,y,0,left,right,right,left,NA,884,17297,8780,884,NA,2,legacy,5,1024,2,48000,-16,experiment,1,odd,2,330917,327570,328709,2648,328711,308466,2652,104865,332920,333805,329714,113646,19950,332920,NA,New experiment,43,55282,46,yes,1024
93.61702128,93.61702128,1200.659574,1200.659574,black,experiment,legacy,legacy,legacy,0,uniform,1,undefined,1,right,46,46,46,0,46,46,0,0,46,46,46,0,0,46,0,10/27/19 15:29,sternberg task,yes,sternbergtask.osexp,C:/Users/DLGoupil/Desktop,no,mono,no,18,no,white,no,yes,768,legacy,34,11,C:/Users/DLGoupil/Desktop/dg-subject-1.csv,legacy,7 6 4 8 1 2,Kafkaesque Koffka,3.2.8,0,n,0,right,right,right,right,NA,1149,17297,8780,1149,NA,2,legacy,6,1024,2,48000,-16,experiment,1,odd,9,337157,333810,334949,2648,334951,308466,2652,104865,339159,340309,335954,113646,19950,339159,NA,New experiment,44,56431,47,yes,1024
93.75,93.75,1203.479167,1203.479167,black,experiment,legacy,legacy,legacy,0,uniform,1,undefined,1,left,47,47,47,0,47,47,0,0,47,47,47,0,0,47,0,10/27/19 15:29,sternberg task,yes,sternbergtask.osexp,C:/Users/DLGoupil/Desktop,no,mono,no,18,no,white,no,yes,768,legacy,35,11,C:/Users/DLGoupil/Desktop/dg-subject-1.csv,legacy,7 2 3,Kafkaesque Koffka,3.2.8,3,y,0,left,right,right,left,NA,1336,17297,8780,1336,NA,2,legacy,3,1024,2,48000,-16,experiment,1,odd,3,343666,340314,341458,2648,341460,308466,2652,104865,345669,347006,342463,113646,19950,345669,NA,New experiment,45,57767,48,yes,1024
93.87755102,93.87755102,1195.959184,1195.959184,black,experiment,legacy,legacy,legacy,0,uniform,1,undefined,1,left,48,48,48,0,48,48,0,0,48,48,48,0,0,48,0,10/27/19 15:29,sternberg task,yes,sternbergtask.osexp,C:/Users/DLGoupil/Desktop,no,mono,no,18,no,white,no,yes,768,legacy,36,11,C:/Users/DLGoupil/Desktop/dg-subject-1.csv,legacy,4,Kafkaesque Koffka,3.2.8,1,y,0,left,right,right,left,NA,835,17297,8780,835,NA,2,legacy,1,1024,2,48000,-16,experiment,1,odd,4,350359,347011,348150,2648,348153,308466,2652,104865,352362,353198,349156,113646,19950,352362,NA,New experiment,46,58602,49,yes,1024
94,94,1195.72,1195.72,black,experiment,legacy,legacy,legacy,0,uniform,1,undefined,1,right,49,49,49,0,49,49,0,0,49,49,49,0,0,49,0,10/27/19 15:29,sternberg task,yes,sternbergtask.osexp,C:/Users/DLGoupil/Desktop,no,mono,no,18,no,white,no,yes,768,legacy,37,11,C:/Users/DLGoupil/Desktop/dg-subject-1.csv,legacy,7 3 2 8,Kafkaesque Koffka,3.2.8,0,n,0,right,right,right,right,NA,1184,17297,8780,1184,NA,2,legacy,4,1024,2,48000,-16,experiment,1,odd,4,356546,353203,354337,2648,354340,308466,2652,104865,358549,359734,355343,113646,19950,358549,NA,New experiment,47,59786,50,yes,1024
94.11764706,94.11764706,1193.921569,1193.921569,black,experiment,legacy,legacy,legacy,0,uniform,1,undefined,1,right,50,50,50,0,50,50,0,0,50,50,50,0,0,50,0,10/27/19 15:29,sternberg task,yes,sternbergtask.osexp,C:/Users/DLGoupil/Desktop,no,mono,no,18,no,white,no,yes,768,legacy,38,11,C:/Users/DLGoupil/Desktop/dg-subject-1.csv,legacy,5 7 3,Kafkaesque Koffka,3.2.8,0,n,0,right,right,right,right,NA,1104,17297,8780,1104,NA,2,legacy,3,1024,2,48000,-16,experiment,1,odd,9,363082,359738,360874,2648,360876,308466,2652,104865,365085,366190,361879,113646,19950,365085,NA,New experiment,48,60890,51,yes,1024
94.23076923,94.23076923,1191.134615,1191.134615,black,experiment,legacy,legacy,legacy,0,uniform,1,undefined,1,right,51,51,51,0,51,51,0,0,51,51,51,0,0,51,0,10/27/19 15:29,sternberg task,yes,sternbergtask.osexp,C:/Users/DLGoupil/Desktop,no,mono,no,18,no,white,no,yes,768,legacy,39,11,C:/Users/DLGoupil/Desktop/dg-subject-1.csv,legacy,1 3 2 6 9,Kafkaesque Koffka,3.2.8,0,n,0,right,right,right,right,NA,1049,17297,8780,1049,NA,2,legacy,5,1024,2,48000,-16,experiment,1,odd,5,369537,366195,367329,2648,367331,308466,2652,104865,371540,372590,368334,113646,19950,371540,NA,New experiment,49,61939,52,yes,1024
92.45283019,92.45283019,1193.867925,1193.867925,black,experiment,legacy,legacy,legacy,0,uniform,0,undefined,0,left,52,52,52,0,52,52,0,0,52,52,52,0,0,52,0,10/27/19 15:29,sternberg task,yes,sternbergtask.osexp,C:/Users/DLGoupil/Desktop,no,mono,no,18,no,white,no,yes,768,legacy,40,11,C:/Users/DLGoupil/Desktop/dg-subject-1.csv,legacy,7 4 2 6 3 5,Kafkaesque Koffka,3.2.8,6,y,0,right,right,right,right,NA,1336,17297,8780,1336,NA,2,legacy,6,1024,2,48000,-16,experiment,1,odd,5,375946,372595,373738,2648,373740,308466,2652,104865,377949,379286,374743,113646,19950,377949,NA,New experiment,49,63275,53,yes,1024
92.59259259,92.59259259,1190.314815,1190.314815,black,experiment,legacy,legacy,legacy,0,uniform,1,undefined,1,left,53,53,53,0,53,53,0,0,53,53,53,0,0,53,0,10/27/19 15:29,sternberg task,yes,sternbergtask.osexp,C:/Users/DLGoupil/Desktop,no,mono,no,18,no,white,no,yes,768,legacy,41,11,C:/Users/DLGoupil/Desktop/dg-subject-1.csv,legacy,4 1 8 7 5,Kafkaesque Koffka,3.2.8,3,y,0,left,right,right,left,NA,1002,17297,8780,1002,NA,2,legacy,5,1024,2,48000,-16,experiment,1,odd,8,382639,372595,380431,2648,380433,379292,2652,104865,384642,385645,381436,113646,19950,384642,NA,New experiment,50,64277,54,yes,1024
92.72727273,92.72727273,1188.381818,1188.381818,black,experiment,legacy,legacy,legacy,0,uniform,1,undefined,1,right,54,54,54,0,54,54,0,0,54,54,54,0,0,54,0,10/27/19 15:29,sternberg task,yes,sternbergtask.osexp,C:/Users/DLGoupil/Desktop,no,mono,no,18,no,white,no,yes,768,legacy,42,11,C:/Users/DLGoupil/Desktop/dg-subject-1.csv,legacy,7 4 2 8 1 9,Kafkaesque Koffka,3.2.8,0,n,0,right,right,right,right,NA,1084,17297,8780,1084,NA,2,legacy,6,1024,2,48000,-16,experiment,1,odd,5,388997,385650,386788,2648,386791,379292,2652,104865,391000,392085,387794,113646,19950,391000,NA,New experiment,51,65361,55,yes,1024
92.85714286,92.85714286,1187.285714,1187.285714,black,experiment,legacy,legacy,legacy,0,uniform,1,undefined,1,right,55,55,55,0,55,55,0,0,55,55,55,0,0,55,0,10/27/19 15:29,sternberg task,yes,sternbergtask.osexp,C:/Users/DLGoupil/Desktop,no,mono,no,18,no,white,no,yes,768,legacy,43,11,C:/Users/DLGoupil/Desktop/dg-subject-1.csv,legacy,1 7 5 2 9,Kafkaesque Koffka,3.2.8,0,n,0,right,right,right,right,NA,1127,17297,8780,1127,NA,2,legacy,5,1024,2,48000,-16,experiment,1,odd,3,395435,392090,393227,2648,393229,379292,2652,104865,397438,398566,394232,113646,19950,397438,NA,New experiment,52,66488,56,yes,1024
92.98245614,92.98245614,1181.877193,1181.877193,black,experiment,legacy,legacy,legacy,0,uniform,1,undefined,1,right,56,56,56,0,56,56,0,0,56,56,56,0,0,56,0,10/27/19 15:29,sternberg task,yes,sternbergtask.osexp,C:/Users/DLGoupil/Desktop,no,mono,no,18,no,white,no,yes,768,legacy,44,11,C:/Users/DLGoupil/Desktop/dg-subject-1.csv,legacy,4 1,Kafkaesque Koffka,3.2.8,0,n,0,right,right,right,right,NA,879,17297,8780,879,NA,2,legacy,2,1024,2,48000,-16,experiment,1,odd,6,401923,398571,399715,2648,399717,379292,2652,104865,403926,404806,400720,113646,19950,403926,NA,New experiment,53,67367,57,yes,1024
93.10344828,93.10344828,1180.241379,1180.241379,black,experiment,legacy,legacy,legacy,0,uniform,1,undefined,1,left,57,57,57,0,57,57,0,0,57,57,57,0,0,57,0,10/27/19 15:29,sternberg task,yes,sternbergtask.osexp,C:/Users/DLGoupil/Desktop,no,mono,no,18,no,white,no,yes,768,legacy,45,11,C:/Users/DLGoupil/Desktop/dg-subject-1.csv,legacy,9 6 2 4 1,Kafkaesque Koffka,3.2.8,4,y,0,left,right,right,left,NA,1087,17297,8780,1087,NA,2,legacy,5,1024,2,48000,-16,experiment,1,odd,4,408163,404811,405955,2648,405958,379292,2652,104865,410166,411254,406961,113646,19950,410166,NA,New experiment,54,68454,58,yes,1024
91.52542373,91.52542373,1178.661017,1178.661017,black,experiment,legacy,legacy,legacy,0,uniform,0,undefined,0,left,58,58,58,0,58,58,0,0,58,58,58,0,0,58,0,10/27/19 15:29,sternberg task,yes,sternbergtask.osexp,C:/Users/DLGoupil/Desktop,no,mono,no,18,no,white,no,yes,768,legacy,46,11,C:/Users/DLGoupil/Desktop/dg-subject-1.csv,legacy,5 7 3 6 2,Kafkaesque Koffka,3.2.8,5,y,0,right,right,right,right,NA,1087,17297,8780,1087,NA,2,legacy,5,1024,2,48000,-16,experiment,1,odd,2,414602,411259,412394,2648,412396,379292,2652,104865,416605,417693,413399,113646,19950,416605,NA,New experiment,54,69541,59,yes,1024
91.66666667,91.66666667,1177.083333,1177.083333,black,experiment,legacy,legacy,legacy,0,uniform,1,undefined,1,left,59,59,59,0,59,59,0,0,59,59,59,0,0,59,0,10/27/19 15:29,sternberg task,yes,sternbergtask.osexp,C:/Users/DLGoupil/Desktop,no,mono,no,18,no,white,no,yes,768,legacy,47,11,C:/Users/DLGoupil/Desktop/dg-subject-1.csv,legacy,6 5,Kafkaesque Koffka,3.2.8,2,y,0,left,right,right,left,NA,1084,17297,8780,1084,NA,2,legacy,2,1024,2,48000,-16,experiment,1,odd,5,421045,411259,418836,2648,418838,417698,2652,104865,423048,424133,419842,113646,19950,423048,NA,New experiment,55,70625,60,yes,1024
91.80327869,91.80327869,1175.032787,1175.032787,black,experiment,legacy,legacy,legacy,0,uniform,1,undefined,1,left,60,60,60,0,60,60,0,0,60,60,60,0,0,60,0,10/27/19 15:29,sternberg task,yes,sternbergtask.osexp,C:/Users/DLGoupil/Desktop,no,mono,no,18,no,white,no,yes,768,legacy,48,11,C:/Users/DLGoupil/Desktop/dg-subject-1.csv,legacy,2 4 6 9,Kafkaesque Koffka,3.2.8,3,y,0,left,right,right,left,NA,1052,17297,8780,1052,NA,2,legacy,4,1024,2,48000,-16,experiment,1,odd,6,427485,424138,425277,2648,425279,417698,2652,104865,429488,430542,426282,113646,19950,429488,NA,New experiment,56,71677,61,yes,1024
91.93548387,91.93548387,1179.483871,1179.483871,black,experiment,legacy,legacy,legacy,0,uniform,1,undefined,1,right,61,61,61,0,61,61,0,0,61,61,61,0,0,61,0,10/27/19 15:29,sternberg task,yes,sternbergtask.osexp,C:/Users/DLGoupil/Desktop,no,mono,no,18,no,white,no,yes,768,legacy,49,11,C:/Users/DLGoupil/Desktop/dg-subject-1.csv,legacy,9 7 4 5 8,Kafkaesque Koffka,3.2.8,0,n,0,right,right,right,right,NA,1451,17297,8780,1451,NA,2,legacy,5,1024,2,48000,-16,experiment,1,odd,6,433887,430546,431679,2648,431681,417698,2652,104865,435890,437342,432684,113646,19950,435890,NA,New experiment,57,73128,62,yes,1024
92.06349206,92.06349206,1174.714286,1174.714286,black,experiment,legacy,legacy,legacy,0,uniform,1,undefined,1,left,62,62,62,0,62,62,0,0,62,62,62,0,0,62,0,10/27/19 15:29,sternberg task,yes,sternbergtask.osexp,C:/Users/DLGoupil/Desktop,no,mono,no,18,no,white,no,yes,768,legacy,50,11,C:/Users/DLGoupil/Desktop/dg-subject-1.csv,legacy,2 4 8 5 1 3,Kafkaesque Koffka,3.2.8,1,y,0,left,right,right,left,NA,879,17297,8780,879,NA,2,legacy,6,1024,2,48000,-16,experiment,1,odd,2,440691,437347,438483,2648,438485,417698,2652,104865,442694,443574,439488,113646,19950,442694,NA,New experiment,58,74007,63,yes,1024
92.1875,92.1875,1170.875,1170.875,black,experiment,legacy,legacy,legacy,0,uniform,1,undefined,1,left,63,63,63,0,63,63,0,0,63,63,63,0,0,63,0,10/27/19 15:29,sternberg task,yes,sternbergtask.osexp,C:/Users/DLGoupil/Desktop,no,mono,no,18,no,white,no,yes,768,legacy,51,11,C:/Users/DLGoupil/Desktop/dg-subject-1.csv,legacy,8 1 6,Kafkaesque Koffka,3.2.8,3,y,0,left,right,right,left,NA,929,17297,8780,929,NA,2,legacy,3,1024,2,48000,-16,experiment,1,odd,6,446928,443579,444720,2648,444722,417698,2652,104865,448931,449862,445725,113646,19950,448931,NA,New experiment,59,74936,64,yes,1024
92.30769231,92.30769231,1166.538462,1166.538462,black,experiment,legacy,legacy,legacy,0,uniform,1,undefined,1,right,64,64,64,0,64,64,0,0,64,64,64,0,0,64,0,10/27/19 15:29,sternberg task,yes,sternbergtask.osexp,C:/Users/DLGoupil/Desktop,no,mono,no,18,no,white,no,yes,768,legacy,52,11,C:/Users/DLGoupil/Desktop/dg-subject-1.csv,legacy,1 6 4,Kafkaesque Koffka,3.2.8,0,n,0,right,right,right,right,NA,889,17297,8780,889,NA,2,legacy,3,1024,2,48000,-16,experiment,1,odd,7,453208,449866,451000,2648,451002,417698,2652,104865,455211,456102,452005,113646,19950,455211,NA,New experiment,60,75825,65,yes,1024
92.42424242,92.42424242,1161.5,1161.5,black,experiment,legacy,legacy,legacy,0,uniform,1,undefined,1,left,65,65,65,0,65,65,0,0,65,65,65,0,0,65,0,10/27/19 15:29,sternberg task,yes,sternbergtask.osexp,C:/Users/DLGoupil/Desktop,no,mono,no,18,no,white,no,yes,768,legacy,53,11,C:/Users/DLGoupil/Desktop/dg-subject-1.csv,legacy,9 1 6 7 8,Kafkaesque Koffka,3.2.8,1,y,0,left,right,right,left,NA,834,17297,8780,834,NA,2,legacy,5,1024,2,48000,-16,experiment,1,odd,9,459448,456106,457240,2648,457242,417698,2652,104865,461451,462286,458245,113646,19950,461451,NA,New experiment,61,76659,66,yes,1024
92.53731343,92.53731343,1156.791045,1156.791045,black,experiment,legacy,legacy,legacy,0,uniform,1,undefined,1,right,66,66,66,0,66,66,0,0,66,66,66,0,0,66,0,10/27/19 15:29,sternberg task,yes,sternbergtask.osexp,C:/Users/DLGoupil/Desktop,no,mono,no,18,no,white,no,yes,768,legacy,54,11,C:/Users/DLGoupil/Desktop/dg-subject-1.csv,legacy,5 2,Kafkaesque Koffka,3.2.8,0,n,0,right,right,right,right,NA,846,17297,8780,846,NA,2,legacy,2,1024,2,48000,-16,experiment,1,odd,7,465644,462290,463435,2648,463437,417698,2652,104865,467647,468494,464441,113646,19950,467647,NA,New experiment,62,77505,67,yes,1024
92.64705882,92.64705882,1155.073529,1155.073529,black,experiment,legacy,legacy,legacy,0,uniform,1,undefined,1,right,67,67,67,0,67,67,0,0,67,67,67,0,0,67,0,10/27/19 15:29,sternberg task,yes,sternbergtask.osexp,C:/Users/DLGoupil/Desktop,no,mono,no,18,no,white,no,yes,768,legacy,55,11,C:/Users/DLGoupil/Desktop/dg-subject-1.csv,legacy,6 3 1 7 9 8,Kafkaesque Koffka,3.2.8,0,n,0,right,right,right,right,NA,1040,17297,8780,1040,NA,2,legacy,6,1024,2,48000,-16,experiment,1,odd,4,471842,468499,469633,2648,469636,417698,2652,104865,473845,474886,470639,113646,19950,473845,NA,New experiment,63,78545,68,yes,1024
92.75362319,92.75362319,1154.898551,1154.898551,black,experiment,legacy,legacy,legacy,0,uniform,1,undefined,1,right,68,68,68,0,68,68,0,0,68,68,68,0,0,68,0,10/27/19 15:29,sternberg task,yes,sternbergtask.osexp,C:/Users/DLGoupil/Desktop,no,mono,no,18,no,white,no,yes,768,legacy,56,11,C:/Users/DLGoupil/Desktop/dg-subject-1.csv,legacy,1 7 8 3 9,Kafkaesque Koffka,3.2.8,0,n,0,right,right,right,right,NA,1143,17297,8780,1143,NA,2,legacy,5,1024,2,48000,-16,experiment,1,odd,2,478236,474891,476027,2648,476030,417698,2652,104865,480238,481382,477033,113646,19950,480238,NA,New experiment,64,79688,69,yes,1024
91.42857143,91.42857143,1152.657143,1152.657143,black,experiment,legacy,legacy,legacy,0,uniform,0,undefined,0,left,69,69,69,0,69,69,0,0,69,69,69,0,0,69,0,10/27/19 15:29,sternberg task,yes,sternbergtask.osexp,C:/Users/DLGoupil/Desktop,no,mono,no,18,no,white,no,yes,768,legacy,57,11,C:/Users/DLGoupil/Desktop/dg-subject-1.csv,legacy,4 9 7 8 5 3,Kafkaesque Koffka,3.2.8,4,y,0,right,right,right,right,NA,998,17297,8780,998,NA,2,legacy,6,1024,2,48000,-16,experiment,1,odd,8,484732,481387,482523,2648,482525,417698,2652,104865,486735,487734,483529,113646,19950,486735,NA,New experiment,64,80686,70,yes,1024
91.54929577,91.54929577,1147.71831,1147.71831,black,experiment,legacy,legacy,legacy,0,uniform,1,undefined,1,left,70,70,70,0,70,70,0,0,70,70,70,0,0,70,0,10/27/19 15:29,sternberg task,yes,sternbergtask.osexp,C:/Users/DLGoupil/Desktop,no,mono,no,18,no,white,no,yes,768,legacy,58,11,C:/Users/DLGoupil/Desktop/dg-subject-1.csv,legacy,3 5 4 7,Kafkaesque Koffka,3.2.8,1,y,0,left,right,right,left,NA,802,17297,8780,802,NA,2,legacy,4,1024,2,48000,-16,experiment,1,odd,3,491087,481387,488879,2648,488881,487740,2652,104865,493090,493894,489884,113646,19950,493090,NA,New experiment,65,81488,71,yes,1024
91.66666667,91.66666667,1143.319444,1143.319444,black,experiment,legacy,legacy,legacy,0,uniform,1,undefined,1,left,71,71,71,0,71,71,0,0,71,71,71,0,0,71,0,10/27/19 15:29,sternberg task,yes,sternbergtask.osexp,C:/Users/DLGoupil/Desktop,no,mono,no,18,no,white,no,yes,768,legacy,59,11,C:/Users/DLGoupil/Desktop/dg-subject-1.csv,legacy,8 3,Kafkaesque Koffka,3.2.8,2,y,0,left,right,right,left,NA,831,17297,8780,831,NA,2,legacy,2,1024,2,48000,-16,experiment,1,odd,3,497243,493898,495034,2648,495037,487740,2652,104865,499246,500078,496040,113646,19950,499246,NA,New experiment,66,82319,72,yes,1024
91.78082192,91.78082192,1143.082192,1143.082192,black,experiment,legacy,legacy,legacy,0,uniform,1,undefined,1,left,72,72,72,0,72,72,0,0,72,72,72,0,0,72,0,10/27/19 15:29,sternberg task,yes,sternbergtask.osexp,C:/Users/DLGoupil/Desktop,no,mono,no,18,no,white,no,yes,768,legacy,60,11,C:/Users/DLGoupil/Desktop/dg-subject-1.csv,legacy,4 7 6 8 2 3,Kafkaesque Koffka,3.2.8,6,y,0,left,right,right,left,NA,1126,17297,8780,1126,NA,2,legacy,6,1024,2,48000,-16,experiment,1,odd,3,503427,500083,501218,2648,501221,487740,2652,104865,505430,506557,502224,113646,19950,505430,NA,New experiment,67,83445,73,yes,1024
91.89189189,91.89189189,1140.391892,1140.391892,black,experiment,legacy,legacy,legacy,0,uniform,1,undefined,1,right,73,73,73,0,73,73,0,0,73,73,73,0,0,73,0,10/27/19 15:29,sternberg task,yes,sternbergtask.osexp,C:/Users/DLGoupil/Desktop,no,mono,no,18,no,white,no,yes,768,legacy,61,11,C:/Users/DLGoupil/Desktop/dg-subject-1.csv,legacy,9 5 3 2 8 6,Kafkaesque Koffka,3.2.8,0,n,0,right,right,right,right,NA,944,17297,8780,944,NA,2,legacy,6,1024,2,48000,-16,experiment,1,odd,7,509905,506562,507696,2648,507698,487740,2652,104865,511908,512853,508702,113646,19950,511908,NA,New experiment,68,84389,74,yes,1024
92,92,1137.973333,1137.973333,black,experiment,legacy,legacy,legacy,0,uniform,1,undefined,1,right,74,74,74,0,74,74,0,0,74,74,74,0,0,74,0,10/27/19 15:29,sternberg task,yes,sternbergtask.osexp,C:/Users/DLGoupil/Desktop,no,mono,no,18,no,white,no,yes,768,legacy,62,11,C:/Users/DLGoupil/Desktop/dg-subject-1.csv,legacy,8 6 3 4 7,Kafkaesque Koffka,3.2.8,0,n,0,right,right,right,right,NA,959,17297,8780,959,NA,2,legacy,5,1024,2,48000,-16,experiment,1,odd,1,516202,512858,513994,2648,513996,487740,2652,104865,518205,519165,514999,113646,19950,518205,NA,New experiment,69,85348,75,yes,1024
92.10526316,92.10526316,1134.881579,1134.881579,black,experiment,legacy,legacy,legacy,0,uniform,1,undefined,1,right,75,75,75,0,75,75,0,0,75,75,75,0,0,75,0,10/27/19 15:29,sternberg task,yes,sternbergtask.osexp,C:/Users/DLGoupil/Desktop,no,mono,no,18,no,white,no,yes,768,legacy,63,11,C:/Users/DLGoupil/Desktop/dg-subject-1.csv,legacy,4 2 6 9,Kafkaesque Koffka,3.2.8,0,n,0,right,right,right,right,NA,903,17297,8780,903,NA,2,legacy,4,1024,2,48000,-16,experiment,1,odd,7,522522,519170,520314,2648,520316,487740,2652,104865,524525,525429,521319,113646,19950,524525,NA,New experiment,70,86251,76,yes,1024
92.20779221,92.20779221,1132.909091,1132.909091,black,experiment,legacy,legacy,legacy,0,uniform,1,undefined,1,left,76,76,76,0,76,76,0,0,76,76,76,0,0,76,0,10/27/19 15:29,sternberg task,yes,sternbergtask.osexp,C:/Users/DLGoupil/Desktop,no,mono,no,18,no,white,no,yes,768,legacy,64,11,C:/Users/DLGoupil/Desktop/dg-subject-1.csv,legacy,4 3 2 5 8,Kafkaesque Koffka,3.2.8,2,y,0,left,right,right,left,NA,983,17297,8780,983,NA,2,legacy,5,1024,2,48000,-16,experiment,1,odd,3,528779,525434,526570,2648,526572,487740,2652,104865,530782,531766,527576,113646,19950,530782,NA,New experiment,71,87234,77,yes,1024
92.30769231,92.30769231,1133.230769,1133.230769,black,experiment,legacy,legacy,legacy,0,uniform,1,undefined,1,right,77,77,77,0,77,77,0,0,77,77,77,0,0,77,0,10/27/19 15:29,sternberg task,yes,sternbergtask.osexp,C:/Users/DLGoupil/Desktop,no,mono,no,18,no,white,no,yes,768,legacy,65,11,C:/Users/DLGoupil/Desktop/dg-subject-1.csv,legacy,1 8 7,Kafkaesque Koffka,3.2.8,0,n,0,right,right,right,right,NA,1158,17297,8780,1158,NA,2,legacy,3,1024,2,48000,-16,experiment,1,odd,4,535123,531771,532914,2648,532917,487740,2652,104865,537126,538285,533920,113646,19950,537126,NA,New experiment,72,88392,78,yes,1024
92.40506329,92.40506329,1134.405063,1134.405063,black,experiment,legacy,legacy,legacy,0,uniform,1,undefined,1,left,78,78,78,0,78,78,0,0,78,78,78,0,0,78,0,10/27/19 15:29,sternberg task,yes,sternbergtask.osexp,C:/Users/DLGoupil/Desktop,no,mono,no,18,no,white,no,yes,768,legacy,66,11,C:/Users/DLGoupil/Desktop/dg-subject-1.csv,legacy,3 4 9 6 2 9,Kafkaesque Koffka,3.2.8,5,y,0,left,right,right,left,NA,1226,17297,8780,1226,NA,2,legacy,6,1024,2,48000,-16,experiment,1,odd,2,541639,538290,539430,2648,539432,487740,2652,104865,543642,544869,540436,113646,19950,543642,NA,New experiment,73,89618,79,yes,1024
92.5,92.5,1132.125,1132.125,black,experiment,legacy,legacy,legacy,0,uniform,1,undefined,1,right,79,79,79,0,79,79,0,0,79,79,79,0,0,79,0,10/27/19 15:29,sternberg task,yes,sternbergtask.osexp,C:/Users/DLGoupil/Desktop,no,mono,no,18,no,white,no,yes,768,legacy,67,11,C:/Users/DLGoupil/Desktop/dg-subject-1.csv,legacy,1 4 9 3,Kafkaesque Koffka,3.2.8,0,n,0,right,right,right,right,NA,952,17297,8780,952,NA,2,legacy,4,1024,2,48000,-16,experiment,1,odd,5,548218,544875,546010,2648,546012,487740,2652,104865,550221,551174,547015,113646,19950,550221,NA,New experiment,74,90570,80,yes,1024
92.59259259,92.59259259,1129.382716,1129.382716,black,experiment,legacy,legacy,legacy,0,uniform,1,undefined,1,left,80,80,80,0,80,80,0,0,80,80,80,0,0,80,0,10/27/19 15:29,sternberg task,yes,sternbergtask.osexp,C:/Users/DLGoupil/Desktop,no,mono,no,18,no,white,no,yes,768,legacy,68,11,C:/Users/DLGoupil/Desktop/dg-subject-1.csv,legacy,6 1 2,Kafkaesque Koffka,3.2.8,3,y,0,left,right,right,left,NA,910,17297,8780,910,NA,2,legacy,3,1024,2,48000,-16,experiment,1,odd,2,554524,551179,552316,2648,552318,487740,2652,104865,556527,557438,553321,113646,19950,556527,NA,New experiment,75,91480,81,yes,1024
92.68292683,92.68292683,1129.353659,1129.353659,black,experiment,legacy,legacy,legacy,0,uniform,1,undefined,1,right,81,81,81,0,81,81,0,0,81,81,81,0,0,81,0,10/27/19 15:29,sternberg task,yes,sternbergtask.osexp,C:/Users/DLGoupil/Desktop,no,mono,no,18,no,white,no,yes,768,legacy,69,11,C:/Users/DLGoupil/Desktop/dg-subject-1.csv,legacy,6 2 9 3 8 4,Kafkaesque Koffka,3.2.8,0,n,0,right,right,right,right,NA,1127,17297,8780,1127,NA,2,legacy,6,1024,2,48000,-16,experiment,1,odd,1,560787,557443,558579,2648,558581,487740,2652,104865,562790,563918,559584,113646,19950,562790,NA,New experiment,76,92607,82,yes,1024
92.77108434,92.77108434,1124.722892,1124.722892,black,experiment,legacy,legacy,legacy,0,uniform,1,undefined,1,left,82,82,82,0,82,82,0,0,82,82,82,0,0,82,0,10/27/19 15:29,sternberg task,yes,sternbergtask.osexp,C:/Users/DLGoupil/Desktop,no,mono,no,18,no,white,no,yes,768,legacy,70,11,C:/Users/DLGoupil/Desktop/dg-subject-1.csv,legacy,7 1 3,Kafkaesque Koffka,3.2.8,2,y,0,left,right,right,left,NA,745,17297,8780,745,NA,2,legacy,3,1024,2,48000,-16,experiment,1,odd,1,567265,563923,565057,2648,565059,487740,2652,104865,569268,570014,566062,113646,19950,569268,NA,New experiment,77,93352,83,yes,1024
92.85714286,92.85714286,1122.75,1122.75,black,experiment,legacy,legacy,legacy,0,uniform,1,undefined,1,left,83,83,83,0,83,83,0,0,83,83,83,0,0,83,0,10/27/19 15:29,sternberg task,yes,sternbergtask.osexp,C:/Users/DLGoupil/Desktop,no,mono,no,18,no,white,no,yes,768,legacy,71,11,C:/Users/DLGoupil/Desktop/dg-subject-1.csv,legacy,2 5 4 8 7,Kafkaesque Koffka,3.2.8,3,y,0,left,right,right,left,NA,959,17297,8780,959,NA,2,legacy,5,1024,2,48000,-16,experiment,1,odd,4,573362,570019,571155,2648,571157,487740,2652,104865,575365,576326,572159,113646,19950,575365,NA,New experiment,78,94311,84,yes,1024
92.94117647,92.94117647,1119.858824,1119.858824,black,experiment,legacy,legacy,legacy,0,uniform,1,undefined,1,right,84,84,84,0,84,84,0,0,84,84,84,0,0,84,0,10/27/19 15:29,sternberg task,yes,sternbergtask.osexp,C:/Users/DLGoupil/Desktop,no,mono,no,18,no,white,no,yes,768,legacy,72,11,C:/Users/DLGoupil/Desktop/dg-subject-1.csv,legacy,7 1,Kafkaesque Koffka,3.2.8,0,n,0,right,right,right,right,NA,877,17297,8780,877,NA,2,legacy,2,1024,2,48000,-16,experiment,1,odd,8,579677,576331,577468,2648,577470,487740,2652,104865,581680,582558,578474,113646,19950,581680,NA,New experiment,79,95188,85,yes,1024
93.02325581,93.02325581,1117.116279,1117.116279,black,experiment,legacy,legacy,legacy,0,uniform,1,undefined,1,left,85,85,85,0,85,85,0,0,85,85,85,0,0,85,0,10/27/19 15:29,sternberg task,yes,sternbergtask.osexp,C:/Users/DLGoupil/Desktop,no,mono,no,18,no,white,no,yes,768,legacy,73,11,C:/Users/DLGoupil/Desktop/dg-subject-1.csv,legacy,3 4,Kafkaesque Koffka,3.2.8,1,y,0,left,right,right,left,NA,884,17297,8780,884,NA,2,legacy,2,1024,2,48000,-16,experiment,1,odd,3,585902,582562,583694,2648,583696,487740,2652,104865,587905,588790,584699,113646,19950,587905,NA,New experiment,80,96072,86,yes,1024
93.10344828,93.10344828,1114.965517,1114.965517,black,experiment,legacy,legacy,legacy,0,uniform,1,undefined,1,right,86,86,86,0,86,86,0,0,86,86,86,0,0,86,0,10/27/19 15:29,sternberg task,yes,sternbergtask.osexp,C:/Users/DLGoupil/Desktop,no,mono,no,18,no,white,no,yes,768,legacy,74,11,C:/Users/DLGoupil/Desktop/dg-subject-1.csv,legacy,1,Kafkaesque Koffka,3.2.8,0,n,0,right,right,right,right,NA,930,17297,8780,930,NA,2,legacy,1,1024,2,48000,-16,experiment,1,odd,7,592136,588795,589928,2648,589931,487740,2652,104865,594138,595070,590934,113646,19950,594138,NA,New experiment,81,97002,87,yes,1024
93.18181818,93.18181818,1112.795455,1112.795455,black,experiment,legacy,legacy,legacy,0,uniform,1,undefined,1,right,87,87,87,0,87,87,0,0,87,87,87,0,0,87,0,10/27/19 15:29,sternberg task,yes,sternbergtask.osexp,C:/Users/DLGoupil/Desktop,no,mono,no,18,no,white,no,yes,768,legacy,75,11,C:/Users/DLGoupil/Desktop/dg-subject-1.csv,legacy,8 9,Kafkaesque Koffka,3.2.8,0,n,0,right,right,right,right,NA,924,17297,8780,924,NA,2,legacy,2,1024,2,48000,-16,experiment,1,odd,5,598423,595075,596215,2648,596217,487740,2652,104865,600425,601350,597220,113646,19950,600425,NA,New experiment,82,97926,88,yes,1024
93.25842697,93.25842697,1109.404494,1109.404494,black,experiment,legacy,legacy,legacy,0,uniform,1,undefined,1,left,88,88,88,0,88,88,0,0,88,88,88,0,0,88,0,10/27/19 15:29,sternberg task,yes,sternbergtask.osexp,C:/Users/DLGoupil/Desktop,no,mono,no,18,no,white,no,yes,768,legacy,76,11,C:/Users/DLGoupil/Desktop/dg-subject-1.csv,legacy,6 7 9 3 1 2,Kafkaesque Koffka,3.2.8,1,y,0,left,right,right,left,NA,811,17297,8780,811,NA,2,legacy,6,1024,2,48000,-16,experiment,1,odd,6,604703,601357,602494,2648,602497,487740,2652,104865,606706,607518,603500,113646,19950,606706,NA,New experiment,83,98737,89,yes,1024
93.33333333,93.33333333,1107.677778,1107.677778,black,experiment,legacy,legacy,legacy,0,uniform,1,undefined,1,right,89,89,89,0,89,89,0,0,89,89,89,0,0,89,0,10/27/19 15:29,sternberg task,yes,sternbergtask.osexp,C:/Users/DLGoupil/Desktop,no,mono,no,18,no,white,no,yes,768,legacy,77,11,C:/Users/DLGoupil/Desktop/dg-subject-1.csv,legacy,1 7 5 2,Kafkaesque Koffka,3.2.8,0,n,0,right,right,right,right,NA,954,17297,8780,954,NA,2,legacy,4,1024,2,48000,-16,experiment,1,odd,3,610864,607523,608655,2648,608658,487740,2652,104865,612867,613822,609661,113646,19950,612867,NA,New experiment,84,99691,90,yes,1024
93.40659341,93.40659341,1109.505495,1109.505495,black,experiment,legacy,legacy,legacy,0,uniform,1,undefined,1,right,90,90,90,0,90,90,0,0,90,90,90,0,0,90,0,10/27/19 15:29,sternberg task,yes,sternbergtask.osexp,C:/Users/DLGoupil/Desktop,no,mono,no,18,no,white,no,yes,768,legacy,78,11,C:/Users/DLGoupil/Desktop/dg-subject-1.csv,legacy,6 9 7 3 8 2,Kafkaesque Koffka,3.2.8,0,n,0,right,right,right,right,NA,1274,17297,8780,1274,NA,2,legacy,6,1024,2,48000,-16,experiment,1,odd,5,617176,613827,614968,2648,614970,487740,2652,104865,619179,620454,615973,113646,19950,619179,NA,New experiment,85,100965,91,yes,1024
93.47826087,93.47826087,1106.173913,1106.173913,black,experiment,legacy,legacy,legacy,0,uniform,1,undefined,1,left,91,91,91,0,91,91,0,0,91,91,91,0,0,91,0,10/27/19 15:29,sternberg task,yes,sternbergtask.osexp,C:/Users/DLGoupil/Desktop,no,mono,no,18,no,white,no,yes,768,legacy,79,11,C:/Users/DLGoupil/Desktop/dg-subject-1.csv,legacy,5 2 6,Kafkaesque Koffka,3.2.8,2,y,0,left,right,right,left,NA,803,17297,8780,803,NA,2,legacy,3,1024,2,48000,-16,experiment,1,odd,2,623807,620459,621598,2648,621601,487740,2652,104865,625810,626614,622604,113646,19950,625810,NA,New experiment,86,101768,92,yes,1024
93.5483871,93.5483871,1103.741935,1103.741935,black,experiment,legacy,legacy,legacy,0,uniform,1,undefined,1,right,92,92,92,0,92,92,0,0,92,92,92,0,0,92,0,10/27/19 15:29,sternberg task,yes,sternbergtask.osexp,C:/Users/DLGoupil/Desktop,no,mono,no,18,no,white,no,yes,768,legacy,80,11,C:/Users/DLGoupil/Desktop/dg-subject-1.csv,legacy,6 7 5 9,Kafkaesque Koffka,3.2.8,0,n,0,right,right,right,right,NA,880,17297,8780,880,NA,2,legacy,4,1024,2,48000,-16,experiment,1,odd,2,629963,626619,627754,2648,627757,487740,2652,104865,631965,632846,628760,113646,19950,631965,NA,New experiment,87,102648,93,yes,1024
92.55319149,92.55319149,1106.680851,1106.680851,black,experiment,legacy,legacy,legacy,0,uniform,0,undefined,0,left,93,93,93,0,93,93,0,0,93,93,93,0,0,93,0,10/27/19 15:29,sternberg task,yes,sternbergtask.osexp,C:/Users/DLGoupil/Desktop,no,mono,no,18,no,white,no,yes,768,legacy,81,11,C:/Users/DLGoupil/Desktop/dg-subject-1.csv,legacy,9 3 8 2 1 4,Kafkaesque Koffka,3.2.8,3,y,0,right,right,right,right,NA,1380,17297,8780,1380,NA,2,legacy,6,1024,2,48000,-16,experiment,1,odd,8,636198,632851,633990,2648,633992,487740,2652,104865,638201,639582,634995,113646,19950,638201,NA,New experiment,87,104028,94,yes,1024
91.57894737,91.57894737,1107.568421,1107.568421,black,experiment,legacy,legacy,legacy,0,uniform,0,undefined,0,left,94,94,94,0,94,94,0,0,94,94,94,0,0,94,0,10/27/19 15:29,sternberg task,yes,sternbergtask.osexp,C:/Users/DLGoupil/Desktop,no,mono,no,18,no,white,no,yes,768,legacy,82,11,C:/Users/DLGoupil/Desktop/dg-subject-1.csv,legacy,6 9 3 1,Kafkaesque Koffka,3.2.8,4,y,0,right,right,right,right,NA,1191,17297,8780,1191,NA,2,legacy,4,1024,2,48000,-16,experiment,1,odd,1,642931,632851,640722,2648,640725,639587,2652,104865,644934,646126,641728,113646,19950,644934,NA,New experiment,87,105219,95,yes,1024
91.66666667,91.66666667,1105.270833,1105.270833,black,experiment,legacy,legacy,legacy,0,uniform,1,undefined,1,left,95,95,95,0,95,95,0,0,95,95,95,0,0,95,0,10/27/19 15:29,sternberg task,yes,sternbergtask.osexp,C:/Users/DLGoupil/Desktop,no,mono,no,18,no,white,no,yes,768,legacy,83,11,C:/Users/DLGoupil/Desktop/dg-subject-1.csv,legacy,3 5 7 1,Kafkaesque Koffka,3.2.8,3,y,0,left,right,right,left,NA,887,17297,8780,887,NA,2,legacy,4,1024,2,48000,-16,experiment,1,odd,7,649483,632851,647274,2648,647277,646131,2652,104865,651486,652374,648280,113646,19950,651486,NA,New experiment,88,106106,96,yes,1024
91.75257732,91.75257732,1103.618557,1103.618557,black,experiment,legacy,legacy,legacy,0,uniform,1,undefined,1,left,96,96,96,0,96,96,0,0,96,96,96,0,0,96,0,10/27/19 15:29,sternberg task,yes,sternbergtask.osexp,C:/Users/DLGoupil/Desktop,no,mono,no,18,no,white,no,yes,768,legacy,84,11,C:/Users/DLGoupil/Desktop/dg-subject-1.csv,legacy,2 6 1 7 4,Kafkaesque Koffka,3.2.8,2,y,0,left,right,right,left,NA,945,17297,8780,945,NA,2,legacy,5,1024,2,48000,-16,experiment,1,odd,6,655720,652379,653511,2648,653514,646131,2652,104865,657723,658670,654517,113646,19950,657723,NA,New experiment,89,107051,97,yes,1024
91.83673469,91.83673469,1101.897959,1101.897959,black,experiment,legacy,legacy,legacy,0,uniform,1,undefined,1,right,97,97,97,0,97,97,0,0,97,97,97,0,0,97,0,10/27/19 15:29,sternberg task,yes,sternbergtask.osexp,C:/Users/DLGoupil/Desktop,no,mono,no,18,no,white,no,yes,768,legacy,85,11,C:/Users/DLGoupil/Desktop/dg-subject-1.csv,legacy,1 5 3 2 8,Kafkaesque Koffka,3.2.8,0,n,0,right,right,right,right,NA,935,17297,8780,935,NA,2,legacy,5,1024,2,48000,-16,experiment,1,odd,4,662025,658675,659816,2648,659819,646131,2652,104865,664029,664966,660822,113646,19950,664029,NA,New experiment,90,107986,98,yes,1024
91.91919192,91.91919192,1100.363636,1100.363636,black,experiment,legacy,legacy,legacy,0,uniform,1,undefined,1,left,98,98,98,0,98,98,0,0,98,98,98,0,0,98,0,10/27/19 15:29,sternberg task,yes,sternbergtask.osexp,C:/Users/DLGoupil/Desktop,no,mono,no,18,no,white,no,yes,768,legacy,86,11,C:/Users/DLGoupil/Desktop/dg-subject-1.csv,legacy,5 7 8 2 3 8,Kafkaesque Koffka,3.2.8,5,y,0,left,right,right,left,NA,950,17297,8780,950,NA,2,legacy,6,1024,2,48000,-16,experiment,1,odd,3,668324,664971,666115,2648,666118,646131,2652,104865,670327,671278,667121,113646,19950,670327,NA,New experiment,91,108936,99,yes,1024
92,92,1098.37,1098.37,black,experiment,legacy,legacy,legacy,0,uniform,1,undefined,1,right,99,99,99,0,99,99,0,0,99,99,99,0,0,99,0,10/27/19 15:29,sternberg task,yes,sternbergtask.osexp,C:/Users/DLGoupil/Desktop,no,mono,no,18,no,white,no,yes,768,legacy,87,11,C:/Users/DLGoupil/Desktop/dg-subject-1.csv,legacy,2 5 1 4,Kafkaesque Koffka,3.2.8,0,n,0,right,right,right,right,NA,901,17297,8780,901,NA,2,legacy,4,1024,2,48000,-16,experiment,1,odd,6,674629,671283,672421,2648,672423,646131,2652,104865,676632,677535,673426,113646,19950,676632,NA,New experiment,92,109837,100,yes,1024
92.07920792,92.07920792,1096.881188,1096.881188,black,experiment,legacy,legacy,legacy,0,uniform,1,undefined,1,right,100,100,100,0,100,100,0,0,100,100,100,0,0,100,0,10/27/19 15:29,sternberg task,yes,sternbergtask.osexp,C:/Users/DLGoupil/Desktop,no,mono,no,18,no,white,no,yes,768,legacy,88,11,C:/Users/DLGoupil/Desktop/dg-subject-1.csv,legacy,6 9 4 5 3 2,Kafkaesque Koffka,3.2.8,0,n,0,right,right,right,right,NA,948,17297,8780,948,NA,2,legacy,6,1024,2,48000,-16,experiment,1,odd,8,680885,677539,678676,2648,678679,646131,2652,104865,682888,683838,679682,113646,19950,682888,NA,New experiment,93,110785,101,yes,1024
92.15686275,92.15686275,1094.931373,1094.931373,black,experiment,legacy,legacy,legacy,0,uniform,1,undefined,1,left,101,101,101,0,101,101,0,0,101,101,101,0,0,101,0,10/27/19 15:29,sternberg task,yes,sternbergtask.osexp,C:/Users/DLGoupil/Desktop,no,mono,no,18,no,white,no,yes,768,legacy,89,11,C:/Users/DLGoupil/Desktop/dg-subject-1.csv,legacy,8 9 5 6 7,Kafkaesque Koffka,3.2.8,1,y,0,left,right,right,left,NA,898,17297,8780,898,NA,2,legacy,5,1024,2,48000,-16,experiment,1,odd,8,687192,683843,684984,2648,684986,646131,2652,104865,689195,690094,685989,113646,19950,689195,NA,New experiment,94,111683,102,yes,1024
91.26213592,91.26213592,1094.291262,1094.291262,black,experiment,legacy,legacy,legacy,0,uniform,0,undefined,0,left,102,102,102,0,102,102,0,0,102,102,102,0,0,102,0,10/27/19 15:29,sternberg task,yes,sternbergtask.osexp,C:/Users/DLGoupil/Desktop,no,mono,no,18,no,white,no,yes,768,legacy,90,11,C:/Users/DLGoupil/Desktop/dg-subject-1.csv,legacy,4 6 2 5 1,Kafkaesque Koffka,3.2.8,5,y,0,right,right,right,right,NA,1029,17297,8780,1029,NA,2,legacy,5,1024,2,48000,-16,experiment,1,odd,1,693444,690099,691235,2648,691238,646131,2652,104865,695447,696478,692241,113646,19950,695447,NA,New experiment,94,112712,103,yes,1024
91.34615385,91.34615385,1093.028846,1093.028846,black,experiment,legacy,legacy,legacy,0,uniform,1,undefined,1,right,103,103,103,0,103,103,0,0,103,103,103,0,0,103,0,10/27/19 15:29,sternberg task,yes,sternbergtask.osexp,C:/Users/DLGoupil/Desktop,no,mono,no,18,no,white,no,yes,768,legacy,91,11,C:/Users/DLGoupil/Desktop/dg-subject-1.csv,legacy,7 9 1 6,Kafkaesque Koffka,3.2.8,0,n,0,right,right,right,right,NA,963,17297,8780,963,NA,2,legacy,4,1024,2,48000,-16,experiment,1,odd,4,699830,690099,697622,2648,697624,696483,2652,104865,701833,702798,698627,113646,19950,701833,NA,New experiment,95,113675,104,yes,1024
91.42857143,91.42857143,1091.771429,1091.771429,black,experiment,legacy,legacy,legacy,0,uniform,1,undefined,1,right,104,104,104,0,104,104,0,0,104,104,104,0,0,104,0,10/27/19 15:29,sternberg task,yes,sternbergtask.osexp,C:/Users/DLGoupil/Desktop,no,mono,no,18,no,white,no,yes,768,legacy,92,11,C:/Users/DLGoupil/Desktop/dg-subject-1.csv,legacy,9 8 2 7 4,Kafkaesque Koffka,3.2.8,0,n,0,right,right,right,right,NA,961,17297,8780,961,NA,2,legacy,5,1024,2,48000,-16,experiment,1,odd,5,706154,702803,703946,2648,703948,696483,2652,104865,708156,709118,704951,113646,19950,708156,NA,New experiment,96,114636,105,yes,1024
91.50943396,91.50943396,1088.556604,1088.556604,black,experiment,legacy,legacy,legacy,0,uniform,1,undefined,1,left,105,105,105,0,105,105,0,0,105,105,105,0,0,105,0,10/27/19 15:29,sternberg task,yes,sternbergtask.osexp,C:/Users/DLGoupil/Desktop,no,mono,no,18,no,white,no,yes,768,legacy,93,11,C:/Users/DLGoupil/Desktop/dg-subject-1.csv,legacy,7,Kafkaesque Koffka,3.2.8,1,y,0,left,right,right,left,NA,751,17297,8780,751,NA,2,legacy,1,1024,2,48000,-16,experiment,1,odd,7,712466,709123,710258,2648,710260,696483,2652,104865,714469,715222,711263,113646,19950,714469,NA,New experiment,97,115387,106,yes,1024
91.58878505,91.58878505,1085.121495,1085.121495,black,experiment,legacy,legacy,legacy,0,uniform,1,undefined,1,left,106,106,106,0,106,106,0,0,106,106,106,0,0,106,0,10/27/19 15:29,sternberg task,yes,sternbergtask.osexp,C:/Users/DLGoupil/Desktop,no,mono,no,18,no,white,no,yes,768,legacy,94,11,C:/Users/DLGoupil/Desktop/dg-subject-1.csv,legacy,2 8 5 1,Kafkaesque Koffka,3.2.8,4,y,0,left,right,right,left,NA,721,17297,8780,721,NA,2,legacy,4,1024,2,48000,-16,experiment,1,odd,1,718576,715227,716368,2648,716370,696483,2652,104865,720579,721302,717373,113646,19950,720579,NA,New experiment,98,116108,107,yes,1024
91.66666667,91.66666667,1083.092593,1083.092593,black,experiment,legacy,legacy,legacy,0,uniform,1,undefined,1,left,107,107,107,0,107,107,0,0,107,107,107,0,0,107,0,10/27/19 15:29,sternberg task,yes,sternbergtask.osexp,C:/Users/DLGoupil/Desktop,no,mono,no,18,no,white,no,yes,768,legacy,95,11,C:/Users/DLGoupil/Desktop/dg-subject-1.csv,legacy,9 5 3 8 4,Kafkaesque Koffka,3.2.8,1,y,0,left,right,right,left,NA,866,17297,8780,866,NA,2,legacy,5,1024,2,48000,-16,experiment,1,odd,9,724663,721311,722454,2648,722457,696483,2652,104865,726666,727534,723460,113646,19950,726666,NA,New experiment,99,116974,108,yes,1024
91.74311927,91.74311927,1082.458716,1082.458716,black,experiment,legacy,legacy,legacy,0,uniform,1,undefined,1,right,108,108,108,0,108,108,0,0,108,108,108,0,0,108,0,10/27/19 15:29,sternberg task,yes,sternbergtask.osexp,C:/Users/DLGoupil/Desktop,no,mono,no,18,no,white,no,yes,768,legacy,96,11,C:/Users/DLGoupil/Desktop/dg-subject-1.csv,legacy,2 8 9 4 1,Kafkaesque Koffka,3.2.8,0,n,0,right,right,right,right,NA,1014,17297,8780,1014,NA,2,legacy,5,1024,2,48000,-16,experiment,1,odd,5,730883,727539,728675,2648,728677,696483,2652,104865,732886,733902,729680,113646,19950,732886,NA,New experiment,100,117988,109,yes,1024
90.90909091,90.90909091,1080.772727,1080.772727,black,experiment,legacy,legacy,legacy,0,uniform,0,undefined,0,right,109,109,109,0,109,109,0,0,109,109,109,0,0,109,0,10/27/19 15:29,sternberg task,yes,sternbergtask.osexp,C:/Users/DLGoupil/Desktop,no,mono,no,18,no,white,no,yes,768,legacy,97,11,C:/Users/DLGoupil/Desktop/dg-subject-1.csv,legacy,5 3 8 7 2 4,Kafkaesque Koffka,3.2.8,0,n,0,left,right,right,left,NA,897,17297,8780,897,NA,2,legacy,6,1024,2,48000,-16,experiment,1,odd,9,737249,733907,735041,2648,735043,696483,2652,104865,739252,740151,736046,113646,19950,739252,NA,New experiment,100,118885,110,yes,1024
90.99099099,90.99099099,1079.396396,1079.396396,black,experiment,legacy,legacy,legacy,0,uniform,1,undefined,1,right,110,110,110,0,110,110,0,0,110,110,110,0,0,110,0,10/27/19 15:29,sternberg task,yes,sternbergtask.osexp,C:/Users/DLGoupil/Desktop,no,mono,no,18,no,white,no,yes,768,legacy,98,11,C:/Users/DLGoupil/Desktop/dg-subject-1.csv,legacy,6 9 4 5 2,Kafkaesque Koffka,3.2.8,0,n,0,right,right,right,right,NA,928,17297,8780,928,NA,2,legacy,5,1024,2,48000,-16,experiment,1,odd,1,743506,733907,741298,2648,741300,740155,2652,104865,745509,746439,742303,113646,19950,745509,NA,New experiment,101,119813,111,yes,1024
90.17857143,90.17857143,1077.830357,1077.830357,black,experiment,legacy,legacy,legacy,0,uniform,0,undefined,0,left,111,111,111,0,111,111,0,0,111,111,111,0,0,111,0,10/27/19 15:29,sternberg task,yes,sternbergtask.osexp,C:/Users/DLGoupil/Desktop,no,mono,no,18,no,white,no,yes,768,legacy,99,11,C:/Users/DLGoupil/Desktop/dg-subject-1.csv,legacy,3 5 9 6 2 4,Kafkaesque Koffka,3.2.8,1,y,0,right,right,right,right,NA,904,17297,8780,904,NA,2,legacy,6,1024,2,48000,-16,experiment,1,odd,3,749786,746443,747577,2648,747580,740155,2652,104865,751789,752694,748583,113646,19950,751789,NA,New experiment,101,120717,112,yes,1024
90.26548673,90.26548673,1077.115044,1077.115044,black,experiment,legacy,legacy,legacy,0,uniform,1,undefined,1,right,112,112,112,0,112,112,0,0,112,112,112,0,0,112,0,10/27/19 15:29,sternberg task,yes,sternbergtask.osexp,C:/Users/DLGoupil/Desktop,no,mono,no,18,no,white,no,yes,768,legacy,100,11,C:/Users/DLGoupil/Desktop/dg-subject-1.csv,legacy,7 1 8 4 9 3,Kafkaesque Koffka,3.2.8,0,n,0,right,right,right,right,NA,997,17297,8780,997,NA,2,legacy,6,1024,2,48000,-16,experiment,1,odd,6,756052,746443,753843,2648,753846,752699,2652,104865,758056,759055,754849,113646,19950,758056,NA,New experiment,102,121714,113,yes,1024
90.35087719,90.35087719,1077.780702,1077.780702,black,experiment,legacy,legacy,legacy,0,uniform,1,undefined,1,right,113,113,113,0,113,113,0,0,113,113,113,0,0,113,0,10/27/19 15:29,sternberg task,yes,sternbergtask.osexp,C:/Users/DLGoupil/Desktop,no,mono,no,18,no,white,no,yes,768,legacy,101,11,C:/Users/DLGoupil/Desktop/dg-subject-1.csv,legacy,4 8 1 2,Kafkaesque Koffka,3.2.8,0,n,0,right,right,right,right,NA,1153,17297,8780,1153,NA,2,legacy,4,1024,2,48000,-16,experiment,1,odd,7,762409,759060,760200,2648,760203,752699,2652,104865,764412,765566,761206,113646,19950,764412,NA,New experiment,103,122867,114,yes,1024
90.43478261,90.43478261,1078.721739,1078.721739,black,experiment,legacy,legacy,legacy,0,uniform,1,undefined,1,right,114,114,114,0,114,114,0,0,114,114,114,0,0,114,0,10/27/19 15:29,sternberg task,yes,sternbergtask.osexp,C:/Users/DLGoupil/Desktop,no,mono,no,18,no,white,no,yes,768,legacy,102,11,C:/Users/DLGoupil/Desktop/dg-subject-1.csv,legacy,7 8 6 1,Kafkaesque Koffka,3.2.8,0,n,0,right,right,right,right,NA,1186,17297,8780,1186,NA,2,legacy,4,1024,2,48000,-16,experiment,1,odd,3,768920,765571,766712,2648,766714,752699,2652,104865,770923,772110,767717,113646,19950,770923,NA,New experiment,104,124053,115,yes,1024
89.65517241,89.65517241,1079.672414,1079.672414,black,experiment,legacy,legacy,legacy,0,uniform,0,undefined,0,right,115,115,115,0,115,115,0,0,115,115,115,0,0,115,0,10/27/19 15:29,sternberg task,yes,sternbergtask.osexp,C:/Users/DLGoupil/Desktop,no,mono,no,18,no,white,no,yes,768,legacy,103,11,C:/Users/DLGoupil/Desktop/dg-subject-1.csv,legacy,3 9 8 1 6 4,Kafkaesque Koffka,3.2.8,0,n,0,left,right,right,left,NA,1189,17297,8780,1189,NA,2,legacy,6,1024,2,48000,-16,experiment,1,odd,7,775461,772115,773252,2648,773255,752699,2652,104865,777464,778655,774258,113646,19950,777464,NA,New experiment,104,125242,116,yes,1024
89.74358974,89.74358974,1078.623932,1078.623932,black,experiment,legacy,legacy,legacy,0,uniform,1,undefined,1,right,116,116,116,0,116,116,0,0,116,116,116,0,0,116,0,10/27/19 15:29,sternberg task,yes,sternbergtask.osexp,C:/Users/DLGoupil/Desktop,no,mono,no,18,no,white,no,yes,768,legacy,104,11,C:/Users/DLGoupil/Desktop/dg-subject-1.csv,legacy,8 4 3 9,Kafkaesque Koffka,3.2.8,0,n,0,right,right,right,right,NA,957,17297,8780,957,NA,2,legacy,4,1024,2,48000,-16,experiment,1,odd,5,782005,772115,779797,2648,779799,778660,2652,104865,784008,784967,780802,113646,19950,784008,NA,New experiment,105,126199,117,yes,1024
89.83050847,89.83050847,1077.127119,1077.127119,black,experiment,legacy,legacy,legacy,0,uniform,1,undefined,1,right,117,117,117,0,117,117,0,0,117,117,117,0,0,117,0,10/27/19 15:29,sternberg task,yes,sternbergtask.osexp,C:/Users/DLGoupil/Desktop,no,mono,no,18,no,white,no,yes,768,legacy,105,11,C:/Users/DLGoupil/Desktop/dg-subject-1.csv,legacy,6 8,Kafkaesque Koffka,3.2.8,0,n,0,right,right,right,right,NA,902,17297,8780,902,NA,2,legacy,2,1024,2,48000,-16,experiment,1,odd,9,788316,784972,786108,2648,786110,778660,2652,104865,790319,791222,787113,113646,19950,790319,NA,New experiment,106,127101,118,yes,1024
89.91596639,89.91596639,1075.176471,1075.176471,black,experiment,legacy,legacy,legacy,0,uniform,1,undefined,1,left,118,118,118,0,118,118,0,0,118,118,118,0,0,118,0,10/27/19 15:29,sternberg task,yes,sternbergtask.osexp,C:/Users/DLGoupil/Desktop,no,mono,no,18,no,white,no,yes,768,legacy,106,11,C:/Users/DLGoupil/Desktop/dg-subject-1.csv,legacy,9 1 7 2,Kafkaesque Koffka,3.2.8,2,y,0,left,right,right,left,NA,845,17297,8780,845,NA,2,legacy,4,1024,2,48000,-16,experiment,1,odd,1,794573,791227,792364,2648,792366,778660,2652,104865,796576,797423,793370,113646,19950,796576,NA,New experiment,107,127946,119,yes,1024
90,90,1076.35,1076.35,black,experiment,legacy,legacy,legacy,0,uniform,1,undefined,1,right,119,119,119,0,119,119,0,0,119,119,119,0,0,119,0,10/27/19 15:29,sternberg task,yes,sternbergtask.osexp,C:/Users/DLGoupil/Desktop,no,mono,no,18,no,white,no,yes,768,legacy,107,11,C:/Users/DLGoupil/Desktop/dg-subject-1.csv,legacy,5 3 2 6 9 8,Kafkaesque Koffka,3.2.8,0,n,0,right,right,right,right,NA,1216,17297,8780,1216,NA,2,legacy,6,1024,2,48000,-16,experiment,1,odd,4,800778,797427,798570,2648,798572,778660,2652,104865,802781,803999,799575,113646,19950,802781,NA,New experiment,108,129162,120,yes,1024
90.08264463,90.08264463,1075.950413,1075.950413,black,experiment,legacy,legacy,legacy,0,uniform,1,undefined,1,right,120,120,120,0,120,120,0,0,120,120,120,0,0,120,0,10/27/19 15:29,sternberg task,yes,sternbergtask.osexp,C:/Users/DLGoupil/Desktop,no,mono,no,18,no,white,no,yes,768,legacy,108,11,C:/Users/DLGoupil/Desktop/dg-subject-1.csv,legacy,1 6 4 3 9 7,Kafkaesque Koffka,3.2.8,0,n,0,right,right,right,right,NA,1028,17297,8780,1028,NA,2,legacy,6,1024,2,48000,-16,experiment,1,odd,8,807350,804004,805142,2648,805145,778660,2652,104865,809353,810383,806147,113646,19950,809353,NA,New experiment,109,130190,121,yes,1024
90.16393443,90.16393443,1075.213115,1075.213115,black,experiment,legacy,legacy,legacy,0,uniform,1,undefined,1,left,121,121,121,0,121,121,0,0,121,121,121,0,0,121,0,10/27/19 15:29,sternberg task,yes,sternbergtask.osexp,C:/Users/DLGoupil/Desktop,no,mono,no,18,no,white,no,yes,768,legacy,109,11,C:/Users/DLGoupil/Desktop/dg-subject-1.csv,legacy,7 6,Kafkaesque Koffka,3.2.8,2,y,0,left,right,right,left,NA,986,17297,8780,986,NA,2,legacy,2,1024,2,48000,-16,experiment,1,odd,6,813736,810388,811528,2648,811530,778660,2652,104865,815739,816727,812533,113646,19950,815739,NA,New experiment,110,131176,122,yes,1024
90.24390244,90.24390244,1074.837398,1074.837398,black,experiment,legacy,legacy,legacy,0,uniform,1,undefined,1,right,122,122,122,0,122,122,0,0,122,122,122,0,0,122,0,10/27/19 15:29,sternberg task,yes,sternbergtask.osexp,C:/Users/DLGoupil/Desktop,no,mono,no,18,no,white,no,yes,768,legacy,110,11,C:/Users/DLGoupil/Desktop/dg-subject-1.csv,legacy,8 4 3 5,Kafkaesque Koffka,3.2.8,0,n,0,right,right,right,right,NA,1029,17297,8780,1029,NA,2,legacy,4,1024,2,48000,-16,experiment,1,odd,6,820077,816732,817869,2648,817871,778660,2652,104865,822080,823111,818874,113646,19950,822080,NA,New experiment,111,132205,123,yes,1024
90.32258065,90.32258065,1074.193548,1074.193548,black,experiment,legacy,legacy,legacy,0,uniform,1,undefined,1,right,123,123,123,0,123,123,0,0,123,123,123,0,0,123,0,10/27/19 15:29,sternberg task,yes,sternbergtask.osexp,C:/Users/DLGoupil/Desktop,no,mono,no,18,no,white,no,yes,768,legacy,111,11,C:/Users/DLGoupil/Desktop/dg-subject-1.csv,legacy,1 4 9 2 5,Kafkaesque Koffka,3.2.8,0,n,0,right,right,right,right,NA,995,17297,8780,995,NA,2,legacy,5,1024,2,48000,-16,experiment,1,odd,7,826463,823116,824254,2648,824257,778660,2652,104865,828466,829463,825260,113646,19950,828466,NA,New experiment,112,133200,124,yes,1024
90.4,90.4,1073.424,1073.424,black,experiment,legacy,legacy,legacy,0,uniform,1,undefined,1,right,124,124,124,0,124,124,0,0,124,124,124,0,0,124,0,10/27/19 15:29,sternberg task,yes,sternbergtask.osexp,C:/Users/DLGoupil/Desktop,no,mono,no,18,no,white,no,yes,768,legacy,112,11,C:/Users/DLGoupil/Desktop/dg-subject-1.csv,legacy,3 9 1,Kafkaesque Koffka,3.2.8,0,n,0,right,right,right,right,NA,978,17297,8780,978,NA,2,legacy,3,1024,2,48000,-16,experiment,1,odd,7,832815,829467,830607,2648,830609,778660,2652,104865,834818,835798,831612,113646,19950,834818,NA,New experiment,113,134178,125,yes,1024
90.47619048,90.47619048,1073.833333,1073.833333,black,experiment,legacy,legacy,legacy,0,uniform,1,undefined,1,left,125,125,125,0,125,125,0,0,125,125,125,0,0,125,0,10/27/19 15:29,sternberg task,yes,sternbergtask.osexp,C:/Users/DLGoupil/Desktop,no,mono,no,18,no,white,no,yes,768,legacy,113,11,C:/Users/DLGoupil/Desktop/dg-subject-1.csv,legacy,3 9 7 6 4,Kafkaesque Koffka,3.2.8,3,y,0,left,right,right,left,NA,1125,17297,8780,1125,NA,2,legacy,5,1024,2,48000,-16,experiment,1,odd,7,839148,835803,836940,2648,836942,778660,2652,104865,841151,842278,837945,113646,19950,841151,NA,New experiment,114,135303,126,yes,1024
90.5511811,90.5511811,1072.409449,1072.409449,black,experiment,legacy,legacy,legacy,0,uniform,1,undefined,1,right,126,126,126,0,126,126,0,0,126,126,126,0,0,126,0,10/27/19 15:29,sternberg task,yes,sternbergtask.osexp,C:/Users/DLGoupil/Desktop,no,mono,no,18,no,white,no,yes,768,legacy,114,11,C:/Users/DLGoupil/Desktop/dg-subject-1.csv,legacy,5,Kafkaesque Koffka,3.2.8,0,n,0,right,right,right,right,NA,893,17297,8780,893,NA,2,legacy,1,1024,2,48000,-16,experiment,1,odd,8,845629,842283,843420,2648,843422,778660,2652,104865,847632,848526,844426,113646,19950,847632,NA,New experiment,115,136196,127,yes,1024
90.625,90.625,1070.953125,1070.953125,black,experiment,legacy,legacy,legacy,0,uniform,1,undefined,1,left,127,127,127,0,127,127,0,0,127,127,127,0,0,127,0,10/27/19 15:29,sternberg task,yes,sternbergtask.osexp,C:/Users/DLGoupil/Desktop,no,mono,no,18,no,white,no,yes,768,legacy,115,11,C:/Users/DLGoupil/Desktop/dg-subject-1.csv,legacy,2 3 7 4,Kafkaesque Koffka,3.2.8,1,y,0,left,right,right,left,NA,886,17297,8780,886,NA,2,legacy,4,1024,2,48000,-16,experiment,1,odd,2,851875,848531,849667,2648,849669,778660,2652,104865,853879,854766,850672,113646,19950,853878,NA,New experiment,116,137082,128,yes,1024
90.69767442,90.69767442,1069.806202,1069.806202,black,experiment,legacy,legacy,legacy,0,uniform,1,undefined,1,left,128,128,128,0,128,128,0,0,128,128,128,0,0,128,0,10/27/19 15:29,sternberg task,yes,sternbergtask.osexp,C:/Users/DLGoupil/Desktop,no,mono,no,18,no,white,no,yes,768,legacy,116,11,C:/Users/DLGoupil/Desktop/dg-subject-1.csv,legacy,4 6 5 8,Kafkaesque Koffka,3.2.8,1,y,0,left,right,right,left,NA,923,17297,8780,923,NA,2,legacy,4,1024,2,48000,-16,experiment,1,odd,4,858118,854771,855910,2648,855912,778660,2652,104865,860122,861047,856915,113646,19950,860122,NA,New experiment,117,138005,129,yes,1024
90.76923077,90.76923077,1070.469231,1070.469231,black,experiment,legacy,legacy,legacy,0,uniform,1,undefined,1,left,129,129,129,0,129,129,0,0,129,129,129,0,0,129,0,10/27/19 15:29,sternberg task,yes,sternbergtask.osexp,C:/Users/DLGoupil/Desktop,no,mono,no,18,no,white,no,yes,768,legacy,117,11,C:/Users/DLGoupil/Desktop/dg-subject-1.csv,legacy,5 2 9 6 1 7,Kafkaesque Koffka,3.2.8,3,y,0,left,right,right,left,NA,1156,17297,8780,1156,NA,2,legacy,6,1024,2,48000,-16,experiment,1,odd,9,864405,861052,862197,2648,862199,778660,2652,104865,866408,867566,863202,113646,19950,866408,NA,New experiment,118,139161,130,yes,1024
90.83969466,90.83969466,1070.381679,1070.381679,black,experiment,legacy,legacy,legacy,0,uniform,1,undefined,1,left,130,130,130,0,130,130,0,0,130,130,130,0,0,130,0,10/27/19 15:29,sternberg task,yes,sternbergtask.osexp,C:/Users/DLGoupil/Desktop,no,mono,no,18,no,white,no,yes,768,legacy,118,11,C:/Users/DLGoupil/Desktop/dg-subject-1.csv,legacy,3 2 1 4 7,Kafkaesque Koffka,3.2.8,2,y,0,left,right,right,left,NA,1059,17297,8780,1059,NA,2,legacy,5,1024,2,48000,-16,experiment,1,odd,2,870918,867571,868710,2648,868712,778660,2652,104865,872921,873982,869715,113646,19950,872921,NA,New experiment,119,140220,131,yes,1024
90.15151515,90.15151515,1074.522727,1074.522727,black,experiment,legacy,legacy,legacy,0,uniform,0,undefined,0,left,131,131,131,0,131,131,0,0,131,131,131,0,0,131,0,10/27/19 15:29,sternberg task,yes,sternbergtask.osexp,C:/Users/DLGoupil/Desktop,no,mono,no,18,no,white,no,yes,768,legacy,119,11,C:/Users/DLGoupil/Desktop/dg-subject-1.csv,legacy,8 5 4 7 3 1,Kafkaesque Koffka,3.2.8,2,y,0,right,right,right,right,NA,1617,17297,8780,1617,NA,2,legacy,6,1024,2,48000,-16,experiment,1,odd,5,877336,873987,875128,2648,875130,778660,2652,104865,879339,880958,876133,113646,19950,879339,NA,New experiment,119,141837,132,yes,1024
90.22556391,90.22556391,1075.030075,1075.030075,black,experiment,legacy,legacy,legacy,0,uniform,1,undefined,1,left,132,132,132,0,132,132,0,0,132,132,132,0,0,132,0,10/27/19 15:29,sternberg task,yes,sternbergtask.osexp,C:/Users/DLGoupil/Desktop,no,mono,no,18,no,white,no,yes,768,legacy,120,11,C:/Users/DLGoupil/Desktop/dg-subject-1.csv,legacy,9 5 8 1,Kafkaesque Koffka,3.2.8,2,y,0,left,right,right,left,NA,1142,17297,8780,1142,NA,2,legacy,4,1024,2,48000,-16,experiment,1,odd,5,884307,873987,882098,2648,882101,880963,2652,104865,886310,887454,883104,113646,19950,886310,NA,New experiment,120,142979,133,yes,1024
90.29850746,90.29850746,1074.186567,1074.186567,black,experiment,legacy,legacy,legacy,0,uniform,1,undefined,1,right,133,133,133,0,133,133,0,0,133,133,133,0,0,133,0,10/27/19 15:29,sternberg task,yes,sternbergtask.osexp,C:/Users/DLGoupil/Desktop,no,mono,no,18,no,white,no,yes,768,legacy,121,11,C:/Users/DLGoupil/Desktop/dg-subject-1.csv,legacy,4 2 7 6 1 3,Kafkaesque Koffka,3.2.8,0,n,0,right,right,right,right,NA,962,17297,8780,962,NA,2,legacy,6,1024,2,48000,-16,experiment,1,odd,8,890807,887459,888599,2648,888601,880963,2652,104865,892810,893774,889604,113646,19950,892810,NA,New experiment,121,143941,134,yes,1024
90.37037037,90.37037037,1072.488889,1072.488889,black,experiment,legacy,legacy,legacy,0,uniform,1,undefined,1,right,134,134,134,0,134,134,0,0,134,134,134,0,0,134,0,10/27/19 15:29,sternberg task,yes,sternbergtask.osexp,C:/Users/DLGoupil/Desktop,no,mono,no,18,no,white,no,yes,768,legacy,122,11,C:/Users/DLGoupil/Desktop/dg-subject-1.csv,legacy,3 4 2,Kafkaesque Koffka,3.2.8,0,n,0,right,right,right,right,NA,845,17297,8780,845,NA,2,legacy,3,1024,2,48000,-16,experiment,1,odd,5,897124,893779,894915,2648,894918,880963,2652,104865,899127,899974,895921,113646,19950,899127,NA,New experiment,122,144786,135,yes,1024
90.44117647,90.44117647,1070.529412,1070.529412,black,experiment,legacy,legacy,legacy,0,uniform,1,undefined,1,left,135,135,135,0,135,135,0,0,135,135,135,0,0,135,0,10/27/19 15:29,sternberg task,yes,sternbergtask.osexp,C:/Users/DLGoupil/Desktop,no,mono,no,18,no,white,no,yes,768,legacy,123,11,C:/Users/DLGoupil/Desktop/dg-subject-1.csv,legacy,8 7 3,Kafkaesque Koffka,3.2.8,1,y,0,left,right,right,left,NA,806,17297,8780,806,NA,2,legacy,3,1024,2,48000,-16,experiment,1,odd,8,903323,899979,901116,2648,901119,880963,2652,104865,905326,906134,902121,113646,19950,905326,NA,New experiment,123,145592,136,yes,1024
90.51094891,90.51094891,1068.233577,1068.233577,black,experiment,legacy,legacy,legacy,0,uniform,1,undefined,1,right,136,136,136,0,136,136,0,0,136,136,136,0,0,136,0,10/27/19 15:29,sternberg task,yes,sternbergtask.osexp,C:/Users/DLGoupil/Desktop,no,mono,no,18,no,white,no,yes,768,legacy,124,11,C:/Users/DLGoupil/Desktop/dg-subject-1.csv,legacy,6 8 4,Kafkaesque Koffka,3.2.8,0,n,0,right,right,right,right,NA,756,17297,8780,756,NA,2,legacy,3,1024,2,48000,-16,experiment,1,odd,1,909478,906139,907270,2648,907272,880963,2652,104865,911481,912239,908275,113646,19950,911481,NA,New experiment,124,146348,137,yes,1024
90.57971014,90.57971014,1066.833333,1066.833333,black,experiment,legacy,legacy,legacy,0,uniform,1,undefined,1,left,137,137,137,0,137,137,0,0,137,137,137,0,0,137,0,10/27/19 15:29,sternberg task,yes,sternbergtask.osexp,C:/Users/DLGoupil/Desktop,no,mono,no,18,no,white,no,yes,768,legacy,125,11,C:/Users/DLGoupil/Desktop/dg-subject-1.csv,legacy,8 9 5 7 1 6,Kafkaesque Koffka,3.2.8,4,y,0,left,right,right,left,NA,875,17297,8780,875,NA,2,legacy,6,1024,2,48000,-16,experiment,1,odd,7,915591,912244,913383,2648,913385,880963,2652,104865,917594,918471,914388,113646,19950,917594,NA,New experiment,125,147223,138,yes,1024