acc,accuracy,average_response_time,avg_rt,background,block,canvas_backend,clock_backend,color_backend,compensation,coordinates,correct,correct_Instruction1,correct_keyboard_response,correct_response,count_CorrectFeedback,count_ExpSequence,count_ExperimentLoop,count_Fixation,count_ISI,count_Instruction1,count_Instructions2,count_MemorySet,count_PracticeLoop,count_Probe,count_ThankYou,count_experiment,count_incorrectFeedback,count_keyboard_response,count_logger,datetime,description,disable_garbage_collection,experiment_file,experiment_path,font_bold,font_family,font_italic,font_size,font_underline,foreground,form_clicks,fullscreen,height,keyboard_backend,live_row,live_row_PracticeLoop,logfile,mouse_backend,numberSet,opensesame_codename,opensesame_version,posInSet,present,repeat_cycle,response,response_Instruction1,response_Instructions2,response_ThankYou,response_keyboard_response,response_time,response_time_Instruction1,response_time_Instructions2,response_time_ThankYou,response_time_keyboard_response,round_decimals,sampler_backend,setSize,sound_buf_size,sound_channels,sound_freq,sound_sample_size,start,subject_nr,subject_parity,target,time_CorrectFeedback,time_ExpSequence,time_ExperimentLoop,time_Fixation,time_ISI,time_Instruction1,time_Instructions2,time_MemorySet,time_PracticeLoop,time_Probe,time_ThankYou,time_experiment,time_incorrectFeedback,time_keyboard_response,time_logger,title,total_correct,total_response_time,total_responses,uniform_coordinates,width
100,100,902,902,black,practice,legacy,legacy,legacy,0,uniform,1,undefined,1,left,0,0,0,0,0,0,0,0,0,0,0,0,0,0,0,10/27/19 19:58,The main experiment item,yes,SternbergTask.osexp,E:\Classwork\AQMAED,no,mono,no,18,no,white,no,yes,768,legacy,0,0,E:/Classwork/AQMAED/Stenberg/RS-subject-4.csv,legacy,2 9 4,Kafkaesque Koffka,3.2.8,3,y,0,left,left,NA,NA,left,902,350743,NA,NA,902,2,legacy,3,1024,2,48000,-16,experiment,4,even,4,NA,353863,NA,353866,356072,2426,NA,354868,353171,358077,NA,2424,NA,358077,358979,Sternberg Task,1,902,1,yes,1024
100,100,748,748,black,practice,legacy,legacy,legacy,0,uniform,1,undefined,1,left,1,1,0,1,1,0,0,1,0,1,0,0,1,1,1,10/27/19 19:58,The main experiment item,yes,SternbergTask.osexp,E:\Classwork\AQMAED,no,mono,no,18,no,white,no,yes,768,legacy,1,1,E:/Classwork/AQMAED/Stenberg/RS-subject-4.csv,legacy,4 8,Kafkaesque Koffka,3.2.8,1,y,0,left,left,NA,NA,left,594,350743,NA,NA,594,2,legacy,2,1024,2,48000,-16,experiment,4,even,4,359046,360162,NA,360164,362374,2426,NA,361168,353171,364379,NA,2424,NA,364379,364973,Sternberg Task,2,1496,2,yes,1024
100,100,715,715,black,practice,legacy,legacy,legacy,0,uniform,1,undefined,1,left,2,2,0,2,2,0,0,2,0,2,0,0,2,2,2,10/27/19 19:58,The main experiment item,yes,SternbergTask.osexp,E:\Classwork\AQMAED,no,mono,no,18,no,white,no,yes,768,legacy,2,2,E:/Classwork/AQMAED/Stenberg/RS-subject-4.csv,legacy,6,Kafkaesque Koffka,3.2.8,1,y,0,left,left,NA,NA,left,649,350743,NA,NA,649,2,legacy,1,1024,2,48000,-16,experiment,4,even,6,364985,366082,NA,366084,368294,2426,NA,367088,353171,370300,NA,2424,NA,370301,370950,Sternberg Task,3,2145,3,yes,1024
100,100,699.5,699.5,black,practice,legacy,legacy,legacy,0,uniform,1,undefined,1,right,3,3,0,3,3,0,0,3,0,3,0,0,3,3,3,10/27/19 19:58,The main experiment item,yes,SternbergTask.osexp,E:\Classwork\AQMAED,no,mono,no,18,no,white,no,yes,768,legacy,3,3,E:/Classwork/AQMAED/Stenberg/RS-subject-4.csv,legacy,5,Kafkaesque Koffka,3.2.8,0,n,0,right,left,NA,NA,right,653,350743,NA,NA,653,2,legacy,1,1024,2,48000,-16,experiment,4,even,3,370954,372050,NA,372052,374261,2426,NA,373056,353171,376266,NA,2424,NA,376266,376920,Sternberg Task,4,2798,4,yes,1024
100,100,790.6,790.6,black,practice,legacy,legacy,legacy,0,uniform,1,undefined,1,right,4,4,0,4,4,0,0,4,0,4,0,0,4,4,4,10/27/19 19:58,The main experiment item,yes,SternbergTask.osexp,E:\Classwork\AQMAED,no,mono,no,18,no,white,no,yes,768,legacy,4,4,E:/Classwork/AQMAED/Stenberg/RS-subject-4.csv,legacy,2 1,Kafkaesque Koffka,3.2.8,0,n,0,right,left,NA,NA,right,1155,350743,NA,NA,1155,2,legacy,2,1024,2,48000,-16,experiment,4,even,5,376929,378028,NA,378030,380240,2426,NA,379034,353171,382245,NA,2424,NA,382245,383400,Sternberg Task,5,3953,5,yes,1024
100,100,890.5,890.5,black,practice,legacy,legacy,legacy,0,uniform,1,undefined,1,right,5,5,0,5,5,0,0,5,0,5,0,0,5,5,5,10/27/19 19:58,The main experiment item,yes,SternbergTask.osexp,E:\Classwork\AQMAED,no,mono,no,18,no,white,no,yes,768,legacy,5,5,E:/Classwork/AQMAED/Stenberg/RS-subject-4.csv,legacy,4 1 5,Kafkaesque Koffka,3.2.8,0,n,0,right,left,NA,NA,right,1390,350743,NA,NA,1390,2,legacy,3,1024,2,48000,-16,experiment,4,even,2,383405,384520,NA,384522,386732,2426,NA,385527,353171,388736,NA,2424,NA,388736,390127,Sternberg Task,6,5343,6,yes,1024
100,100,868.7142857,868.7142857,black,practice,legacy,legacy,legacy,0,uniform,1,undefined,1,right,6,6,0,6,6,0,0,6,0,6,0,0,6,6,6,10/27/19 19:58,The main experiment item,yes,SternbergTask.osexp,E:\Classwork\AQMAED,no,mono,no,18,no,white,no,yes,768,legacy,6,6,E:/Classwork/AQMAED/Stenberg/RS-subject-4.csv,legacy,9 6 7 4 5,Kafkaesque Koffka,3.2.8,0,n,0,right,left,NA,NA,right,738,350743,NA,NA,738,2,legacy,5,1024,2,48000,-16,experiment,4,even,3,390131,391226,NA,391228,393438,2426,NA,392232,353171,395443,NA,2424,NA,395443,396181,Sternberg Task,7,6081,7,yes,1024
100,100,866.75,866.75,black,practice,legacy,legacy,legacy,0,uniform,1,undefined,1,left,7,7,0,7,7,0,0,7,0,7,0,0,7,7,7,10/27/19 19:58,The main experiment item,yes,SternbergTask.osexp,E:\Classwork\AQMAED,no,mono,no,18,no,white,no,yes,768,legacy,7,7,E:/Classwork/AQMAED/Stenberg/RS-subject-4.csv,legacy,4 3 1 7 9 8,Kafkaesque Koffka,3.2.8,1,y,0,left,left,NA,NA,left,853,350743,NA,NA,853,2,legacy,6,1024,2,48000,-16,experiment,4,even,4,396187,397265,NA,397267,399477,2426,NA,398272,353171,401482,NA,2424,NA,401482,402335,Sternberg Task,8,6934,8,yes,1024
100,100,871.1111111,871.1111111,black,practice,legacy,legacy,legacy,0,uniform,1,undefined,1,left,8,8,0,8,8,0,0,8,0,8,0,0,8,8,8,10/27/19 19:58,The main experiment item,yes,SternbergTask.osexp,E:\Classwork\AQMAED,no,mono,no,18,no,white,no,yes,768,legacy,8,8,E:/Classwork/AQMAED/Stenberg/RS-subject-4.csv,legacy,1 7 9 8 5,Kafkaesque Koffka,3.2.8,4,y,0,left,left,NA,NA,left,906,350743,NA,NA,906,2,legacy,5,1024,2,48000,-16,experiment,4,even,8,402341,403448,NA,403450,405660,2426,NA,404455,353171,407665,NA,2424,NA,407665,408572,Sternberg Task,9,7840,9,yes,1024
100,100,841.6,841.6,black,practice,legacy,legacy,legacy,0,uniform,1,undefined,1,right,9,9,0,9,9,0,0,9,0,9,0,0,9,9,9,10/27/19 19:58,The main experiment item,yes,SternbergTask.osexp,E:\Classwork\AQMAED,no,mono,no,18,no,white,no,yes,768,legacy,9,9,E:/Classwork/AQMAED/Stenberg/RS-subject-4.csv,legacy,3 1 9 4,Kafkaesque Koffka,3.2.8,0,n,0,right,left,NA,NA,right,576,350743,NA,NA,576,2,legacy,4,1024,2,48000,-16,experiment,4,even,6,408577,409676,NA,409678,411888,2426,NA,410683,353171,413894,NA,2424,NA,413894,414470,Sternberg Task,10,8416,10,yes,1024
90.90909091,90.90909091,853.5454545,853.5454545,black,practice,legacy,legacy,legacy,0,uniform,0,undefined,0,left,10,10,0,10,10,0,0,10,0,10,0,0,10,10,10,10/27/19 19:58,The main experiment item,yes,SternbergTask.osexp,E:\Classwork\AQMAED,no,mono,no,18,no,white,no,yes,768,legacy,10,10,E:/Classwork/AQMAED/Stenberg/RS-subject-4.csv,legacy,1 5 2 9,Kafkaesque Koffka,3.2.8,2,y,0,right,left,NA,NA,right,973,350743,NA,NA,973,2,legacy,4,1024,2,48000,-16,experiment,4,even,5,414476,415586,NA,415587,417797,2426,NA,416592,353171,419801,NA,2424,NA,419802,420775,Sternberg Task,10,9389,11,yes,1024
91.66666667,91.66666667,854.6666667,854.6666667,black,practice,legacy,legacy,legacy,0,uniform,1,undefined,1,right,11,11,0,11,11,0,0,11,0,11,0,0,11,11,11,10/27/19 19:58,The main experiment item,yes,SternbergTask.osexp,E:\Classwork\AQMAED,no,mono,no,18,no,white,no,yes,768,legacy,11,11,E:/Classwork/AQMAED/Stenberg/RS-subject-4.csv,legacy,5 7 8 4 1 2,Kafkaesque Koffka,3.2.8,0,n,0,right,left,NA,NA,right,867,350743,NA,NA,867,2,legacy,6,1024,2,48000,-16,experiment,4,even,6,414476,421890,NA,421892,424103,2426,NA,422896,353171,426108,NA,2424,420782,426108,426975,Sternberg Task,11,10256,12,yes,1024
92.30769231,92.30769231,839.8461538,839.8461538,black,experiment,legacy,legacy,legacy,0,uniform,1,undefined,1,right,12,12,0,12,12,0,0,12,0,12,0,0,12,12,12,10/27/19 19:58,The main experiment item,yes,SternbergTask.osexp,E:\Classwork\AQMAED,no,mono,no,18,no,white,no,yes,768,legacy,0,11,E:/Classwork/AQMAED/Stenberg/RS-subject-4.csv,legacy,6 9 4 5 3 2,Kafkaesque Koffka,3.2.8,0,n,0,right,left,left,NA,right,662,350743,448808,NA,662,2,legacy,6,1024,2,48000,-16,experiment,4,even,8,426980,876914,876823,876916,879124,2426,428014,877920,353171,881128,NA,2424,420782,881129,881791,Sternberg Task,12,10918,13,yes,1024
92.85714286,92.85714286,829.4285714,829.4285714,black,experiment,legacy,legacy,legacy,0,uniform,1,undefined,1,left,13,13,0,13,13,0,0,13,0,13,0,0,13,13,13,10/27/19 19:58,The main experiment item,yes,SternbergTask.osexp,E:\Classwork\AQMAED,no,mono,no,18,no,white,no,yes,768,legacy,1,11,E:/Classwork/AQMAED/Stenberg/RS-subject-4.csv,legacy,9 6 2 4 1,Kafkaesque Koffka,3.2.8,4,y,0,left,left,left,NA,left,694,350743,448808,NA,694,2,legacy,5,1024,2,48000,-16,experiment,4,even,4,881896,883003,876823,883005,885212,2426,428014,884007,353171,887216,NA,2424,420782,887217,887911,Sternberg Task,13,11612,14,yes,1024
86.66666667,86.66666667,820.7333333,820.7333333,black,experiment,legacy,legacy,legacy,0,uniform,0,undefined,0,left,14,14,0,14,14,0,0,14,0,14,0,0,14,14,14,10/27/19 19:58,The main experiment item,yes,SternbergTask.osexp,E:\Classwork\AQMAED,no,mono,no,18,no,white,no,yes,768,legacy,2,11,E:/Classwork/AQMAED/Stenberg/RS-subject-4.csv,legacy,3 5 7 1,Kafkaesque Koffka,3.2.8,3,y,0,right,left,left,NA,right,699,350743,448808,NA,699,2,legacy,4,1024,2,48000,-16,experiment,4,even,7,887921,889042,876823,889043,891253,2426,428014,890048,353171,893258,NA,2424,420782,893258,893957,Sternberg Task,13,12311,15,yes,1024
87.5,87.5,811.5625,811.5625,black,experiment,legacy,legacy,legacy,0,uniform,1,undefined,1,left,15,15,0,15,15,0,0,15,0,15,0,0,15,15,15,10/27/19 19:58,The main experiment item,yes,SternbergTask.osexp,E:\Classwork\AQMAED,no,mono,no,18,no,white,no,yes,768,legacy,3,11,E:/Classwork/AQMAED/Stenberg/RS-subject-4.csv,legacy,9 8 4,Kafkaesque Koffka,3.2.8,1,y,0,left,left,left,NA,left,674,350743,448808,NA,674,2,legacy,3,1024,2,48000,-16,experiment,4,even,9,887921,895083,876823,895085,897295,2426,428014,896090,353171,899301,NA,2424,893964,899302,899977,Sternberg Task,14,12985,16,yes,1024
88.23529412,88.23529412,806.8235294,806.8235294,black,experiment,legacy,legacy,legacy,0,uniform,1,undefined,1,left,16,16,0,16,16,0,0,16,0,16,0,0,16,16,16,10/27/19 19:58,The main experiment item,yes,SternbergTask.osexp,E:\Classwork\AQMAED,no,mono,no,18,no,white,no,yes,768,legacy,4,11,E:/Classwork/AQMAED/Stenberg/RS-subject-4.csv,legacy,8 3,Kafkaesque Koffka,3.2.8,2,y,0,left,left,left,NA,left,731,350743,448808,NA,731,2,legacy,2,1024,2,48000,-16,experiment,4,even,3,899982,901088,876823,901089,903299,2426,428014,902094,353171,905305,NA,2424,893964,905305,906037,Sternberg Task,15,13716,17,yes,1024
88.88888889,88.88888889,828.5,828.5,black,experiment,legacy,legacy,legacy,0,uniform,1,undefined,1,left,17,17,0,17,17,0,0,17,0,17,0,0,17,17,17,10/27/19 19:58,The main experiment item,yes,SternbergTask.osexp,E:\Classwork\AQMAED,no,mono,no,18,no,white,no,yes,768,legacy,5,11,E:/Classwork/AQMAED/Stenberg/RS-subject-4.csv,legacy,7 1 8 5 6 2,Kafkaesque Koffka,3.2.8,2,y,0,left,left,left,NA,left,1197,350743,448808,NA,1197,2,legacy,6,1024,2,48000,-16,experiment,4,even,1,906042,907143,876823,907145,909356,2426,428014,908151,353171,911361,NA,2424,893964,911361,912558,Sternberg Task,16,14913,18,yes,1024
89.47368421,89.47368421,841.3684211,841.3684211,black,experiment,legacy,legacy,legacy,0,uniform,1,undefined,1,right,18,18,0,18,18,0,0,18,0,18,0,0,18,18,18,10/27/19 19:58,The main experiment item,yes,SternbergTask.osexp,E:\Classwork\AQMAED,no,mono,no,18,no,white,no,yes,768,legacy,6,11,E:/Classwork/AQMAED/Stenberg/RS-subject-4.csv,legacy,1 7 8 3 9,Kafkaesque Koffka,3.2.8,0,n,0,right,left,left,NA,right,1073,350743,448808,NA,1073,2,legacy,5,1024,2,48000,-16,experiment,4,even,2,912563,913654,876823,913655,915865,2426,428014,914659,353171,917870,NA,2424,893964,917870,918944,Sternberg Task,17,15986,19,yes,1024
90,90,849.3,849.3,black,experiment,legacy,legacy,legacy,0,uniform,1,undefined,1,right,19,19,0,19,19,0,0,19,0,19,0,0,19,19,19,10/27/19 19:58,The main experiment item,yes,SternbergTask.osexp,E:\Classwork\AQMAED,no,mono,no,18,no,white,no,yes,768,legacy,7,11,E:/Classwork/AQMAED/Stenberg/RS-subject-4.csv,legacy,8 4 3 9,Kafkaesque Koffka,3.2.8,0,n,0,right,left,left,NA,right,1000,350743,448808,NA,1000,2,legacy,4,1024,2,48000,-16,experiment,4,even,5,918949,920056,876823,920057,922267,2426,428014,921062,353171,924272,NA,2424,893964,924272,925273,Sternberg Task,18,16986,20,yes,1024
90.47619048,90.47619048,866.4285714,866.4285714,black,experiment,legacy,legacy,legacy,0,uniform,1,undefined,1,left,20,20,0,20,20,0,0,20,0,20,0,0,20,20,20,10/27/19 19:58,The main experiment item,yes,SternbergTask.osexp,E:\Classwork\AQMAED,no,mono,no,18,no,white,no,yes,768,legacy,8,11,E:/Classwork/AQMAED/Stenberg/RS-subject-4.csv,legacy,2 5 4 8 7,Kafkaesque Koffka,3.2.8,3,y,0,left,left,left,NA,left,1209,350743,448808,NA,1209,2,legacy,5,1024,2,48000,-16,experiment,4,even,4,925292,926396,876823,926398,928603,2426,428014,927402,353171,930605,NA,2424,893964,930605,931814,Sternberg Task,19,18195,21,yes,1024
90.90909091,90.90909091,865.0454545,865.0454545,black,experiment,legacy,legacy,legacy,0,uniform,1,undefined,1,right,21,21,0,21,21,0,0,21,0,21,0,0,21,21,21,10/27/19 19:58,The main experiment item,yes,SternbergTask.osexp,E:\Classwork\AQMAED,no,mono,no,18,no,white,no,yes,768,legacy,9,11,E:/Classwork/AQMAED/Stenberg/RS-subject-4.csv,legacy,6 8,Kafkaesque Koffka,3.2.8,0,n,0,right,left,left,NA,right,836,350743,448808,NA,836,2,legacy,2,1024,2,48000,-16,experiment,4,even,9,931825,932931,876823,932933,935142,2426,428014,933937,353171,937147,NA,2424,893964,937147,937984,Sternberg Task,20,19031,22,yes,1024
91.30434783,91.30434783,868.1304348,868.1304348,black,experiment,legacy,legacy,legacy,0,uniform,1,undefined,1,left,22,22,0,22,22,0,0,22,0,22,0,0,22,22,22,10/27/19 19:58,The main experiment item,yes,SternbergTask.osexp,E:\Classwork\AQMAED,no,mono,no,18,no,white,no,yes,768,legacy,10,11,E:/Classwork/AQMAED/Stenberg/RS-subject-4.csv,legacy,4 1 5,Kafkaesque Koffka,3.2.8,2,y,0,left,left,left,NA,left,936,350743,448808,NA,936,2,legacy,3,1024,2,48000,-16,experiment,4,even,1,937992,939079,876823,939081,941290,2426,428014,940086,353171,943295,NA,2424,893964,943296,944232,Sternberg Task,21,19967,23,yes,1024
87.5,87.5,861.5416667,861.5416667,black,experiment,legacy,legacy,legacy,0,uniform,0,undefined,0,left,23,23,0,23,23,0,0,23,0,23,0,0,23,23,23,10/27/19 19:58,The main experiment item,yes,SternbergTask.osexp,E:\Classwork\AQMAED,no,mono,no,18,no,white,no,yes,768,legacy,11,11,E:/Classwork/AQMAED/Stenberg/RS-subject-4.csv,legacy,6 1 2,Kafkaesque Koffka,3.2.8,3,y,0,right,left,left,NA,right,710,350743,448808,NA,710,2,legacy,3,1024,2,48000,-16,experiment,4,even,2,944239,945342,876823,945344,947552,2426,428014,946349,353171,949557,NA,2424,893964,949557,950267,Sternberg Task,21,20677,24,yes,1024
88,88,853.12,853.12,black,experiment,legacy,legacy,legacy,0,uniform,1,undefined,1,right,24,24,0,24,24,0,0,24,0,24,0,0,24,24,24,10/27/19 19:58,The main experiment item,yes,SternbergTask.osexp,E:\Classwork\AQMAED,no,mono,no,18,no,white,no,yes,768,legacy,12,11,E:/Classwork/AQMAED/Stenberg/RS-subject-4.csv,legacy,9 5 3 2 8 6,Kafkaesque Koffka,3.2.8,0,n,0,right,left,left,NA,right,651,350743,448808,NA,651,2,legacy,6,1024,2,48000,-16,experiment,4,even,7,944239,951378,876823,951379,953590,2426,428014,952384,353171,955595,NA,2424,950272,955595,956247,Sternberg Task,22,21328,25,yes,1024
88.46153846,88.46153846,848.6923077,848.6923077,black,experiment,legacy,legacy,legacy,0,uniform,1,undefined,1,right,25,25,0,25,25,0,0,25,0,25,0,0,25,25,25,10/27/19 19:58,The main experiment item,yes,SternbergTask.osexp,E:\Classwork\AQMAED,no,mono,no,18,no,white,no,yes,768,legacy,13,11,E:/Classwork/AQMAED/Stenberg/RS-subject-4.csv,legacy,9 8 2 7 4,Kafkaesque Koffka,3.2.8,0,n,0,right,left,left,NA,right,738,350743,448808,NA,738,2,legacy,5,1024,2,48000,-16,experiment,4,even,5,956252,957348,876823,957350,959560,2426,428014,958355,353171,961566,NA,2424,950272,961566,962304,Sternberg Task,23,22066,26,yes,1024
88.88888889,88.88888889,840.6296296,840.6296296,black,experiment,legacy,legacy,legacy,0,uniform,1,undefined,1,right,26,26,0,26,26,0,0,26,0,26,0,0,26,26,26,10/27/19 19:58,The main experiment item,yes,SternbergTask.osexp,E:\Classwork\AQMAED,no,mono,no,18,no,white,no,yes,768,legacy,14,11,E:/Classwork/AQMAED/Stenberg/RS-subject-4.csv,legacy,1 7 5 2,Kafkaesque Koffka,3.2.8,0,n,0,right,left,left,NA,right,631,350743,448808,NA,631,2,legacy,4,1024,2,48000,-16,experiment,4,even,3,962309,963416,876823,963417,965627,2426,428014,964422,353171,967632,NA,2424,950272,967632,968263,Sternberg Task,24,22697,27,yes,1024
89.28571429,89.28571429,842.1071429,842.1071429,black,experiment,legacy,legacy,legacy,0,uniform,1,undefined,1,left,27,27,0,27,27,0,0,27,0,27,0,0,27,27,27,10/27/19 19:58,The main experiment item,yes,SternbergTask.osexp,E:\Classwork\AQMAED,no,mono,no,18,no,white,no,yes,768,legacy,15,11,E:/Classwork/AQMAED/Stenberg/RS-subject-4.csv,legacy,4 1 8 7 5,Kafkaesque Koffka,3.2.8,3,y,0,left,left,left,NA,left,882,350743,448808,NA,882,2,legacy,5,1024,2,48000,-16,experiment,4,even,8,968268,969368,876823,969370,971581,2426,428014,970376,353171,973586,NA,2424,950272,973586,974469,Sternberg Task,25,23579,28,yes,1024
89.65517241,89.65517241,833.6551724,833.6551724,black,experiment,legacy,legacy,legacy,0,uniform,1,undefined,1,right,28,28,0,28,28,0,0,28,0,28,0,0,28,28,28,10/27/19 19:58,The main experiment item,yes,SternbergTask.osexp,E:\Classwork\AQMAED,no,mono,no,18,no,white,no,yes,768,legacy,16,11,E:/Classwork/AQMAED/Stenberg/RS-subject-4.csv,legacy,8 6 3 4 7,Kafkaesque Koffka,3.2.8,0,n,0,right,left,left,NA,right,597,350743,448808,NA,597,2,legacy,5,1024,2,48000,-16,experiment,4,even,1,974474,975581,876823,975582,977792,2426,428014,976587,353171,979797,NA,2424,950272,979797,980394,Sternberg Task,26,24176,29,yes,1024
90,90,827.3666667,827.3666667,black,experiment,legacy,legacy,legacy,0,uniform,1,undefined,1,right,29,29,0,29,29,0,0,29,0,29,0,0,29,29,29,10/27/19 19:58,The main experiment item,yes,SternbergTask.osexp,E:\Classwork\AQMAED,no,mono,no,18,no,white,no,yes,768,legacy,17,11,E:/Classwork/AQMAED/Stenberg/RS-subject-4.csv,legacy,9 7 4 5 8,Kafkaesque Koffka,3.2.8,0,n,0,right,left,left,NA,right,645,350743,448808,NA,645,2,legacy,5,1024,2,48000,-16,experiment,4,even,6,980405,981506,876823,981508,983715,2426,428014,982513,353171,985719,NA,2424,950272,985720,986365,Sternberg Task,27,24821,30,yes,1024
90.32258065,90.32258065,828.3548387,828.3548387,black,experiment,legacy,legacy,legacy,0,uniform,1,undefined,1,left,30,30,0,30,30,0,0,30,0,30,0,0,30,30,30,10/27/19 19:58,The main experiment item,yes,SternbergTask.osexp,E:\Classwork\AQMAED,no,mono,no,18,no,white,no,yes,768,legacy,18,11,E:/Classwork/AQMAED/Stenberg/RS-subject-4.csv,legacy,7 1 3,Kafkaesque Koffka,3.2.8,2,y,0,left,left,left,NA,left,858,350743,448808,NA,858,2,legacy,3,1024,2,48000,-16,experiment,4,even,1,986373,987470,876823,987471,989682,2426,428014,988476,353171,991687,NA,2424,950272,991687,992546,Sternberg Task,28,25679,31,yes,1024
90.625,90.625,822.28125,822.28125,black,experiment,legacy,legacy,legacy,0,uniform,1,undefined,1,left,31,31,0,31,31,0,0,31,0,31,0,0,31,31,31,10/27/19 19:58,The main experiment item,yes,SternbergTask.osexp,E:\Classwork\AQMAED,no,mono,no,18,no,white,no,yes,768,legacy,19,11,E:/Classwork/AQMAED/Stenberg/RS-subject-4.csv,legacy,4,Kafkaesque Koffka,3.2.8,1,y,0,left,left,left,NA,left,634,350743,448808,NA,634,2,legacy,1,1024,2,48000,-16,experiment,4,even,4,992551,993646,876823,993648,995858,2426,428014,994653,353171,997863,NA,2424,950272,997863,998497,Sternberg Task,29,26313,32,yes,1024
90.90909091,90.90909091,821.3333333,821.3333333,black,experiment,legacy,legacy,legacy,0,uniform,1,undefined,1,left,32,32,0,32,32,0,0,32,0,32,0,0,32,32,32,10/27/19 19:58,The main experiment item,yes,SternbergTask.osexp,E:\Classwork\AQMAED,no,mono,no,18,no,white,no,yes,768,legacy,20,11,E:/Classwork/AQMAED/Stenberg/RS-subject-4.csv,legacy,6 9 3 1,Kafkaesque Koffka,3.2.8,4,y,0,left,left,left,NA,left,791,350743,448808,NA,791,2,legacy,4,1024,2,48000,-16,experiment,4,even,1,998502,999602,876823,999604,1001814,2426,428014,1000609,353171,1003820,NA,2424,950272,1003820,1004612,Sternberg Task,30,27104,33,yes,1024
91.17647059,91.17647059,824.1470588,824.1470588,black,experiment,legacy,legacy,legacy,0,uniform,1,undefined,1,left,33,33,0,33,33,0,0,33,0,33,0,0,33,33,33,10/27/19 19:58,The main experiment item,yes,SternbergTask.osexp,E:\Classwork\AQMAED,no,mono,no,18,no,white,no,yes,768,legacy,21,11,E:/Classwork/AQMAED/Stenberg/RS-subject-4.csv,legacy,9 1 6 7 8,Kafkaesque Koffka,3.2.8,1,y,0,left,left,left,NA,left,917,350743,448808,NA,917,2,legacy,5,1024,2,48000,-16,experiment,4,even,9,1004617,1005738,876823,1005740,1007950,2426,428014,1006745,353171,1009955,NA,2424,950272,1009955,1010872,Sternberg Task,31,28021,34,yes,1024
91.42857143,91.42857143,826.7428571,826.7428571,black,experiment,legacy,legacy,legacy,0,uniform,1,undefined,1,right,34,34,0,34,34,0,0,34,0,34,0,0,34,34,34,10/27/19 19:58,The main experiment item,yes,SternbergTask.osexp,E:\Classwork\AQMAED,no,mono,no,18,no,white,no,yes,768,legacy,22,11,E:/Classwork/AQMAED/Stenberg/RS-subject-4.csv,legacy,7 3 2 8,Kafkaesque Koffka,3.2.8,0,n,0,right,left,left,NA,right,915,350743,448808,NA,915,2,legacy,4,1024,2,48000,-16,experiment,4,even,4,1010877,1011986,876823,1011987,1014197,2426,428014,1012991,353171,1016203,NA,2424,950272,1016203,1017118,Sternberg Task,32,28936,35,yes,1024
91.66666667,91.66666667,833.1111111,833.1111111,black,experiment,legacy,legacy,legacy,0,uniform,1,undefined,1,right,35,35,0,35,35,0,0,35,0,35,0,0,35,35,35,10/27/19 19:58,The main experiment item,yes,SternbergTask.osexp,E:\Classwork\AQMAED,no,mono,no,18,no,white,no,yes,768,legacy,23,11,E:/Classwork/AQMAED/Stenberg/RS-subject-4.csv,legacy,1 7 5 2 9,Kafkaesque Koffka,3.2.8,0,n,0,right,left,left,NA,right,1056,350743,448808,NA,1056,2,legacy,5,1024,2,48000,-16,experiment,4,even,3,1017130,1018235,876823,1018237,1020447,2426,428014,1019242,353171,1022452,NA,2424,950272,1022452,1023509,Sternberg Task,33,29992,36,yes,1024
89.18918919,89.18918919,839.3783784,839.3783784,black,experiment,legacy,legacy,legacy,0,uniform,0,undefined,0,right,36,36,0,36,36,0,0,36,0,36,0,0,36,36,36,10/27/19 19:58,The main experiment item,yes,SternbergTask.osexp,E:\Classwork\AQMAED,no,mono,no,18,no,white,no,yes,768,legacy,24,11,E:/Classwork/AQMAED/Stenberg/RS-subject-4.csv,legacy,6 2 9 3 8 4,Kafkaesque Koffka,3.2.8,0,n,0,left,left,left,NA,left,1065,350743,448808,NA,1065,2,legacy,6,1024,2,48000,-16,experiment,4,even,1,1023517,1024627,876823,1024629,1026839,2426,428014,1025634,353171,1028843,NA,2424,950272,1028844,1029910,Sternberg Task,33,31057,37,yes,1024
89.47368421,89.47368421,838.6315789,838.6315789,black,experiment,legacy,legacy,legacy,0,uniform,1,undefined,1,left,37,37,0,37,37,0,0,37,0,37,0,0,37,37,37,10/27/19 19:58,The main experiment item,yes,SternbergTask.osexp,E:\Classwork\AQMAED,no,mono,no,18,no,white,no,yes,768,legacy,25,11,E:/Classwork/AQMAED/Stenberg/RS-subject-4.csv,legacy,3 5 9 6 2 4,Kafkaesque Koffka,3.2.8,1,y,0,left,left,left,NA,left,811,350743,448808,NA,811,2,legacy,6,1024,2,48000,-16,experiment,4,even,3,1023517,1031020,876823,1031021,1033232,2426,428014,1032027,353171,1035236,NA,2424,1029918,1035236,1036047,Sternberg Task,34,31868,38,yes,1024
87.17948718,87.17948718,839.2051282,839.2051282,black,experiment,legacy,legacy,legacy,0,uniform,0,undefined,0,right,38,38,0,38,38,0,0,38,0,38,0,0,38,38,38,10/27/19 19:58,The main experiment item,yes,SternbergTask.osexp,E:\Classwork\AQMAED,no,mono,no,18,no,white,no,yes,768,legacy,26,11,E:/Classwork/AQMAED/Stenberg/RS-subject-4.csv,legacy,2 8 9,Kafkaesque Koffka,3.2.8,0,n,0,left,left,left,NA,left,861,350743,448808,NA,861,2,legacy,3,1024,2,48000,-16,experiment,4,even,6,1036052,1037164,876823,1037166,1039376,2426,428014,1038171,353171,1041381,NA,2424,1029918,1041381,1042243,Sternberg Task,34,32729,39,yes,1024
85,85,867.975,867.975,black,experiment,legacy,legacy,legacy,0,uniform,0,undefined,0,right,39,39,0,39,39,0,0,39,0,39,0,0,39,39,39,10/27/19 19:58,The main experiment item,yes,SternbergTask.osexp,E:\Classwork\AQMAED,no,mono,no,18,no,white,no,yes,768,legacy,27,11,E:/Classwork/AQMAED/Stenberg/RS-subject-4.csv,legacy,2 7 5,Kafkaesque Koffka,3.2.8,0,n,0,left,left,left,NA,left,1990,350743,448808,NA,1990,2,legacy,3,1024,2,48000,-16,experiment,4,even,8,1036052,1043366,876823,1043368,1045578,2426,428014,1044373,353171,1047583,NA,2424,1042248,1047583,1049574,Sternberg Task,34,34719,40,yes,1024
82.92682927,82.92682927,868.3170732,868.3170732,black,experiment,legacy,legacy,legacy,0,uniform,0,undefined,0,right,40,40,0,40,40,0,0,40,0,40,0,0,40,40,40,10/27/19 19:58,The main experiment item,yes,SternbergTask.osexp,E:\Classwork\AQMAED,no,mono,no,18,no,white,no,yes,768,legacy,28,11,E:/Classwork/AQMAED/Stenberg/RS-subject-4.csv,legacy,4 2 7 6 1 3,Kafkaesque Koffka,3.2.8,0,n,0,left,left,left,NA,left,882,350743,448808,NA,882,2,legacy,6,1024,2,48000,-16,experiment,4,even,8,1036052,1050687,876823,1050688,1052897,2426,428014,1051693,353171,1054901,NA,2424,1049579,1054902,1055785,Sternberg Task,34,35601,41,yes,1024
83.33333333,83.33333333,863.2142857,863.2142857,black,experiment,legacy,legacy,legacy,0,uniform,1,undefined,1,right,41,41,0,41,41,0,0,41,0,41,0,0,41,41,41,10/27/19 19:58,The main experiment item,yes,SternbergTask.osexp,E:\Classwork\AQMAED,no,mono,no,18,no,white,no,yes,768,legacy,29,11,E:/Classwork/AQMAED/Stenberg/RS-subject-4.csv,legacy,5 3 8 7 2 4,Kafkaesque Koffka,3.2.8,0,n,0,right,left,left,NA,right,654,350743,448808,NA,654,2,legacy,6,1024,2,48000,-16,experiment,4,even,9,1036052,1056888,876823,1056890,1059099,2426,428014,1057895,353171,1061105,NA,2424,1055798,1061105,1061760,Sternberg Task,35,36255,42,yes,1024
83.72093023,83.72093023,861.5348837,861.5348837,black,experiment,legacy,legacy,legacy,0,uniform,1,undefined,1,left,42,42,0,42,42,0,0,42,0,42,0,0,42,42,42,10/27/19 19:58,The main experiment item,yes,SternbergTask.osexp,E:\Classwork\AQMAED,no,mono,no,18,no,white,no,yes,768,legacy,30,11,E:/Classwork/AQMAED/Stenberg/RS-subject-4.csv,legacy,6 8 9 3 4 9,Kafkaesque Koffka,3.2.8,5,y,0,left,left,left,NA,left,791,350743,448808,NA,791,2,legacy,6,1024,2,48000,-16,experiment,4,even,4,1061767,1062880,876823,1062881,1065087,2426,428014,1063883,353171,1067091,NA,2424,1055798,1067092,1067884,Sternberg Task,36,37046,43,yes,1024
81.81818182,81.81818182,882.3636364,882.3636364,black,experiment,legacy,legacy,legacy,0,uniform,0,undefined,0,right,43,43,0,43,43,0,0,43,0,43,0,0,43,43,43,10/27/19 19:58,The main experiment item,yes,SternbergTask.osexp,E:\Classwork\AQMAED,no,mono,no,18,no,white,no,yes,768,legacy,31,11,E:/Classwork/AQMAED/Stenberg/RS-subject-4.csv,legacy,1 6 4,Kafkaesque Koffka,3.2.8,0,n,0,left,left,left,NA,left,1778,350743,448808,NA,1778,2,legacy,3,1024,2,48000,-16,experiment,4,even,7,1067889,1068984,876823,1068986,1071196,2426,428014,1069991,353171,1073201,NA,2424,1055798,1073201,1074979,Sternberg Task,36,38824,44,yes,1024
82.22222222,82.22222222,878.9333333,878.9333333,black,experiment,legacy,legacy,legacy,0,uniform,1,undefined,1,right,44,44,0,44,44,0,0,44,0,44,0,0,44,44,44,10/27/19 19:58,The main experiment item,yes,SternbergTask.osexp,E:\Classwork\AQMAED,no,mono,no,18,no,white,no,yes,768,legacy,32,11,E:/Classwork/AQMAED/Stenberg/RS-subject-4.csv,legacy,6 3 1 7 9 8,Kafkaesque Koffka,3.2.8,0,n,0,right,left,left,NA,right,728,350743,448808,NA,728,2,legacy,6,1024,2,48000,-16,experiment,4,even,4,1067889,1076079,876823,1076081,1078290,2426,428014,1077085,353171,1080296,NA,2424,1074985,1080296,1081024,Sternberg Task,37,39552,45,yes,1024
80.43478261,80.43478261,881.6086957,881.6086957,black,experiment,legacy,legacy,legacy,0,uniform,0,undefined,0,right,45,45,0,45,45,0,0,45,0,45,0,0,45,45,45,10/27/19 19:58,The main experiment item,yes,SternbergTask.osexp,E:\Classwork\AQMAED,no,mono,no,18,no,white,no,yes,768,legacy,33,11,E:/Classwork/AQMAED/Stenberg/RS-subject-4.csv,legacy,4 8 1 2,Kafkaesque Koffka,3.2.8,0,n,0,left,left,left,NA,left,1002,350743,448808,NA,1002,2,legacy,4,1024,2,48000,-16,experiment,4,even,7,1081031,1082110,876823,1082112,1084322,2426,428014,1083117,353171,1086326,NA,2424,1074985,1086327,1087330,Sternberg Task,37,40554,46,yes,1024
80.85106383,80.85106383,881.9787234,881.9787234,black,experiment,legacy,legacy,legacy,0,uniform,1,undefined,1,left,46,46,0,46,46,0,0,46,0,46,0,0,46,46,46,10/27/19 19:58,The main experiment item,yes,SternbergTask.osexp,E:\Classwork\AQMAED,no,mono,no,18,no,white,no,yes,768,legacy,34,11,E:/Classwork/AQMAED/Stenberg/RS-subject-4.csv,legacy,2 6 1 7 4,Kafkaesque Koffka,3.2.8,2,y,0,left,left,left,NA,left,899,350743,448808,NA,899,2,legacy,5,1024,2,48000,-16,experiment,4,even,6,1081031,1088449,876823,1088451,1090661,2426,428014,1089455,353171,1092666,NA,2424,1087335,1092666,1093565,Sternberg Task,38,41453,47,yes,1024
81.25,81.25,878.0833333,878.0833333,black,experiment,legacy,legacy,legacy,0,uniform,1,undefined,1,left,47,47,0,47,47,0,0,47,0,47,0,0,47,47,47,10/27/19 19:58,The main experiment item,yes,SternbergTask.osexp,E:\Classwork\AQMAED,no,mono,no,18,no,white,no,yes,768,legacy,35,11,E:/Classwork/AQMAED/Stenberg/RS-subject-4.csv,legacy,5 2 6,Kafkaesque Koffka,3.2.8,2,y,0,left,left,left,NA,left,695,350743,448808,NA,695,2,legacy,3,1024,2,48000,-16,experiment,4,even,2,1093577,1094693,876823,1094695,1096905,2426,428014,1095699,353171,1098910,NA,2424,1087335,1098910,1099605,Sternberg Task,39,42148,48,yes,1024
81.63265306,81.63265306,885.6122449,885.6122449,black,experiment,legacy,legacy,legacy,0,uniform,1,undefined,1,left,48,48,0,48,48,0,0,48,0,48,0,0,48,48,48,10/27/19 19:58,The main experiment item,yes,SternbergTask.osexp,E:\Classwork\AQMAED,no,mono,no,18,no,white,no,yes,768,legacy,36,11,E:/Classwork/AQMAED/Stenberg/RS-subject-4.csv,legacy,7 8 4 6 9 5,Kafkaesque Koffka,3.2.8,4,y,0,left,left,left,NA,left,1247,350743,448808,NA,1247,2,legacy,6,1024,2,48000,-16,experiment,4,even,6,1099614,1100717,876823,1100719,1102929,2426,428014,1101724,353171,1104934,NA,2424,1087335,1104934,1106181,Sternberg Task,40,43395,49,yes,1024
82,82,890.82,890.82,black,experiment,legacy,legacy,legacy,0,uniform,1,undefined,1,left,49,49,0,49,49,0,0,49,0,49,0,0,49,49,49,10/27/19 19:58,The main experiment item,yes,SternbergTask.osexp,E:\Classwork\AQMAED,no,mono,no,18,no,white,no,yes,768,legacy,37,11,E:/Classwork/AQMAED/Stenberg/RS-subject-4.csv,legacy,3 4 9 6 2 9,Kafkaesque Koffka,3.2.8,5,y,0,left,left,left,NA,left,1146,350743,448808,NA,1146,2,legacy,6,1024,2,48000,-16,experiment,4,even,2,1106186,1107300,876823,1107302,1109511,2426,428014,1108306,353171,1111516,NA,2424,1087335,1111516,1112663,Sternberg Task,41,44541,50,yes,1024
82.35294118,82.35294118,889.2745098,889.2745098,black,experiment,legacy,legacy,legacy,0,uniform,1,undefined,1,left,50,50,0,50,50,0,0,50,0,50,0,0,50,50,50,10/27/19 19:58,The main experiment item,yes,SternbergTask.osexp,E:\Classwork\AQMAED,no,mono,no,18,no,white,no,yes,768,legacy,38,11,E:/Classwork/AQMAED/Stenberg/RS-subject-4.csv,legacy,7 8 6 3 1,Kafkaesque Koffka,3.2.8,5,y,0,left,left,left,NA,left,812,350743,448808,NA,812,2,legacy,5,1024,2,48000,-16,experiment,4,even,1,1112669,1113767,876823,1113768,1115978,2426,428014,1114773,353171,1117983,NA,2424,1087335,1117984,1118797,Sternberg Task,42,45353,51,yes,1024
82.69230769,82.69230769,881.6730769,881.6730769,black,experiment,legacy,legacy,legacy,0,uniform,1,undefined,1,left,51,51,0,51,51,0,0,51,0,51,0,0,51,51,51,10/27/19 19:58,The main experiment item,yes,SternbergTask.osexp,E:\Classwork\AQMAED,no,mono,no,18,no,white,no,yes,768,legacy,39,11,E:/Classwork/AQMAED/Stenberg/RS-subject-4.csv,legacy,7,Kafkaesque Koffka,3.2.8,1,y,0,left,left,left,NA,left,494,350743,448808,NA,494,2,legacy,1,1024,2,48000,-16,experiment,4,even,7,1118802,1119915,876823,1119917,1122127,2426,428014,1120922,353171,1124131,NA,2424,1087335,1124132,1124627,Sternberg Task,43,45847,52,yes,1024
83.01886792,83.01886792,882.6603774,882.6603774,black,experiment,legacy,legacy,legacy,0,uniform,1,undefined,1,left,52,52,0,52,52,0,0,52,0,52,0,0,52,52,52,10/27/19 19:58,The main experiment item,yes,SternbergTask.osexp,E:\Classwork\AQMAED,no,mono,no,18,no,white,no,yes,768,legacy,40,11,E:/Classwork/AQMAED/Stenberg/RS-subject-4.csv,legacy,8 5 4 7 3 1,Kafkaesque Koffka,3.2.8,2,y,0,left,left,left,NA,left,934,350743,448808,NA,934,2,legacy,6,1024,2,48000,-16,experiment,4,even,5,1124632,1125740,876823,1125742,1127952,2426,428014,1126747,353171,1129957,NA,2424,1087335,1129957,1130892,Sternberg Task,44,46781,53,yes,1024
83.33333333,83.33333333,882.6111111,882.6111111,black,experiment,legacy,legacy,legacy,0,uniform,1,undefined,1,right,53,53,0,53,53,0,0,53,0,53,0,0,53,53,53,10/27/19 19:58,The main experiment item,yes,SternbergTask.osexp,E:\Classwork\AQMAED,no,mono,no,18,no,white,no,yes,768,legacy,41,11,E:/Classwork/AQMAED/Stenberg/RS-subject-4.csv,legacy,1 8 7,Kafkaesque Koffka,3.2.8,0,n,0,right,left,left,NA,right,880,350743,448808,NA,880,2,legacy,3,1024,2,48000,-16,experiment,4,even,4,1130898,1131983,876823,1131985,1134195,2426,428014,1132989,353171,1136199,NA,2424,1087335,1136200,1137080,Sternberg Task,45,47661,54,yes,1024
83.63636364,83.63636364,883.8545455,883.8545455,black,experiment,legacy,legacy,legacy,0,uniform,1,undefined,1,left,54,54,0,54,54,0,0,54,0,54,0,0,54,54,54,10/27/19 19:58,The main experiment item,yes,SternbergTask.osexp,E:\Classwork\AQMAED,no,mono,no,18,no,white,no,yes,768,legacy,42,11,E:/Classwork/AQMAED/Stenberg/RS-subject-4.csv,legacy,5 7 8 2 3 8,Kafkaesque Koffka,3.2.8,5,y,0,left,left,left,NA,left,951,350743,448808,NA,951,2,legacy,6,1024,2,48000,-16,experiment,4,even,3,1137086,1138194,876823,1138195,1140405,2426,428014,1139200,353171,1142411,NA,2424,1087335,1142411,1143363,Sternberg Task,46,48612,55,yes,1024
83.92857143,83.92857143,880.625,880.625,black,experiment,legacy,legacy,legacy,0,uniform,1,undefined,1,left,55,55,0,55,55,0,0,55,0,55,0,0,55,55,55,10/27/19 19:58,The main experiment item,yes,SternbergTask.osexp,E:\Classwork\AQMAED,no,mono,no,18,no,white,no,yes,768,legacy,43,11,E:/Classwork/AQMAED/Stenberg/RS-subject-4.csv,legacy,3 4,Kafkaesque Koffka,3.2.8,1,y,0,left,left,left,NA,left,703,350743,448808,NA,703,2,legacy,2,1024,2,48000,-16,experiment,4,even,3,1143368,1144473,876823,1144475,1146685,2426,428014,1145480,353171,1148690,NA,2424,1087335,1148690,1149394,Sternberg Task,47,49315,56,yes,1024
82.45614035,82.45614035,880.122807,880.122807,black,experiment,legacy,legacy,legacy,0,uniform,0,undefined,0,right,56,56,0,56,56,0,0,56,0,56,0,0,56,56,56,10/27/19 19:58,The main experiment item,yes,SternbergTask.osexp,E:\Classwork\AQMAED,no,mono,no,18,no,white,no,yes,768,legacy,44,11,E:/Classwork/AQMAED/Stenberg/RS-subject-4.csv,legacy,7 1 5 6 3,Kafkaesque Koffka,3.2.8,0,n,0,left,left,left,NA,left,852,350743,448808,NA,852,2,legacy,5,1024,2,48000,-16,experiment,4,even,8,1149405,1150514,876823,1150515,1152726,2426,428014,1151521,353171,1154730,NA,2424,1087335,1154730,1155583,Sternberg Task,47,50167,57,yes,1024
82.75862069,82.75862069,878.0172414,878.0172414,black,experiment,legacy,legacy,legacy,0,uniform,1,undefined,1,right,57,57,0,57,57,0,0,57,0,57,0,0,57,57,57,10/27/19 19:58,The main experiment item,yes,SternbergTask.osexp,E:\Classwork\AQMAED,no,mono,no,18,no,white,no,yes,768,legacy,45,11,E:/Classwork/AQMAED/Stenberg/RS-subject-4.csv,legacy,7 1,Kafkaesque Koffka,3.2.8,0,n,0,right,left,left,NA,right,758,350743,448808,NA,758,2,legacy,2,1024,2,48000,-16,experiment,4,even,8,1149405,1156707,876823,1156709,1158919,2426,428014,1157714,353171,1160924,NA,2424,1155592,1160924,1161683,Sternberg Task,48,50925,58,yes,1024
83.05084746,83.05084746,883.2542373,883.2542373,black,experiment,legacy,legacy,legacy,0,uniform,1,undefined,1,right,58,58,0,58,58,0,0,58,0,58,0,0,58,58,58,10/27/19 19:58,The main experiment item,yes,SternbergTask.osexp,E:\Classwork\AQMAED,no,mono,no,18,no,white,no,yes,768,legacy,46,11,E:/Classwork/AQMAED/Stenberg/RS-subject-4.csv,legacy,1 4 9 2 5,Kafkaesque Koffka,3.2.8,0,n,0,right,left,left,NA,right,1187,350743,448808,NA,1187,2,legacy,5,1024,2,48000,-16,experiment,4,even,7,1161687,1162796,876823,1162798,1165005,2426,428014,1163800,353171,1167010,NA,2424,1155592,1167010,1168198,Sternberg Task,49,52112,59,yes,1024
83.33333333,83.33333333,881.15,881.15,black,experiment,legacy,legacy,legacy,0,uniform,1,undefined,1,left,59,59,0,59,59,0,0,59,0,59,0,0,59,59,59,10/27/19 19:58,The main experiment item,yes,SternbergTask.osexp,E:\Classwork\AQMAED,no,mono,no,18,no,white,no,yes,768,legacy,47,11,E:/Classwork/AQMAED/Stenberg/RS-subject-4.csv,legacy,8 5 1 3 9,Kafkaesque Koffka,3.2.8,4,y,0,left,left,left,NA,left,757,350743,448808,NA,757,2,legacy,5,1024,2,48000,-16,experiment,4,even,3,1168202,1169298,876823,1169300,1171510,2426,428014,1170305,353171,1173514,NA,2424,1155592,1173515,1174273,Sternberg Task,50,52869,60,yes,1024
83.60655738,83.60655738,878.2459016,878.2459016,black,experiment,legacy,legacy,legacy,0,uniform,1,undefined,1,right,60,60,0,60,60,0,0,60,0,60,0,0,60,60,60,10/27/19 19:58,The main experiment item,yes,SternbergTask.osexp,E:\Classwork\AQMAED,no,mono,no,18,no,white,no,yes,768,legacy,48,11,E:/Classwork/AQMAED/Stenberg/RS-subject-4.csv,legacy,5 2,Kafkaesque Koffka,3.2.8,0,n,0,right,left,left,NA,right,704,350743,448808,NA,704,2,legacy,2,1024,2,48000,-16,experiment,4,even,7,1174278,1175378,876823,1175379,1177588,2426,428014,1176384,353171,1179593,NA,2424,1155592,1179594,1180298,Sternberg Task,51,53573,61,yes,1024
83.87096774,83.87096774,876.5483871,876.5483871,black,experiment,legacy,legacy,legacy,0,uniform,1,undefined,1,left,61,61,0,61,61,0,0,61,0,61,0,0,61,61,61,10/27/19 19:58,The main experiment item,yes,SternbergTask.osexp,E:\Classwork\AQMAED,no,mono,no,18,no,white,no,yes,768,legacy,49,11,E:/Classwork/AQMAED/Stenberg/RS-subject-4.csv,legacy,4 6 5 8,Kafkaesque Koffka,3.2.8,1,y,0,left,left,left,NA,left,773,350743,448808,NA,773,2,legacy,4,1024,2,48000,-16,experiment,4,even,4,1180303,1181404,876823,1181406,1183616,2426,428014,1182411,353171,1185621,NA,2424,1155592,1185621,1186394,Sternberg Task,52,54346,62,yes,1024
84.12698413,84.12698413,874.3492063,874.3492063,black,experiment,legacy,legacy,legacy,0,uniform,1,undefined,1,right,62,62,0,62,62,0,0,62,0,62,0,0,62,62,62,10/27/19 19:58,The main experiment item,yes,SternbergTask.osexp,E:\Classwork\AQMAED,no,mono,no,18,no,white,no,yes,768,legacy,50,11,E:/Classwork/AQMAED/Stenberg/RS-subject-4.csv,legacy,6 9 4 5 2,Kafkaesque Koffka,3.2.8,0,n,0,right,left,left,NA,right,738,350743,448808,NA,738,2,legacy,5,1024,2,48000,-16,experiment,4,even,1,1186399,1187497,876823,1187499,1189709,2426,428014,1188504,353171,1191714,NA,2424,1155592,1191714,1192453,Sternberg Task,53,55084,63,yes,1024
84.375,84.375,875,875,black,experiment,legacy,legacy,legacy,0,uniform,1,undefined,1,left,63,63,0,63,63,0,0,63,0,63,0,0,63,63,63,10/27/19 19:58,The main experiment item,yes,SternbergTask.osexp,E:\Classwork\AQMAED,no,mono,no,18,no,white,no,yes,768,legacy,51,11,E:/Classwork/AQMAED/Stenberg/RS-subject-4.csv,legacy,9 5 8 1,Kafkaesque Koffka,3.2.8,2,y,0,left,left,left,NA,left,916,350743,448808,NA,916,2,legacy,4,1024,2,48000,-16,experiment,4,even,5,1192458,1193551,876823,1193552,1195762,2426,428014,1194556,353171,1197767,NA,2424,1155592,1197767,1198684,Sternberg Task,54,56000,64,yes,1024
84.61538462,84.61538462,877.3230769,877.3230769,black,experiment,legacy,legacy,legacy,0,uniform,1,undefined,1,right,64,64,0,64,64,0,0,64,0,64,0,0,64,64,64,10/27/19 19:58,The main experiment item,yes,SternbergTask.osexp,E:\Classwork\AQMAED,no,mono,no,18,no,white,no,yes,768,legacy,52,11,E:/Classwork/AQMAED/Stenberg/RS-subject-4.csv,legacy,2 3 8 5 6 7,Kafkaesque Koffka,3.2.8,0,n,0,right,left,left,NA,right,1026,350743,448808,NA,1026,2,legacy,6,1024,2,48000,-16,experiment,4,even,1,1198688,1199790,876823,1199792,1202001,2426,428014,1200797,353171,1204007,NA,2424,1155592,1204008,1205035,Sternberg Task,55,57026,65,yes,1024
84.84848485,84.84848485,880.6515152,880.6515152,black,experiment,legacy,legacy,legacy,0,uniform,1,undefined,1,left,65,65,0,65,65,0,0,65,0,65,0,0,65,65,65,10/27/19 19:58,The main experiment item,yes,SternbergTask.osexp,E:\Classwork\AQMAED,no,mono,no,18,no,white,no,yes,768,legacy,53,11,E:/Classwork/AQMAED/Stenberg/RS-subject-4.csv,legacy,8 5 3 7 4 6,Kafkaesque Koffka,3.2.8,6,y,0,left,left,left,NA,left,1097,350743,448808,NA,1097,2,legacy,6,1024,2,48000,-16,experiment,4,even,6,1205041,1206142,876823,1206143,1208353,2426,428014,1207148,353171,1210357,NA,2424,1155592,1210357,1211455,Sternberg Task,56,58123,66,yes,1024
85.07462687,85.07462687,879.1492537,879.1492537,black,experiment,legacy,legacy,legacy,0,uniform,1,undefined,1,right,66,66,0,66,66,0,0,66,0,66,0,0,66,66,66,10/27/19 19:58,The main experiment item,yes,SternbergTask.osexp,E:\Classwork\AQMAED,no,mono,no,18,no,white,no,yes,768,legacy,54,11,E:/Classwork/AQMAED/Stenberg/RS-subject-4.csv,legacy,2 6 4 3 9,Kafkaesque Koffka,3.2.8,0,n,0,right,left,left,NA,right,780,350743,448808,NA,780,2,legacy,5,1024,2,48000,-16,experiment,4,even,1,1211467,1212571,876823,1212573,1214784,2426,428014,1213578,353171,1216789,NA,2424,1155592,1216789,1217570,Sternberg Task,57,58903,67,yes,1024
85.29411765,85.29411765,876.7352941,876.7352941,black,experiment,legacy,legacy,legacy,0,uniform,1,undefined,1,left,67,67,0,67,67,0,0,67,0,67,0,0,67,67,67,10/27/19 19:58,The main experiment item,yes,SternbergTask.osexp,E:\Classwork\AQMAED,no,mono,no,18,no,white,no,yes,768,legacy,55,11,E:/Classwork/AQMAED/Stenberg/RS-subject-4.csv,legacy,6 7 8 5,Kafkaesque Koffka,3.2.8,3,y,0,left,left,left,NA,left,715,350743,448808,NA,715,2,legacy,4,1024,2,48000,-16,experiment,4,even,8,1217578,1218682,876823,1218684,1220894,2426,428014,1219689,353171,1222899,NA,2424,1155592,1222899,1223615,Sternberg Task,58,59618,68,yes,1024
85.50724638,85.50724638,872.7681159,872.7681159,black,experiment,legacy,legacy,legacy,0,uniform,1,undefined,1,left,68,68,0,68,68,0,0,68,0,68,0,0,68,68,68,10/27/19 19:58,The main experiment item,yes,SternbergTask.osexp,E:\Classwork\AQMAED,no,mono,no,18,no,white,no,yes,768,legacy,56,11,E:/Classwork/AQMAED/Stenberg/RS-subject-4.csv,legacy,8 7 3,Kafkaesque Koffka,3.2.8,1,y,0,left,left,left,NA,left,603,350743,448808,NA,603,2,legacy,3,1024,2,48000,-16,experiment,4,even,8,1223622,1224721,876823,1224722,1226932,2426,428014,1225726,353171,1228937,NA,2424,1155592,1228937,1229541,Sternberg Task,59,60221,69,yes,1024
85.71428571,85.71428571,868.6,868.6,black,experiment,legacy,legacy,legacy,0,uniform,1,undefined,1,left,69,69,0,69,69,0,0,69,0,69,0,0,69,69,69,10/27/19 19:58,The main experiment item,yes,SternbergTask.osexp,E:\Classwork\AQMAED,no,mono,no,18,no,white,no,yes,768,legacy,57,11,E:/Classwork/AQMAED/Stenberg/RS-subject-4.csv,legacy,2 3,Kafkaesque Koffka,3.2.8,1,y,0,left,left,left,NA,left,581,350743,448808,NA,581,2,legacy,2,1024,2,48000,-16,experiment,4,even,2,1229546,1230642,876823,1230644,1232854,2426,428014,1231649,353171,1234858,NA,2424,1155592,1234859,1235441,Sternberg Task,60,60802,70,yes,1024
85.91549296,85.91549296,869.4366197,869.4366197,black,experiment,legacy,legacy,legacy,0,uniform,1,undefined,1,left,70,70,0,70,70,0,0,70,0,70,0,0,70,70,70,10/27/19 19:58,The main experiment item,yes,SternbergTask.osexp,E:\Classwork\AQMAED,no,mono,no,18,no,white,no,yes,768,legacy,58,11,E:/Classwork/AQMAED/Stenberg/RS-subject-4.csv,legacy,9 4 2,Kafkaesque Koffka,3.2.8,1,y,0,left,left,left,NA,left,928,350743,448808,NA,928,2,legacy,3,1024,2,48000,-16,experiment,4,even,9,1235446,1236556,876823,1236558,1238766,2426,428014,1237561,353171,1240771,NA,2424,1155592,1240771,1241700,Sternberg Task,61,61730,71,yes,1024
86.11111111,86.11111111,866.2777778,866.2777778,black,experiment,legacy,legacy,legacy,0,uniform,1,undefined,1,right,71,71,0,71,71,0,0,71,0,71,0,0,71,71,71,10/27/19 19:58,The main experiment item,yes,SternbergTask.osexp,E:\Classwork\AQMAED,no,mono,no,18,no,white,no,yes,768,legacy,59,11,E:/Classwork/AQMAED/Stenberg/RS-subject-4.csv,legacy,2 8 9 4 1,Kafkaesque Koffka,3.2.8,0,n,0,right,left,left,NA,right,642,350743,448808,NA,642,2,legacy,5,1024,2,48000,-16,experiment,4,even,5,1241705,1242815,876823,1242817,1245026,2426,428014,1243821,353171,1247031,NA,2424,1155592,1247031,1247674,Sternberg Task,62,62372,72,yes,1024
86.30136986,86.30136986,863.7123288,863.7123288,black,experiment,legacy,legacy,legacy,0,uniform,1,undefined,1,left,72,72,0,72,72,0,0,72,0,72,0,0,72,72,72,10/27/19 19:58,The main experiment item,yes,SternbergTask.osexp,E:\Classwork\AQMAED,no,mono,no,18,no,white,no,yes,768,legacy,60,11,E:/Classwork/AQMAED/Stenberg/RS-subject-4.csv,legacy,5 2 9 6 1 7,Kafkaesque Koffka,3.2.8,3,y,0,left,left,left,NA,left,679,350743,448808,NA,679,2,legacy,6,1024,2,48000,-16,experiment,4,even,9,1247680,1248778,876823,1248780,1250990,2426,428014,1249785,353171,1252995,NA,2424,1155592,1252996,1253676,Sternberg Task,63,63051,73,yes,1024
86.48648649,86.48648649,860.4054054,860.4054054,black,experiment,legacy,legacy,legacy,0,uniform,1,undefined,1,left,73,73,0,73,73,0,0,73,0,73,0,0,73,73,73,10/27/19 19:58,The main experiment item,yes,SternbergTask.osexp,E:\Classwork\AQMAED,no,mono,no,18,no,white,no,yes,768,legacy,61,11,E:/Classwork/AQMAED/Stenberg/RS-subject-4.csv,legacy,9 5 3 8 4,Kafkaesque Koffka,3.2.8,1,y,0,left,left,left,NA,left,619,350743,448808,NA,619,2,legacy,5,1024,2,48000,-16,experiment,4,even,9,1253681,1254755,876823,1254756,1256966,2426,428014,1255761,353171,1258971,NA,2424,1155592,1258971,1259591,Sternberg Task,64,63670,74,yes,1024
86.66666667,86.66666667,858.1733333,858.1733333,black,experiment,legacy,legacy,legacy,0,uniform,1,undefined,1,left,74,74,0,74,74,0,0,74,0,74,0,0,74,74,74,10/27/19 19:58,The main experiment item,yes,SternbergTask.osexp,E:\Classwork\AQMAED,no,mono,no,18,no,white,no,yes,768,legacy,62,11,E:/Classwork/AQMAED/Stenberg/RS-subject-4.csv,legacy,3 2 1 4 7,Kafkaesque Koffka,3.2.8,2,y,0,left,left,left,NA,left,693,350743,448808,NA,693,2,legacy,5,1024,2,48000,-16,experiment,4,even,2,1259595,1260690,876823,1260692,1262902,2426,428014,1261697,353171,1264907,NA,2424,1155592,1264907,1265601,Sternberg Task,65,64363,75,yes,1024
86.84210526,86.84210526,859.3421053,859.3421053,black,experiment,legacy,legacy,legacy,0,uniform,1,undefined,1,right,75,75,0,75,75,0,0,75,0,75,0,0,75,75,75,10/27/19 19:58,The main experiment item,yes,SternbergTask.osexp,E:\Classwork\AQMAED,no,mono,no,18,no,white,no,yes,768,legacy,63,11,E:/Classwork/AQMAED/Stenberg/RS-subject-4.csv,legacy,3 4 2,Kafkaesque Koffka,3.2.8,0,n,0,right,left,left,NA,right,947,350743,448808,NA,947,2,legacy,3,1024,2,48000,-16,experiment,4,even,5,1265606,1266711,876823,1266713,1268923,2426,428014,1267717,353171,1270928,NA,2424,1155592,1270928,1271876,Sternberg Task,66,65310,76,yes,1024
87.01298701,87.01298701,860.1558442,860.1558442,black,experiment,legacy,legacy,legacy,0,uniform,1,undefined,1,right,76,76,0,76,76,0,0,76,0,76,0,0,76,76,76,10/27/19 19:58,The main experiment item,yes,SternbergTask.osexp,E:\Classwork\AQMAED,no,mono,no,18,no,white,no,yes,768,legacy,64,11,E:/Classwork/AQMAED/Stenberg/RS-subject-4.csv,legacy,1 6 4 3 9 7,Kafkaesque Koffka,3.2.8,0,n,0,right,left,left,NA,right,922,350743,448808,NA,922,2,legacy,6,1024,2,48000,-16,experiment,4,even,8,1271881,1272978,876823,1272980,1275190,2426,428014,1273985,353171,1277195,NA,2424,1155592,1277195,1278118,Sternberg Task,67,66232,77,yes,1024
87.17948718,87.17948718,860.7179487,860.7179487,black,experiment,legacy,legacy,legacy,0,uniform,1,undefined,1,right,77,77,0,77,77,0,0,77,0,77,0,0,77,77,77,10/27/19 19:58,The main experiment item,yes,SternbergTask.osexp,E:\Classwork\AQMAED,no,mono,no,18,no,white,no,yes,768,legacy,65,11,E:/Classwork/AQMAED/Stenberg/RS-subject-4.csv,legacy,5 3 2 6 9 8,Kafkaesque Koffka,3.2.8,0,n,0,right,left,left,NA,right,904,350743,448808,NA,904,2,legacy,6,1024,2,48000,-16,experiment,4,even,4,1278123,1279212,876823,1279213,1281423,2426,428014,1280218,353171,1283429,NA,2424,1155592,1283429,1284334,Sternberg Task,68,67136,78,yes,1024
87.34177215,87.34177215,863.3291139,863.3291139,black,experiment,legacy,legacy,legacy,0,uniform,1,undefined,1,right,78,78,0,78,78,0,0,78,0,78,0,0,78,78,78,10/27/19 19:58,The main experiment item,yes,SternbergTask.osexp,E:\Classwork\AQMAED,no,mono,no,18,no,white,no,yes,768,legacy,66,11,E:/Classwork/AQMAED/Stenberg/RS-subject-4.csv,legacy,3 9 1,Kafkaesque Koffka,3.2.8,0,n,0,right,left,left,NA,right,1067,350743,448808,NA,1067,2,legacy,3,1024,2,48000,-16,experiment,4,even,7,1284339,1285448,876823,1285450,1287660,2426,428014,1286454,353171,1289665,NA,2424,1155592,1289665,1290732,Sternberg Task,69,68203,79,yes,1024
87.5,87.5,861.3625,861.3625,black,experiment,legacy,legacy,legacy,0,uniform,1,undefined,1,right,79,79,0,79,79,0,0,79,0,79,0,0,79,79,79,10/27/19 19:58,The main experiment item,yes,SternbergTask.osexp,E:\Classwork\AQMAED,no,mono,no,18,no,white,no,yes,768,legacy,67,11,E:/Classwork/AQMAED/Stenberg/RS-subject-4.csv,legacy,1 5 3 2 8,Kafkaesque Koffka,3.2.8,0,n,0,right,left,left,NA,right,706,350743,448808,NA,706,2,legacy,5,1024,2,48000,-16,experiment,4,even,4,1290738,1291839,876823,1291841,1294050,2426,428014,1292845,353171,1296051,NA,2424,1155592,1296051,1296757,Sternberg Task,70,68909,80,yes,1024
87.65432099,87.65432099,862.8024691,862.8024691,black,experiment,legacy,legacy,legacy,0,uniform,1,undefined,1,left,80,80,0,80,80,0,0,80,0,80,0,0,80,80,80,10/27/19 19:58,The main experiment item,yes,SternbergTask.osexp,E:\Classwork\AQMAED,no,mono,no,18,no,white,no,yes,768,legacy,68,11,E:/Classwork/AQMAED/Stenberg/RS-subject-4.csv,legacy,3 9 7 6 4,Kafkaesque Koffka,3.2.8,3,y,0,left,left,left,NA,left,978,350743,448808,NA,978,2,legacy,5,1024,2,48000,-16,experiment,4,even,7,1296762,1297860,876823,1297862,1300072,2426,428014,1298867,353171,1302077,NA,2424,1155592,1302077,1303056,Sternberg Task,71,69887,81,yes,1024
87.80487805,87.80487805,860.402439,860.402439,black,experiment,legacy,legacy,legacy,0,uniform,1,undefined,1,right,81,81,0,81,81,0,0,81,0,81,0,0,81,81,81,10/27/19 19:58,The main experiment item,yes,SternbergTask.osexp,E:\Classwork\AQMAED,no,mono,no,18,no,white,no,yes,768,legacy,69,11,E:/Classwork/AQMAED/Stenberg/RS-subject-4.csv,legacy,7 9,Kafkaesque Koffka,3.2.8,0,n,0,right,left,left,NA,right,666,350743,448808,NA,666,2,legacy,2,1024,2,48000,-16,experiment,4,even,1,1303061,1304165,876823,1304166,1306375,2426,428014,1305171,353171,1308380,NA,2424,1155592,1308381,1309048,Sternberg Task,72,70553,82,yes,1024
87.95180723,87.95180723,858.6746988,858.6746988,black,experiment,legacy,legacy,legacy,0,uniform,1,undefined,1,right,82,82,0,82,82,0,0,82,0,82,0,0,82,82,82,10/27/19 19:58,The main experiment item,yes,SternbergTask.osexp,E:\Classwork\AQMAED,no,mono,no,18,no,white,no,yes,768,legacy,70,11,E:/Classwork/AQMAED/Stenberg/RS-subject-4.csv,legacy,6 7 5 9,Kafkaesque Koffka,3.2.8,0,n,0,right,left,left,NA,right,717,350743,448808,NA,717,2,legacy,4,1024,2,48000,-16,experiment,4,even,2,1309053,1310171,876823,1310173,1312382,2426,428014,1311178,353171,1314388,NA,2424,1155592,1314388,1315107,Sternberg Task,73,71270,83,yes,1024
88.0952381,88.0952381,856.3809524,856.3809524,black,experiment,legacy,legacy,legacy,0,uniform,1,undefined,1,left,83,83,0,83,83,0,0,83,0,83,0,0,83,83,83,10/27/19 19:58,The main experiment item,yes,SternbergTask.osexp,E:\Classwork\AQMAED,no,mono,no,18,no,white,no,yes,768,legacy,71,11,E:/Classwork/AQMAED/Stenberg/RS-subject-4.csv,legacy,9 1 7 2,Kafkaesque Koffka,3.2.8,2,y,0,left,left,left,NA,left,666,350743,448808,NA,666,2,legacy,4,1024,2,48000,-16,experiment,4,even,1,1315118,1316216,876823,1316218,1318429,2426,428014,1317224,353171,1320434,NA,2424,1155592,1320434,1321101,Sternberg Task,74,71936,84,yes,1024
88.23529412,88.23529412,857.0941176,857.0941176,black,experiment,legacy,legacy,legacy,0,uniform,1,undefined,1,right,84,84,0,84,84,0,0,84,0,84,0,0,84,84,84,10/27/19 19:58,The main experiment item,yes,SternbergTask.osexp,E:\Classwork\AQMAED,no,mono,no,18,no,white,no,yes,768,legacy,72,11,E:/Classwork/AQMAED/Stenberg/RS-subject-4.csv,legacy,3 4 9 6 7 8,Kafkaesque Koffka,3.2.8,0,n,0,right,left,left,NA,right,917,350743,448808,NA,917,2,legacy,6,1024,2,48000,-16,experiment,4,even,2,1321108,1322206,876823,1322208,1324418,2426,428014,1323212,353171,1326423,NA,2424,1155592,1326423,1327341,Sternberg Task,75,72853,85,yes,1024
88.37209302,88.37209302,858.7093023,858.7093023,black,experiment,legacy,legacy,legacy,0,uniform,1,undefined,1,left,85,85,0,85,85,0,0,85,0,85,0,0,85,85,85,10/27/19 19:58,The main experiment item,yes,SternbergTask.osexp,E:\Classwork\AQMAED,no,mono,no,18,no,white,no,yes,768,legacy,73,11,E:/Classwork/AQMAED/Stenberg/RS-subject-4.csv,legacy,1 4 9 3 2 5,Kafkaesque Koffka,3.2.8,3,y,0,left,left,left,NA,left,996,350743,448808,NA,996,2,legacy,6,1024,2,48000,-16,experiment,4,even,9,1327351,1328454,876823,1328456,1330666,2426,428014,1329461,353171,1332670,NA,2424,1155592,1332671,1333668,Sternberg Task,76,73849,86,yes,1024
88.50574713,88.50574713,860.3908046,860.3908046,black,experiment,legacy,legacy,legacy,0,uniform,1,undefined,1,right,86,86,0,86,86,0,0,86,0,86,0,0,86,86,86,10/27/19 19:58,The main experiment item,yes,SternbergTask.osexp,E:\Classwork\AQMAED,no,mono,no,18,no,white,no,yes,768,legacy,74,11,E:/Classwork/AQMAED/Stenberg/RS-subject-4.csv,legacy,2 8 7 9 5 3,Kafkaesque Koffka,3.2.8,0,n,0,right,left,left,NA,right,1005,350743,448808,NA,1005,2,legacy,6,1024,2,48000,-16,experiment,4,even,6,1333673,1334774,876823,1334776,1336986,2426,428014,1335781,353171,1338990,NA,2424,1155592,1338990,1339996,Sternberg Task,77,74854,87,yes,1024
88.63636364,88.63636364,859.5568182,859.5568182,black,experiment,legacy,legacy,legacy,0,uniform,1,undefined,1,left,87,87,0,87,87,0,0,87,0,87,0,0,87,87,87,10/27/19 19:58,The main experiment item,yes,SternbergTask.osexp,E:\Classwork\AQMAED,no,mono,no,18,no,white,no,yes,768,legacy,75,11,E:/Classwork/AQMAED/Stenberg/RS-subject-4.csv,legacy,2 4 6 9,Kafkaesque Koffka,3.2.8,3,y,0,left,left,left,NA,left,787,350743,448808,NA,787,2,legacy,4,1024,2,48000,-16,experiment,4,even,6,1340002,1341111,876823,1341113,1343322,2426,428014,1342117,353171,1345327,NA,2424,1155592,1345328,1346116,Sternberg Task,78,75641,88,yes,1024
88.76404494,88.76404494,859.8426966,859.8426966,black,experiment,legacy,legacy,legacy,0,uniform,1,undefined,1,left,88,88,0,88,88,0,0,88,0,88,0,0,88,88,88,10/27/19 19:58,The main experiment item,yes,SternbergTask.osexp,E:\Classwork\AQMAED,no,mono,no,18,no,white,no,yes,768,legacy,76,11,E:/Classwork/AQMAED/Stenberg/RS-subject-4.csv,legacy,4 6 2 5 1,Kafkaesque Koffka,3.2.8,5,y,0,left,left,left,NA,left,885,350743,448808,NA,885,2,legacy,5,1024,2,48000,-16,experiment,4,even,1,1346121,1347218,876823,1347220,1349429,2426,428014,1348224,353171,1351435,NA,2424,1155592,1351435,1352321,Sternberg Task,79,76526,89,yes,1024
88.88888889,88.88888889,858.0888889,858.0888889,black,experiment,legacy,legacy,legacy,0,uniform,1,undefined,1,left,89,89,0,89,89,0,0,89,0,89,0,0,89,89,89,10/27/19 19:58,The main experiment item,yes,SternbergTask.osexp,E:\Classwork\AQMAED,no,mono,no,18,no,white,no,yes,768,legacy,77,11,E:/Classwork/AQMAED/Stenberg/RS-subject-4.csv,legacy,9 3 1 2 5,Kafkaesque Koffka,3.2.8,4,y,0,left,left,left,NA,left,702,350743,448808,NA,702,2,legacy,5,1024,2,48000,-16,experiment,4,even,2,1352326,1353430,876823,1353431,1355643,2426,428014,1354437,353171,1357648,NA,2424,1155592,1357648,1358351,Sternberg Task,80,77228,90,yes,1024
89.01098901,89.01098901,857.967033,857.967033,black,experiment,legacy,legacy,legacy,0,uniform,1,undefined,1,right,90,90,0,90,90,0,0,90,0,90,0,0,90,90,90,10/27/19 19:58,The main experiment item,yes,SternbergTask.osexp,E:\Classwork\AQMAED,no,mono,no,18,no,white,no,yes,768,legacy,78,11,E:/Classwork/AQMAED/Stenberg/RS-subject-4.csv,legacy,7 1 8 4 9 3,Kafkaesque Koffka,3.2.8,0,n,0,right,left,left,NA,right,847,350743,448808,NA,847,2,legacy,6,1024,2,48000,-16,experiment,4,even,6,1358356,1359456,876823,1359458,1361667,2426,428014,1360463,353171,1363673,NA,2424,1155592,1363673,1364521,Sternberg Task,81,78075,91,yes,1024
89.13043478,89.13043478,856.5434783,856.5434783,black,experiment,legacy,legacy,legacy,0,uniform,1,undefined,1,right,91,91,0,91,91,0,0,91,0,91,0,0,91,91,91,10/27/19 19:58,The main experiment item,yes,SternbergTask.osexp,E:\Classwork\AQMAED,no,mono,no,18,no,white,no,yes,768,legacy,79,11,E:/Classwork/AQMAED/Stenberg/RS-subject-4.csv,legacy,1 4 9 3,Kafkaesque Koffka,3.2.8,0,n,0,right,left,left,NA,right,727,350743,448808,NA,727,2,legacy,4,1024,2,48000,-16,experiment,4,even,5,1364534,1365633,876823,1365635,1367842,2426,428014,1366640,353171,1369847,NA,2424,1155592,1369847,1370575,Sternberg Task,82,78802,92,yes,1024
89.24731183,89.24731183,855.8494624,855.8494624,black,experiment,legacy,legacy,legacy,0,uniform,1,undefined,1,right,92,92,0,92,92,0,0,92,0,92,0,0,92,92,92,10/27/19 19:58,The main experiment item,yes,SternbergTask.osexp,E:\Classwork\AQMAED,no,mono,no,18,no,white,no,yes,768,legacy,80,11,E:/Classwork/AQMAED/Stenberg/RS-subject-4.csv,legacy,5 9 2 3,Kafkaesque Koffka,3.2.8,0,n,0,right,left,left,NA,right,792,350743,448808,NA,792,2,legacy,4,1024,2,48000,-16,experiment,4,even,8,1370582,1371680,876823,1371682,1373892,2426,428014,1372686,353171,1375897,NA,2424,1155592,1375897,1376690,Sternberg Task,83,79594,93,yes,1024
89.36170213,89.36170213,860.2234043,860.2234043,black,experiment,legacy,legacy,legacy,0,uniform,1,undefined,1,right,93,93,0,93,93,0,0,93,0,93,0,0,93,93,93,10/27/19 19:58,The main experiment item,yes,SternbergTask.osexp,E:\Classwork\AQMAED,no,mono,no,18,no,white,no,yes,768,legacy,81,11,E:/Classwork/AQMAED/Stenberg/RS-subject-4.csv,legacy,7 6 4 8 1 2,Kafkaesque Koffka,3.2.8,0,n,0,right,left,left,NA,right,1267,350743,448808,NA,1267,2,legacy,6,1024,2,48000,-16,experiment,4,even,9,1376701,1377796,876823,1377798,1380008,2426,428014,1378802,353171,1382013,NA,2424,1155592,1382013,1383281,Sternberg Task,84,80861,94,yes,1024
89.47368421,89.47368421,858.8315789,858.8315789,black,experiment,legacy,legacy,legacy,0,uniform,1,undefined,1,left,94,94,0,94,94,0,0,94,0,94,0,0,94,94,94,10/27/19 19:58,The main experiment item,yes,SternbergTask.osexp,E:\Classwork\AQMAED,no,mono,no,18,no,white,no,yes,768,legacy,82,11,E:/Classwork/AQMAED/Stenberg/RS-subject-4.csv,legacy,8,Kafkaesque Koffka,3.2.8,1,y,0,left,left,left,NA,left,728,350743,448808,NA,728,2,legacy,1,1024,2,48000,-16,experiment,4,even,8,1383286,1384386,876823,1384388,1386598,2426,428014,1385393,353171,1388603,NA,2424,1155592,1388603,1389332,Sternberg Task,85,81589,95,yes,1024
89.58333333,89.58333333,859.15625,859.15625,black,experiment,legacy,legacy,legacy,0,uniform,1,undefined,1,left,95,95,0,95,95,0,0,95,0,95,0,0,95,95,95,10/27/19 19:58,The main experiment item,yes,SternbergTask.osexp,E:\Classwork\AQMAED,no,mono,no,18,no,white,no,yes,768,legacy,83,11,E:/Classwork/AQMAED/Stenberg/RS-subject-4.csv,legacy,8 9 5 7 1 6,Kafkaesque Koffka,3.2.8,4,y,0,left,left,left,NA,left,890,350743,448808,NA,890,2,legacy,6,1024,2,48000,-16,experiment,4,even,7,1389341,1390438,876823,1390440,1392651,2426,428014,1391445,353171,1394656,NA,2424,1155592,1394656,1395547,Sternberg Task,86,82479,96,yes,1024
89.69072165,89.69072165,859.0721649,859.0721649,black,experiment,legacy,legacy,legacy,0,uniform,1,undefined,1,right,96,96,0,96,96,0,0,96,0,96,0,0,96,96,96,10/27/19 19:58,The main experiment item,yes,SternbergTask.osexp,E:\Classwork\AQMAED,no,mono,no,18,no,white,no,yes,768,legacy,84,11,E:/Classwork/AQMAED/Stenberg/RS-subject-4.csv,legacy,8 5 4 2 9 6,Kafkaesque Koffka,3.2.8,0,n,0,right,left,left,NA,right,851,350743,448808,NA,851,2,legacy,6,1024,2,48000,-16,experiment,4,even,3,1395552,1396648,876823,1396649,1398859,2426,428014,1397654,353171,1400864,NA,2424,1155592,1400864,1401716,Sternberg Task,87,83330,97,yes,1024
89.79591837,89.79591837,859.4081633,859.4081633,black,experiment,legacy,legacy,legacy,0,uniform,1,undefined,1,right,97,97,0,97,97,0,0,97,0,97,0,0,97,97,97,10/27/19 19:58,The main experiment item,yes,SternbergTask.osexp,E:\Classwork\AQMAED,no,mono,no,18,no,white,no,yes,768,legacy,85,11,E:/Classwork/AQMAED/Stenberg/RS-subject-4.csv,legacy,8 4 3 5,Kafkaesque Koffka,3.2.8,0,n,0,right,left,left,NA,right,892,350743,448808,NA,892,2,legacy,4,1024,2,48000,-16,experiment,4,even,6,1401721,1402838,876823,1402840,1405050,2426,428014,1403844,353171,1407055,NA,2424,1155592,1407055,1407948,Sternberg Task,88,84222,98,yes,1024
89.8989899,89.8989899,858.0606061,858.0606061,black,experiment,legacy,legacy,legacy,0,uniform,1,undefined,1,left,98,98,0,98,98,0,0,98,0,98,0,0,98,98,98,10/27/19 19:58,The main experiment item,yes,SternbergTask.osexp,E:\Classwork\AQMAED,no,mono,no,18,no,white,no,yes,768,legacy,86,11,E:/Classwork/AQMAED/Stenberg/RS-subject-4.csv,legacy,8 9 5 6 7,Kafkaesque Koffka,3.2.8,1,y,0,left,left,left,NA,left,726,350743,448808,NA,726,2,legacy,5,1024,2,48000,-16,experiment,4,even,8,1407953,1409046,876823,1409049,1411259,2426,428014,1410053,353171,1413264,NA,2424,1155592,1413264,1413991,Sternberg Task,89,84948,99,yes,1024
90,90,854.9,854.9,black,experiment,legacy,legacy,legacy,0,uniform,1,undefined,1,right,99,99,0,99,99,0,0,99,0,99,0,0,99,99,99,10/27/19 19:58,The main experiment item,yes,SternbergTask.osexp,E:\Classwork\AQMAED,no,mono,no,18,no,white,no,yes,768,legacy,87,11,E:/Classwork/AQMAED/Stenberg/RS-subject-4.csv,legacy,1,Kafkaesque Koffka,3.2.8,0,n,0,right,left,left,NA,right,542,350743,448808,NA,542,2,legacy,1,1024,2,48000,-16,experiment,4,even,7,1413996,1415096,876823,1415098,1417309,2426,428014,1416103,353171,1419314,NA,2424,1155592,1419314,1419858,Sternberg Task,90,85490,100,yes,1024
90.0990099,90.0990099,852.6831683,852.6831683,black,experiment,legacy,legacy,legacy,0,uniform,1,undefined,1,right,100,100,0,100,100,0,0,100,0,100,0,0,100,100,100,10/27/19 19:58,The main experiment item,yes,SternbergTask.osexp,E:\Classwork\AQMAED,no,mono,no,18,no,white,no,yes,768,legacy,88,11,E:/Classwork/AQMAED/Stenberg/RS-subject-4.csv,legacy,7 8 6 1,Kafkaesque Koffka,3.2.8,0,n,0,right,left,left,NA,right,631,350743,448808,NA,631,2,legacy,4,1024,2,48000,-16,experiment,4,even,3,1419863,1420960,876823,1420962,1423172,2426,428014,1421967,353171,1425178,NA,2424,1155592,1425179,1425811,Sternberg Task,91,86121,101,yes,1024
90.19607843,90.19607843,849.9215686,849.9215686,black,experiment,legacy,legacy,legacy,0,uniform,1,undefined,1,right,101,101,0,101,101,0,0,101,0,101,0,0,101,101,101,10/27/19 19:58,The main experiment item,yes,SternbergTask.osexp,E:\Classwork\AQMAED,no,mono,no,18,no,white,no,yes,768,legacy,89,11,E:/Classwork/AQMAED/Stenberg/RS-subject-4.csv,legacy,1 3 2 6 9,Kafkaesque Koffka,3.2.8,0,n,0,right,left,left,NA,right,571,350743,448808,NA,571,2,legacy,5,1024,2,48000,-16,experiment,4,even,5,1425816,1426924,876823,1426926,1429132,2426,428014,1427927,353171,1431139,NA,2424,1155592,1431139,1431711,Sternberg Task,92,86692,102,yes,1024
90.29126214,90.29126214,848.9902913,848.9902913,black,experiment,legacy,legacy,legacy,0,uniform,1,undefined,1,right,102,102,0,102,102,0,0,102,0,102,0,0,102,102,102,10/27/19 19:58,The main experiment item,yes,SternbergTask.osexp,E:\Classwork\AQMAED,no,mono,no,18,no,white,no,yes,768,legacy,90,11,E:/Classwork/AQMAED/Stenberg/RS-subject-4.csv,legacy,6 9 7 3 8 2,Kafkaesque Koffka,3.2.8,0,n,0,right,left,left,NA,right,754,350743,448808,NA,754,2,legacy,6,1024,2,48000,-16,experiment,4,even,5,1431716,1432814,876823,1432816,1435026,2426,428014,1433821,353171,1437031,NA,2424,1155592,1437031,1437786,Sternberg Task,93,87446,103,yes,1024
90.38461538,90.38461538,849.9038462,849.9038462,black,experiment,legacy,legacy,legacy,0,uniform,1,undefined,1,left,103,103,0,103,103,0,0,103,0,103,0,0,103,103,103,10/27/19 19:58,The main experiment item,yes,SternbergTask.osexp,E:\Classwork\AQMAED,no,mono,no,18,no,white,no,yes,768,legacy,91,11,E:/Classwork/AQMAED/Stenberg/RS-subject-4.csv,legacy,9 3 8 2 1 4,Kafkaesque Koffka,3.2.8,3,y,0,left,left,left,NA,left,944,350743,448808,NA,944,2,legacy,6,1024,2,48000,-16,experiment,4,even,8,1437790,1438887,876823,1438889,1441099,2426,428014,1439894,353171,1443105,NA,2424,1155592,1443105,1444050,Sternberg Task,94,88390,104,yes,1024
90.47619048,90.47619048,848.0285714,848.0285714,black,experiment,legacy,legacy,legacy,0,uniform,1,undefined,1,left,104,104,0,104,104,0,0,104,0,104,0,0,104,104,104,10/27/19 19:58,The main experiment item,yes,SternbergTask.osexp,E:\Classwork\AQMAED,no,mono,no,18,no,white,no,yes,768,legacy,92,11,E:/Classwork/AQMAED/Stenberg/RS-subject-4.csv,legacy,2 3 7 4,Kafkaesque Koffka,3.2.8,1,y,0,left,left,left,NA,left,653,350743,448808,NA,653,2,legacy,4,1024,2,48000,-16,experiment,4,even,2,1444055,1445149,876823,1445151,1447361,2426,428014,1446156,353171,1449367,NA,2424,1155592,1449367,1450021,Sternberg Task,95,89043,105,yes,1024
90.56603774,90.56603774,846.4056604,846.4056604,black,experiment,legacy,legacy,legacy,0,uniform,1,undefined,1,left,105,105,0,105,105,0,0,105,0,105,0,0,105,105,105,10/27/19 19:58,The main experiment item,yes,SternbergTask.osexp,E:\Classwork\AQMAED,no,mono,no,18,no,white,no,yes,768,legacy,93,11,E:/Classwork/AQMAED/Stenberg/RS-subject-4.csv,legacy,3 5 4 7,Kafkaesque Koffka,3.2.8,1,y,0,left,left,left,NA,left,676,350743,448808,NA,676,2,legacy,4,1024,2,48000,-16,experiment,4,even,3,1450026,1451140,876823,1451142,1453352,2426,428014,1452147,353171,1455357,NA,2424,1155592,1455357,1456035,Sternberg Task,96,89719,106,yes,1024
90.65420561,90.65420561,846.1214953,846.1214953,black,experiment,legacy,legacy,legacy,0,uniform,1,undefined,1,left,106,106,0,106,106,0,0,106,0,106,0,0,106,106,106,10/27/19 19:58,The main experiment item,yes,SternbergTask.osexp,E:\Classwork\AQMAED,no,mono,no,18,no,white,no,yes,768,legacy,94,11,E:/Classwork/AQMAED/Stenberg/RS-subject-4.csv,legacy,4 3 2 5 8,Kafkaesque Koffka,3.2.8,2,y,0,left,left,left,NA,left,816,350743,448808,NA,816,2,legacy,5,1024,2,48000,-16,experiment,4,even,3,1456040,1457144,876823,1457146,1459356,2426,428014,1458151,353171,1461361,NA,2424,1155592,1461361,1462179,Sternberg Task,97,90535,107,yes,1024
90.74074074,90.74074074,843.8333333,843.8333333,black,experiment,legacy,legacy,legacy,0,uniform,1,undefined,1,right,107,107,0,107,107,0,0,107,0,107,0,0,107,107,107,10/27/19 19:58,The main experiment item,yes,SternbergTask.osexp,E:\Classwork\AQMAED,no,mono,no,18,no,white,no,yes,768,legacy,95,11,E:/Classwork/AQMAED/Stenberg/RS-subject-4.csv,legacy,9,Kafkaesque Koffka,3.2.8,0,n,0,right,left,left,NA,right,599,350743,448808,NA,599,2,legacy,1,1024,2,48000,-16,experiment,4,even,6,1462190,1463285,876823,1463286,1465496,2426,428014,1464290,353171,1467501,NA,2424,1155592,1467501,1468101,Sternberg Task,98,91134,108,yes,1024
90.82568807,90.82568807,843.2385321,843.2385321,black,experiment,legacy,legacy,legacy,0,uniform,1,undefined,1,left,108,108,0,108,108,0,0,108,0,108,0,0,108,108,108,10/27/19 19:58,The main experiment item,yes,SternbergTask.osexp,E:\Classwork\AQMAED,no,mono,no,18,no,white,no,yes,768,legacy,96,11,E:/Classwork/AQMAED/Stenberg/RS-subject-4.csv,legacy,5 7 3 6 2,Kafkaesque Koffka,3.2.8,5,y,0,left,left,left,NA,left,779,350743,448808,NA,779,2,legacy,5,1024,2,48000,-16,experiment,4,even,2,1468112,1469219,876823,1469221,1471432,2426,428014,1470226,353171,1473436,NA,2424,1155592,1473437,1474217,Sternberg Task,99,91913,109,yes,1024
90.90909091,90.90909091,840.4818182,840.4818182,black,experiment,legacy,legacy,legacy,0,uniform,1,undefined,1,left,109,109,0,109,109,0,0,109,0,109,0,0,109,109,109,10/27/19 19:58,The main experiment item,yes,SternbergTask.osexp,E:\Classwork\AQMAED,no,mono,no,18,no,white,no,yes,768,legacy,97,11,E:/Classwork/AQMAED/Stenberg/RS-subject-4.csv,legacy,6 2,Kafkaesque Koffka,3.2.8,1,y,0,left,left,left,NA,left,540,350743,448808,NA,540,2,legacy,2,1024,2,48000,-16,experiment,4,even,6,1474222,1475337,876823,1475339,1477546,2426,428014,1476344,353171,1479551,NA,2424,1155592,1479551,1480092,Sternberg Task,100,92453,110,yes,1024
90.99099099,90.99099099,840.2072072,840.2072072,black,experiment,legacy,legacy,legacy,0,uniform,1,undefined,1,right,110,110,0,110,110,0,0,110,0,110,0,0,110,110,110,10/27/19 19:58,The main experiment item,yes,SternbergTask.osexp,E:\Classwork\AQMAED,no,mono,no,18,no,white,no,yes,768,legacy,98,11,E:/Classwork/AQMAED/Stenberg/RS-subject-4.csv,legacy,4 2 6 9,Kafkaesque Koffka,3.2.8,0,n,0,right,left,left,NA,right,810,350743,448808,NA,810,2,legacy,4,1024,2,48000,-16,experiment,4,even,7,1480098,1481194,876823,1481196,1483406,2426,428014,1482200,353171,1485411,NA,2424,1155592,1485411,1486222,Sternberg Task,101,93263,111,yes,1024
91.07142857,91.07142857,838.1517857,838.1517857,black,experiment,legacy,legacy,legacy,0,uniform,1,undefined,1,right,111,111,0,111,111,0,0,111,0,111,0,0,111,111,111,10/27/19 19:58,The main experiment item,yes,SternbergTask.osexp,E:\Classwork\AQMAED,no,mono,no,18,no,white,no,yes,768,legacy,99,11,E:/Classwork/AQMAED/Stenberg/RS-subject-4.csv,legacy,7 9 1 6,Kafkaesque Koffka,3.2.8,0,n,0,right,left,left,NA,right,610,350743,448808,NA,610,2,legacy,4,1024,2,48000,-16,experiment,4,even,4,1486227,1487333,876823,1487335,1489541,2426,428014,1488340,353171,1491546,NA,2424,1155592,1491546,1492157,Sternberg Task,102,93873,112,yes,1024
90.26548673,90.26548673,837.079646,837.079646,black,experiment,legacy,legacy,legacy,0,uniform,0,undefined,0,left,112,112,0,112,112,0,0,112,0,112,0,0,112,112,112,10/27/19 19:58,The main experiment item,yes,SternbergTask.osexp,E:\Classwork\AQMAED,no,mono,no,18,no,white,no,yes,768,legacy,100,11,E:/Classwork/AQMAED/Stenberg/RS-subject-4.csv,legacy,4 7 6 8 2 3,Kafkaesque Koffka,3.2.8,6,y,0,right,left,left,NA,right,717,350743,448808,NA,717,2,legacy,6,1024,2,48000,-16,experiment,4,even,3,1492162,1493257,876823,1493259,1495469,2426,428014,1494264,353171,1497473,NA,2424,1155592,1497473,1498192,Sternberg Task,102,94590,113,yes,1024
90.35087719,90.35087719,839.245614,839.245614,black,experiment,legacy,legacy,legacy,0,uniform,1,undefined,1,left,113,113,0,113,113,0,0,113,0,113,0,0,113,113,113,10/27/19 19:58,The main experiment item,yes,SternbergTask.osexp,E:\Classwork\AQMAED,no,mono,no,18,no,white,no,yes,768,legacy,101,11,E:/Classwork/AQMAED/Stenberg/RS-subject-4.csv,legacy,6 7 9 3 1 2,Kafkaesque Koffka,3.2.8,1,y,0,left,left,left,NA,left,1084,350743,448808,NA,1084,2,legacy,6,1024,2,48000,-16,experiment,4,even,6,1492162,1499276,876823,1499278,1501487,2426,428014,1500282,353171,1503491,NA,2424,1498196,1503491,1504576,Sternberg Task,103,95674,114,yes,1024
90.43478261,90.43478261,837.6434783,837.6434783,black,experiment,legacy,legacy,legacy,0,uniform,1,undefined,1,right,114,114,0,114,114,0,0,114,0,114,0,0,114,114,114,10/27/19 19:58,The main experiment item,yes,SternbergTask.osexp,E:\Classwork\AQMAED,no,mono,no,18,no,white,no,yes,768,legacy,102,11,E:/Classwork/AQMAED/Stenberg/RS-subject-4.csv,legacy,4 1,Kafkaesque Koffka,3.2.8,0,n,0,right,left,left,NA,right,655,350743,448808,NA,655,2,legacy,2,1024,2,48000,-16,experiment,4,even,6,1504581,1505685,876823,1505686,1507897,2426,428014,1506692,353171,1509902,NA,2424,1498196,1509902,1510558,Sternberg Task,104,96329,115,yes,1024
90.51724138,90.51724138,835.612069,835.612069,black,experiment,legacy,legacy,legacy,0,uniform,1,undefined,1,right,115,115,0,115,115,0,0,115,0,115,0,0,115,115,115,10/27/19 19:58,The main experiment item,yes,SternbergTask.osexp,E:\Classwork\AQMAED,no,mono,no,18,no,white,no,yes,768,legacy,103,11,E:/Classwork/AQMAED/Stenberg/RS-subject-4.csv,legacy,6 8 4,Kafkaesque Koffka,3.2.8,0,n,0,right,left,left,NA,right,602,350743,448808,NA,602,2,legacy,3,1024,2,48000,-16,experiment,4,even,1,1510563,1511669,876823,1511671,1513881,2426,428014,1512676,353171,1515887,NA,2424,1498196,1515888,1516491,Sternberg Task,105,96931,116,yes,1024
90.5982906,90.5982906,835.8717949,835.8717949,black,experiment,legacy,legacy,legacy,0,uniform,1,undefined,1,left,116,116,0,116,116,0,0,116,0,116,0,0,116,116,116,10/27/19 19:58,The main experiment item,yes,SternbergTask.osexp,E:\Classwork\AQMAED,no,mono,no,18,no,white,no,yes,768,legacy,104,11,E:/Classwork/AQMAED/Stenberg/RS-subject-4.csv,legacy,7 2 3,Kafkaesque Koffka,3.2.8,3,y,0,left,left,left,NA,left,866,350743,448808,NA,866,2,legacy,3,1024,2,48000,-16,experiment,4,even,3,1516502,1517613,876823,1517615,1519825,2426,428014,1518620,353171,1521830,NA,2424,1498196,1521830,1522697,Sternberg Task,106,97797,117,yes,1024
90.6779661,90.6779661,836.2627119,836.2627119,black,experiment,legacy,legacy,legacy,0,uniform,1,undefined,1,left,117,117,0,117,117,0,0,117,0,117,0,0,117,117,117,10/27/19 19:58,The main experiment item,yes,SternbergTask.osexp,E:\Classwork\AQMAED,no,mono,no,18,no,white,no,yes,768,legacy,105,11,E:/Classwork/AQMAED/Stenberg/RS-subject-4.csv,legacy,7 6,Kafkaesque Koffka,3.2.8,2,y,0,left,left,left,NA,left,882,350743,448808,NA,882,2,legacy,2,1024,2,48000,-16,experiment,4,even,6,1522704,1523787,876823,1523789,1525999,2426,428014,1524794,353171,1528003,NA,2424,1498196,1528004,1528887,Sternberg Task,107,98679,118,yes,1024
90.75630252,90.75630252,833.8571429,833.8571429,black,experiment,legacy,legacy,legacy,0,uniform,1,undefined,1,right,118,118,0,118,118,0,0,118,0,118,0,0,118,118,118,10/27/19 19:58,The main experiment item,yes,SternbergTask.osexp,E:\Classwork\AQMAED,no,mono,no,18,no,white,no,yes,768,legacy,106,11,E:/Classwork/AQMAED/Stenberg/RS-subject-4.csv,legacy,8 9,Kafkaesque Koffka,3.2.8,0,n,0,right,left,left,NA,right,550,350743,448808,NA,550,2,legacy,2,1024,2,48000,-16,experiment,4,even,5,1528894,1529991,876823,1529993,1532203,2426,428014,1530997,353171,1534209,NA,2424,1498196,1534209,1534761,Sternberg Task,108,99229,119,yes,1024
90.83333333,90.83333333,832.3583333,832.3583333,black,experiment,legacy,legacy,legacy,0,uniform,1,undefined,1,left,119,119,0,119,119,0,0,119,0,119,0,0,119,119,119,10/27/19 19:58,The main experiment item,yes,SternbergTask.osexp,E:\Classwork\AQMAED,no,mono,no,18,no,white,no,yes,768,legacy,107,11,E:/Classwork/AQMAED/Stenberg/RS-subject-4.csv,legacy,4 9 7 8 5 3,Kafkaesque Koffka,3.2.8,4,y,0,left,left,left,NA,left,654,350743,448808,NA,654,2,legacy,6,1024,2,48000,-16,experiment,4,even,8,1534766,1535862,876823,1535864,1538074,2426,428014,1536869,353171,1540079,NA,2424,1498196,1540080,1540736,Sternberg Task,109,99883,120,yes,1024
90.90909091,90.90909091,832.5785124,832.5785124,black,experiment,legacy,legacy,legacy,0,uniform,1,undefined,1,right,120,120,0,120,120,0,0,120,0,120,0,0,120,120,120,10/27/19 19:58,The main experiment item,yes,SternbergTask.osexp,E:\Classwork\AQMAED,no,mono,no,18,no,white,no,yes,768,legacy,108,11,E:/Classwork/AQMAED/Stenberg/RS-subject-4.csv,legacy,7 4 2 8 1 9,Kafkaesque Koffka,3.2.8,0,n,0,right,left,left,NA,right,859,350743,448808,NA,859,2,legacy,6,1024,2,48000,-16,experiment,4,even,5,1540740,1541835,876823,1541836,1544043,2426,428014,1542841,353171,1546044,NA,2424,1498196,1546045,1546905,Sternberg Task,110,100742,121,yes,1024
90.98360656,90.98360656,831.7786885,831.7786885,black,experiment,legacy,legacy,legacy,0,uniform,1,undefined,1,left,121,121,0,121,121,0,0,121,0,121,0,0,121,121,121,10/27/19 19:58,The main experiment item,yes,SternbergTask.osexp,E:\Classwork\AQMAED,no,mono,no,18,no,white,no,yes,768,legacy,109,11,E:/Classwork/AQMAED/Stenberg/RS-subject-4.csv,legacy,8 9 6 1,Kafkaesque Koffka,3.2.8,2,y,0,left,left,left,NA,left,735,350743,448808,NA,735,2,legacy,4,1024,2,48000,-16,experiment,4,even,9,1546910,1548007,876823,1548010,1550220,2426,428014,1549014,353171,1552224,NA,2424,1498196,1552225,1552961,Sternberg Task,111,101477,122,yes,1024
91.05691057,91.05691057,832.3333333,832.3333333,black,experiment,legacy,legacy,legacy,0,uniform,1,undefined,1,right,122,122,0,122,122,0,0,122,0,122,0,0,122,122,122,10/27/19 19:58,The main experiment item,yes,SternbergTask.osexp,E:\Classwork\AQMAED,no,mono,no,18,no,white,no,yes,768,legacy,110,11,E:/Classwork/AQMAED/Stenberg/RS-subject-4.csv,legacy,2 5 1 4,Kafkaesque Koffka,3.2.8,0,n,0,right,left,left,NA,right,900,350743,448808,NA,900,2,legacy,4,1024,2,48000,-16,experiment,4,even,6,1552966,1554081,876823,1554083,1556293,2426,428014,1555087,353171,1558298,NA,2424,1498196,1558298,1559200,Sternberg Task,112,102377,123,yes,1024
91.12903226,91.12903226,831.4516129,831.4516129,black,experiment,legacy,legacy,legacy,0,uniform,1,undefined,1,left,123,123,0,123,123,0,0,123,0,123,0,0,123,123,123,10/27/19 19:58,The main experiment item,yes,SternbergTask.osexp,E:\Classwork\AQMAED,no,mono,no,18,no,white,no,yes,768,legacy,111,11,E:/Classwork/AQMAED/Stenberg/RS-subject-4.csv,legacy,2 8 5 1,Kafkaesque Koffka,3.2.8,4,y,0,left,left,left,NA,left,723,350743,448808,NA,723,2,legacy,4,1024,2,48000,-16,experiment,4,even,1,1559207,1560307,876823,1560308,1562516,2426,428014,1561313,353171,1564521,NA,2424,1498196,1564521,1565245,Sternberg Task,113,103100,124,yes,1024
91.2,91.2,831.368,831.368,black,experiment,legacy,legacy,legacy,0,uniform,1,undefined,1,right,124,124,0,124,124,0,0,124,0,124,0,0,124,124,124,10/27/19 19:58,The main experiment item,yes,SternbergTask.osexp,E:\Classwork\AQMAED,no,mono,no,18,no,white,no,yes,768,legacy,112,11,E:/Classwork/AQMAED/Stenberg/RS-subject-4.csv,legacy,8 5 7 3 6,Kafkaesque Koffka,3.2.8,0,n,0,right,left,left,NA,right,821,350743,448808,NA,821,2,legacy,5,1024,2,48000,-16,experiment,4,even,9,1565250,1566356,876823,1566357,1568567,2426,428014,1567362,353171,1570572,NA,2424,1498196,1570573,1571395,Sternberg Task,114,103921,125,yes,1024
91.26984127,91.26984127,830.6825397,830.6825397,black,experiment,legacy,legacy,legacy,0,uniform,1,undefined,1,left,125,125,0,125,125,0,0,125,0,125,0,0,125,125,125,10/27/19 19:58,The main experiment item,yes,SternbergTask.osexp,E:\Classwork\AQMAED,no,mono,no,18,no,white,no,yes,768,legacy,113,11,E:/Classwork/AQMAED/Stenberg/RS-subject-4.csv,legacy,6 9 7 4 5 1,Kafkaesque Koffka,3.2.8,2,y,0,left,left,left,NA,left,745,350743,448808,NA,745,2,legacy,6,1024,2,48000,-16,experiment,4,even,9,1571400,1572506,876823,1572508,1574718,2426,428014,1573512,353171,1576723,NA,2424,1498196,1576723,1577470,Sternberg Task,115,104666,126,yes,1024
91.33858268,91.33858268,832.7874016,832.7874016,black,experiment,legacy,legacy,legacy,0,uniform,1,undefined,1,left,126,126,0,126,126,0,0,126,0,126,0,0,126,126,126,10/27/19 19:58,The main experiment item,yes,SternbergTask.osexp,E:\Classwork\AQMAED,no,mono,no,18,no,white,no,yes,768,legacy,114,11,E:/Classwork/AQMAED/Stenberg/RS-subject-4.csv,legacy,2 4 8 5 1 3,Kafkaesque Koffka,3.2.8,1,y,0,left,left,left,NA,left,1098,350743,448808,NA,1098,2,legacy,6,1024,2,48000,-16,experiment,4,even,2,1577475,1578588,876823,1578590,1580800,2426,428014,1579595,353171,1582805,NA,2424,1498196,1582805,1583905,Sternberg Task,116,105764,127,yes,1024
91.40625,91.40625,831.390625,831.390625,black,experiment,legacy,legacy,legacy,0,uniform,1,undefined,1,right,127,127,0,127,127,0,0,127,0,127,0,0,127,127,127,10/27/19 19:58,The main experiment item,yes,SternbergTask.osexp,E:\Classwork\AQMAED,no,mono,no,18,no,white,no,yes,768,legacy,115,11,E:/Classwork/AQMAED/Stenberg/RS-subject-4.csv,legacy,2 8 6 3 1,Kafkaesque Koffka,3.2.8,0,n,0,right,left,left,NA,right,654,350743,448808,NA,654,2,legacy,5,1024,2,48000,-16,experiment,4,even,7,1583909,1584996,876823,1584998,1587208,2426,428014,1586002,353171,1589214,NA,2424,1498196,1589214,1589869,Sternberg Task,117,106418,128,yes,1024
90.69767442,90.69767442,829.620155,829.620155,black,experiment,legacy,legacy,legacy,0,uniform,0,undefined,0,left,128,128,0,128,128,0,0,128,0,128,0,0,128,128,128,10/27/19 19:58,The main experiment item,yes,SternbergTask.osexp,E:\Classwork\AQMAED,no,mono,no,18,no,white,no,yes,768,legacy,116,11,E:/Classwork/AQMAED/Stenberg/RS-subject-4.csv,legacy,8 1 6,Kafkaesque Koffka,3.2.8,3,y,0,right,left,left,NA,right,603,350743,448808,NA,603,2,legacy,3,1024,2,48000,-16,experiment,4,even,6,1589874,1590973,876823,1590975,1593185,2426,428014,1591980,353171,1595191,NA,2424,1498196,1595191,1595795,Sternberg Task,117,107021,129,yes,1024
90,90,833.0153846,833.0153846,black,experiment,legacy,legacy,legacy,0,uniform,0,undefined,0,left,129,129,0,129,129,0,0,129,0,129,0,0,129,129,129,10/27/19 19:58,The main experiment item,yes,SternbergTask.osexp,E:\Classwork\AQMAED,no,mono,no,18,no,white,no,yes,768,legacy,117,11,E:/Classwork/AQMAED/Stenberg/RS-subject-4.csv,legacy,3 9 6 2,Kafkaesque Koffka,3.2.8,4,y,0,right,left,left,NA,right,1271,350743,448808,NA,1271,2,legacy,4,1024,2,48000,-16,experiment,4,even,2,1589874,1596924,876823,1596926,1599136,2426,428014,1597931,353171,1601141,NA,2424,1595809,1601142,1602414,Sternberg Task,117,108292,130,yes,1024
90.07633588,90.07633588,834.2061069,834.2061069,black,experiment,legacy,legacy,legacy,0,uniform,1,undefined,1,right,130,130,0,130,130,0,0,130,0,130,0,0,130,130,130,10/27/19 19:58,The main experiment item,yes,SternbergTask.osexp,E:\Classwork\AQMAED,no,mono,no,18,no,white,no,yes,768,legacy,118,11,E:/Classwork/AQMAED/Stenberg/RS-subject-4.csv,legacy,5 7 3,Kafkaesque Koffka,3.2.8,0,n,0,right,left,left,NA,right,989,350743,448808,NA,989,2,legacy,3,1024,2,48000,-16,experiment,4,even,9,1589874,1603522,876823,1603524,1605734,2426,428014,1604528,353171,1607739,NA,2424,1602423,1607739,1608729,Sternberg Task,118,109281,131,yes,1024
90.15151515,90.15151515,833.7727273,833.7727273,black,experiment,legacy,legacy,legacy,0,uniform,1,undefined,1,right,131,131,0,131,131,0,0,131,0,131,0,0,131,131,131,10/27/19 19:58,The main experiment item,yes,SternbergTask.osexp,E:\Classwork\AQMAED,no,mono,no,18,no,white,no,yes,768,legacy,119,11,E:/Classwork/AQMAED/Stenberg/RS-subject-4.csv,legacy,3 9 8 1 6 4,Kafkaesque Koffka,3.2.8,0,n,0,right,left,left,NA,right,777,350743,448808,NA,777,2,legacy,6,1024,2,48000,-16,experiment,4,even,7,1608735,1609836,876823,1609838,1612047,2426,428014,1610843,353171,1614052,NA,2424,1602423,1614052,1614830,Sternberg Task,119,110058,132,yes,1024
89.47368421,89.47368421,837.2180451,837.2180451,black,experiment,legacy,legacy,legacy,0,uniform,0,undefined,0,right,132,132,0,132,132,0,0,132,0,132,0,0,132,132,132,10/27/19 19:58,The main experiment item,yes,SternbergTask.osexp,E:\Classwork\AQMAED,no,mono,no,18,no,white,no,yes,768,legacy,120,11,E:/Classwork/AQMAED/Stenberg/RS-subject-4.csv,legacy,6 9 5,Kafkaesque Koffka,3.2.8,0,n,0,left,left,left,NA,left,1292,350743,448808,NA,1292,2,legacy,3,1024,2,48000,-16,experiment,4,even,8,1614836,1615952,876823,1615954,1618163,2426,428014,1616956,353171,1620168,NA,2424,1602423,1620168,1621461,Sternberg Task,119,111350,133,yes,1024
88.80597015,88.80597015,838.6716418,838.6716418,black,experiment,legacy,legacy,legacy,0,uniform,0,undefined,0,left,133,133,0,133,133,0,0,133,0,133,0,0,133,133,133,10/27/19 19:58,The main experiment item,yes,SternbergTask.osexp,E:\Classwork\AQMAED,no,mono,no,18,no,white,no,yes,768,legacy,121,11,E:/Classwork/AQMAED/Stenberg/RS-subject-4.csv,legacy,6 5,Kafkaesque Koffka,3.2.8,2,y,0,right,left,left,NA,right,1032,350743,448808,NA,1032,2,legacy,2,1024,2,48000,-16,experiment,4,even,5,1614836,1622563,876823,1622564,1624774,2426,428014,1623569,353171,1626779,NA,2424,1621466,1626779,1627813,Sternberg Task,119,112382,134,yes,1024
88.88888889,88.88888889,840.9851852,840.9851852,black,experiment,legacy,legacy,legacy,0,uniform,1,undefined,1,right,134,134,0,134,134,0,0,134,0,134,0,0,134,134,134,10/27/19 19:58,The main experiment item,yes,SternbergTask.osexp,E:\Classwork\AQMAED,no,mono,no,18,no,white,no,yes,768,legacy,122,11,E:/Classwork/AQMAED/Stenberg/RS-subject-4.csv,legacy,8 2 1 4 5 9,Kafkaesque Koffka,3.2.8,0,n,0,right,left,left,NA,right,1151,350743,448808,NA,1151,2,legacy,6,1024,2,48000,-16,experiment,4,even,7,1614836,1628924,876823,1628926,1631136,2426,428014,1629931,353171,1633141,NA,2424,1627818,1633141,1634293,Sternberg Task,120,113533,135,yes,1024
88.97058824,88.97058824,843.3308824,843.3308824,black,experiment,legacy,legacy,legacy,0,uniform,1,undefined,1,left,135,135,0,135,135,0,0,135,0,135,0,0,135,135,135,10/27/19 19:58,The main experiment item,yes,SternbergTask.osexp,E:\Classwork\AQMAED,no,mono,no,18,no,white,no,yes,768,legacy,123,11,E:/Classwork/AQMAED/Stenberg/RS-subject-4.csv,legacy,7 4 2 6 3 5,Kafkaesque Koffka,3.2.8,6,y,0,left,left,left,NA,left,1160,350743,448808,NA,1160,2,legacy,6,1024,2,48000,-16,experiment,4,even,5,1634298,1635406,876823,1635408,1637615,2426,428014,1636413,353171,1639621,NA,2424,1627818,1639622,1640783,Sternberg Task,121,114693,136,yes,1024
88.32116788,88.32116788,844.7956204,844.7956204,black,experiment,legacy,legacy,legacy,0,uniform,0,undefined,0,right,136,136,0,136,136,0,0,136,0,136,0,0,136,136,136,10/27/19 19:58,The main experiment item,yes,SternbergTask.osexp,E:\Classwork\AQMAED,no,mono,no,18,no,white,no,yes,768,legacy,124,11,E:/Classwork/AQMAED/Stenberg/RS-subject-4.csv,legacy,1 4 3 6 5,Kafkaesque Koffka,3.2.8,0,n,0,left,left,left,NA,left,1044,350743,448808,NA,1044,2,legacy,5,1024,2,48000,-16,experiment,4,even,8,1640789,1641895,876823,1641897,1644107,2426,428014,1642902,353171,1646112,NA,2424,1627818,1646112,1647157,Sternberg Task,121,115737,137,yes,1024
87.68115942,87.68115942,842.5144928,842.5144928,black,experiment,legacy,legacy,legacy,0,uniform,0,undefined,0,right,137,137,0,137,137,0,0,137,0,137,0,0,137,137,137,10/27/19 19:58,The main experiment item,yes,SternbergTask.osexp,E:\Classwork\AQMAED,no,mono,no,18,no,white,no,yes,768,legacy,125,11,E:/Classwork/AQMAED/Stenberg/RS-subject-4.csv,legacy,5,Kafkaesque Koffka,3.2.8,0,n,0,left,left,left,NA,left,530,350743,448808,NA,530,2,legacy,1,1024,2,48000,-16,experiment,4,even,8,1640789,1648267,876823,1648270,1650475,2426,428014,1649272,353171,1652480,NA,2424,1647162,1652481,1653012,Sternberg Task,121,116267,138,yes,1024