acc,accuracy,average_response_time,avg_rt,background,block,canvas_backend,clock_backend,color_backend,compensation,coordinates,correct,correct_instruction1,correct_keyboard_response,correct_response,count_ISI,count_correctFeedback,count_expSequence,count_experiment,count_experimentLoop,count_fixation,count_getting_started,count_incorrectFeedback,count_instruction1,count_instructions2,count_keyboard_response,count_logger,count_memorySet,count_practiceLoop,count_probe,count_thankYou,count_welcome,datetime,description,disable_garbage_collection,experiment_file,experiment_path,font_bold,font_family,font_italic,font_size,font_underline,foreground,form_clicks,fullscreen,height,keyboard_backend,live_row,live_row_practiceLoop,logfile,mouse_backend,numberSet,opensesame_codename,opensesame_version,posInSet,present,repeat_cycle,response,response_instruction1,response_instructions2,response_keyboard_response,response_thankYou,response_time,response_time_instruction1,response_time_instructions2,response_time_keyboard_response,response_time_thankYou,round_decimals,sampler_backend,setSize,sound_buf_size,sound_channels,sound_freq,sound_sample_size,start,subject_nr,subject_parity,target,time_ISI,time_correctFeedback,time_expSequence,time_experiment,time_experimentLoop,time_fixation,time_getting_started,time_incorrectFeedback,time_instruction1,time_instructions2,time_keyboard_response,time_logger,time_memorySet,time_practiceLoop,time_probe,time_thankYou,time_welcome,title,total_correct,total_response_time,total_responses,uniform_coordinates,width
100,100,481,481,black,practice,legacy,legacy,legacy,0,uniform,1,undefined,1,left,0,0,0,0,0,0,NA,0,0,0,0,0,0,0,0,0,NA,Thu Oct 24 08:35:26 2019,The main experiment item,yes,Sternbergtask.osexp,/Users/danielrazo0311/Desktop,no,mono,no,18,no,white,no,yes,768,legacy,0,0,/Users/danielrazo0311/Desktop/subject-4.csv,legacy,1 7 9 8 5,Kafkaesque Koffka,3.2.8,4,y,0,left,left,NA,left,NA,481,4645,NA,481,NA,2,legacy,5,1024,2,48000,-16,experiment,4,even,8,13217,NA,10977,3550,NA,10989,NA,NA,3569,NA,15229,15712,12001,8262,15229,NA,NA,Sternberg task,1,481,1,yes,1024
50,50,240.5,240.5,black,practice,legacy,legacy,legacy,0,uniform,0,undefined,0,left,1,1,1,0,0,1,NA,1,0,0,1,1,1,0,1,0,NA,Thu Oct 24 08:35:26 2019,The main experiment item,yes,Sternbergtask.osexp,/Users/danielrazo0311/Desktop,no,mono,no,18,no,white,no,yes,768,legacy,1,1,/Users/danielrazo0311/Desktop/subject-4.csv,legacy,6,Kafkaesque Koffka,3.2.8,1,y,0,right,left,NA,right,NA,0,4645,NA,0,NA,2,legacy,1,1024,2,48000,-16,experiment,4,even,6,19208,15805,16967,3550,NA,16979,NA,NA,3569,NA,21221,21223,17992,8262,21221,NA,NA,Sternberg task,1,481,2,yes,1024
66.66666667,66.66666667,326.3333333,326.3333333,black,practice,legacy,legacy,legacy,0,uniform,1,undefined,1,left,2,2,2,0,0,2,NA,2,0,0,2,2,2,0,2,0,NA,Thu Oct 24 08:35:26 2019,The main experiment item,yes,Sternbergtask.osexp,/Users/danielrazo0311/Desktop,no,mono,no,18,no,white,no,yes,768,legacy,2,2,/Users/danielrazo0311/Desktop/subject-4.csv,legacy,1 5 2 9,Kafkaesque Koffka,3.2.8,2,y,0,left,left,NA,left,NA,498,4645,NA,498,NA,2,legacy,4,1024,2,48000,-16,experiment,4,even,5,24631,15805,22391,3550,NA,22403,NA,21239,3569,NA,26643,27143,23416,8262,26643,NA,NA,Sternberg task,2,979,3,yes,1024
75,75,408.75,408.75,black,practice,legacy,legacy,legacy,0,uniform,1,undefined,1,right,3,3,3,0,0,3,NA,3,0,0,3,3,3,0,3,0,NA,Thu Oct 24 08:35:26 2019,The main experiment item,yes,Sternbergtask.osexp,/Users/danielrazo0311/Desktop,no,mono,no,18,no,white,no,yes,768,legacy,3,3,/Users/danielrazo0311/Desktop/subject-4.csv,legacy,5 7 8 4 1 2,Kafkaesque Koffka,3.2.8,0,n,0,right,left,NA,right,NA,656,4645,NA,656,NA,2,legacy,6,1024,2,48000,-16,experiment,4,even,6,30546,27158,28305,3550,NA,28317,NA,21239,3569,NA,32557,33215,29331,8262,32557,NA,NA,Sternberg task,3,1635,4,yes,1024
80,80,464.2,464.2,black,practice,legacy,legacy,legacy,0,uniform,1,undefined,1,right,4,4,4,0,0,4,NA,4,0,0,4,4,4,0,4,0,NA,Thu Oct 24 08:35:26 2019,The main experiment item,yes,Sternbergtask.osexp,/Users/danielrazo0311/Desktop,no,mono,no,18,no,white,no,yes,768,legacy,4,4,/Users/danielrazo0311/Desktop/subject-4.csv,legacy,4 1 5,Kafkaesque Koffka,3.2.8,0,n,0,right,left,NA,right,NA,686,4645,NA,686,NA,2,legacy,3,1024,2,48000,-16,experiment,4,even,2,36618,33230,34378,3550,NA,34390,NA,21239,3569,NA,38631,39319,35402,8262,38630,NA,NA,Sternberg task,4,2321,5,yes,1024
83.33333333,83.33333333,470.6666667,470.6666667,black,practice,legacy,legacy,legacy,0,uniform,1,undefined,1,right,5,5,5,0,0,5,NA,5,0,0,5,5,5,0,5,0,NA,Thu Oct 24 08:35:26 2019,The main experiment item,yes,Sternbergtask.osexp,/Users/danielrazo0311/Desktop,no,mono,no,18,no,white,no,yes,768,legacy,5,5,/Users/danielrazo0311/Desktop/subject-4.csv,legacy,3 1 9 4,Kafkaesque Koffka,3.2.8,0,n,0,right,left,NA,right,NA,503,4645,NA,503,NA,2,legacy,4,1024,2,48000,-16,experiment,4,even,6,42722,39335,40481,3550,NA,40494,NA,21239,3569,NA,44734,45239,41508,8262,44733,NA,NA,Sternberg task,5,2824,6,yes,1024
85.71428571,85.71428571,472.8571429,472.8571429,black,practice,legacy,legacy,legacy,0,uniform,1,undefined,1,left,6,6,6,0,0,6,NA,6,0,0,6,6,6,0,6,0,NA,Thu Oct 24 08:35:26 2019,The main experiment item,yes,Sternbergtask.osexp,/Users/danielrazo0311/Desktop,no,mono,no,18,no,white,no,yes,768,legacy,6,6,/Users/danielrazo0311/Desktop/subject-4.csv,legacy,4 8,Kafkaesque Koffka,3.2.8,1,y,0,left,left,NA,left,NA,486,4645,NA,486,NA,2,legacy,2,1024,2,48000,-16,experiment,4,even,4,48643,45254,46401,3550,NA,46413,NA,21239,3569,NA,50655,51143,47427,8262,50655,NA,NA,Sternberg task,6,3310,7,yes,1024
87.5,87.5,469.5,469.5,black,practice,legacy,legacy,legacy,0,uniform,1,undefined,1,right,7,7,7,0,0,7,NA,7,0,0,7,7,7,0,7,0,NA,Thu Oct 24 08:35:26 2019,The main experiment item,yes,Sternbergtask.osexp,/Users/danielrazo0311/Desktop,no,mono,no,18,no,white,no,yes,768,legacy,7,7,/Users/danielrazo0311/Desktop/subject-4.csv,legacy,2 1,Kafkaesque Koffka,3.2.8,0,n,0,right,left,NA,right,NA,446,4645,NA,446,NA,2,legacy,2,1024,2,48000,-16,experiment,4,even,5,54569,51178,52326,3550,NA,52338,NA,21239,3569,NA,56582,57031,53352,8262,56582,NA,NA,Sternberg task,7,3756,8,yes,1024
88.88888889,88.88888889,511.8888889,511.8888889,black,practice,legacy,legacy,legacy,0,uniform,1,undefined,1,left,8,8,8,0,0,8,NA,8,0,0,8,8,8,0,8,0,NA,Thu Oct 24 08:35:26 2019,The main experiment item,yes,Sternbergtask.osexp,/Users/danielrazo0311/Desktop,no,mono,no,18,no,white,no,yes,768,legacy,8,8,/Users/danielrazo0311/Desktop/subject-4.csv,legacy,4 3 1 7 9 8,Kafkaesque Koffka,3.2.8,1,y,0,left,left,NA,left,NA,851,4645,NA,851,NA,2,legacy,6,1024,2,48000,-16,experiment,4,even,4,60437,57046,58194,3550,NA,58206,NA,21239,3569,NA,62449,63303,59221,8262,62449,NA,NA,Sternberg task,8,4607,9,yes,1024
90,90,516.1,516.1,black,practice,legacy,legacy,legacy,0,uniform,1,undefined,1,right,9,9,9,0,0,9,NA,9,0,0,9,9,9,0,9,0,NA,Thu Oct 24 08:35:26 2019,The main experiment item,yes,Sternbergtask.osexp,/Users/danielrazo0311/Desktop,no,mono,no,18,no,white,no,yes,768,legacy,9,9,/Users/danielrazo0311/Desktop/subject-4.csv,legacy,9 6 7 4 5,Kafkaesque Koffka,3.2.8,0,n,0,right,left,NA,right,NA,554,4645,NA,554,NA,2,legacy,5,1024,2,48000,-16,experiment,4,even,3,66726,63341,64487,3550,NA,64498,NA,21239,3569,NA,68738,69294,65513,8262,68737,NA,NA,Sternberg task,9,5161,10,yes,1024
90.90909091,90.90909091,536.0909091,536.0909091,black,practice,legacy,legacy,legacy,0,uniform,1,undefined,1,right,10,10,10,0,0,10,NA,10,0,0,10,10,10,0,10,0,NA,Thu Oct 24 08:35:26 2019,The main experiment item,yes,Sternbergtask.osexp,/Users/danielrazo0311/Desktop,no,mono,no,18,no,white,no,yes,768,legacy,10,10,/Users/danielrazo0311/Desktop/subject-4.csv,legacy,5,Kafkaesque Koffka,3.2.8,0,n,0,right,left,NA,right,NA,736,4645,NA,736,NA,2,legacy,1,1024,2,48000,-16,experiment,4,even,3,72696,69309,70455,3550,NA,70467,NA,21239,3569,NA,74708,75446,71480,8262,74708,NA,NA,Sternberg task,10,5897,11,yes,1024
91.66666667,91.66666667,537.25,537.25,black,practice,legacy,legacy,legacy,0,uniform,1,undefined,1,left,11,11,11,0,0,11,NA,11,0,0,11,11,11,0,11,0,NA,Thu Oct 24 08:35:26 2019,The main experiment item,yes,Sternbergtask.osexp,/Users/danielrazo0311/Desktop,no,mono,no,18,no,white,no,yes,768,legacy,11,11,/Users/danielrazo0311/Desktop/subject-4.csv,legacy,2 9 4,Kafkaesque Koffka,3.2.8,3,y,0,left,left,NA,left,NA,550,4645,NA,550,NA,2,legacy,3,1024,2,48000,-16,experiment,4,even,4,78850,75462,76607,3550,NA,76619,NA,21239,3569,NA,80862,81414,77635,8262,80862,NA,NA,Sternberg task,11,6447,12,yes,1024
92.30769231,92.30769231,546.1538462,546.1538462,black,experiment,legacy,legacy,legacy,0,uniform,1,undefined,1,right,12,12,12,0,0,12,NA,12,0,0,12,12,12,0,12,0,NA,Thu Oct 24 08:35:26 2019,The main experiment item,yes,Sternbergtask.osexp,/Users/danielrazo0311/Desktop,no,mono,no,18,no,white,no,yes,768,legacy,0,11,/Users/danielrazo0311/Desktop/subject-4.csv,legacy,5 9 2 3,Kafkaesque Koffka,3.2.8,0,n,0,right,left,right,right,NA,653,4645,75084,653,NA,2,legacy,4,1024,2,48000,-16,experiment,4,even,8,159978,81429,157737,3550,157558,157749,NA,21239,3569,82471,161990,162645,158762,8262,161989,NA,NA,Sternberg task,12,7100,13,yes,1024
85.71428571,85.71428571,551.4285714,551.4285714,black,experiment,legacy,legacy,legacy,0,uniform,0,undefined,0,left,13,13,13,0,0,13,NA,13,0,0,13,13,13,0,13,0,NA,Thu Oct 24 08:35:26 2019,The main experiment item,yes,Sternbergtask.osexp,/Users/danielrazo0311/Desktop,no,mono,no,18,no,white,no,yes,768,legacy,1,11,/Users/danielrazo0311/Desktop/subject-4.csv,legacy,8 5 4 7 3 1,Kafkaesque Koffka,3.2.8,2,y,0,right,left,right,right,NA,620,4645,75084,620,NA,2,legacy,6,1024,2,48000,-16,experiment,4,even,5,166051,162660,163813,3550,157558,163825,NA,21239,3569,82471,168063,168685,164839,8262,168063,NA,NA,Sternberg task,12,7720,14,yes,1024
86.66666667,86.66666667,557.2,557.2,black,experiment,legacy,legacy,legacy,0,uniform,1,undefined,1,right,14,14,14,0,0,14,NA,14,0,0,14,14,14,0,14,0,NA,Thu Oct 24 08:35:26 2019,The main experiment item,yes,Sternbergtask.osexp,/Users/danielrazo0311/Desktop,no,mono,no,18,no,white,no,yes,768,legacy,2,11,/Users/danielrazo0311/Desktop/subject-4.csv,legacy,4 1,Kafkaesque Koffka,3.2.8,0,n,0,right,left,right,right,NA,638,4645,75084,638,NA,2,legacy,2,1024,2,48000,-16,experiment,4,even,6,172088,162660,169849,3550,157558,169861,NA,168700,3569,82471,174101,174741,170874,8262,174100,NA,NA,Sternberg task,13,8358,15,yes,1024
87.5,87.5,555.875,555.875,black,experiment,legacy,legacy,legacy,0,uniform,1,undefined,1,left,15,15,15,0,0,15,NA,15,0,0,15,15,15,0,15,0,NA,Thu Oct 24 08:35:26 2019,The main experiment item,yes,Sternbergtask.osexp,/Users/danielrazo0311/Desktop,no,mono,no,18,no,white,no,yes,768,legacy,3,11,/Users/danielrazo0311/Desktop/subject-4.csv,legacy,6 5,Kafkaesque Koffka,3.2.8,2,y,0,left,left,right,left,NA,536,4645,75084,536,NA,2,legacy,2,1024,2,48000,-16,experiment,4,even,5,178141,174756,175902,3550,157558,175914,NA,168700,3569,82471,180154,180693,176927,8262,180153,NA,NA,Sternberg task,14,8894,16,yes,1024
88.23529412,88.23529412,555.8823529,555.8823529,black,experiment,legacy,legacy,legacy,0,uniform,1,undefined,1,right,16,16,16,0,0,16,NA,16,0,0,16,16,16,0,16,0,NA,Thu Oct 24 08:35:26 2019,The main experiment item,yes,Sternbergtask.osexp,/Users/danielrazo0311/Desktop,no,mono,no,18,no,white,no,yes,768,legacy,4,11,/Users/danielrazo0311/Desktop/subject-4.csv,legacy,1 4 9 3,Kafkaesque Koffka,3.2.8,0,n,0,right,left,right,right,NA,556,4645,75084,556,NA,2,legacy,4,1024,2,48000,-16,experiment,4,even,5,184106,180718,181864,3550,157558,181876,NA,168700,3569,82471,186118,186677,182890,8262,186118,NA,NA,Sternberg task,15,9450,17,yes,1024
88.88888889,88.88888889,569.5,569.5,black,experiment,legacy,legacy,legacy,0,uniform,1,undefined,1,right,17,17,17,0,0,17,NA,17,0,0,17,17,17,0,17,0,NA,Thu Oct 24 08:35:26 2019,The main experiment item,yes,Sternbergtask.osexp,/Users/danielrazo0311/Desktop,no,mono,no,18,no,white,no,yes,768,legacy,5,11,/Users/danielrazo0311/Desktop/subject-4.csv,legacy,9 7 4 5 8,Kafkaesque Koffka,3.2.8,0,n,0,right,left,right,right,NA,801,4645,75084,801,NA,2,legacy,5,1024,2,48000,-16,experiment,4,even,6,190092,186704,187850,3550,157558,187863,NA,168700,3569,82471,192105,192909,188877,8262,192105,NA,NA,Sternberg task,16,10251,18,yes,1024
89.47368421,89.47368421,574.0526316,574.0526316,black,experiment,legacy,legacy,legacy,0,uniform,1,undefined,1,left,18,18,18,0,0,18,NA,18,0,0,18,18,18,0,18,0,NA,Thu Oct 24 08:35:26 2019,The main experiment item,yes,Sternbergtask.osexp,/Users/danielrazo0311/Desktop,no,mono,no,18,no,white,no,yes,768,legacy,6,11,/Users/danielrazo0311/Desktop/subject-4.csv,legacy,7 6,Kafkaesque Koffka,3.2.8,2,y,0,left,left,right,left,NA,656,4645,75084,656,NA,2,legacy,2,1024,2,48000,-16,experiment,4,even,6,196310,192924,194069,3550,157558,194081,NA,168700,3569,82471,198322,198980,195095,8262,198322,NA,NA,Sternberg task,17,10907,19,yes,1024
90,90,572,572,black,experiment,legacy,legacy,legacy,0,uniform,1,undefined,1,right,19,19,19,0,0,19,NA,19,0,0,19,19,19,0,19,0,NA,Thu Oct 24 08:35:26 2019,The main experiment item,yes,Sternbergtask.osexp,/Users/danielrazo0311/Desktop,no,mono,no,18,no,white,no,yes,768,legacy,7,11,/Users/danielrazo0311/Desktop/subject-4.csv,legacy,8 2 1 4 5 9,Kafkaesque Koffka,3.2.8,0,n,0,right,left,right,right,NA,533,4645,75084,533,NA,2,legacy,6,1024,2,48000,-16,experiment,4,even,7,202385,198996,200142,3550,157558,200154,NA,168700,3569,82471,204397,204933,201167,8262,204397,NA,NA,Sternberg task,18,11440,20,yes,1024
90.47619048,90.47619048,586.1428571,586.1428571,black,experiment,legacy,legacy,legacy,0,uniform,1,undefined,1,left,20,20,20,0,0,20,NA,20,0,0,20,20,20,0,20,0,NA,Thu Oct 24 08:35:26 2019,The main experiment item,yes,Sternbergtask.osexp,/Users/danielrazo0311/Desktop,no,mono,no,18,no,white,no,yes,768,legacy,8,11,/Users/danielrazo0311/Desktop/subject-4.csv,legacy,6 7 9 3 1 2,Kafkaesque Koffka,3.2.8,1,y,0,left,left,right,left,NA,869,4645,75084,869,NA,2,legacy,6,1024,2,48000,-16,experiment,4,even,6,208336,204948,206095,3550,157558,206107,NA,168700,3569,82471,210348,211219,207121,8262,210347,NA,NA,Sternberg task,19,12309,21,yes,1024
90.90909091,90.90909091,598.8636364,598.8636364,black,experiment,legacy,legacy,legacy,0,uniform,1,undefined,1,right,21,21,21,0,0,21,NA,21,0,0,21,21,21,0,21,0,NA,Thu Oct 24 08:35:26 2019,The main experiment item,yes,Sternbergtask.osexp,/Users/danielrazo0311/Desktop,no,mono,no,18,no,white,no,yes,768,legacy,9,11,/Users/danielrazo0311/Desktop/subject-4.csv,legacy,7 1 8 4 9 3,Kafkaesque Koffka,3.2.8,0,n,0,right,left,right,right,NA,866,4645,75084,866,NA,2,legacy,6,1024,2,48000,-16,experiment,4,even,6,214626,211235,212383,3550,157558,212395,NA,168700,3569,82471,216639,217508,213409,8262,216639,NA,NA,Sternberg task,20,13175,22,yes,1024
91.30434783,91.30434783,599.5652174,599.5652174,black,experiment,legacy,legacy,legacy,0,uniform,1,undefined,1,left,22,22,22,0,0,22,NA,22,0,0,22,22,22,0,22,0,NA,Thu Oct 24 08:35:26 2019,The main experiment item,yes,Sternbergtask.osexp,/Users/danielrazo0311/Desktop,no,mono,no,18,no,white,no,yes,768,legacy,10,11,/Users/danielrazo0311/Desktop/subject-4.csv,legacy,7 1 3,Kafkaesque Koffka,3.2.8,2,y,0,left,left,right,left,NA,615,4645,75084,615,NA,2,legacy,3,1024,2,48000,-16,experiment,4,even,1,220910,217526,218671,3550,157558,218683,NA,168700,3569,82471,222922,223540,219696,8262,222922,NA,NA,Sternberg task,21,13790,23,yes,1024
91.66666667,91.66666667,609.3333333,609.3333333,black,experiment,legacy,legacy,legacy,0,uniform,1,undefined,1,left,23,23,23,0,0,23,NA,23,0,0,23,23,23,0,23,0,NA,Thu Oct 24 08:35:26 2019,The main experiment item,yes,Sternbergtask.osexp,/Users/danielrazo0311/Desktop,no,mono,no,18,no,white,no,yes,768,legacy,11,11,/Users/danielrazo0311/Desktop/subject-4.csv,legacy,6 7 8 5,Kafkaesque Koffka,3.2.8,3,y,0,left,left,right,left,NA,834,4645,75084,834,NA,2,legacy,4,1024,2,48000,-16,experiment,4,even,8,226946,223561,224707,3550,157558,224719,NA,168700,3569,82471,228959,229796,225732,8262,228959,NA,NA,Sternberg task,22,14624,24,yes,1024
92,92,621.2,621.2,black,experiment,legacy,legacy,legacy,0,uniform,1,undefined,1,right,24,24,24,0,0,24,NA,24,0,0,24,24,24,0,24,0,NA,Thu Oct 24 08:35:26 2019,The main experiment item,yes,Sternbergtask.osexp,/Users/danielrazo0311/Desktop,no,mono,no,18,no,white,no,yes,768,legacy,12,11,/Users/danielrazo0311/Desktop/subject-4.csv,legacy,9,Kafkaesque Koffka,3.2.8,0,n,0,right,left,right,right,NA,906,4645,75084,906,NA,2,legacy,1,1024,2,48000,-16,experiment,4,even,6,233202,229811,230961,3550,157558,230973,NA,168700,3569,82471,235214,236123,231986,8262,235214,NA,NA,Sternberg task,23,15530,25,yes,1024
92.30769231,92.30769231,628.8076923,628.8076923,black,experiment,legacy,legacy,legacy,0,uniform,1,undefined,1,left,25,25,25,0,0,25,NA,25,0,0,25,25,25,0,25,0,NA,Thu Oct 24 08:35:26 2019,The main experiment item,yes,Sternbergtask.osexp,/Users/danielrazo0311/Desktop,no,mono,no,18,no,white,no,yes,768,legacy,13,11,/Users/danielrazo0311/Desktop/subject-4.csv,legacy,4 7 6 8 2 3,Kafkaesque Koffka,3.2.8,6,y,0,left,left,right,left,NA,819,4645,75084,819,NA,2,legacy,6,1024,2,48000,-16,experiment,4,even,3,239528,236138,237287,3550,157558,237299,NA,168700,3569,82471,241541,242362,238313,8262,241541,NA,NA,Sternberg task,24,16349,26,yes,1024
92.59259259,92.59259259,629.8148148,629.8148148,black,experiment,legacy,legacy,legacy,0,uniform,1,undefined,1,right,26,26,26,0,0,26,NA,26,0,0,26,26,26,0,26,0,NA,Thu Oct 24 08:35:26 2019,The main experiment item,yes,Sternbergtask.osexp,/Users/danielrazo0311/Desktop,no,mono,no,18,no,white,no,yes,768,legacy,14,11,/Users/danielrazo0311/Desktop/subject-4.csv,legacy,1 7 8 3 9,Kafkaesque Koffka,3.2.8,0,n,0,right,left,right,right,NA,656,4645,75084,656,NA,2,legacy,5,1024,2,48000,-16,experiment,4,even,2,245772,242379,243531,3550,157558,243543,NA,168700,3569,82471,247784,248443,244557,8262,247783,NA,NA,Sternberg task,25,17005,27,yes,1024
92.85714286,92.85714286,625.2142857,625.2142857,black,experiment,legacy,legacy,legacy,0,uniform,1,undefined,1,left,27,27,27,0,0,27,NA,27,0,0,27,27,27,0,27,0,NA,Thu Oct 24 08:35:26 2019,The main experiment item,yes,Sternbergtask.osexp,/Users/danielrazo0311/Desktop,no,mono,no,18,no,white,no,yes,768,legacy,15,11,/Users/danielrazo0311/Desktop/subject-4.csv,legacy,2 4 8 5 1 3,Kafkaesque Koffka,3.2.8,1,y,0,left,left,right,left,NA,501,4645,75084,501,NA,2,legacy,6,1024,2,48000,-16,experiment,4,even,2,251847,248460,249607,3550,157558,249618,NA,168700,3569,82471,253859,254362,250632,8262,253859,NA,NA,Sternberg task,26,17506,28,yes,1024
93.10344828,93.10344828,621.2068966,621.2068966,black,experiment,legacy,legacy,legacy,0,uniform,1,undefined,1,right,28,28,28,0,0,28,NA,28,0,0,28,28,28,0,28,0,NA,Thu Oct 24 08:35:26 2019,The main experiment item,yes,Sternbergtask.osexp,/Users/danielrazo0311/Desktop,no,mono,no,18,no,white,no,yes,768,legacy,16,11,/Users/danielrazo0311/Desktop/subject-4.csv,legacy,1,Kafkaesque Koffka,3.2.8,0,n,0,right,left,right,right,NA,509,4645,75084,509,NA,2,legacy,1,1024,2,48000,-16,experiment,4,even,7,257773,254378,255529,3550,157558,255543,NA,168700,3569,82471,259787,260299,256557,8262,259787,NA,NA,Sternberg task,27,18015,29,yes,1024
93.33333333,93.33333333,626.3,626.3,black,experiment,legacy,legacy,legacy,0,uniform,1,undefined,1,left,29,29,29,0,0,29,NA,29,0,0,29,29,29,0,29,0,NA,Thu Oct 24 08:35:26 2019,The main experiment item,yes,Sternbergtask.osexp,/Users/danielrazo0311/Desktop,no,mono,no,18,no,white,no,yes,768,legacy,17,11,/Users/danielrazo0311/Desktop/subject-4.csv,legacy,8 5 1 3 9,Kafkaesque Koffka,3.2.8,4,y,0,left,left,right,left,NA,774,4645,75084,774,NA,2,legacy,5,1024,2,48000,-16,experiment,4,even,3,263717,260329,261476,3550,157558,261488,NA,168700,3569,82471,265729,266506,262502,8262,265729,NA,NA,Sternberg task,28,18789,30,yes,1024
93.5483871,93.5483871,633.3225806,633.3225806,black,experiment,legacy,legacy,legacy,0,uniform,1,undefined,1,right,30,30,30,0,0,30,NA,30,0,0,30,30,30,0,30,0,NA,Thu Oct 24 08:35:26 2019,The main experiment item,yes,Sternbergtask.osexp,/Users/danielrazo0311/Desktop,no,mono,no,18,no,white,no,yes,768,legacy,18,11,/Users/danielrazo0311/Desktop/subject-4.csv,legacy,6 9 4 5 2,Kafkaesque Koffka,3.2.8,0,n,0,right,left,right,right,NA,844,4645,75084,844,NA,2,legacy,5,1024,2,48000,-16,experiment,4,even,1,269910,266522,267670,3550,157558,267682,NA,168700,3569,82471,271924,272771,268695,8262,271924,NA,NA,Sternberg task,29,19633,31,yes,1024
93.75,93.75,657.625,657.625,black,experiment,legacy,legacy,legacy,0,uniform,1,undefined,1,right,31,31,31,0,0,31,NA,31,0,0,31,31,31,0,31,0,NA,Thu Oct 24 08:35:26 2019,The main experiment item,yes,Sternbergtask.osexp,/Users/danielrazo0311/Desktop,no,mono,no,18,no,white,no,yes,768,legacy,19,11,/Users/danielrazo0311/Desktop/subject-4.csv,legacy,6 9 5,Kafkaesque Koffka,3.2.8,0,n,0,right,left,right,right,NA,1411,4645,75084,1411,NA,2,legacy,3,1024,2,48000,-16,experiment,4,even,8,276176,272789,273934,3550,157558,273947,NA,168700,3569,82471,278189,279603,274963,8262,278189,NA,NA,Sternberg task,30,21044,32,yes,1024
93.93939394,93.93939394,662.3030303,662.3030303,black,experiment,legacy,legacy,legacy,0,uniform,1,undefined,1,left,32,32,32,0,0,32,NA,32,0,0,32,32,32,0,32,0,NA,Thu Oct 24 08:35:26 2019,The main experiment item,yes,Sternbergtask.osexp,/Users/danielrazo0311/Desktop,no,mono,no,18,no,white,no,yes,768,legacy,20,11,/Users/danielrazo0311/Desktop/subject-4.csv,legacy,3 4,Kafkaesque Koffka,3.2.8,1,y,0,left,left,right,left,NA,812,4645,75084,812,NA,2,legacy,2,1024,2,48000,-16,experiment,4,even,3,283023,279625,280781,3550,157558,280792,NA,168700,3569,82471,285036,285851,281806,8262,285035,NA,NA,Sternberg task,31,21856,33,yes,1024
94.11764706,94.11764706,676.0294118,676.0294118,black,experiment,legacy,legacy,legacy,0,uniform,1,undefined,1,left,33,33,33,0,0,33,NA,33,0,0,33,33,33,0,33,0,NA,Thu Oct 24 08:35:26 2019,The main experiment item,yes,Sternbergtask.osexp,/Users/danielrazo0311/Desktop,no,mono,no,18,no,white,no,yes,768,legacy,21,11,/Users/danielrazo0311/Desktop/subject-4.csv,legacy,5 7 8 2 3 8,Kafkaesque Koffka,3.2.8,5,y,0,left,left,right,left,NA,1129,4645,75084,1129,NA,2,legacy,6,1024,2,48000,-16,experiment,4,even,3,289257,285867,287015,3550,157558,287027,NA,168700,3569,82471,291270,292402,288042,8262,291270,NA,NA,Sternberg task,32,22985,34,yes,1024
94.28571429,94.28571429,678,678,black,experiment,legacy,legacy,legacy,0,uniform,1,undefined,1,right,34,34,34,0,0,34,NA,34,0,0,34,34,34,0,34,0,NA,Thu Oct 24 08:35:26 2019,The main experiment item,yes,Sternbergtask.osexp,/Users/danielrazo0311/Desktop,no,mono,no,18,no,white,no,yes,768,legacy,22,11,/Users/danielrazo0311/Desktop/subject-4.csv,legacy,3 9 8 1 6 4,Kafkaesque Koffka,3.2.8,0,n,0,right,left,right,right,NA,745,4645,75084,745,NA,2,legacy,6,1024,2,48000,-16,experiment,4,even,7,295802,292417,293565,3550,157558,293577,NA,168700,3569,82471,297815,298562,294589,8262,297815,NA,NA,Sternberg task,33,23730,35,yes,1024
94.44444444,94.44444444,673.0277778,673.0277778,black,experiment,legacy,legacy,legacy,0,uniform,1,undefined,1,right,35,35,35,0,0,35,NA,35,0,0,35,35,35,0,35,0,NA,Thu Oct 24 08:35:26 2019,The main experiment item,yes,Sternbergtask.osexp,/Users/danielrazo0311/Desktop,no,mono,no,18,no,white,no,yes,768,legacy,23,11,/Users/danielrazo0311/Desktop/subject-4.csv,legacy,5,Kafkaesque Koffka,3.2.8,0,n,0,right,left,right,right,NA,499,4645,75084,499,NA,2,legacy,1,1024,2,48000,-16,experiment,4,even,8,301966,298578,299723,3550,157558,299735,NA,168700,3569,82471,303980,304481,300748,8262,303979,NA,NA,Sternberg task,34,24229,36,yes,1024
94.59459459,94.59459459,676.2162162,676.2162162,black,experiment,legacy,legacy,legacy,0,uniform,1,undefined,1,right,36,36,36,0,0,36,NA,36,0,0,36,36,36,0,36,0,NA,Thu Oct 24 08:35:26 2019,The main experiment item,yes,Sternbergtask.osexp,/Users/danielrazo0311/Desktop,no,mono,no,18,no,white,no,yes,768,legacy,24,11,/Users/danielrazo0311/Desktop/subject-4.csv,legacy,3 9 1,Kafkaesque Koffka,3.2.8,0,n,0,right,left,right,right,NA,791,4645,75084,791,NA,2,legacy,3,1024,2,48000,-16,experiment,4,even,7,307885,304498,305644,3550,157558,305657,NA,168700,3569,82471,309897,310690,306671,8262,309897,NA,NA,Sternberg task,35,25020,37,yes,1024
94.73684211,94.73684211,679.2631579,679.2631579,black,experiment,legacy,legacy,legacy,0,uniform,1,undefined,1,right,37,37,37,0,0,37,NA,37,0,0,37,37,37,0,37,0,NA,Thu Oct 24 08:35:26 2019,The main experiment item,yes,Sternbergtask.osexp,/Users/danielrazo0311/Desktop,no,mono,no,18,no,white,no,yes,768,legacy,25,11,/Users/danielrazo0311/Desktop/subject-4.csv,legacy,8 4 3 9,Kafkaesque Koffka,3.2.8,0,n,0,right,left,right,right,NA,792,4645,75084,792,NA,2,legacy,4,1024,2,48000,-16,experiment,4,even,5,314090,310705,311852,3550,157558,311864,NA,168700,3569,82471,316103,316899,312876,8262,316102,NA,NA,Sternberg task,36,25812,38,yes,1024
94.87179487,94.87179487,687.1538462,687.1538462,black,experiment,legacy,legacy,legacy,0,uniform,1,undefined,1,left,38,38,38,0,0,38,NA,38,0,0,38,38,38,0,38,0,NA,Thu Oct 24 08:35:26 2019,The main experiment item,yes,Sternbergtask.osexp,/Users/danielrazo0311/Desktop,no,mono,no,18,no,white,no,yes,768,legacy,26,11,/Users/danielrazo0311/Desktop/subject-4.csv,legacy,7 8 6 3 1,Kafkaesque Koffka,3.2.8,5,y,0,left,left,right,left,NA,987,4645,75084,987,NA,2,legacy,5,1024,2,48000,-16,experiment,4,even,1,320303,316915,318061,3550,157558,318073,NA,168700,3569,82471,322315,323305,319087,8262,322315,NA,NA,Sternberg task,37,26799,39,yes,1024
95,95,687.325,687.325,black,experiment,legacy,legacy,legacy,0,uniform,1,undefined,1,left,39,39,39,0,0,39,NA,39,0,0,39,39,39,0,39,0,NA,Thu Oct 24 08:35:26 2019,The main experiment item,yes,Sternbergtask.osexp,/Users/danielrazo0311/Desktop,no,mono,no,18,no,white,no,yes,768,legacy,27,11,/Users/danielrazo0311/Desktop/subject-4.csv,legacy,7 8 4 6 9 5,Kafkaesque Koffka,3.2.8,4,y,0,left,left,right,left,NA,694,4645,75084,694,NA,2,legacy,6,1024,2,48000,-16,experiment,4,even,6,326713,323322,324472,3550,157558,324484,NA,168700,3569,82471,328728,329425,325497,8262,328728,NA,NA,Sternberg task,38,27493,40,yes,1024
95.12195122,95.12195122,687.9268293,687.9268293,black,experiment,legacy,legacy,legacy,0,uniform,1,undefined,1,right,40,40,40,0,0,40,NA,40,0,0,40,40,40,0,40,0,NA,Thu Oct 24 08:35:26 2019,The main experiment item,yes,Sternbergtask.osexp,/Users/danielrazo0311/Desktop,no,mono,no,18,no,white,no,yes,768,legacy,28,11,/Users/danielrazo0311/Desktop/subject-4.csv,legacy,8 5 7 3 6,Kafkaesque Koffka,3.2.8,0,n,0,right,left,right,right,NA,712,4645,75084,712,NA,2,legacy,5,1024,2,48000,-16,experiment,4,even,9,332842,329440,330601,3550,157558,330613,NA,168700,3569,82471,334855,335570,331626,8262,334854,NA,NA,Sternberg task,39,28205,41,yes,1024
95.23809524,95.23809524,688.7380952,688.7380952,black,experiment,legacy,legacy,legacy,0,uniform,1,undefined,1,left,41,41,41,0,0,41,NA,41,0,0,41,41,41,0,41,0,NA,Thu Oct 24 08:35:26 2019,The main experiment item,yes,Sternbergtask.osexp,/Users/danielrazo0311/Desktop,no,mono,no,18,no,white,no,yes,768,legacy,29,11,/Users/danielrazo0311/Desktop/subject-4.csv,legacy,6 1 2,Kafkaesque Koffka,3.2.8,3,y,0,left,left,right,left,NA,722,4645,75084,722,NA,2,legacy,3,1024,2,48000,-16,experiment,4,even,2,338976,335586,336731,3550,157558,336743,NA,168700,3569,82471,340989,341714,337759,8262,340989,NA,NA,Sternberg task,40,28927,42,yes,1024
95.34883721,95.34883721,684.627907,684.627907,black,experiment,legacy,legacy,legacy,0,uniform,1,undefined,1,left,42,42,42,0,0,42,NA,42,0,0,42,42,42,0,42,0,NA,Thu Oct 24 08:35:26 2019,The main experiment item,yes,Sternbergtask.osexp,/Users/danielrazo0311/Desktop,no,mono,no,18,no,white,no,yes,768,legacy,30,11,/Users/danielrazo0311/Desktop/subject-4.csv,legacy,6 9 3 1,Kafkaesque Koffka,3.2.8,4,y,0,left,left,right,left,NA,512,4645,75084,512,NA,2,legacy,4,1024,2,48000,-16,experiment,4,even,1,345115,341729,342875,3550,157558,342887,NA,168700,3569,82471,347127,347641,343899,8262,347127,NA,NA,Sternberg task,41,29439,43,yes,1024
95.45454545,95.45454545,681.75,681.75,black,experiment,legacy,legacy,legacy,0,uniform,1,undefined,1,left,43,43,43,0,0,43,NA,43,0,0,43,43,43,0,43,0,NA,Thu Oct 24 08:35:26 2019,The main experiment item,yes,Sternbergtask.osexp,/Users/danielrazo0311/Desktop,no,mono,no,18,no,white,no,yes,768,legacy,31,11,/Users/danielrazo0311/Desktop/subject-4.csv,legacy,7 2 3,Kafkaesque Koffka,3.2.8,3,y,0,left,left,right,left,NA,558,4645,75084,558,NA,2,legacy,3,1024,2,48000,-16,experiment,4,even,3,351044,347657,348803,3550,157558,348815,NA,168700,3569,82471,353057,353617,349829,8262,353057,NA,NA,Sternberg task,42,29997,44,yes,1024
95.55555556,95.55555556,680.0888889,680.0888889,black,experiment,legacy,legacy,legacy,0,uniform,1,undefined,1,right,44,44,44,0,0,44,NA,44,0,0,44,44,44,0,44,0,NA,Thu Oct 24 08:35:26 2019,The main experiment item,yes,Sternbergtask.osexp,/Users/danielrazo0311/Desktop,no,mono,no,18,no,white,no,yes,768,legacy,32,11,/Users/danielrazo0311/Desktop/subject-4.csv,legacy,1 4 9 2 5,Kafkaesque Koffka,3.2.8,0,n,0,right,left,right,right,NA,607,4645,75084,607,NA,2,legacy,5,1024,2,48000,-16,experiment,4,even,7,357019,353633,354780,3550,157558,354792,NA,168700,3569,82471,359031,359641,355804,8262,359031,NA,NA,Sternberg task,43,30604,45,yes,1024
95.65217391,95.65217391,682.4782609,682.4782609,black,experiment,legacy,legacy,legacy,0,uniform,1,undefined,1,right,45,45,45,0,0,45,NA,45,0,0,45,45,45,0,45,0,NA,Thu Oct 24 08:35:26 2019,The main experiment item,yes,Sternbergtask.osexp,/Users/danielrazo0311/Desktop,no,mono,no,18,no,white,no,yes,768,legacy,33,11,/Users/danielrazo0311/Desktop/subject-4.csv,legacy,6 7 5 9,Kafkaesque Koffka,3.2.8,0,n,0,right,left,right,right,NA,790,4645,75084,790,NA,2,legacy,4,1024,2,48000,-16,experiment,4,even,2,363041,359657,360802,3550,157558,360815,NA,168700,3569,82471,365056,365849,361829,8262,365056,NA,NA,Sternberg task,44,31394,46,yes,1024
95.74468085,95.74468085,681.0212766,681.0212766,black,experiment,legacy,legacy,legacy,0,uniform,1,undefined,1,right,46,46,46,0,0,46,NA,46,0,0,46,46,46,0,46,0,NA,Thu Oct 24 08:35:26 2019,The main experiment item,yes,Sternbergtask.osexp,/Users/danielrazo0311/Desktop,no,mono,no,18,no,white,no,yes,768,legacy,34,11,/Users/danielrazo0311/Desktop/subject-4.csv,legacy,9 5 3 2 8 6,Kafkaesque Koffka,3.2.8,0,n,0,right,left,right,right,NA,614,4645,75084,614,NA,2,legacy,6,1024,2,48000,-16,experiment,4,even,7,369251,365864,367010,3550,157558,367022,NA,168700,3569,82471,371264,371881,368036,8262,371264,NA,NA,Sternberg task,45,32008,47,yes,1024
95.83333333,95.83333333,679.125,679.125,black,experiment,legacy,legacy,legacy,0,uniform,1,undefined,1,right,47,47,47,0,0,47,NA,47,0,0,47,47,47,0,47,0,NA,Thu Oct 24 08:35:26 2019,The main experiment item,yes,Sternbergtask.osexp,/Users/danielrazo0311/Desktop,no,mono,no,18,no,white,no,yes,768,legacy,35,11,/Users/danielrazo0311/Desktop/subject-4.csv,legacy,9 8 2 7 4,Kafkaesque Koffka,3.2.8,0,n,0,right,left,right,right,NA,590,4645,75084,590,NA,2,legacy,5,1024,2,48000,-16,experiment,4,even,5,375283,371897,373044,3550,157558,373056,NA,168700,3569,82471,377296,377888,374069,8262,377296,NA,NA,Sternberg task,46,32598,48,yes,1024
95.91836735,95.91836735,680.0408163,680.0408163,black,experiment,legacy,legacy,legacy,0,uniform,1,undefined,1,right,48,48,48,0,0,48,NA,48,0,0,48,48,48,0,48,0,NA,Thu Oct 24 08:35:26 2019,The main experiment item,yes,Sternbergtask.osexp,/Users/danielrazo0311/Desktop,no,mono,no,18,no,white,no,yes,768,legacy,36,11,/Users/danielrazo0311/Desktop/subject-4.csv,legacy,8 5 4 2 9 6,Kafkaesque Koffka,3.2.8,0,n,0,right,left,right,right,NA,724,4645,75084,724,NA,2,legacy,6,1024,2,48000,-16,experiment,4,even,3,381293,377905,379050,3550,157558,379063,NA,168700,3569,82471,383305,384032,380077,8262,383305,NA,NA,Sternberg task,47,33322,49,yes,1024
96,96,676.98,676.98,black,experiment,legacy,legacy,legacy,0,uniform,1,undefined,1,right,49,49,49,0,0,49,NA,49,0,0,49,49,49,0,49,0,NA,Thu Oct 24 08:35:26 2019,The main experiment item,yes,Sternbergtask.osexp,/Users/danielrazo0311/Desktop,no,mono,no,18,no,white,no,yes,768,legacy,37,11,/Users/danielrazo0311/Desktop/subject-4.csv,legacy,2 6 4 3 9,Kafkaesque Koffka,3.2.8,0,n,0,right,left,right,right,NA,527,4645,75084,527,NA,2,legacy,5,1024,2,48000,-16,experiment,4,even,1,387443,384049,385200,3550,157558,385214,NA,168700,3569,82471,389455,389985,386229,8262,389455,NA,NA,Sternberg task,48,33849,50,yes,1024
96.07843137,96.07843137,677.0980392,677.0980392,black,experiment,legacy,legacy,legacy,0,uniform,1,undefined,1,right,50,50,50,0,0,50,NA,50,0,0,50,50,50,0,50,0,NA,Thu Oct 24 08:35:26 2019,The main experiment item,yes,Sternbergtask.osexp,/Users/danielrazo0311/Desktop,no,mono,no,18,no,white,no,yes,768,legacy,38,11,/Users/danielrazo0311/Desktop/subject-4.csv,legacy,1 8 7,Kafkaesque Koffka,3.2.8,0,n,0,right,left,right,right,NA,683,4645,75084,683,NA,2,legacy,3,1024,2,48000,-16,experiment,4,even,4,393381,390001,391146,3550,157558,391158,NA,168700,3569,82471,395394,396079,392170,8262,395394,NA,NA,Sternberg task,49,34532,51,yes,1024
94.23076923,94.23076923,677.2115385,677.2115385,black,experiment,legacy,legacy,legacy,0,uniform,0,undefined,0,left,51,51,51,0,0,51,NA,51,0,0,51,51,51,0,51,0,NA,Thu Oct 24 08:35:26 2019,The main experiment item,yes,Sternbergtask.osexp,/Users/danielrazo0311/Desktop,no,mono,no,18,no,white,no,yes,768,legacy,39,11,/Users/danielrazo0311/Desktop/subject-4.csv,legacy,3 5 7 1,Kafkaesque Koffka,3.2.8,3,y,0,right,left,right,right,NA,683,4645,75084,683,NA,2,legacy,4,1024,2,48000,-16,experiment,4,even,7,399484,396095,397240,3550,157558,397252,NA,168700,3569,82471,401497,402183,398266,8262,401497,NA,NA,Sternberg task,49,35215,52,yes,1024
94.33962264,94.33962264,681.3207547,681.3207547,black,experiment,legacy,legacy,legacy,0,uniform,1,undefined,1,right,52,52,52,0,0,52,NA,52,0,0,52,52,52,0,52,0,NA,Thu Oct 24 08:35:26 2019,The main experiment item,yes,Sternbergtask.osexp,/Users/danielrazo0311/Desktop,no,mono,no,18,no,white,no,yes,768,legacy,40,11,/Users/danielrazo0311/Desktop/subject-4.csv,legacy,3 4 9 6 7 8,Kafkaesque Koffka,3.2.8,0,n,0,right,left,right,right,NA,895,4645,75084,895,NA,2,legacy,6,1024,2,48000,-16,experiment,4,even,2,405589,396095,403346,3550,157558,403359,NA,402199,3569,82471,407605,408503,404373,8262,407604,NA,NA,Sternberg task,50,36110,53,yes,1024
94.44444444,94.44444444,681.7592593,681.7592593,black,experiment,legacy,legacy,legacy,0,uniform,1,undefined,1,right,53,53,53,0,0,53,NA,53,0,0,53,53,53,0,53,0,NA,Thu Oct 24 08:35:26 2019,The main experiment item,yes,Sternbergtask.osexp,/Users/danielrazo0311/Desktop,no,mono,no,18,no,white,no,yes,768,legacy,41,11,/Users/danielrazo0311/Desktop/subject-4.csv,legacy,8 4 3 5,Kafkaesque Koffka,3.2.8,0,n,0,right,left,right,right,NA,705,4645,75084,705,NA,2,legacy,4,1024,2,48000,-16,experiment,4,even,6,411911,408519,409670,3550,157558,409682,NA,402199,3569,82471,413924,414633,410693,8262,413924,NA,NA,Sternberg task,51,36815,54,yes,1024
94.54545455,94.54545455,678.0545455,678.0545455,black,experiment,legacy,legacy,legacy,0,uniform,1,undefined,1,right,54,54,54,0,0,54,NA,54,0,0,54,54,54,0,54,0,NA,Thu Oct 24 08:35:26 2019,The main experiment item,yes,Sternbergtask.osexp,/Users/danielrazo0311/Desktop,no,mono,no,18,no,white,no,yes,768,legacy,42,11,/Users/danielrazo0311/Desktop/subject-4.csv,legacy,6 8,Kafkaesque Koffka,3.2.8,0,n,0,right,left,right,right,NA,478,4645,75084,478,NA,2,legacy,2,1024,2,48000,-16,experiment,4,even,9,418038,414648,415794,3550,157558,415806,NA,402199,3569,82471,420052,420534,416822,8262,420051,NA,NA,Sternberg task,52,37293,55,yes,1024
94.64285714,94.64285714,678.2678571,678.2678571,black,experiment,legacy,legacy,legacy,0,uniform,1,undefined,1,left,55,55,55,0,0,55,NA,55,0,0,55,55,55,0,55,0,NA,Thu Oct 24 08:35:26 2019,The main experiment item,yes,Sternbergtask.osexp,/Users/danielrazo0311/Desktop,no,mono,no,18,no,white,no,yes,768,legacy,43,11,/Users/danielrazo0311/Desktop/subject-4.csv,legacy,9 5 3 8 4,Kafkaesque Koffka,3.2.8,1,y,0,left,left,right,left,NA,690,4645,75084,690,NA,2,legacy,5,1024,2,48000,-16,experiment,4,even,9,423943,420553,421703,3550,157558,421715,NA,402199,3569,82471,425955,426648,422728,8262,425955,NA,NA,Sternberg task,53,37983,56,yes,1024
94.73684211,94.73684211,678.8070175,678.8070175,black,experiment,legacy,legacy,legacy,0,uniform,1,undefined,1,left,56,56,56,0,0,56,NA,56,0,0,56,56,56,0,56,0,NA,Thu Oct 24 08:35:26 2019,The main experiment item,yes,Sternbergtask.osexp,/Users/danielrazo0311/Desktop,no,mono,no,18,no,white,no,yes,768,legacy,44,11,/Users/danielrazo0311/Desktop/subject-4.csv,legacy,5 2 9 6 1 7,Kafkaesque Koffka,3.2.8,3,y,0,left,left,right,left,NA,709,4645,75084,709,NA,2,legacy,6,1024,2,48000,-16,experiment,4,even,9,430051,426664,427811,3550,157558,427824,NA,402199,3569,82471,432064,432776,428836,8262,432064,NA,NA,Sternberg task,54,38692,57,yes,1024
94.82758621,94.82758621,676.8965517,676.8965517,black,experiment,legacy,legacy,legacy,0,uniform,1,undefined,1,right,57,57,57,0,0,57,NA,57,0,0,57,57,57,0,57,0,NA,Thu Oct 24 08:35:26 2019,The main experiment item,yes,Sternbergtask.osexp,/Users/danielrazo0311/Desktop,no,mono,no,18,no,white,no,yes,768,legacy,45,11,/Users/danielrazo0311/Desktop/subject-4.csv,legacy,7 8 6 1,Kafkaesque Koffka,3.2.8,0,n,0,right,left,right,right,NA,568,4645,75084,568,NA,2,legacy,4,1024,2,48000,-16,experiment,4,even,3,436177,432791,433937,3550,157558,433949,NA,402199,3569,82471,438189,438759,434961,8262,438189,NA,NA,Sternberg task,55,39260,58,yes,1024
94.91525424,94.91525424,678.0338983,678.0338983,black,experiment,legacy,legacy,legacy,0,uniform,1,undefined,1,left,58,58,58,0,0,58,NA,58,0,0,58,58,58,0,58,0,NA,Thu Oct 24 08:35:26 2019,The main experiment item,yes,Sternbergtask.osexp,/Users/danielrazo0311/Desktop,no,mono,no,18,no,white,no,yes,768,legacy,46,11,/Users/danielrazo0311/Desktop/subject-4.csv,legacy,3 5 9 6 2 4,Kafkaesque Koffka,3.2.8,1,y,0,left,left,right,left,NA,744,4645,75084,744,NA,2,legacy,6,1024,2,48000,-16,experiment,4,even,3,442168,438775,439920,3550,157558,439939,NA,402199,3569,82471,444180,444927,440953,8262,444180,NA,NA,Sternberg task,56,40004,59,yes,1024
95,95,679.5166667,679.5166667,black,experiment,legacy,legacy,legacy,0,uniform,1,undefined,1,left,59,59,59,0,0,59,NA,59,0,0,59,59,59,0,59,0,NA,Thu Oct 24 08:35:26 2019,The main experiment item,yes,Sternbergtask.osexp,/Users/danielrazo0311/Desktop,no,mono,no,18,no,white,no,yes,768,legacy,47,11,/Users/danielrazo0311/Desktop/subject-4.csv,legacy,3 2 1 4 7,Kafkaesque Koffka,3.2.8,2,y,0,left,left,right,left,NA,767,4645,75084,767,NA,2,legacy,5,1024,2,48000,-16,experiment,4,even,2,448327,444944,446089,3550,157558,446101,NA,402199,3569,82471,450340,451110,447114,8262,450340,NA,NA,Sternberg task,57,40771,60,yes,1024
95.08196721,95.08196721,677.557377,677.557377,black,experiment,legacy,legacy,legacy,0,uniform,1,undefined,1,left,60,60,60,0,0,60,NA,60,0,0,60,60,60,0,60,0,NA,Thu Oct 24 08:35:26 2019,The main experiment item,yes,Sternbergtask.osexp,/Users/danielrazo0311/Desktop,no,mono,no,18,no,white,no,yes,768,legacy,48,11,/Users/danielrazo0311/Desktop/subject-4.csv,legacy,4 6 2 5 1,Kafkaesque Koffka,3.2.8,5,y,0,left,left,right,left,NA,560,4645,75084,560,NA,2,legacy,5,1024,2,48000,-16,experiment,4,even,1,454514,451127,452274,3550,157558,452286,NA,402199,3569,82471,456531,457094,453300,8262,456531,NA,NA,Sternberg task,58,41331,61,yes,1024
93.5483871,93.5483871,668.9516129,668.9516129,black,experiment,legacy,legacy,legacy,0,uniform,0,undefined,0,left,61,61,61,0,0,61,NA,61,0,0,61,61,61,0,61,0,NA,Thu Oct 24 08:35:26 2019,The main experiment item,yes,Sternbergtask.osexp,/Users/danielrazo0311/Desktop,no,mono,no,18,no,white,no,yes,768,legacy,49,11,/Users/danielrazo0311/Desktop/subject-4.csv,legacy,8,Kafkaesque Koffka,3.2.8,1,y,0,right,left,right,right,NA,144,4645,75084,144,NA,2,legacy,1,1024,2,48000,-16,experiment,4,even,8,460495,457109,458253,3550,157558,458265,NA,402199,3569,82471,462508,462655,459278,8262,462508,NA,NA,Sternberg task,58,41475,62,yes,1024
93.65079365,93.65079365,670.1111111,670.1111111,black,experiment,legacy,legacy,legacy,0,uniform,1,undefined,1,right,62,62,62,0,0,62,NA,62,0,0,62,62,62,0,62,0,NA,Thu Oct 24 08:35:26 2019,The main experiment item,yes,Sternbergtask.osexp,/Users/danielrazo0311/Desktop,no,mono,no,18,no,white,no,yes,768,legacy,50,11,/Users/danielrazo0311/Desktop/subject-4.csv,legacy,6 3 1 7 9 8,Kafkaesque Koffka,3.2.8,0,n,0,right,left,right,right,NA,742,4645,75084,742,NA,2,legacy,6,1024,2,48000,-16,experiment,4,even,4,466057,457109,463816,3550,157558,463828,NA,462670,3569,82471,468070,468815,464842,8262,468070,NA,NA,Sternberg task,59,42217,63,yes,1024
93.75,93.75,667.625,667.625,black,experiment,legacy,legacy,legacy,0,uniform,1,undefined,1,right,63,63,63,0,0,63,NA,63,0,0,63,63,63,0,63,0,NA,Thu Oct 24 08:35:26 2019,The main experiment item,yes,Sternbergtask.osexp,/Users/danielrazo0311/Desktop,no,mono,no,18,no,white,no,yes,768,legacy,51,11,/Users/danielrazo0311/Desktop/subject-4.csv,legacy,8 9,Kafkaesque Koffka,3.2.8,0,n,0,right,left,right,right,NA,511,4645,75084,511,NA,2,legacy,2,1024,2,48000,-16,experiment,4,even,5,472215,468830,469976,3550,157558,469988,NA,462670,3569,82471,474229,474743,471000,8262,474229,NA,NA,Sternberg task,60,42728,64,yes,1024
93.84615385,93.84615385,665.7846154,665.7846154,black,experiment,legacy,legacy,legacy,0,uniform,1,undefined,1,right,64,64,64,0,0,64,NA,64,0,0,64,64,64,0,64,0,NA,Thu Oct 24 08:35:26 2019,The main experiment item,yes,Sternbergtask.osexp,/Users/danielrazo0311/Desktop,no,mono,no,18,no,white,no,yes,768,legacy,52,11,/Users/danielrazo0311/Desktop/subject-4.csv,legacy,6 8 4,Kafkaesque Koffka,3.2.8,0,n,0,right,left,right,right,NA,548,4645,75084,548,NA,2,legacy,3,1024,2,48000,-16,experiment,4,even,1,478155,474768,475915,3550,157558,475927,NA,462670,3569,82471,480168,480719,476940,8262,480168,NA,NA,Sternberg task,61,43276,65,yes,1024
93.93939394,93.93939394,669.469697,669.469697,black,experiment,legacy,legacy,legacy,0,uniform,1,undefined,1,left,65,65,65,0,0,65,NA,65,0,0,65,65,65,0,65,0,NA,Thu Oct 24 08:35:26 2019,The main experiment item,yes,Sternbergtask.osexp,/Users/danielrazo0311/Desktop,no,mono,no,18,no,white,no,yes,768,legacy,53,11,/Users/danielrazo0311/Desktop/subject-4.csv,legacy,2 6 1 7 4,Kafkaesque Koffka,3.2.8,2,y,0,left,left,right,left,NA,909,4645,75084,909,NA,2,legacy,5,1024,2,48000,-16,experiment,4,even,6,484120,480737,481883,3550,157558,481895,NA,462670,3569,82471,486134,487047,482908,8262,486134,NA,NA,Sternberg task,62,44185,66,yes,1024
94.02985075,94.02985075,668.5970149,668.5970149,black,experiment,legacy,legacy,legacy,0,uniform,1,undefined,1,left,66,66,66,0,0,66,NA,66,0,0,66,66,66,0,66,0,NA,Thu Oct 24 08:35:26 2019,The main experiment item,yes,Sternbergtask.osexp,/Users/danielrazo0311/Desktop,no,mono,no,18,no,white,no,yes,768,legacy,54,11,/Users/danielrazo0311/Desktop/subject-4.csv,legacy,4 1 5,Kafkaesque Koffka,3.2.8,2,y,0,left,left,right,left,NA,611,4645,75084,611,NA,2,legacy,3,1024,2,48000,-16,experiment,4,even,1,490448,487062,488208,3550,157558,488220,NA,462670,3569,82471,492463,493077,489233,8262,492462,NA,NA,Sternberg task,63,44796,67,yes,1024
94.11764706,94.11764706,668.6911765,668.6911765,black,experiment,legacy,legacy,legacy,0,uniform,1,undefined,1,right,67,67,67,0,0,67,NA,67,0,0,67,67,67,0,67,0,NA,Thu Oct 24 08:35:26 2019,The main experiment item,yes,Sternbergtask.osexp,/Users/danielrazo0311/Desktop,no,mono,no,18,no,white,no,yes,768,legacy,55,11,/Users/danielrazo0311/Desktop/subject-4.csv,legacy,6 9 7 3 8 2,Kafkaesque Koffka,3.2.8,0,n,0,right,left,right,right,NA,675,4645,75084,675,NA,2,legacy,6,1024,2,48000,-16,experiment,4,even,5,496481,493092,494240,3550,157558,494252,NA,462670,3569,82471,498495,499173,495266,8262,498495,NA,NA,Sternberg task,64,45471,68,yes,1024
94.20289855,94.20289855,671.4492754,671.4492754,black,experiment,legacy,legacy,legacy,0,uniform,1,undefined,1,left,68,68,68,0,0,68,NA,68,0,0,68,68,68,0,68,0,NA,Thu Oct 24 08:35:26 2019,The main experiment item,yes,Sternbergtask.osexp,/Users/danielrazo0311/Desktop,no,mono,no,18,no,white,no,yes,768,legacy,56,11,/Users/danielrazo0311/Desktop/subject-4.csv,legacy,4 3 2 5 8,Kafkaesque Koffka,3.2.8,2,y,0,left,left,right,left,NA,859,4645,75084,859,NA,2,legacy,5,1024,2,48000,-16,experiment,4,even,3,502578,499189,500335,3550,157558,500347,NA,462670,3569,82471,504591,505454,501362,8262,504591,NA,NA,Sternberg task,65,46330,69,yes,1024
94.28571429,94.28571429,670.4,670.4,black,experiment,legacy,legacy,legacy,0,uniform,1,undefined,1,left,69,69,69,0,0,69,NA,69,0,0,69,69,69,0,69,0,NA,Thu Oct 24 08:35:26 2019,The main experiment item,yes,Sternbergtask.osexp,/Users/danielrazo0311/Desktop,no,mono,no,18,no,white,no,yes,768,legacy,57,11,/Users/danielrazo0311/Desktop/subject-4.csv,legacy,8 1 6,Kafkaesque Koffka,3.2.8,3,y,0,left,left,right,left,NA,598,4645,75084,598,NA,2,legacy,3,1024,2,48000,-16,experiment,4,even,6,508856,505470,506616,3550,157558,506628,NA,462670,3569,82471,510868,511469,507643,8262,510868,NA,NA,Sternberg task,66,46928,70,yes,1024
94.36619718,94.36619718,669.4507042,669.4507042,black,experiment,legacy,legacy,legacy,0,uniform,1,undefined,1,right,70,70,70,0,0,70,NA,70,0,0,70,70,70,0,70,0,NA,Thu Oct 24 08:35:26 2019,The main experiment item,yes,Sternbergtask.osexp,/Users/danielrazo0311/Desktop,no,mono,no,18,no,white,no,yes,768,legacy,58,11,/Users/danielrazo0311/Desktop/subject-4.csv,legacy,4 8 1 2,Kafkaesque Koffka,3.2.8,0,n,0,right,left,right,right,NA,603,4645,75084,603,NA,2,legacy,4,1024,2,48000,-16,experiment,4,even,7,514875,511484,512632,3550,157558,512644,NA,462670,3569,82471,516887,517493,513657,8262,516887,NA,NA,Sternberg task,67,47531,71,yes,1024
94.44444444,94.44444444,669.1388889,669.1388889,black,experiment,legacy,legacy,legacy,0,uniform,1,undefined,1,left,71,71,71,0,0,71,NA,71,0,0,71,71,71,0,71,0,NA,Thu Oct 24 08:35:26 2019,The main experiment item,yes,Sternbergtask.osexp,/Users/danielrazo0311/Desktop,no,mono,no,18,no,white,no,yes,768,legacy,59,11,/Users/danielrazo0311/Desktop/subject-4.csv,legacy,9 3 8 2 1 4,Kafkaesque Koffka,3.2.8,3,y,0,left,left,right,left,NA,647,4645,75084,647,NA,2,legacy,6,1024,2,48000,-16,experiment,4,even,8,520902,517510,518663,3550,157558,518675,NA,462670,3569,82471,522916,523566,519688,8262,522916,NA,NA,Sternberg task,68,48178,72,yes,1024
94.52054795,94.52054795,671.4246575,671.4246575,black,experiment,legacy,legacy,legacy,0,uniform,1,undefined,1,left,72,72,72,0,0,72,NA,72,0,0,72,72,72,0,72,0,NA,Thu Oct 24 08:35:26 2019,The main experiment item,yes,Sternbergtask.osexp,/Users/danielrazo0311/Desktop,no,mono,no,18,no,white,no,yes,768,legacy,60,11,/Users/danielrazo0311/Desktop/subject-4.csv,legacy,7 4 2 6 3 5,Kafkaesque Koffka,3.2.8,6,y,0,left,left,right,left,NA,836,4645,75084,836,NA,2,legacy,6,1024,2,48000,-16,experiment,4,even,5,526970,523583,524732,3550,157558,524744,NA,462670,3569,82471,528982,529822,525756,8262,528982,NA,NA,Sternberg task,69,49014,73,yes,1024
94.59459459,94.59459459,670.5675676,670.5675676,black,experiment,legacy,legacy,legacy,0,uniform,1,undefined,1,left,73,73,73,0,0,73,NA,73,0,0,73,73,73,0,73,0,NA,Thu Oct 24 08:35:26 2019,The main experiment item,yes,Sternbergtask.osexp,/Users/danielrazo0311/Desktop,no,mono,no,18,no,white,no,yes,768,legacy,61,11,/Users/danielrazo0311/Desktop/subject-4.csv,legacy,4 6 5 8,Kafkaesque Koffka,3.2.8,1,y,0,left,left,right,left,NA,608,4645,75084,608,NA,2,legacy,4,1024,2,48000,-16,experiment,4,even,4,533229,529841,530987,3550,157558,531000,NA,462670,3569,82471,535242,535854,532013,8262,535242,NA,NA,Sternberg task,70,49622,74,yes,1024
94.66666667,94.66666667,672.6533333,672.6533333,black,experiment,legacy,legacy,legacy,0,uniform,1,undefined,1,right,74,74,74,0,0,74,NA,74,0,0,74,74,74,0,74,0,NA,Thu Oct 24 08:35:26 2019,The main experiment item,yes,Sternbergtask.osexp,/Users/danielrazo0311/Desktop,no,mono,no,18,no,white,no,yes,768,legacy,62,11,/Users/danielrazo0311/Desktop/subject-4.csv,legacy,1 5 3 2 8,Kafkaesque Koffka,3.2.8,0,n,0,right,left,right,right,NA,827,4645,75084,827,NA,2,legacy,5,1024,2,48000,-16,experiment,4,even,4,539258,535869,537016,3550,157558,537028,NA,462670,3569,82471,541270,542101,538042,8262,541270,NA,NA,Sternberg task,71,50449,75,yes,1024
94.73684211,94.73684211,672.2763158,672.2763158,black,experiment,legacy,legacy,legacy,0,uniform,1,undefined,1,right,75,75,75,0,0,75,NA,75,0,0,75,75,75,0,75,0,NA,Thu Oct 24 08:35:26 2019,The main experiment item,yes,Sternbergtask.osexp,/Users/danielrazo0311/Desktop,no,mono,no,18,no,white,no,yes,768,legacy,63,11,/Users/danielrazo0311/Desktop/subject-4.csv,legacy,1 7 5 2 9,Kafkaesque Koffka,3.2.8,0,n,0,right,left,right,right,NA,644,4645,75084,644,NA,2,legacy,5,1024,2,48000,-16,experiment,4,even,3,545504,542119,543267,3550,157558,543279,NA,462670,3569,82471,547517,548165,544293,8262,547517,NA,NA,Sternberg task,72,51093,76,yes,1024
94.80519481,94.80519481,674.1948052,674.1948052,black,experiment,legacy,legacy,legacy,0,uniform,1,undefined,1,right,76,76,76,0,0,76,NA,76,0,0,76,76,76,0,76,0,NA,Thu Oct 24 08:35:26 2019,The main experiment item,yes,Sternbergtask.osexp,/Users/danielrazo0311/Desktop,no,mono,no,18,no,white,no,yes,768,legacy,64,11,/Users/danielrazo0311/Desktop/subject-4.csv,legacy,1 6 4,Kafkaesque Koffka,3.2.8,0,n,0,right,left,right,right,NA,820,4645,75084,820,NA,2,legacy,3,1024,2,48000,-16,experiment,4,even,7,551569,548181,549328,3550,157558,549340,NA,462670,3569,82471,553581,554405,550354,8262,553581,NA,NA,Sternberg task,73,51913,77,yes,1024
94.87179487,94.87179487,679,679,black,experiment,legacy,legacy,legacy,0,uniform,1,undefined,1,left,77,77,77,0,0,77,NA,77,0,0,77,77,77,0,77,0,NA,Thu Oct 24 08:35:26 2019,The main experiment item,yes,Sternbergtask.osexp,/Users/danielrazo0311/Desktop,no,mono,no,18,no,white,no,yes,768,legacy,65,11,/Users/danielrazo0311/Desktop/subject-4.csv,legacy,8 9 5 7 1 6,Kafkaesque Koffka,3.2.8,4,y,0,left,left,right,left,NA,1049,4645,75084,1049,NA,2,legacy,6,1024,2,48000,-16,experiment,4,even,7,557820,554424,555581,3550,157558,555595,NA,462670,3569,82471,559833,560885,556607,8262,559833,NA,NA,Sternberg task,74,52962,78,yes,1024
94.93670886,94.93670886,679.6835443,679.6835443,black,experiment,legacy,legacy,legacy,0,uniform,1,undefined,1,left,78,78,78,0,0,78,NA,78,0,0,78,78,78,0,78,0,NA,Thu Oct 24 08:35:26 2019,The main experiment item,yes,Sternbergtask.osexp,/Users/danielrazo0311/Desktop,no,mono,no,18,no,white,no,yes,768,legacy,66,11,/Users/danielrazo0311/Desktop/subject-4.csv,legacy,4 1 8 7 5,Kafkaesque Koffka,3.2.8,3,y,0,left,left,right,left,NA,733,4645,75084,733,NA,2,legacy,5,1024,2,48000,-16,experiment,4,even,8,564287,560900,562048,3550,157558,562060,NA,462670,3569,82471,566300,567036,563073,8262,566300,NA,NA,Sternberg task,75,53695,79,yes,1024
95,95,679.1875,679.1875,black,experiment,legacy,legacy,legacy,0,uniform,1,undefined,1,right,79,79,79,0,0,79,NA,79,0,0,79,79,79,0,79,0,NA,Thu Oct 24 08:35:26 2019,The main experiment item,yes,Sternbergtask.osexp,/Users/danielrazo0311/Desktop,no,mono,no,18,no,white,no,yes,768,legacy,67,11,/Users/danielrazo0311/Desktop/subject-4.csv,legacy,4 2 6 9,Kafkaesque Koffka,3.2.8,0,n,0,right,left,right,right,NA,640,4645,75084,640,NA,2,legacy,4,1024,2,48000,-16,experiment,4,even,7,570436,567052,568198,3550,157558,568210,NA,462670,3569,82471,572448,573091,569222,8262,572448,NA,NA,Sternberg task,76,54335,80,yes,1024
95.0617284,95.0617284,677.2469136,677.2469136,black,experiment,legacy,legacy,legacy,0,uniform,1,undefined,1,left,80,80,80,0,0,80,NA,80,0,0,80,80,80,0,80,0,NA,Thu Oct 24 08:35:26 2019,The main experiment item,yes,Sternbergtask.osexp,/Users/danielrazo0311/Desktop,no,mono,no,18,no,white,no,yes,768,legacy,68,11,/Users/danielrazo0311/Desktop/subject-4.csv,legacy,3 9 6 2,Kafkaesque Koffka,3.2.8,4,y,0,left,left,right,left,NA,522,4645,75084,522,NA,2,legacy,4,1024,2,48000,-16,experiment,4,even,2,576491,573108,574253,3550,157558,574265,NA,462670,3569,82471,578503,579029,575279,8262,578503,NA,NA,Sternberg task,77,54857,81,yes,1024
95.12195122,95.12195122,676.0731707,676.0731707,black,experiment,legacy,legacy,legacy,0,uniform,1,undefined,1,right,81,81,81,0,0,81,NA,81,0,0,81,81,81,0,81,0,NA,Thu Oct 24 08:35:26 2019,The main experiment item,yes,Sternbergtask.osexp,/Users/danielrazo0311/Desktop,no,mono,no,18,no,white,no,yes,768,legacy,69,11,/Users/danielrazo0311/Desktop/subject-4.csv,legacy,6 2 9 3 8 4,Kafkaesque Koffka,3.2.8,0,n,0,right,left,right,right,NA,581,4645,75084,581,NA,2,legacy,6,1024,2,48000,-16,experiment,4,even,1,582454,579050,580213,3550,157558,580226,NA,462670,3569,82471,584467,585053,581238,8262,584466,NA,NA,Sternberg task,78,55438,82,yes,1024
95.18072289,95.18072289,674.8915663,674.8915663,black,experiment,legacy,legacy,legacy,0,uniform,1,undefined,1,right,82,82,82,0,0,82,NA,82,0,0,82,82,82,0,82,0,NA,Thu Oct 24 08:35:26 2019,The main experiment item,yes,Sternbergtask.osexp,/Users/danielrazo0311/Desktop,no,mono,no,18,no,white,no,yes,768,legacy,70,11,/Users/danielrazo0311/Desktop/subject-4.csv,legacy,2 3 8 5 6 7,Kafkaesque Koffka,3.2.8,0,n,0,right,left,right,right,NA,578,4645,75084,578,NA,2,legacy,6,1024,2,48000,-16,experiment,4,even,1,588457,585071,586219,3550,157558,586231,NA,462670,3569,82471,590470,591051,587243,8262,590470,NA,NA,Sternberg task,79,56016,83,yes,1024
95.23809524,95.23809524,680.1785714,680.1785714,black,experiment,legacy,legacy,legacy,0,uniform,1,undefined,1,left,83,83,83,0,0,83,NA,83,0,0,83,83,83,0,83,0,NA,Thu Oct 24 08:35:26 2019,The main experiment item,yes,Sternbergtask.osexp,/Users/danielrazo0311/Desktop,no,mono,no,18,no,white,no,yes,768,legacy,71,11,/Users/danielrazo0311/Desktop/subject-4.csv,legacy,6 8 9 3 4 9,Kafkaesque Koffka,3.2.8,5,y,0,left,left,right,left,NA,1119,4645,75084,1119,NA,2,legacy,6,1024,2,48000,-16,experiment,4,even,4,594453,591067,592212,3550,157558,592224,NA,462670,3569,82471,596466,597589,593238,8262,596466,NA,NA,Sternberg task,80,57135,84,yes,1024
95.29411765,95.29411765,679.9647059,679.9647059,black,experiment,legacy,legacy,legacy,0,uniform,1,undefined,1,left,84,84,84,0,0,84,NA,84,0,0,84,84,84,0,84,0,NA,Thu Oct 24 08:35:26 2019,The main experiment item,yes,Sternbergtask.osexp,/Users/danielrazo0311/Desktop,no,mono,no,18,no,white,no,yes,768,legacy,72,11,/Users/danielrazo0311/Desktop/subject-4.csv,legacy,9 8 4,Kafkaesque Koffka,3.2.8,1,y,0,left,left,right,left,NA,662,4645,75084,662,NA,2,legacy,3,1024,2,48000,-16,experiment,4,even,9,600991,597605,598750,3550,157558,598762,NA,462670,3569,82471,603003,603668,599774,8262,603003,NA,NA,Sternberg task,81,57797,85,yes,1024
95.34883721,95.34883721,682.372093,682.372093,black,experiment,legacy,legacy,legacy,0,uniform,1,undefined,1,left,85,85,85,0,0,85,NA,85,0,0,85,85,85,0,85,0,NA,Thu Oct 24 08:35:26 2019,The main experiment item,yes,Sternbergtask.osexp,/Users/danielrazo0311/Desktop,no,mono,no,18,no,white,no,yes,768,legacy,73,11,/Users/danielrazo0311/Desktop/subject-4.csv,legacy,6 9 7 4 5 1,Kafkaesque Koffka,3.2.8,2,y,0,left,left,right,left,NA,887,4645,75084,887,NA,2,legacy,6,1024,2,48000,-16,experiment,4,even,9,607069,603683,604829,3550,157558,604841,NA,462670,3569,82471,609082,609973,605854,8262,609082,NA,NA,Sternberg task,82,58684,86,yes,1024
94.25287356,94.25287356,682.0344828,682.0344828,black,experiment,legacy,legacy,legacy,0,uniform,0,undefined,0,right,86,86,86,0,0,86,NA,86,0,0,86,86,86,0,86,0,NA,Thu Oct 24 08:35:26 2019,The main experiment item,yes,Sternbergtask.osexp,/Users/danielrazo0311/Desktop,no,mono,no,18,no,white,no,yes,768,legacy,74,11,/Users/danielrazo0311/Desktop/subject-4.csv,legacy,2 8 7 9 5 3,Kafkaesque Koffka,3.2.8,0,n,0,left,left,right,left,NA,653,4645,75084,653,NA,2,legacy,6,1024,2,48000,-16,experiment,4,even,6,613383,609996,611142,3550,157558,611154,NA,462670,3569,82471,615395,616051,612167,8262,615395,NA,NA,Sternberg task,82,59337,87,yes,1024
94.31818182,94.31818182,683.0568182,683.0568182,black,experiment,legacy,legacy,legacy,0,uniform,1,undefined,1,right,87,87,87,0,0,87,NA,87,0,0,87,87,87,0,87,0,NA,Thu Oct 24 08:35:26 2019,The main experiment item,yes,Sternbergtask.osexp,/Users/danielrazo0311/Desktop,no,mono,no,18,no,white,no,yes,768,legacy,75,11,/Users/danielrazo0311/Desktop/subject-4.csv,legacy,2 8 6 3 1,Kafkaesque Koffka,3.2.8,0,n,0,right,left,right,right,NA,772,4645,75084,772,NA,2,legacy,5,1024,2,48000,-16,experiment,4,even,7,619462,609996,617217,3550,157558,617233,NA,616067,3569,82471,621475,622252,618246,8262,621475,NA,NA,Sternberg task,83,60109,88,yes,1024
94.38202247,94.38202247,682.3595506,682.3595506,black,experiment,legacy,legacy,legacy,0,uniform,1,undefined,1,left,88,88,88,0,0,88,NA,88,0,0,88,88,88,0,88,0,NA,Thu Oct 24 08:35:26 2019,The main experiment item,yes,Sternbergtask.osexp,/Users/danielrazo0311/Desktop,no,mono,no,18,no,white,no,yes,768,legacy,76,11,/Users/danielrazo0311/Desktop/subject-4.csv,legacy,8 3,Kafkaesque Koffka,3.2.8,2,y,0,left,left,right,left,NA,621,4645,75084,621,NA,2,legacy,2,1024,2,48000,-16,experiment,4,even,3,625654,622268,623412,3550,157558,623424,NA,616067,3569,82471,627666,628291,624437,8262,627666,NA,NA,Sternberg task,84,60730,89,yes,1024
94.44444444,94.44444444,681.4888889,681.4888889,black,experiment,legacy,legacy,legacy,0,uniform,1,undefined,1,right,89,89,89,0,0,89,NA,89,0,0,89,89,89,0,89,0,NA,Thu Oct 24 08:35:26 2019,The main experiment item,yes,Sternbergtask.osexp,/Users/danielrazo0311/Desktop,no,mono,no,18,no,white,no,yes,768,legacy,77,11,/Users/danielrazo0311/Desktop/subject-4.csv,legacy,7 1 5 6 3,Kafkaesque Koffka,3.2.8,0,n,0,right,left,right,right,NA,604,4645,75084,604,NA,2,legacy,5,1024,2,48000,-16,experiment,4,even,8,631694,628306,629454,3550,157558,629466,NA,616067,3569,82471,633707,634315,630479,8262,633707,NA,NA,Sternberg task,85,61334,90,yes,1024
94.50549451,94.50549451,682.8351648,682.8351648,black,experiment,legacy,legacy,legacy,0,uniform,1,undefined,1,right,90,90,90,0,0,90,NA,90,0,0,90,90,90,0,90,0,NA,Thu Oct 24 08:35:26 2019,The main experiment item,yes,Sternbergtask.osexp,/Users/danielrazo0311/Desktop,no,mono,no,18,no,white,no,yes,768,legacy,78,11,/Users/danielrazo0311/Desktop/subject-4.csv,legacy,5 3 8 7 2 4,Kafkaesque Koffka,3.2.8,0,n,0,right,left,right,right,NA,804,4645,75084,804,NA,2,legacy,6,1024,2,48000,-16,experiment,4,even,9,637719,634331,635478,3550,157558,635490,NA,616067,3569,82471,639732,640540,636504,8262,639732,NA,NA,Sternberg task,86,62138,91,yes,1024
94.56521739,94.56521739,683.3804348,683.3804348,black,experiment,legacy,legacy,legacy,0,uniform,1,undefined,1,right,91,91,91,0,0,91,NA,91,0,0,91,91,91,0,91,0,NA,Thu Oct 24 08:35:26 2019,The main experiment item,yes,Sternbergtask.osexp,/Users/danielrazo0311/Desktop,no,mono,no,18,no,white,no,yes,768,legacy,79,11,/Users/danielrazo0311/Desktop/subject-4.csv,legacy,7 9 1 6,Kafkaesque Koffka,3.2.8,0,n,0,right,left,right,right,NA,733,4645,75084,733,NA,2,legacy,4,1024,2,48000,-16,experiment,4,even,4,643941,640555,641700,3550,157558,641712,NA,616067,3569,82471,645955,646691,642724,8262,645955,NA,NA,Sternberg task,87,62871,92,yes,1024
94.62365591,94.62365591,683.0645161,683.0645161,black,experiment,legacy,legacy,legacy,0,uniform,1,undefined,1,left,92,92,92,0,0,92,NA,92,0,0,92,92,92,0,92,0,NA,Thu Oct 24 08:35:26 2019,The main experiment item,yes,Sternbergtask.osexp,/Users/danielrazo0311/Desktop,no,mono,no,18,no,white,no,yes,768,legacy,80,11,/Users/danielrazo0311/Desktop/subject-4.csv,legacy,3 5 4 7,Kafkaesque Koffka,3.2.8,1,y,0,left,left,right,left,NA,654,4645,75084,654,NA,2,legacy,4,1024,2,48000,-16,experiment,4,even,3,650094,646707,647854,3550,157558,647866,NA,616067,3569,82471,652106,652763,648878,8262,652106,NA,NA,Sternberg task,88,63525,93,yes,1024
94.68085106,94.68085106,682.212766,682.212766,black,experiment,legacy,legacy,legacy,0,uniform,1,undefined,1,left,93,93,93,0,0,93,NA,93,0,0,93,93,93,0,93,0,NA,Thu Oct 24 08:35:26 2019,The main experiment item,yes,Sternbergtask.osexp,/Users/danielrazo0311/Desktop,no,mono,no,18,no,white,no,yes,768,legacy,81,11,/Users/danielrazo0311/Desktop/subject-4.csv,legacy,2 5 4 8 7,Kafkaesque Koffka,3.2.8,3,y,0,left,left,right,left,NA,603,4645,75084,603,NA,2,legacy,5,1024,2,48000,-16,experiment,4,even,4,656167,652779,653927,3550,157558,653939,NA,616067,3569,82471,658180,658787,654952,8262,658180,NA,NA,Sternberg task,89,64128,94,yes,1024
94.73684211,94.73684211,681.3789474,681.3789474,black,experiment,legacy,legacy,legacy,0,uniform,1,undefined,1,left,94,94,94,0,0,94,NA,94,0,0,94,94,94,0,94,0,NA,Thu Oct 24 08:35:26 2019,The main experiment item,yes,Sternbergtask.osexp,/Users/danielrazo0311/Desktop,no,mono,no,18,no,white,no,yes,768,legacy,82,11,/Users/danielrazo0311/Desktop/subject-4.csv,legacy,1 4 9 3 2 5,Kafkaesque Koffka,3.2.8,3,y,0,left,left,right,left,NA,603,4645,75084,603,NA,2,legacy,6,1024,2,48000,-16,experiment,4,even,9,662199,658803,659960,3550,157558,659972,NA,616067,3569,82471,664212,664819,660983,8262,664211,NA,NA,Sternberg task,90,64731,95,yes,1024
94.79166667,94.79166667,680.3541667,680.3541667,black,experiment,legacy,legacy,legacy,0,uniform,1,undefined,1,right,95,95,95,0,0,95,NA,95,0,0,95,95,95,0,95,0,NA,Thu Oct 24 08:35:26 2019,The main experiment item,yes,Sternbergtask.osexp,/Users/danielrazo0311/Desktop,no,mono,no,18,no,white,no,yes,768,legacy,83,11,/Users/danielrazo0311/Desktop/subject-4.csv,legacy,2 8 9,Kafkaesque Koffka,3.2.8,0,n,0,right,left,right,right,NA,583,4645,75084,583,NA,2,legacy,3,1024,2,48000,-16,experiment,4,even,6,668218,664835,665981,3550,157558,665993,NA,616067,3569,82471,670232,670819,667006,8262,670232,NA,NA,Sternberg task,91,65314,96,yes,1024
94.84536082,94.84536082,680.257732,680.257732,black,experiment,legacy,legacy,legacy,0,uniform,1,undefined,1,right,96,96,96,0,0,96,NA,96,0,0,96,96,96,0,96,0,NA,Thu Oct 24 08:35:26 2019,The main experiment item,yes,Sternbergtask.osexp,/Users/danielrazo0311/Desktop,no,mono,no,18,no,white,no,yes,768,legacy,84,11,/Users/danielrazo0311/Desktop/subject-4.csv,legacy,2 7 5,Kafkaesque Koffka,3.2.8,0,n,0,right,left,right,right,NA,671,4645,75084,671,NA,2,legacy,3,1024,2,48000,-16,experiment,4,even,8,674219,670834,671979,3550,157558,671991,NA,616067,3569,82471,676232,676907,673004,8262,676231,NA,NA,Sternberg task,92,65985,97,yes,1024
94.89795918,94.89795918,678.7959184,678.7959184,black,experiment,legacy,legacy,legacy,0,uniform,1,undefined,1,right,97,97,97,0,0,97,NA,97,0,0,97,97,97,0,97,0,NA,Thu Oct 24 08:35:26 2019,The main experiment item,yes,Sternbergtask.osexp,/Users/danielrazo0311/Desktop,no,mono,no,18,no,white,no,yes,768,legacy,85,11,/Users/danielrazo0311/Desktop/subject-4.csv,legacy,1 4 3 6 5,Kafkaesque Koffka,3.2.8,0,n,0,right,left,right,right,NA,537,4645,75084,537,NA,2,legacy,5,1024,2,48000,-16,experiment,4,even,8,680305,676922,678068,3550,157558,678080,NA,616067,3569,82471,682318,682859,679093,8262,682318,NA,NA,Sternberg task,93,66522,98,yes,1024
94.94949495,94.94949495,677.8888889,677.8888889,black,experiment,legacy,legacy,legacy,0,uniform,1,undefined,1,right,98,98,98,0,0,98,NA,98,0,0,98,98,98,0,98,0,NA,Thu Oct 24 08:35:26 2019,The main experiment item,yes,Sternbergtask.osexp,/Users/danielrazo0311/Desktop,no,mono,no,18,no,white,no,yes,768,legacy,86,11,/Users/danielrazo0311/Desktop/subject-4.csv,legacy,1 7 5 2,Kafkaesque Koffka,3.2.8,0,n,0,right,left,right,right,NA,589,4645,75084,589,NA,2,legacy,4,1024,2,48000,-16,experiment,4,even,3,686261,682874,684019,3550,157558,684031,NA,616067,3569,82471,688274,688868,685045,8262,688274,NA,NA,Sternberg task,94,67111,99,yes,1024
95,95,678.65,678.65,black,experiment,legacy,legacy,legacy,0,uniform,1,undefined,1,left,99,99,99,0,0,99,NA,99,0,0,99,99,99,0,99,0,NA,Thu Oct 24 08:35:26 2019,The main experiment item,yes,Sternbergtask.osexp,/Users/danielrazo0311/Desktop,no,mono,no,18,no,white,no,yes,768,legacy,87,11,/Users/danielrazo0311/Desktop/subject-4.csv,legacy,4,Kafkaesque Koffka,3.2.8,1,y,0,left,left,right,left,NA,754,4645,75084,754,NA,2,legacy,1,1024,2,48000,-16,experiment,4,even,4,692271,688883,690029,3550,157558,690041,NA,616067,3569,82471,694284,695041,691055,8262,694284,NA,NA,Sternberg task,95,67865,100,yes,1024
95.04950495,95.04950495,680.7524752,680.7524752,black,experiment,legacy,legacy,legacy,0,uniform,1,undefined,1,right,100,100,100,0,0,100,NA,100,0,0,100,100,100,0,100,0,NA,Thu Oct 24 08:35:26 2019,The main experiment item,yes,Sternbergtask.osexp,/Users/danielrazo0311/Desktop,no,mono,no,18,no,white,no,yes,768,legacy,88,11,/Users/danielrazo0311/Desktop/subject-4.csv,legacy,6 9 4 5 3 2,Kafkaesque Koffka,3.2.8,0,n,0,right,left,right,right,NA,891,4645,75084,891,NA,2,legacy,6,1024,2,48000,-16,experiment,4,even,8,698446,695057,696205,3550,157558,696217,NA,616067,3569,82471,700459,701353,697230,8262,700459,NA,NA,Sternberg task,96,68756,101,yes,1024
95.09803922,95.09803922,680.2647059,680.2647059,black,experiment,legacy,legacy,legacy,0,uniform,1,undefined,1,right,101,101,101,0,0,101,NA,101,0,0,101,101,101,0,101,0,NA,Thu Oct 24 08:35:26 2019,The main experiment item,yes,Sternbergtask.osexp,/Users/danielrazo0311/Desktop,no,mono,no,18,no,white,no,yes,768,legacy,89,11,/Users/danielrazo0311/Desktop/subject-4.csv,legacy,1 3 2 6 9,Kafkaesque Koffka,3.2.8,0,n,0,right,left,right,right,NA,631,4645,75084,631,NA,2,legacy,5,1024,2,48000,-16,experiment,4,even,5,704755,701368,702515,3550,157558,702528,NA,616067,3569,82471,706767,707402,703542,8262,706767,NA,NA,Sternberg task,97,69387,102,yes,1024
95.14563107,95.14563107,678.9902913,678.9902913,black,experiment,legacy,legacy,legacy,0,uniform,1,undefined,1,left,102,102,102,0,0,102,NA,102,0,0,102,102,102,0,102,0,NA,Thu Oct 24 08:35:26 2019,The main experiment item,yes,Sternbergtask.osexp,/Users/danielrazo0311/Desktop,no,mono,no,18,no,white,no,yes,768,legacy,90,11,/Users/danielrazo0311/Desktop/subject-4.csv,legacy,2 3,Kafkaesque Koffka,3.2.8,1,y,0,left,left,right,left,NA,549,4645,75084,549,NA,2,legacy,2,1024,2,48000,-16,experiment,4,even,2,710803,707417,708564,3550,157558,708576,NA,616067,3569,82471,712816,713370,709591,8262,712816,NA,NA,Sternberg task,98,69936,103,yes,1024
95.19230769,95.19230769,677,677,black,experiment,legacy,legacy,legacy,0,uniform,1,undefined,1,left,103,103,103,0,0,103,NA,103,0,0,103,103,103,0,103,0,NA,Thu Oct 24 08:35:26 2019,The main experiment item,yes,Sternbergtask.osexp,/Users/danielrazo0311/Desktop,no,mono,no,18,no,white,no,yes,768,legacy,91,11,/Users/danielrazo0311/Desktop/subject-4.csv,legacy,2 3 7 4,Kafkaesque Koffka,3.2.8,1,y,0,left,left,right,left,NA,472,4645,75084,472,NA,2,legacy,4,1024,2,48000,-16,experiment,4,even,2,716784,713385,714543,3550,157558,714555,NA,616067,3569,82471,718797,719273,715568,8262,718796,NA,NA,Sternberg task,99,70408,104,yes,1024
95.23809524,95.23809524,675.2571429,675.2571429,black,experiment,legacy,legacy,legacy,0,uniform,1,undefined,1,left,104,104,104,0,0,104,NA,104,0,0,104,104,104,0,104,0,NA,Thu Oct 24 08:35:26 2019,The main experiment item,yes,Sternbergtask.osexp,/Users/danielrazo0311/Desktop,no,mono,no,18,no,white,no,yes,768,legacy,92,11,/Users/danielrazo0311/Desktop/subject-4.csv,legacy,3 9 7 6 4,Kafkaesque Koffka,3.2.8,3,y,0,left,left,right,left,NA,494,4645,75084,494,NA,2,legacy,5,1024,2,48000,-16,experiment,4,even,7,722674,719289,720435,3550,157558,720447,NA,616067,3569,82471,724687,725186,721462,8262,724686,NA,NA,Sternberg task,100,70902,105,yes,1024
95.28301887,95.28301887,675.1509434,675.1509434,black,experiment,legacy,legacy,legacy,0,uniform,1,undefined,1,right,105,105,105,0,0,105,NA,105,0,0,105,105,105,0,105,0,NA,Thu Oct 24 08:35:26 2019,The main experiment item,yes,Sternbergtask.osexp,/Users/danielrazo0311/Desktop,no,mono,no,18,no,white,no,yes,768,legacy,93,11,/Users/danielrazo0311/Desktop/subject-4.csv,legacy,7 4 2 8 1 9,Kafkaesque Koffka,3.2.8,0,n,0,right,left,right,right,NA,664,4645,75084,664,NA,2,legacy,6,1024,2,48000,-16,experiment,4,even,5,728592,725205,726352,3550,157558,726364,NA,616067,3569,82471,730605,731273,727377,8262,730605,NA,NA,Sternberg task,101,71566,106,yes,1024
95.3271028,95.3271028,673.9439252,673.9439252,black,experiment,legacy,legacy,legacy,0,uniform,1,undefined,1,left,106,106,106,0,0,106,NA,106,0,0,106,106,106,0,106,0,NA,Thu Oct 24 08:35:26 2019,The main experiment item,yes,Sternbergtask.osexp,/Users/danielrazo0311/Desktop,no,mono,no,18,no,white,no,yes,768,legacy,94,11,/Users/danielrazo0311/Desktop/subject-4.csv,legacy,9 5 8 1,Kafkaesque Koffka,3.2.8,2,y,0,left,left,right,left,NA,546,4645,75084,546,NA,2,legacy,4,1024,2,48000,-16,experiment,4,even,5,734678,731289,732437,3550,157558,732449,NA,616067,3569,82471,736691,737241,733462,8262,736690,NA,NA,Sternberg task,102,72112,107,yes,1024
95.37037037,95.37037037,673.5277778,673.5277778,black,experiment,legacy,legacy,legacy,0,uniform,1,undefined,1,right,107,107,107,0,0,107,NA,107,0,0,107,107,107,0,107,0,NA,Thu Oct 24 08:35:26 2019,The main experiment item,yes,Sternbergtask.osexp,/Users/danielrazo0311/Desktop,no,mono,no,18,no,white,no,yes,768,legacy,95,11,/Users/danielrazo0311/Desktop/subject-4.csv,legacy,2 5 1 4,Kafkaesque Koffka,3.2.8,0,n,0,right,left,right,right,NA,629,4645,75084,629,NA,2,legacy,4,1024,2,48000,-16,experiment,4,even,6,740651,737260,738411,3550,157558,738423,NA,616067,3569,82471,742664,743296,739436,8262,742664,NA,NA,Sternberg task,103,72741,108,yes,1024
95.41284404,95.41284404,672.7614679,672.7614679,black,experiment,legacy,legacy,legacy,0,uniform,1,undefined,1,left,108,108,108,0,0,108,NA,108,0,0,108,108,108,0,108,0,NA,Thu Oct 24 08:35:26 2019,The main experiment item,yes,Sternbergtask.osexp,/Users/danielrazo0311/Desktop,no,mono,no,18,no,white,no,yes,768,legacy,96,11,/Users/danielrazo0311/Desktop/subject-4.csv,legacy,6 2,Kafkaesque Koffka,3.2.8,1,y,0,left,left,right,left,NA,590,4645,75084,590,NA,2,legacy,2,1024,2,48000,-16,experiment,4,even,6,746699,743312,744457,3550,157558,744469,NA,616067,3569,82471,748711,749304,745482,8262,748711,NA,NA,Sternberg task,104,73331,109,yes,1024
95.45454545,95.45454545,673.1727273,673.1727273,black,experiment,legacy,legacy,legacy,0,uniform,1,undefined,1,left,109,109,109,0,0,109,NA,109,0,0,109,109,109,0,109,0,NA,Thu Oct 24 08:35:26 2019,The main experiment item,yes,Sternbergtask.osexp,/Users/danielrazo0311/Desktop,no,mono,no,18,no,white,no,yes,768,legacy,97,11,/Users/danielrazo0311/Desktop/subject-4.csv,legacy,7 1 8 5 6 2,Kafkaesque Koffka,3.2.8,2,y,0,left,left,right,left,NA,718,4645,75084,718,NA,2,legacy,6,1024,2,48000,-16,experiment,4,even,1,752713,749320,750474,3550,157558,750486,NA,616067,3569,82471,754726,755448,751497,8262,754726,NA,NA,Sternberg task,105,74049,110,yes,1024
95.4954955,95.4954955,674.3153153,674.3153153,black,experiment,legacy,legacy,legacy,0,uniform,1,undefined,1,left,110,110,110,0,0,110,NA,110,0,0,110,110,110,0,110,0,NA,Thu Oct 24 08:35:26 2019,The main experiment item,yes,Sternbergtask.osexp,/Users/danielrazo0311/Desktop,no,mono,no,18,no,white,no,yes,768,legacy,98,11,/Users/danielrazo0311/Desktop/subject-4.csv,legacy,9 6 2 4 1,Kafkaesque Koffka,3.2.8,4,y,0,left,left,right,left,NA,800,4645,75084,800,NA,2,legacy,5,1024,2,48000,-16,experiment,4,even,4,758856,755466,756617,3550,157558,756629,NA,616067,3569,82471,760869,761674,757642,8262,760868,NA,NA,Sternberg task,106,74849,111,yes,1024
95.53571429,95.53571429,673.8035714,673.8035714,black,experiment,legacy,legacy,legacy,0,uniform,1,undefined,1,left,111,111,111,0,0,111,NA,111,0,0,111,111,111,0,111,0,NA,Thu Oct 24 08:35:26 2019,The main experiment item,yes,Sternbergtask.osexp,/Users/danielrazo0311/Desktop,no,mono,no,18,no,white,no,yes,768,legacy,99,11,/Users/danielrazo0311/Desktop/subject-4.csv,legacy,9 1 6 7 8,Kafkaesque Koffka,3.2.8,1,y,0,left,left,right,left,NA,617,4645,75084,617,NA,2,legacy,5,1024,2,48000,-16,experiment,4,even,9,765086,761693,762845,3550,157558,762857,NA,616067,3569,82471,767100,767721,763871,8262,767100,NA,NA,Sternberg task,107,75466,112,yes,1024
94.69026549,94.69026549,673.1858407,673.1858407,black,experiment,legacy,legacy,legacy,0,uniform,0,undefined,0,left,112,112,112,0,0,112,NA,112,0,0,112,112,112,0,112,0,NA,Thu Oct 24 08:35:26 2019,The main experiment item,yes,Sternbergtask.osexp,/Users/danielrazo0311/Desktop,no,mono,no,18,no,white,no,yes,768,legacy,100,11,/Users/danielrazo0311/Desktop/subject-4.csv,legacy,2 4 6 9,Kafkaesque Koffka,3.2.8,3,y,0,right,left,right,right,NA,604,4645,75084,604,NA,2,legacy,4,1024,2,48000,-16,experiment,4,even,6,771124,767736,768884,3550,157558,768896,NA,616067,3569,82471,773137,773746,769908,8262,773137,NA,NA,Sternberg task,107,76070,113,yes,1024
94.73684211,94.73684211,671.0087719,671.0087719,black,experiment,legacy,legacy,legacy,0,uniform,1,undefined,1,left,113,113,113,0,0,113,NA,113,0,0,113,113,113,0,113,0,NA,Thu Oct 24 08:35:26 2019,The main experiment item,yes,Sternbergtask.osexp,/Users/danielrazo0311/Desktop,no,mono,no,18,no,white,no,yes,768,legacy,101,11,/Users/danielrazo0311/Desktop/subject-4.csv,legacy,2 8 5 1,Kafkaesque Koffka,3.2.8,4,y,0,left,left,right,left,NA,425,4645,75084,425,NA,2,legacy,4,1024,2,48000,-16,experiment,4,even,1,777150,767736,774909,3550,157558,774921,NA,773762,3569,82471,779164,779592,775935,8262,779163,NA,NA,Sternberg task,108,76495,114,yes,1024
94.7826087,94.7826087,673.3913043,673.3913043,black,experiment,legacy,legacy,legacy,0,uniform,1,undefined,1,right,114,114,114,0,0,114,NA,114,0,0,114,114,114,0,114,0,NA,Thu Oct 24 08:35:26 2019,The main experiment item,yes,Sternbergtask.osexp,/Users/danielrazo0311/Desktop,no,mono,no,18,no,white,no,yes,768,legacy,102,11,/Users/danielrazo0311/Desktop/subject-4.csv,legacy,5 3 2 6 9 8,Kafkaesque Koffka,3.2.8,0,n,0,right,left,right,right,NA,945,4645,75084,945,NA,2,legacy,6,1024,2,48000,-16,experiment,4,even,4,783014,779626,780775,3550,157558,780787,NA,773762,3569,82471,785028,785977,781799,8262,785028,NA,NA,Sternberg task,109,77440,115,yes,1024
94.82758621,94.82758621,672.1724138,672.1724138,black,experiment,legacy,legacy,legacy,0,uniform,1,undefined,1,right,115,115,115,0,0,115,NA,115,0,0,115,115,115,0,115,0,NA,Thu Oct 24 08:35:26 2019,The main experiment item,yes,Sternbergtask.osexp,/Users/danielrazo0311/Desktop,no,mono,no,18,no,white,no,yes,768,legacy,103,11,/Users/danielrazo0311/Desktop/subject-4.csv,legacy,5 7 3,Kafkaesque Koffka,3.2.8,0,n,0,right,left,right,right,NA,532,4645,75084,532,NA,2,legacy,3,1024,2,48000,-16,experiment,4,even,9,789379,785993,787138,3550,157558,787150,NA,773762,3569,82471,791392,791930,788164,8262,791392,NA,NA,Sternberg task,110,77972,116,yes,1024
94.87179487,94.87179487,670.5555556,670.5555556,black,experiment,legacy,legacy,legacy,0,uniform,1,undefined,1,left,116,116,116,0,0,116,NA,116,0,0,116,116,116,0,116,0,NA,Thu Oct 24 08:35:26 2019,The main experiment item,yes,Sternbergtask.osexp,/Users/danielrazo0311/Desktop,no,mono,no,18,no,white,no,yes,768,legacy,104,11,/Users/danielrazo0311/Desktop/subject-4.csv,legacy,4 9 7 8 5 3,Kafkaesque Koffka,3.2.8,4,y,0,left,left,right,left,NA,483,4645,75084,483,NA,2,legacy,6,1024,2,48000,-16,experiment,4,even,8,795331,791947,793093,3550,157558,793105,NA,773762,3569,82471,797345,797832,794116,8262,797345,NA,NA,Sternberg task,111,78455,117,yes,1024
94.91525424,94.91525424,671.1440678,671.1440678,black,experiment,legacy,legacy,legacy,0,uniform,1,undefined,1,left,117,117,117,0,0,117,NA,117,0,0,117,117,117,0,117,0,NA,Thu Oct 24 08:35:26 2019,The main experiment item,yes,Sternbergtask.osexp,/Users/danielrazo0311/Desktop,no,mono,no,18,no,white,no,yes,768,legacy,105,11,/Users/danielrazo0311/Desktop/subject-4.csv,legacy,8 5 3 7 4 6,Kafkaesque Koffka,3.2.8,6,y,0,left,left,right,left,NA,740,4645,75084,740,NA,2,legacy,6,1024,2,48000,-16,experiment,4,even,6,801236,797848,798995,3550,157558,799005,NA,773762,3569,82471,803248,803992,800019,8262,803248,NA,NA,Sternberg task,112,79195,118,yes,1024
94.95798319,94.95798319,669.6722689,669.6722689,black,experiment,legacy,legacy,legacy,0,uniform,1,undefined,1,left,118,118,118,0,0,118,NA,118,0,0,118,118,118,0,118,0,NA,Thu Oct 24 08:35:26 2019,The main experiment item,yes,Sternbergtask.osexp,/Users/danielrazo0311/Desktop,no,mono,no,18,no,white,no,yes,768,legacy,106,11,/Users/danielrazo0311/Desktop/subject-4.csv,legacy,8 9 5 6 7,Kafkaesque Koffka,3.2.8,1,y,0,left,left,right,left,NA,496,4645,75084,496,NA,2,legacy,5,1024,2,48000,-16,experiment,4,even,8,807391,804006,805152,3550,157558,805164,NA,773762,3569,82471,809404,809904,806176,8262,809404,NA,NA,Sternberg task,113,79691,119,yes,1024
95,95,666.9583333,666.9583333,black,experiment,legacy,legacy,legacy,0,uniform,1,undefined,1,left,119,119,119,0,0,119,NA,119,0,0,119,119,119,0,119,0,NA,Thu Oct 24 08:35:26 2019,The main experiment item,yes,Sternbergtask.osexp,/Users/danielrazo0311/Desktop,no,mono,no,18,no,white,no,yes,768,legacy,107,11,/Users/danielrazo0311/Desktop/subject-4.csv,legacy,7,Kafkaesque Koffka,3.2.8,1,y,0,left,left,right,left,NA,344,4645,75084,344,NA,2,legacy,1,1024,2,48000,-16,experiment,4,even,7,813312,809919,811066,3550,157558,811078,NA,773762,3569,82471,815324,815673,812096,8262,815324,NA,NA,Sternberg task,114,80035,120,yes,1024
95.04132231,95.04132231,665.7438017,665.7438017,black,experiment,legacy,legacy,legacy,0,uniform,1,undefined,1,right,120,120,120,0,0,120,NA,120,0,0,120,120,120,0,120,0,NA,Thu Oct 24 08:35:26 2019,The main experiment item,yes,Sternbergtask.osexp,/Users/danielrazo0311/Desktop,no,mono,no,18,no,white,no,yes,768,legacy,108,11,/Users/danielrazo0311/Desktop/subject-4.csv,legacy,4 2 7 6 1 3,Kafkaesque Koffka,3.2.8,0,n,0,right,left,right,right,NA,520,4645,75084,520,NA,2,legacy,6,1024,2,48000,-16,experiment,4,even,8,819080,815692,816839,3550,157558,816851,NA,773762,3569,82471,821092,821616,817865,8262,821092,NA,NA,Sternberg task,115,80555,121,yes,1024
95.08196721,95.08196721,664.3934426,664.3934426,black,experiment,legacy,legacy,legacy,0,uniform,1,undefined,1,left,121,121,121,0,0,121,NA,121,0,0,121,121,121,0,121,0,NA,Thu Oct 24 08:35:26 2019,The main experiment item,yes,Sternbergtask.osexp,/Users/danielrazo0311/Desktop,no,mono,no,18,no,white,no,yes,768,legacy,109,11,/Users/danielrazo0311/Desktop/subject-4.csv,legacy,3 4 9 6 2 9,Kafkaesque Koffka,3.2.8,5,y,0,left,left,right,left,NA,501,4645,75084,501,NA,2,legacy,6,1024,2,48000,-16,experiment,4,even,2,825025,821639,822785,3550,157558,822797,NA,773762,3569,82471,827039,827545,823811,8262,827039,NA,NA,Sternberg task,116,81056,122,yes,1024
95.12195122,95.12195122,668.5365854,668.5365854,black,experiment,legacy,legacy,legacy,0,uniform,1,undefined,1,right,122,122,122,0,0,122,NA,122,0,0,122,122,122,0,122,0,NA,Thu Oct 24 08:35:26 2019,The main experiment item,yes,Sternbergtask.osexp,/Users/danielrazo0311/Desktop,no,mono,no,18,no,white,no,yes,768,legacy,110,11,/Users/danielrazo0311/Desktop/subject-4.csv,legacy,5 2,Kafkaesque Koffka,3.2.8,0,n,0,right,left,right,right,NA,1174,4645,75084,1174,NA,2,legacy,2,1024,2,48000,-16,experiment,4,even,7,830951,827562,828708,3550,157558,828720,NA,773762,3569,82471,832964,834144,829735,8262,832964,NA,NA,Sternberg task,117,82230,123,yes,1024
95.16129032,95.16129032,666.3951613,666.3951613,black,experiment,legacy,legacy,legacy,0,uniform,1,undefined,1,left,123,123,123,0,0,123,NA,123,0,0,123,123,123,0,123,0,NA,Thu Oct 24 08:35:26 2019,The main experiment item,yes,Sternbergtask.osexp,/Users/danielrazo0311/Desktop,no,mono,no,18,no,white,no,yes,768,legacy,111,11,/Users/danielrazo0311/Desktop/subject-4.csv,legacy,5 7 3 6 2,Kafkaesque Koffka,3.2.8,5,y,0,left,left,right,left,NA,403,4645,75084,403,NA,2,legacy,5,1024,2,48000,-16,experiment,4,even,2,837548,834159,835306,3550,157558,835318,NA,773762,3569,82471,839560,839968,836331,8262,839560,NA,NA,Sternberg task,118,82633,124,yes,1024
95.2,95.2,665.248,665.248,black,experiment,legacy,legacy,legacy,0,uniform,1,undefined,1,right,124,124,124,0,0,124,NA,124,0,0,124,124,124,0,124,0,NA,Thu Oct 24 08:35:26 2019,The main experiment item,yes,Sternbergtask.osexp,/Users/danielrazo0311/Desktop,no,mono,no,18,no,white,no,yes,768,legacy,112,11,/Users/danielrazo0311/Desktop/subject-4.csv,legacy,7 9,Kafkaesque Koffka,3.2.8,0,n,0,right,left,right,right,NA,523,4645,75084,523,NA,2,legacy,2,1024,2,48000,-16,experiment,4,even,1,843371,839983,841128,3550,157558,841140,NA,773762,3569,82471,845384,845911,842154,8262,845384,NA,NA,Sternberg task,119,83156,125,yes,1024
95.23809524,95.23809524,663.8492063,663.8492063,black,experiment,legacy,legacy,legacy,0,uniform,1,undefined,1,right,125,125,125,0,0,125,NA,125,0,0,125,125,125,0,125,0,NA,Thu Oct 24 08:35:26 2019,The main experiment item,yes,Sternbergtask.osexp,/Users/danielrazo0311/Desktop,no,mono,no,18,no,white,no,yes,768,legacy,113,11,/Users/danielrazo0311/Desktop/subject-4.csv,legacy,7 1,Kafkaesque Koffka,3.2.8,0,n,0,right,left,right,right,NA,489,4645,75084,489,NA,2,legacy,2,1024,2,48000,-16,experiment,4,even,8,849348,845927,847109,3550,157558,847121,NA,773762,3569,82471,851362,851857,848135,8262,851362,NA,NA,Sternberg task,120,83645,126,yes,1024
95.27559055,95.27559055,663.8661417,663.8661417,black,experiment,legacy,legacy,legacy,0,uniform,1,undefined,1,right,126,126,126,0,0,126,NA,126,0,0,126,126,126,0,126,0,NA,Thu Oct 24 08:35:26 2019,The main experiment item,yes,Sternbergtask.osexp,/Users/danielrazo0311/Desktop,no,mono,no,18,no,white,no,yes,768,legacy,114,11,/Users/danielrazo0311/Desktop/subject-4.csv,legacy,1 6 4 3 9 7,Kafkaesque Koffka,3.2.8,0,n,0,right,left,right,right,NA,666,4645,75084,666,NA,2,legacy,6,1024,2,48000,-16,experiment,4,even,8,855266,851874,853023,3550,157558,853036,NA,773762,3569,82471,857281,857952,854050,8262,857280,NA,NA,Sternberg task,121,84311,127,yes,1024
95.3125,95.3125,663.21875,663.21875,black,experiment,legacy,legacy,legacy,0,uniform,1,undefined,1,left,127,127,127,0,0,127,NA,127,0,0,127,127,127,0,127,0,NA,Thu Oct 24 08:35:26 2019,The main experiment item,yes,Sternbergtask.osexp,/Users/danielrazo0311/Desktop,no,mono,no,18,no,white,no,yes,768,legacy,115,11,/Users/danielrazo0311/Desktop/subject-4.csv,legacy,5 2 6,Kafkaesque Koffka,3.2.8,2,y,0,left,left,right,left,NA,581,4645,75084,581,NA,2,legacy,3,1024,2,48000,-16,experiment,4,even,2,861353,857969,859114,3550,157558,859126,NA,773762,3569,82471,863366,863951,860138,8262,863366,NA,NA,Sternberg task,122,84892,128,yes,1024
95.34883721,95.34883721,662.5581395,662.5581395,black,experiment,legacy,legacy,legacy,0,uniform,1,undefined,1,left,128,128,128,0,0,128,NA,128,0,0,128,128,128,0,128,0,NA,Thu Oct 24 08:35:26 2019,The main experiment item,yes,Sternbergtask.osexp,/Users/danielrazo0311/Desktop,no,mono,no,18,no,white,no,yes,768,legacy,116,11,/Users/danielrazo0311/Desktop/subject-4.csv,legacy,9 4 2,Kafkaesque Koffka,3.2.8,1,y,0,left,left,right,left,NA,578,4645,75084,578,NA,2,legacy,3,1024,2,48000,-16,experiment,4,even,9,867347,863966,865111,3550,157558,865123,NA,773762,3569,82471,869361,869945,866135,8262,869361,NA,NA,Sternberg task,123,85470,129,yes,1024
95.38461538,95.38461538,661.7230769,661.7230769,black,experiment,legacy,legacy,legacy,0,uniform,1,undefined,1,right,129,129,129,0,0,129,NA,129,0,0,129,129,129,0,129,0,NA,Thu Oct 24 08:35:26 2019,The main experiment item,yes,Sternbergtask.osexp,/Users/danielrazo0311/Desktop,no,mono,no,18,no,white,no,yes,768,legacy,117,11,/Users/danielrazo0311/Desktop/subject-4.csv,legacy,2 8 9 4 1,Kafkaesque Koffka,3.2.8,0,n,0,right,left,right,right,NA,554,4645,75084,554,NA,2,legacy,5,1024,2,48000,-16,experiment,4,even,5,873348,869964,871108,3550,157558,871120,NA,773762,3569,82471,875361,875919,872133,8262,875360,NA,NA,Sternberg task,124,86024,130,yes,1024
95.41984733,95.41984733,660.870229,660.870229,black,experiment,legacy,legacy,legacy,0,uniform,1,undefined,1,right,130,130,130,0,0,130,NA,130,0,0,130,130,130,0,130,0,NA,Thu Oct 24 08:35:26 2019,The main experiment item,yes,Sternbergtask.osexp,/Users/danielrazo0311/Desktop,no,mono,no,18,no,white,no,yes,768,legacy,118,11,/Users/danielrazo0311/Desktop/subject-4.csv,legacy,8 6 3 4 7,Kafkaesque Koffka,3.2.8,0,n,0,right,left,right,right,NA,550,4645,75084,550,NA,2,legacy,5,1024,2,48000,-16,experiment,4,even,1,879320,875935,877080,3550,157558,877092,NA,773762,3569,82471,881332,881888,878105,8262,881331,NA,NA,Sternberg task,125,86574,131,yes,1024
95.45454545,95.45454545,659.1439394,659.1439394,black,experiment,legacy,legacy,legacy,0,uniform,1,undefined,1,left,131,131,131,0,0,131,NA,131,0,0,131,131,131,0,131,0,NA,Thu Oct 24 08:35:26 2019,The main experiment item,yes,Sternbergtask.osexp,/Users/danielrazo0311/Desktop,no,mono,no,18,no,white,no,yes,768,legacy,119,11,/Users/danielrazo0311/Desktop/subject-4.csv,legacy,9 3 1 2 5,Kafkaesque Koffka,3.2.8,4,y,0,left,left,right,left,NA,433,4645,75084,433,NA,2,legacy,5,1024,2,48000,-16,experiment,4,even,2,885293,881911,883056,3550,157558,883068,NA,773762,3569,82471,887305,887742,884082,8262,887305,NA,NA,Sternberg task,126,87007,132,yes,1024
95.4887218,95.4887218,657.1052632,657.1052632,black,experiment,legacy,legacy,legacy,0,uniform,1,undefined,1,left,132,132,132,0,0,132,NA,132,0,0,132,132,132,0,132,0,NA,Thu Oct 24 08:35:26 2019,The main experiment item,yes,Sternbergtask.osexp,/Users/danielrazo0311/Desktop,no,mono,no,18,no,white,no,yes,768,legacy,120,11,/Users/danielrazo0311/Desktop/subject-4.csv,legacy,8 7 3,Kafkaesque Koffka,3.2.8,1,y,0,left,left,right,left,NA,388,4645,75084,388,NA,2,legacy,3,1024,2,48000,-16,experiment,4,even,8,891145,887759,888904,3550,157558,888916,NA,773762,3569,82471,893158,893550,889928,8262,893157,NA,NA,Sternberg task,127,87395,133,yes,1024
95.52238806,95.52238806,655.5149254,655.5149254,black,experiment,legacy,legacy,legacy,0,uniform,1,undefined,1,left,133,133,133,0,0,133,NA,133,0,0,133,133,133,0,133,0,NA,Thu Oct 24 08:35:26 2019,The main experiment item,yes,Sternbergtask.osexp,/Users/danielrazo0311/Desktop,no,mono,no,18,no,white,no,yes,768,legacy,121,11,/Users/danielrazo0311/Desktop/subject-4.csv,legacy,9 1 7 2,Kafkaesque Koffka,3.2.8,2,y,0,left,left,right,left,NA,444,4645,75084,444,NA,2,legacy,4,1024,2,48000,-16,experiment,4,even,1,896952,893566,894713,3550,157558,894725,NA,773762,3569,82471,898965,899413,895738,8262,898965,NA,NA,Sternberg task,128,87839,134,yes,1024
95.55555556,95.55555556,654.9703704,654.9703704,black,experiment,legacy,legacy,legacy,0,uniform,1,undefined,1,right,134,134,134,0,0,134,NA,134,0,0,134,134,134,0,134,0,NA,Thu Oct 24 08:35:26 2019,The main experiment item,yes,Sternbergtask.osexp,/Users/danielrazo0311/Desktop,no,mono,no,18,no,white,no,yes,768,legacy,122,11,/Users/danielrazo0311/Desktop/subject-4.csv,legacy,7 3 2 8,Kafkaesque Koffka,3.2.8,0,n,0,right,left,right,right,NA,582,4645,75084,582,NA,2,legacy,4,1024,2,48000,-16,experiment,4,even,4,902839,899428,900597,3550,157558,900609,NA,773762,3569,82471,904851,905439,901622,8262,904851,NA,NA,Sternberg task,129,88421,135,yes,1024
95.58823529,95.58823529,655.9191176,655.9191176,black,experiment,legacy,legacy,legacy,0,uniform,1,undefined,1,right,135,135,135,0,0,135,NA,135,0,0,135,135,135,0,135,0,NA,Thu Oct 24 08:35:26 2019,The main experiment item,yes,Sternbergtask.osexp,/Users/danielrazo0311/Desktop,no,mono,no,18,no,white,no,yes,768,legacy,123,11,/Users/danielrazo0311/Desktop/subject-4.csv,legacy,7 6 4 8 1 2,Kafkaesque Koffka,3.2.8,0,n,0,right,left,right,right,NA,784,4645,75084,784,NA,2,legacy,6,1024,2,48000,-16,experiment,4,even,9,908845,905455,906603,3550,157558,906615,NA,773762,3569,82471,910858,911646,907629,8262,910857,NA,NA,Sternberg task,130,89205,136,yes,1024
95.62043796,95.62043796,655.1313869,655.1313869,black,experiment,legacy,legacy,legacy,0,uniform,1,undefined,1,left,136,136,136,0,0,136,NA,136,0,0,136,136,136,0,136,0,NA,Thu Oct 24 08:35:26 2019,The main experiment item,yes,Sternbergtask.osexp,/Users/danielrazo0311/Desktop,no,mono,no,18,no,white,no,yes,768,legacy,124,11,/Users/danielrazo0311/Desktop/subject-4.csv,legacy,8 9 6 1,Kafkaesque Koffka,3.2.8,2,y,0,left,left,right,left,NA,548,4645,75084,548,NA,2,legacy,4,1024,2,48000,-16,experiment,4,even,9,915050,911661,912807,3550,157558,912819,NA,773762,3569,82471,917062,917615,913833,8262,917062,NA,NA,Sternberg task,131,89753,137,yes,1024
95.65217391,95.65217391,654.2028986,654.2028986,black,experiment,legacy,legacy,legacy,0,uniform,1,undefined,1,right,137,137,137,0,0,137,NA,137,0,0,137,137,137,0,137,0,NA,Thu Oct 24 08:35:26 2019,The main experiment item,yes,Sternbergtask.osexp,/Users/danielrazo0311/Desktop,no,mono,no,18,no,white,no,yes,768,legacy,125,11,/Users/danielrazo0311/Desktop/subject-4.csv,legacy,3 4 2,Kafkaesque Koffka,3.2.8,0,n,0,right,left,right,right,NA,527,4645,75084,527,NA,2,legacy,3,1024,2,48000,-16,experiment,4,even,5,921012,917630,918774,3550,157558,918786,NA,773762,3569,82471,923026,923557,919798,8262,923026,NA,NA,Sternberg task,132,90280,138,yes,1024