acc,accuracy,average_response_time,avg_rt,background,block,canvas_backend,clock_backend,color_backend,compensation,coordinates,correct,correct_instructions1,correct_new_keyboard_response,correct_response,count_ISI,count_correctFeedback,count_expSequence,count_experiment,count_experimentLoop,count_fixation,count_incorrectFeedback,count_instructions1,count_instructions2,count_logger,count_memorySet,count_new_keyboard_response,count_practiceLoop,count_probe,count_thankYou,datetime,description,disable_garbage_collection,experiment_file,experiment_path,font_bold,font_family,font_italic,font_size,font_underline,foreground,form_clicks,fullscreen,height,keyboard_backend,live_row,live_row_practiceLoop,logfile,mouse_backend,numberSet,opensesame_codename,opensesame_version,posInSet,present,repeat_cycle,response,response_instructions1,response_instructions2,response_new_keyboard_response,response_thankYou,response_time,response_time_instructions1,response_time_instructions2,response_time_new_keyboard_response,response_time_thankYou,round_decimals,sampler_backend,setSize,sound_buf_size,sound_channels,sound_freq,sound_sample_size,start,subject_nr,subject_parity,target,time_ISI,time_correctFeedback,time_expSequence,time_experiment,time_experimentLoop,time_fixation,time_incorrectFeedback,time_instructions1,time_instructions2,time_logger,time_memorySet,time_new_keyboard_response,time_practiceLoop,time_probe,time_thankYou,title,total_correct,total_response_time,total_responses,uniform_coordinates,width
100,100,476,476,black,practice,legacy,legacy,legacy,0,uniform,1,undefined,1,left,0,0,0,0,0,0,0,0,0,0,0,0,0,0,0,10/27/19 12:47,The main experiment item,yes,Sternbergtask.osexp,C:/Users/Breena Riley/Desktop/2019 Fall/MultQuant/lab 3.1,no,mono,no,18,no,white,no,yes,768,legacy,0,0,C:/Users/Breena Riley/Desktop/2019 Fall/MultQuant/lab 3.1/BR-subject-4.csv,legacy,4 3 1 7 9 8,Kafkaesque Koffka,3.2.8,1,y,0,left,right,NA,left,NA,476,3868,NA,476,NA,2,legacy,6,1024,2,48000,-16,experiment,4,even,4,9889,NA,7684,3206,NA,7686,NA,3214,NA,12367,8687,11891,7083,11890,NA,Sternberg task,1,476,1,yes,1024
100,100,460,460,black,practice,legacy,legacy,legacy,0,uniform,1,undefined,1,left,1,1,1,0,0,1,1,0,0,1,1,1,0,1,0,10/27/19 12:47,The main experiment item,yes,Sternbergtask.osexp,C:/Users/Breena Riley/Desktop/2019 Fall/MultQuant/lab 3.1,no,mono,no,18,no,white,no,yes,768,legacy,1,1,C:/Users/Breena Riley/Desktop/2019 Fall/MultQuant/lab 3.1/BR-subject-4.csv,legacy,6,Kafkaesque Koffka,3.2.8,1,y,0,left,right,NA,left,NA,444,3868,NA,444,NA,2,legacy,1,1024,2,48000,-16,experiment,4,even,6,15718,12422,13514,3206,NA,13516,NA,3214,NA,18165,14517,17720,7083,17719,NA,Sternberg task,2,920,2,yes,1024
100,100,509.6666667,509.6666667,black,practice,legacy,legacy,legacy,0,uniform,1,undefined,1,left,2,2,2,0,0,2,2,0,0,2,2,2,0,2,0,10/27/19 12:47,The main experiment item,yes,Sternbergtask.osexp,C:/Users/Breena Riley/Desktop/2019 Fall/MultQuant/lab 3.1,no,mono,no,18,no,white,no,yes,768,legacy,2,2,C:/Users/Breena Riley/Desktop/2019 Fall/MultQuant/lab 3.1/BR-subject-4.csv,legacy,1 7 9 8 5,Kafkaesque Koffka,3.2.8,4,y,0,left,right,NA,left,NA,609,3868,NA,609,NA,2,legacy,5,1024,2,48000,-16,experiment,4,even,8,21468,18172,19263,3206,NA,19265,NA,3214,NA,24080,20267,23470,7083,23470,NA,Sternberg task,3,1529,3,yes,1024
100,100,508.25,508.25,black,practice,legacy,legacy,legacy,0,uniform,1,undefined,1,right,3,3,3,0,0,3,3,0,0,3,3,3,0,3,0,10/27/19 12:47,The main experiment item,yes,Sternbergtask.osexp,C:/Users/Breena Riley/Desktop/2019 Fall/MultQuant/lab 3.1,no,mono,no,18,no,white,no,yes,768,legacy,3,3,C:/Users/Breena Riley/Desktop/2019 Fall/MultQuant/lab 3.1/BR-subject-4.csv,legacy,2 1,Kafkaesque Koffka,3.2.8,0,n,0,right,right,NA,right,NA,504,3868,NA,504,NA,2,legacy,2,1024,2,48000,-16,experiment,4,even,5,27383,24087,25178,3206,NA,25180,NA,3214,NA,29889,26182,29385,7083,29384,NA,Sternberg task,4,2033,4,yes,1024
100,100,510.4,510.4,black,practice,legacy,legacy,legacy,0,uniform,1,undefined,1,left,4,4,4,0,0,4,4,0,0,4,4,4,0,4,0,10/27/19 12:47,The main experiment item,yes,Sternbergtask.osexp,C:/Users/Breena Riley/Desktop/2019 Fall/MultQuant/lab 3.1,no,mono,no,18,no,white,no,yes,768,legacy,4,4,C:/Users/Breena Riley/Desktop/2019 Fall/MultQuant/lab 3.1/BR-subject-4.csv,legacy,1 5 2 9,Kafkaesque Koffka,3.2.8,2,y,0,left,right,NA,left,NA,519,3868,NA,519,NA,2,legacy,4,1024,2,48000,-16,experiment,4,even,5,33194,29899,30989,3206,NA,30991,NA,3214,NA,35714,31992,35195,7083,35195,NA,Sternberg task,5,2552,5,yes,1024
83.33333333,83.33333333,590.6666667,590.6666667,black,practice,legacy,legacy,legacy,0,uniform,0,undefined,0,right,5,5,5,0,0,5,5,0,0,5,5,5,0,5,0,10/27/19 12:47,The main experiment item,yes,Sternbergtask.osexp,C:/Users/Breena Riley/Desktop/2019 Fall/MultQuant/lab 3.1,no,mono,no,18,no,white,no,yes,768,legacy,5,5,C:/Users/Breena Riley/Desktop/2019 Fall/MultQuant/lab 3.1/BR-subject-4.csv,legacy,9 6 7 4 5,Kafkaesque Koffka,3.2.8,0,n,0,left,right,NA,left,NA,992,3868,NA,992,NA,2,legacy,5,1024,2,48000,-16,experiment,4,even,3,39018,35722,36813,3206,NA,36815,NA,3214,NA,42013,37816,41020,7083,41020,NA,Sternberg task,5,3544,6,yes,1024
85.71428571,85.71428571,637.1428571,637.1428571,black,practice,legacy,legacy,legacy,0,uniform,1,undefined,1,left,6,6,6,0,0,6,6,0,0,6,6,6,0,6,0,10/27/19 12:47,The main experiment item,yes,Sternbergtask.osexp,C:/Users/Breena Riley/Desktop/2019 Fall/MultQuant/lab 3.1,no,mono,no,18,no,white,no,yes,768,legacy,6,6,C:/Users/Breena Riley/Desktop/2019 Fall/MultQuant/lab 3.1/BR-subject-4.csv,legacy,2 9 4,Kafkaesque Koffka,3.2.8,3,y,0,left,right,NA,left,NA,916,3868,NA,916,NA,2,legacy,3,1024,2,48000,-16,experiment,4,even,4,45319,35722,43113,3206,NA,43116,42023,3214,NA,48237,44118,47321,7083,47321,NA,Sternberg task,6,4460,7,yes,1024
75,75,658,658,black,practice,legacy,legacy,legacy,0,uniform,0,undefined,0,right,7,7,7,0,0,7,7,0,0,7,7,7,0,7,0,10/27/19 12:47,The main experiment item,yes,Sternbergtask.osexp,C:/Users/Breena Riley/Desktop/2019 Fall/MultQuant/lab 3.1,no,mono,no,18,no,white,no,yes,768,legacy,7,7,C:/Users/Breena Riley/Desktop/2019 Fall/MultQuant/lab 3.1/BR-subject-4.csv,legacy,3 1 9 4,Kafkaesque Koffka,3.2.8,0,n,0,left,right,NA,left,NA,804,3868,NA,804,NA,2,legacy,4,1024,2,48000,-16,experiment,4,even,6,51539,48242,49334,3206,NA,49336,42023,3214,NA,54344,50337,53540,7083,53540,NA,Sternberg task,6,5264,8,yes,1024
77.77777778,77.77777778,672.8888889,672.8888889,black,practice,legacy,legacy,legacy,0,uniform,1,undefined,1,right,8,8,8,0,0,8,8,0,0,8,8,8,0,8,0,10/27/19 12:47,The main experiment item,yes,Sternbergtask.osexp,C:/Users/Breena Riley/Desktop/2019 Fall/MultQuant/lab 3.1,no,mono,no,18,no,white,no,yes,768,legacy,8,8,C:/Users/Breena Riley/Desktop/2019 Fall/MultQuant/lab 3.1/BR-subject-4.csv,legacy,5 7 8 4 1 2,Kafkaesque Koffka,3.2.8,0,n,0,right,right,NA,right,NA,792,3868,NA,792,NA,2,legacy,6,1024,2,48000,-16,experiment,4,even,6,57647,48242,55443,3206,NA,55445,54352,3214,NA,60440,56446,59648,7083,59648,NA,Sternberg task,7,6056,9,yes,1024
80,80,669,669,black,practice,legacy,legacy,legacy,0,uniform,1,undefined,1,right,9,9,9,0,0,9,9,0,0,9,9,9,0,9,0,10/27/19 12:47,The main experiment item,yes,Sternbergtask.osexp,C:/Users/Breena Riley/Desktop/2019 Fall/MultQuant/lab 3.1,no,mono,no,18,no,white,no,yes,768,legacy,9,9,C:/Users/Breena Riley/Desktop/2019 Fall/MultQuant/lab 3.1/BR-subject-4.csv,legacy,4 1 5,Kafkaesque Koffka,3.2.8,0,n,0,right,right,NA,right,NA,634,3868,NA,634,NA,2,legacy,3,1024,2,48000,-16,experiment,4,even,2,63743,60448,61538,3206,NA,61540,54352,3214,NA,66379,62541,65744,7083,65744,NA,Sternberg task,8,6690,10,yes,1024
81.81818182,81.81818182,652.0909091,652.0909091,black,practice,legacy,legacy,legacy,0,uniform,1,undefined,1,left,10,10,10,0,0,10,10,0,0,10,10,10,0,10,0,10/27/19 12:47,The main experiment item,yes,Sternbergtask.osexp,C:/Users/Breena Riley/Desktop/2019 Fall/MultQuant/lab 3.1,no,mono,no,18,no,white,no,yes,768,legacy,10,10,C:/Users/Breena Riley/Desktop/2019 Fall/MultQuant/lab 3.1/BR-subject-4.csv,legacy,4 8,Kafkaesque Koffka,3.2.8,1,y,0,left,right,NA,left,NA,483,3868,NA,483,NA,2,legacy,2,1024,2,48000,-16,experiment,4,even,4,69680,66386,67476,3206,NA,67478,54352,3214,NA,72165,68479,71681,7083,71681,NA,Sternberg task,9,7173,11,yes,1024
83.33333333,83.33333333,645,645,black,practice,legacy,legacy,legacy,0,uniform,1,undefined,1,right,11,11,11,0,0,11,11,0,0,11,11,11,0,11,0,10/27/19 12:47,The main experiment item,yes,Sternbergtask.osexp,C:/Users/Breena Riley/Desktop/2019 Fall/MultQuant/lab 3.1,no,mono,no,18,no,white,no,yes,768,legacy,11,11,C:/Users/Breena Riley/Desktop/2019 Fall/MultQuant/lab 3.1/BR-subject-4.csv,legacy,5,Kafkaesque Koffka,3.2.8,0,n,0,right,right,NA,right,NA,567,3868,NA,567,NA,2,legacy,1,1024,2,48000,-16,experiment,4,even,3,75474,72173,73268,3206,NA,73270,54352,3214,NA,78043,74272,77475,7083,77475,NA,Sternberg task,10,7740,12,yes,1024
84.61538462,84.61538462,644.0769231,644.0769231,black,experiment,legacy,legacy,legacy,0,uniform,1,undefined,1,right,12,12,12,0,0,12,12,0,0,12,12,12,0,12,0,10/27/19 12:47,The main experiment item,yes,Sternbergtask.osexp,C:/Users/Breena Riley/Desktop/2019 Fall/MultQuant/lab 3.1,no,mono,no,18,no,white,no,yes,768,legacy,0,11,C:/Users/Breena Riley/Desktop/2019 Fall/MultQuant/lab 3.1/BR-subject-4.csv,legacy,6 9 5,Kafkaesque Koffka,3.2.8,0,n,0,right,right,right,right,NA,633,3868,24158,633,NA,2,legacy,3,1024,2,48000,-16,experiment,4,even,8,105539,78050,103335,3206,103226,103337,54352,3214,79068,108174,104338,107541,7083,107541,NA,Sternberg task,11,8373,13,yes,1024
85.71428571,85.71428571,637.8571429,637.8571429,black,experiment,legacy,legacy,legacy,0,uniform,1,undefined,1,right,13,13,13,0,0,13,13,0,0,13,13,13,0,13,0,10/27/19 12:47,The main experiment item,yes,Sternbergtask.osexp,C:/Users/Breena Riley/Desktop/2019 Fall/MultQuant/lab 3.1,no,mono,no,18,no,white,no,yes,768,legacy,1,11,C:/Users/Breena Riley/Desktop/2019 Fall/MultQuant/lab 3.1/BR-subject-4.csv,legacy,1 3 2 6 9,Kafkaesque Koffka,3.2.8,0,n,0,right,right,right,right,NA,557,3868,24158,557,NA,2,legacy,5,1024,2,48000,-16,experiment,4,even,5,111476,108182,109272,3206,103226,109274,54352,3214,79068,114035,110275,113478,7083,113478,NA,Sternberg task,12,8930,14,yes,1024
86.66666667,86.66666667,643.4,643.4,black,experiment,legacy,legacy,legacy,0,uniform,1,undefined,1,left,14,14,14,0,0,14,14,0,0,14,14,14,0,14,0,10/27/19 12:47,The main experiment item,yes,Sternbergtask.osexp,C:/Users/Breena Riley/Desktop/2019 Fall/MultQuant/lab 3.1,no,mono,no,18,no,white,no,yes,768,legacy,2,11,C:/Users/Breena Riley/Desktop/2019 Fall/MultQuant/lab 3.1/BR-subject-4.csv,legacy,9 3 1 2 5,Kafkaesque Koffka,3.2.8,4,y,0,left,right,right,left,NA,721,3868,24158,721,NA,2,legacy,5,1024,2,48000,-16,experiment,4,even,2,117339,114043,115134,3206,103226,115136,54352,3214,79068,120062,116138,119340,7083,119340,NA,Sternberg task,13,9651,15,yes,1024
87.5,87.5,652.5625,652.5625,black,experiment,legacy,legacy,legacy,0,uniform,1,undefined,1,left,15,15,15,0,0,15,15,0,0,15,15,15,0,15,0,10/27/19 12:47,The main experiment item,yes,Sternbergtask.osexp,C:/Users/Breena Riley/Desktop/2019 Fall/MultQuant/lab 3.1,no,mono,no,18,no,white,no,yes,768,legacy,3,11,C:/Users/Breena Riley/Desktop/2019 Fall/MultQuant/lab 3.1/BR-subject-4.csv,legacy,3 9 6 2,Kafkaesque Koffka,3.2.8,4,y,0,left,right,right,left,NA,790,3868,24158,790,NA,2,legacy,4,1024,2,48000,-16,experiment,4,even,2,123364,120069,121160,3206,103226,121162,54352,3214,79068,126156,122163,125366,7083,125366,NA,Sternberg task,14,10441,16,yes,1024
88.23529412,88.23529412,642.6470588,642.6470588,black,experiment,legacy,legacy,legacy,0,uniform,1,undefined,1,left,16,16,16,0,0,16,16,0,0,16,16,16,0,16,0,10/27/19 12:47,The main experiment item,yes,Sternbergtask.osexp,C:/Users/Breena Riley/Desktop/2019 Fall/MultQuant/lab 3.1,no,mono,no,18,no,white,no,yes,768,legacy,4,11,C:/Users/Breena Riley/Desktop/2019 Fall/MultQuant/lab 3.1/BR-subject-4.csv,legacy,8,Kafkaesque Koffka,3.2.8,1,y,0,left,right,right,left,NA,484,3868,24158,484,NA,2,legacy,1,1024,2,48000,-16,experiment,4,even,8,129460,126164,127256,3206,103226,127258,54352,3214,79068,131946,128259,131462,7083,131462,NA,Sternberg task,15,10925,17,yes,1024
88.88888889,88.88888889,657.1666667,657.1666667,black,experiment,legacy,legacy,legacy,0,uniform,1,undefined,1,right,17,17,17,0,0,17,17,0,0,17,17,17,0,17,0,10/27/19 12:47,The main experiment item,yes,Sternbergtask.osexp,C:/Users/Breena Riley/Desktop/2019 Fall/MultQuant/lab 3.1,no,mono,no,18,no,white,no,yes,768,legacy,5,11,C:/Users/Breena Riley/Desktop/2019 Fall/MultQuant/lab 3.1/BR-subject-4.csv,legacy,4 2 7 6 1 3,Kafkaesque Koffka,3.2.8,0,n,0,right,right,right,right,NA,904,3868,24158,904,NA,2,legacy,6,1024,2,48000,-16,experiment,4,even,8,135255,131954,133051,3206,103226,133053,54352,3214,79068,138161,134054,137256,7083,137256,NA,Sternberg task,16,11829,18,yes,1024
84.21052632,84.21052632,670.1052632,670.1052632,black,experiment,legacy,legacy,legacy,0,uniform,0,undefined,0,left,18,18,18,0,0,18,18,0,0,18,18,18,0,18,0,10/27/19 12:47,The main experiment item,yes,Sternbergtask.osexp,C:/Users/Breena Riley/Desktop/2019 Fall/MultQuant/lab 3.1,no,mono,no,18,no,white,no,yes,768,legacy,6,11,C:/Users/Breena Riley/Desktop/2019 Fall/MultQuant/lab 3.1/BR-subject-4.csv,legacy,2 6 1 7 4,Kafkaesque Koffka,3.2.8,2,y,0,right,right,right,right,NA,903,3868,24158,903,NA,2,legacy,5,1024,2,48000,-16,experiment,4,even,6,141464,138169,139258,3206,103226,139260,54352,3214,79068,144370,140262,143466,7083,143465,NA,Sternberg task,16,12732,19,yes,1024
85,85,688.8,688.8,black,experiment,legacy,legacy,legacy,0,uniform,1,undefined,1,right,19,19,19,0,0,19,19,0,0,19,19,19,0,19,0,10/27/19 12:47,The main experiment item,yes,Sternbergtask.osexp,C:/Users/Breena Riley/Desktop/2019 Fall/MultQuant/lab 3.1,no,mono,no,18,no,white,no,yes,768,legacy,7,11,C:/Users/Breena Riley/Desktop/2019 Fall/MultQuant/lab 3.1/BR-subject-4.csv,legacy,6 9 4 5 3 2,Kafkaesque Koffka,3.2.8,0,n,0,right,right,right,right,NA,1044,3868,24158,1044,NA,2,legacy,6,1024,2,48000,-16,experiment,4,even,8,147677,138169,145473,3206,103226,145475,144377,3214,79068,150722,146476,149678,7083,149678,NA,Sternberg task,17,13776,20,yes,1024
80.95238095,80.95238095,701.1904762,701.1904762,black,experiment,legacy,legacy,legacy,0,uniform,0,undefined,0,left,20,20,20,0,0,20,20,0,0,20,20,20,0,20,0,10/27/19 12:47,The main experiment item,yes,Sternbergtask.osexp,C:/Users/Breena Riley/Desktop/2019 Fall/MultQuant/lab 3.1,no,mono,no,18,no,white,no,yes,768,legacy,8,11,C:/Users/Breena Riley/Desktop/2019 Fall/MultQuant/lab 3.1/BR-subject-4.csv,legacy,8 5 1 3 9,Kafkaesque Koffka,3.2.8,4,y,0,right,right,right,right,NA,949,3868,24158,949,NA,2,legacy,5,1024,2,48000,-16,experiment,4,even,3,154023,150730,151819,3206,103226,151821,144377,3214,79068,156974,152822,156025,7083,156025,NA,Sternberg task,17,14725,21,yes,1024
81.81818182,81.81818182,708.1818182,708.1818182,black,experiment,legacy,legacy,legacy,0,uniform,1,undefined,1,right,21,21,21,0,0,21,21,0,0,21,21,21,0,21,0,10/27/19 12:47,The main experiment item,yes,Sternbergtask.osexp,C:/Users/Breena Riley/Desktop/2019 Fall/MultQuant/lab 3.1,no,mono,no,18,no,white,no,yes,768,legacy,9,11,C:/Users/Breena Riley/Desktop/2019 Fall/MultQuant/lab 3.1/BR-subject-4.csv,legacy,1 7 8 3 9,Kafkaesque Koffka,3.2.8,0,n,0,right,right,right,right,NA,855,3868,24158,855,NA,2,legacy,5,1024,2,48000,-16,experiment,4,even,2,160289,150730,158085,3206,103226,158087,156983,3214,79068,163145,159088,162290,7083,162290,NA,Sternberg task,18,15580,22,yes,1024
82.60869565,82.60869565,709.6956522,709.6956522,black,experiment,legacy,legacy,legacy,0,uniform,1,undefined,1,right,22,22,22,0,0,22,22,0,0,22,22,22,0,22,0,10/27/19 12:47,The main experiment item,yes,Sternbergtask.osexp,C:/Users/Breena Riley/Desktop/2019 Fall/MultQuant/lab 3.1,no,mono,no,18,no,white,no,yes,768,legacy,10,11,C:/Users/Breena Riley/Desktop/2019 Fall/MultQuant/lab 3.1/BR-subject-4.csv,legacy,6 2 9 3 8 4,Kafkaesque Koffka,3.2.8,0,n,0,right,right,right,right,NA,743,3868,24158,743,NA,2,legacy,6,1024,2,48000,-16,experiment,4,even,1,166446,163153,164241,3206,103226,164244,156983,3214,79068,169192,165245,168448,7083,168447,NA,Sternberg task,19,16323,23,yes,1024
83.33333333,83.33333333,712.2916667,712.2916667,black,experiment,legacy,legacy,legacy,0,uniform,1,undefined,1,right,23,23,23,0,0,23,23,0,0,23,23,23,0,23,0,10/27/19 12:47,The main experiment item,yes,Sternbergtask.osexp,C:/Users/Breena Riley/Desktop/2019 Fall/MultQuant/lab 3.1,no,mono,no,18,no,white,no,yes,768,legacy,11,11,C:/Users/Breena Riley/Desktop/2019 Fall/MultQuant/lab 3.1/BR-subject-4.csv,legacy,6 8 4,Kafkaesque Koffka,3.2.8,0,n,0,right,right,right,right,NA,772,3868,24158,772,NA,2,legacy,3,1024,2,48000,-16,experiment,4,even,1,172494,169199,170290,3206,103226,170291,156983,3214,79068,175268,171293,174495,7083,174495,NA,Sternberg task,20,17095,24,yes,1024
84,84,708.36,708.36,black,experiment,legacy,legacy,legacy,0,uniform,1,undefined,1,right,24,24,24,0,0,24,24,0,0,24,24,24,0,24,0,10/27/19 12:47,The main experiment item,yes,Sternbergtask.osexp,C:/Users/Breena Riley/Desktop/2019 Fall/MultQuant/lab 3.1,no,mono,no,18,no,white,no,yes,768,legacy,12,11,C:/Users/Breena Riley/Desktop/2019 Fall/MultQuant/lab 3.1/BR-subject-4.csv,legacy,1 7 5 2,Kafkaesque Koffka,3.2.8,0,n,0,right,right,right,right,NA,614,3868,24158,614,NA,2,legacy,4,1024,2,48000,-16,experiment,4,even,3,178570,175276,176366,3206,103226,176368,156983,3214,79068,181186,177369,180572,7083,180572,NA,Sternberg task,21,17709,25,yes,1024
84.61538462,84.61538462,719.0384615,719.0384615,black,experiment,legacy,legacy,legacy,0,uniform,1,undefined,1,left,25,25,25,0,0,25,25,0,0,25,25,25,0,25,0,10/27/19 12:47,The main experiment item,yes,Sternbergtask.osexp,C:/Users/Breena Riley/Desktop/2019 Fall/MultQuant/lab 3.1,no,mono,no,18,no,white,no,yes,768,legacy,13,11,C:/Users/Breena Riley/Desktop/2019 Fall/MultQuant/lab 3.1/BR-subject-4.csv,legacy,5 2 6,Kafkaesque Koffka,3.2.8,2,y,0,left,right,right,left,NA,986,3868,24158,986,NA,2,legacy,3,1024,2,48000,-16,experiment,4,even,2,184490,181194,182286,3206,103226,182288,156983,3214,79068,187478,183289,186492,7083,186491,NA,Sternberg task,22,18695,26,yes,1024
85.18518519,85.18518519,721.4814815,721.4814815,black,experiment,legacy,legacy,legacy,0,uniform,1,undefined,1,right,26,26,26,0,0,26,26,0,0,26,26,26,0,26,0,10/27/19 12:47,The main experiment item,yes,Sternbergtask.osexp,C:/Users/Breena Riley/Desktop/2019 Fall/MultQuant/lab 3.1,no,mono,no,18,no,white,no,yes,768,legacy,14,11,C:/Users/Breena Riley/Desktop/2019 Fall/MultQuant/lab 3.1/BR-subject-4.csv,legacy,3 9 8 1 6 4,Kafkaesque Koffka,3.2.8,0,n,0,right,right,right,right,NA,785,3868,24158,785,NA,2,legacy,6,1024,2,48000,-16,experiment,4,even,7,190780,187486,188576,3206,103226,188578,156983,3214,79068,193567,189579,192782,7083,192782,NA,Sternberg task,23,19480,27,yes,1024
85.71428571,85.71428571,719.5,719.5,black,experiment,legacy,legacy,legacy,0,uniform,1,undefined,1,right,27,27,27,0,0,27,27,0,0,27,27,27,0,27,0,10/27/19 12:47,The main experiment item,yes,Sternbergtask.osexp,C:/Users/Breena Riley/Desktop/2019 Fall/MultQuant/lab 3.1,no,mono,no,18,no,white,no,yes,768,legacy,15,11,C:/Users/Breena Riley/Desktop/2019 Fall/MultQuant/lab 3.1/BR-subject-4.csv,legacy,7 6 4 8 1 2,Kafkaesque Koffka,3.2.8,0,n,0,right,right,right,right,NA,666,3868,24158,666,NA,2,legacy,6,1024,2,48000,-16,experiment,4,even,9,196872,193575,194666,3206,103226,194668,156983,3214,79068,199541,195669,198874,7083,198874,NA,Sternberg task,24,20146,28,yes,1024
86.20689655,86.20689655,727.4137931,727.4137931,black,experiment,legacy,legacy,legacy,0,uniform,1,undefined,1,right,28,28,28,0,0,28,28,0,0,28,28,28,0,28,0,10/27/19 12:47,The main experiment item,yes,Sternbergtask.osexp,C:/Users/Breena Riley/Desktop/2019 Fall/MultQuant/lab 3.1,no,mono,no,18,no,white,no,yes,768,legacy,16,11,C:/Users/Breena Riley/Desktop/2019 Fall/MultQuant/lab 3.1/BR-subject-4.csv,legacy,2 5 1 4,Kafkaesque Koffka,3.2.8,0,n,0,right,right,right,right,NA,949,3868,24158,949,NA,2,legacy,4,1024,2,48000,-16,experiment,4,even,6,202841,199545,200636,3206,103226,200638,156983,3214,79068,205793,201639,204844,7083,204844,NA,Sternberg task,25,21095,29,yes,1024
86.66666667,86.66666667,726.7333333,726.7333333,black,experiment,legacy,legacy,legacy,0,uniform,1,undefined,1,left,29,29,29,0,0,29,29,0,0,29,29,29,0,29,0,10/27/19 12:47,The main experiment item,yes,Sternbergtask.osexp,C:/Users/Breena Riley/Desktop/2019 Fall/MultQuant/lab 3.1,no,mono,no,18,no,white,no,yes,768,legacy,17,11,C:/Users/Breena Riley/Desktop/2019 Fall/MultQuant/lab 3.1/BR-subject-4.csv,legacy,6 7 8 5,Kafkaesque Koffka,3.2.8,3,y,0,left,right,right,left,NA,707,3868,24158,707,NA,2,legacy,4,1024,2,48000,-16,experiment,4,even,8,209095,205802,206891,3206,103226,206893,156983,3214,79068,211804,207894,211096,7083,211096,NA,Sternberg task,26,21802,30,yes,1024
87.09677419,87.09677419,737.0322581,737.0322581,black,experiment,legacy,legacy,legacy,0,uniform,1,undefined,1,left,30,30,30,0,0,30,30,0,0,30,30,30,0,30,0,10/27/19 12:47,The main experiment item,yes,Sternbergtask.osexp,C:/Users/Breena Riley/Desktop/2019 Fall/MultQuant/lab 3.1,no,mono,no,18,no,white,no,yes,768,legacy,18,11,C:/Users/Breena Riley/Desktop/2019 Fall/MultQuant/lab 3.1/BR-subject-4.csv,legacy,2 4 6 9,Kafkaesque Koffka,3.2.8,3,y,0,left,right,right,left,NA,1046,3868,24158,1046,NA,2,legacy,4,1024,2,48000,-16,experiment,4,even,6,215109,211812,212904,3206,103226,212906,156983,3214,79068,218156,213907,217110,7083,217110,NA,Sternberg task,27,22848,31,yes,1024
87.5,87.5,735.28125,735.28125,black,experiment,legacy,legacy,legacy,0,uniform,1,undefined,1,left,31,31,31,0,0,31,31,0,0,31,31,31,0,31,0,10/27/19 12:47,The main experiment item,yes,Sternbergtask.osexp,C:/Users/Breena Riley/Desktop/2019 Fall/MultQuant/lab 3.1,no,mono,no,18,no,white,no,yes,768,legacy,19,11,C:/Users/Breena Riley/Desktop/2019 Fall/MultQuant/lab 3.1/BR-subject-4.csv,legacy,8 3,Kafkaesque Koffka,3.2.8,2,y,0,left,right,right,left,NA,681,3868,24158,681,NA,2,legacy,2,1024,2,48000,-16,experiment,4,even,3,221459,218164,219254,3206,103226,219257,156983,3214,79068,224142,220258,223460,7083,223460,NA,Sternberg task,28,23529,32,yes,1024
87.87878788,87.87878788,727.7272727,727.7272727,black,experiment,legacy,legacy,legacy,0,uniform,1,undefined,1,left,32,32,32,0,0,32,32,0,0,32,32,32,0,32,0,10/27/19 12:47,The main experiment item,yes,Sternbergtask.osexp,C:/Users/Breena Riley/Desktop/2019 Fall/MultQuant/lab 3.1,no,mono,no,18,no,white,no,yes,768,legacy,20,11,C:/Users/Breena Riley/Desktop/2019 Fall/MultQuant/lab 3.1/BR-subject-4.csv,legacy,2 3,Kafkaesque Koffka,3.2.8,1,y,0,left,right,right,left,NA,486,3868,24158,486,NA,2,legacy,2,1024,2,48000,-16,experiment,4,even,2,227447,224150,225241,3206,103226,225244,156983,3214,79068,229935,226246,229448,7083,229448,NA,Sternberg task,29,24015,33,yes,1024
88.23529412,88.23529412,718.1176471,718.1176471,black,experiment,legacy,legacy,legacy,0,uniform,1,undefined,1,left,33,33,33,0,0,33,33,0,0,33,33,33,0,33,0,10/27/19 12:47,The main experiment item,yes,Sternbergtask.osexp,C:/Users/Breena Riley/Desktop/2019 Fall/MultQuant/lab 3.1,no,mono,no,18,no,white,no,yes,768,legacy,21,11,C:/Users/Breena Riley/Desktop/2019 Fall/MultQuant/lab 3.1/BR-subject-4.csv,legacy,3 5 4 7,Kafkaesque Koffka,3.2.8,1,y,0,left,right,right,left,NA,401,3868,24158,401,NA,2,legacy,4,1024,2,48000,-16,experiment,4,even,3,233248,229944,231043,3206,103226,231046,156983,3214,79068,235653,232047,235251,7083,235251,NA,Sternberg task,30,24416,34,yes,1024
88.57142857,88.57142857,715.3714286,715.3714286,black,experiment,legacy,legacy,legacy,0,uniform,1,undefined,1,right,34,34,34,0,0,34,34,0,0,34,34,34,0,34,0,10/27/19 12:47,The main experiment item,yes,Sternbergtask.osexp,C:/Users/Breena Riley/Desktop/2019 Fall/MultQuant/lab 3.1,no,mono,no,18,no,white,no,yes,768,legacy,22,11,C:/Users/Breena Riley/Desktop/2019 Fall/MultQuant/lab 3.1/BR-subject-4.csv,legacy,2 3 8 5 6 7,Kafkaesque Koffka,3.2.8,0,n,0,right,right,right,right,NA,622,3868,24158,622,NA,2,legacy,6,1024,2,48000,-16,experiment,4,even,1,238957,235661,236752,3206,103226,236754,156983,3214,79068,241581,237755,240958,7083,240958,NA,Sternberg task,31,25038,35,yes,1024
88.88888889,88.88888889,721.1111111,721.1111111,black,experiment,legacy,legacy,legacy,0,uniform,1,undefined,1,right,35,35,35,0,0,35,35,0,0,35,35,35,0,35,0,10/27/19 12:47,The main experiment item,yes,Sternbergtask.osexp,C:/Users/Breena Riley/Desktop/2019 Fall/MultQuant/lab 3.1,no,mono,no,18,no,white,no,yes,768,legacy,23,11,C:/Users/Breena Riley/Desktop/2019 Fall/MultQuant/lab 3.1/BR-subject-4.csv,legacy,8 5 4 2 9 6,Kafkaesque Koffka,3.2.8,0,n,0,right,right,right,right,NA,922,3868,24158,922,NA,2,legacy,6,1024,2,48000,-16,experiment,4,even,3,244885,241589,242680,3206,103226,242681,156983,3214,79068,247810,243683,246887,7083,246887,NA,Sternberg task,32,25960,36,yes,1024
89.18918919,89.18918919,719.5405405,719.5405405,black,experiment,legacy,legacy,legacy,0,uniform,1,undefined,1,left,36,36,36,0,0,36,36,0,0,36,36,36,0,36,0,10/27/19 12:47,The main experiment item,yes,Sternbergtask.osexp,C:/Users/Breena Riley/Desktop/2019 Fall/MultQuant/lab 3.1,no,mono,no,18,no,white,no,yes,768,legacy,24,11,C:/Users/Breena Riley/Desktop/2019 Fall/MultQuant/lab 3.1/BR-subject-4.csv,legacy,2 4 8 5 1 3,Kafkaesque Koffka,3.2.8,1,y,0,left,right,right,left,NA,663,3868,24158,663,NA,2,legacy,6,1024,2,48000,-16,experiment,4,even,2,251116,247818,248910,3206,103226,248912,156983,3214,79068,253780,249914,253117,7083,253117,NA,Sternberg task,33,26623,37,yes,1024
86.84210526,86.84210526,719.5263158,719.5263158,black,experiment,legacy,legacy,legacy,0,uniform,0,undefined,0,left,37,37,37,0,0,37,37,0,0,37,37,37,0,37,0,10/27/19 12:47,The main experiment item,yes,Sternbergtask.osexp,C:/Users/Breena Riley/Desktop/2019 Fall/MultQuant/lab 3.1,no,mono,no,18,no,white,no,yes,768,legacy,25,11,C:/Users/Breena Riley/Desktop/2019 Fall/MultQuant/lab 3.1/BR-subject-4.csv,legacy,8 9 6 1,Kafkaesque Koffka,3.2.8,2,y,0,right,right,right,right,NA,719,3868,24158,719,NA,2,legacy,4,1024,2,48000,-16,experiment,4,even,9,257085,253788,254880,3206,103226,254883,156983,3214,79068,259807,255884,259087,7083,259086,NA,Sternberg task,33,27342,38,yes,1024
87.17948718,87.17948718,714.8974359,714.8974359,black,experiment,legacy,legacy,legacy,0,uniform,1,undefined,1,left,38,38,38,0,0,38,38,0,0,38,38,38,0,38,0,10/27/19 12:47,The main experiment item,yes,Sternbergtask.osexp,C:/Users/Breena Riley/Desktop/2019 Fall/MultQuant/lab 3.1,no,mono,no,18,no,white,no,yes,768,legacy,26,11,C:/Users/Breena Riley/Desktop/2019 Fall/MultQuant/lab 3.1/BR-subject-4.csv,legacy,7,Kafkaesque Koffka,3.2.8,1,y,0,left,right,right,left,NA,539,3868,24158,539,NA,2,legacy,1,1024,2,48000,-16,experiment,4,even,7,263112,253788,260906,3206,103226,260908,259815,3214,79068,265654,261910,265114,7083,265114,NA,Sternberg task,34,27881,39,yes,1024
87.5,87.5,715.175,715.175,black,experiment,legacy,legacy,legacy,0,uniform,1,undefined,1,right,39,39,39,0,0,39,39,0,0,39,39,39,0,39,0,10/27/19 12:47,The main experiment item,yes,Sternbergtask.osexp,C:/Users/Breena Riley/Desktop/2019 Fall/MultQuant/lab 3.1,no,mono,no,18,no,white,no,yes,768,legacy,27,11,C:/Users/Breena Riley/Desktop/2019 Fall/MultQuant/lab 3.1/BR-subject-4.csv,legacy,3 9 1,Kafkaesque Koffka,3.2.8,0,n,0,right,right,right,right,NA,726,3868,24158,726,NA,2,legacy,3,1024,2,48000,-16,experiment,4,even,7,268955,265661,266751,3206,103226,266753,259815,3214,79068,271683,267754,270956,7083,270956,NA,Sternberg task,35,28607,40,yes,1024
85.36585366,85.36585366,715.9756098,715.9756098,black,experiment,legacy,legacy,legacy,0,uniform,0,undefined,0,left,40,40,40,0,0,40,40,0,0,40,40,40,0,40,0,10/27/19 12:47,The main experiment item,yes,Sternbergtask.osexp,C:/Users/Breena Riley/Desktop/2019 Fall/MultQuant/lab 3.1,no,mono,no,18,no,white,no,yes,768,legacy,28,11,C:/Users/Breena Riley/Desktop/2019 Fall/MultQuant/lab 3.1/BR-subject-4.csv,legacy,4 6 2 5 1,Kafkaesque Koffka,3.2.8,5,y,0,right,right,right,right,NA,748,3868,24158,748,NA,2,legacy,5,1024,2,48000,-16,experiment,4,even,1,274985,271691,272780,3206,103226,272783,259815,3214,79068,277735,273784,276986,7083,276986,NA,Sternberg task,35,29355,41,yes,1024
85.71428571,85.71428571,713.8571429,713.8571429,black,experiment,legacy,legacy,legacy,0,uniform,1,undefined,1,right,41,41,41,0,0,41,41,0,0,41,41,41,0,41,0,10/27/19 12:47,The main experiment item,yes,Sternbergtask.osexp,C:/Users/Breena Riley/Desktop/2019 Fall/MultQuant/lab 3.1,no,mono,no,18,no,white,no,yes,768,legacy,29,11,C:/Users/Breena Riley/Desktop/2019 Fall/MultQuant/lab 3.1/BR-subject-4.csv,legacy,5 3 2 6 9 8,Kafkaesque Koffka,3.2.8,0,n,0,right,right,right,right,NA,627,3868,24158,627,NA,2,legacy,6,1024,2,48000,-16,experiment,4,even,4,281039,271691,278835,3206,103226,278837,277743,3214,79068,283668,279838,283040,7083,283040,NA,Sternberg task,36,29982,42,yes,1024
86.04651163,86.04651163,710.6976744,710.6976744,black,experiment,legacy,legacy,legacy,0,uniform,1,undefined,1,right,42,42,42,0,0,42,42,0,0,42,42,42,0,42,0,10/27/19 12:47,The main experiment item,yes,Sternbergtask.osexp,C:/Users/Breena Riley/Desktop/2019 Fall/MultQuant/lab 3.1,no,mono,no,18,no,white,no,yes,768,legacy,30,11,C:/Users/Breena Riley/Desktop/2019 Fall/MultQuant/lab 3.1/BR-subject-4.csv,legacy,8 9,Kafkaesque Koffka,3.2.8,0,n,0,right,right,right,right,NA,578,3868,24158,578,NA,2,legacy,2,1024,2,48000,-16,experiment,4,even,5,286970,283676,284767,3206,103226,284769,277743,3214,79068,289551,285770,288973,7083,288973,NA,Sternberg task,37,30560,43,yes,1024
84.09090909,84.09090909,710.1136364,710.1136364,black,experiment,legacy,legacy,legacy,0,uniform,0,undefined,0,right,43,43,43,0,0,43,43,0,0,43,43,43,0,43,0,10/27/19 12:47,The main experiment item,yes,Sternbergtask.osexp,C:/Users/Breena Riley/Desktop/2019 Fall/MultQuant/lab 3.1,no,mono,no,18,no,white,no,yes,768,legacy,31,11,C:/Users/Breena Riley/Desktop/2019 Fall/MultQuant/lab 3.1/BR-subject-4.csv,legacy,5 3 8 7 2 4,Kafkaesque Koffka,3.2.8,0,n,0,left,right,right,left,NA,685,3868,24158,685,NA,2,legacy,6,1024,2,48000,-16,experiment,4,even,9,292855,289559,290650,3206,103226,290652,277743,3214,79068,295543,291653,294857,7083,294856,NA,Sternberg task,37,31245,44,yes,1024
82.22222222,82.22222222,712.2666667,712.2666667,black,experiment,legacy,legacy,legacy,0,uniform,0,undefined,0,right,44,44,44,0,0,44,44,0,0,44,44,44,0,44,0,10/27/19 12:47,The main experiment item,yes,Sternbergtask.osexp,C:/Users/Breena Riley/Desktop/2019 Fall/MultQuant/lab 3.1,no,mono,no,18,no,white,no,yes,768,legacy,32,11,C:/Users/Breena Riley/Desktop/2019 Fall/MultQuant/lab 3.1/BR-subject-4.csv,legacy,2 8 9,Kafkaesque Koffka,3.2.8,0,n,0,left,right,right,left,NA,807,3868,24158,807,NA,2,legacy,3,1024,2,48000,-16,experiment,4,even,6,298844,289559,296639,3206,103226,296641,295551,3214,79068,301653,297642,300846,7083,300846,NA,Sternberg task,37,32052,45,yes,1024
82.60869565,82.60869565,711.4130435,711.4130435,black,experiment,legacy,legacy,legacy,0,uniform,1,undefined,1,right,45,45,45,0,0,45,45,0,0,45,45,45,0,45,0,10/27/19 12:47,The main experiment item,yes,Sternbergtask.osexp,C:/Users/Breena Riley/Desktop/2019 Fall/MultQuant/lab 3.1,no,mono,no,18,no,white,no,yes,768,legacy,33,11,C:/Users/Breena Riley/Desktop/2019 Fall/MultQuant/lab 3.1/BR-subject-4.csv,legacy,5 9 2 3,Kafkaesque Koffka,3.2.8,0,n,0,right,right,right,right,NA,673,3868,24158,673,NA,2,legacy,4,1024,2,48000,-16,experiment,4,even,8,304956,289559,302750,3206,103226,302753,301661,3214,79068,307631,303754,306957,7083,306957,NA,Sternberg task,38,32725,46,yes,1024
82.9787234,82.9787234,709.8085106,709.8085106,black,experiment,legacy,legacy,legacy,0,uniform,1,undefined,1,right,46,46,46,0,0,46,46,0,0,46,46,46,0,46,0,10/27/19 12:47,The main experiment item,yes,Sternbergtask.osexp,C:/Users/Breena Riley/Desktop/2019 Fall/MultQuant/lab 3.1,no,mono,no,18,no,white,no,yes,768,legacy,34,11,C:/Users/Breena Riley/Desktop/2019 Fall/MultQuant/lab 3.1/BR-subject-4.csv,legacy,7 8 6 1,Kafkaesque Koffka,3.2.8,0,n,0,right,right,right,right,NA,636,3868,24158,636,NA,2,legacy,4,1024,2,48000,-16,experiment,4,even,3,310931,307638,308726,3206,103226,308728,301661,3214,79068,313569,309730,312932,7083,312932,NA,Sternberg task,39,33361,47,yes,1024
83.33333333,83.33333333,712.0833333,712.0833333,black,experiment,legacy,legacy,legacy,0,uniform,1,undefined,1,left,47,47,47,0,0,47,47,0,0,47,47,47,0,47,0,10/27/19 12:47,The main experiment item,yes,Sternbergtask.osexp,C:/Users/Breena Riley/Desktop/2019 Fall/MultQuant/lab 3.1,no,mono,no,18,no,white,no,yes,768,legacy,35,11,C:/Users/Breena Riley/Desktop/2019 Fall/MultQuant/lab 3.1/BR-subject-4.csv,legacy,5 7 3 6 2,Kafkaesque Koffka,3.2.8,5,y,0,left,right,right,left,NA,819,3868,24158,819,NA,2,legacy,5,1024,2,48000,-16,experiment,4,even,2,316873,313577,314668,3206,103226,314670,301661,3214,79068,319694,315671,318874,7083,318874,NA,Sternberg task,40,34180,48,yes,1024
81.63265306,81.63265306,738.3673469,738.3673469,black,experiment,legacy,legacy,legacy,0,uniform,0,undefined,0,right,48,48,48,0,0,48,48,0,0,48,48,48,0,48,0,10/27/19 12:47,The main experiment item,yes,Sternbergtask.osexp,C:/Users/Breena Riley/Desktop/2019 Fall/MultQuant/lab 3.1,no,mono,no,18,no,white,no,yes,768,legacy,36,11,C:/Users/Breena Riley/Desktop/2019 Fall/MultQuant/lab 3.1/BR-subject-4.csv,legacy,7 3 2 8,Kafkaesque Koffka,3.2.8,0,n,0,None,right,right,None,NA,2000,3868,24158,2000,NA,2,legacy,4,1024,2,48000,-16,experiment,4,even,4,322997,319701,320792,3206,103226,320794,301661,3214,79068,326999,321795,324999,7083,324999,NA,Sternberg task,40,36180,49,yes,1024
82,82,739.36,739.36,black,experiment,legacy,legacy,legacy,0,uniform,1,undefined,1,right,49,49,49,0,0,49,49,0,0,49,49,49,0,49,0,10/27/19 12:47,The main experiment item,yes,Sternbergtask.osexp,C:/Users/Breena Riley/Desktop/2019 Fall/MultQuant/lab 3.1,no,mono,no,18,no,white,no,yes,768,legacy,37,11,C:/Users/Breena Riley/Desktop/2019 Fall/MultQuant/lab 3.1/BR-subject-4.csv,legacy,1 7 5 2 9,Kafkaesque Koffka,3.2.8,0,n,0,right,right,right,right,NA,788,3868,24158,788,NA,2,legacy,5,1024,2,48000,-16,experiment,4,even,3,330313,319701,328107,3206,103226,328109,327008,3214,79068,333104,329111,332315,7083,332315,NA,Sternberg task,41,36968,50,yes,1024
80.39215686,80.39215686,758.9607843,758.9607843,black,experiment,legacy,legacy,legacy,0,uniform,0,undefined,0,left,50,50,50,0,0,50,50,0,0,50,50,50,0,50,0,10/27/19 12:47,The main experiment item,yes,Sternbergtask.osexp,C:/Users/Breena Riley/Desktop/2019 Fall/MultQuant/lab 3.1,no,mono,no,18,no,white,no,yes,768,legacy,38,11,C:/Users/Breena Riley/Desktop/2019 Fall/MultQuant/lab 3.1/BR-subject-4.csv,legacy,9 5 3 8 4,Kafkaesque Koffka,3.2.8,1,y,0,right,right,right,right,NA,1739,3868,24158,1739,NA,2,legacy,5,1024,2,48000,-16,experiment,4,even,9,336405,333112,334201,3206,103226,334203,327008,3214,79068,340146,335204,338406,7083,338406,NA,Sternberg task,41,38707,51,yes,1024
80.76923077,80.76923077,757.6730769,757.6730769,black,experiment,legacy,legacy,legacy,0,uniform,1,undefined,1,right,51,51,51,0,0,51,51,0,0,51,51,51,0,51,0,10/27/19 12:47,The main experiment item,yes,Sternbergtask.osexp,C:/Users/Breena Riley/Desktop/2019 Fall/MultQuant/lab 3.1,no,mono,no,18,no,white,no,yes,768,legacy,39,11,C:/Users/Breena Riley/Desktop/2019 Fall/MultQuant/lab 3.1/BR-subject-4.csv,legacy,6 9 4 5 2,Kafkaesque Koffka,3.2.8,0,n,0,right,right,right,right,NA,692,3868,24158,692,NA,2,legacy,5,1024,2,48000,-16,experiment,4,even,1,343450,333112,341245,3206,103226,341247,340154,3214,79068,346145,342248,345452,7083,345451,NA,Sternberg task,42,39399,52,yes,1024
79.24528302,79.24528302,763.2641509,763.2641509,black,experiment,legacy,legacy,legacy,0,uniform,0,undefined,0,right,52,52,52,0,0,52,52,0,0,52,52,52,0,52,0,10/27/19 12:47,The main experiment item,yes,Sternbergtask.osexp,C:/Users/Breena Riley/Desktop/2019 Fall/MultQuant/lab 3.1,no,mono,no,18,no,white,no,yes,768,legacy,40,11,C:/Users/Breena Riley/Desktop/2019 Fall/MultQuant/lab 3.1/BR-subject-4.csv,legacy,9 7 4 5 8,Kafkaesque Koffka,3.2.8,0,n,0,left,right,right,left,NA,1054,3868,24158,1054,NA,2,legacy,5,1024,2,48000,-16,experiment,4,even,6,349446,346153,347241,3206,103226,347244,340154,3214,79068,352501,348245,351447,7083,351447,NA,Sternberg task,42,40453,53,yes,1024
79.62962963,79.62962963,761.9259259,761.9259259,black,experiment,legacy,legacy,legacy,0,uniform,1,undefined,1,left,53,53,53,0,0,53,53,0,0,53,53,53,0,53,0,10/27/19 12:47,The main experiment item,yes,Sternbergtask.osexp,C:/Users/Breena Riley/Desktop/2019 Fall/MultQuant/lab 3.1,no,mono,no,18,no,white,no,yes,768,legacy,41,11,C:/Users/Breena Riley/Desktop/2019 Fall/MultQuant/lab 3.1/BR-subject-4.csv,legacy,4 1 5,Kafkaesque Koffka,3.2.8,2,y,0,left,right,right,left,NA,691,3868,24158,691,NA,2,legacy,3,1024,2,48000,-16,experiment,4,even,1,355805,346153,353600,3206,103226,353602,352509,3214,79068,358498,354603,357807,7083,357807,NA,Sternberg task,43,41144,54,yes,1024
80,80,766.9636364,766.9636364,black,experiment,legacy,legacy,legacy,0,uniform,1,undefined,1,right,54,54,54,0,0,54,54,0,0,54,54,54,0,54,0,10/27/19 12:47,The main experiment item,yes,Sternbergtask.osexp,C:/Users/Breena Riley/Desktop/2019 Fall/MultQuant/lab 3.1,no,mono,no,18,no,white,no,yes,768,legacy,42,11,C:/Users/Breena Riley/Desktop/2019 Fall/MultQuant/lab 3.1/BR-subject-4.csv,legacy,1 4 9 2 5,Kafkaesque Koffka,3.2.8,0,n,0,right,right,right,right,NA,1039,3868,24158,1039,NA,2,legacy,5,1024,2,48000,-16,experiment,4,even,7,361805,358507,359601,3206,103226,359603,352509,3214,79068,364847,360604,363807,7083,363807,NA,Sternberg task,44,42183,55,yes,1024
80.35714286,80.35714286,770.75,770.75,black,experiment,legacy,legacy,legacy,0,uniform,1,undefined,1,right,55,55,55,0,0,55,55,0,0,55,55,55,0,55,0,10/27/19 12:47,The main experiment item,yes,Sternbergtask.osexp,C:/Users/Breena Riley/Desktop/2019 Fall/MultQuant/lab 3.1,no,mono,no,18,no,white,no,yes,768,legacy,43,11,C:/Users/Breena Riley/Desktop/2019 Fall/MultQuant/lab 3.1/BR-subject-4.csv,legacy,4 2 6 9,Kafkaesque Koffka,3.2.8,0,n,0,right,right,right,right,NA,979,3868,24158,979,NA,2,legacy,4,1024,2,48000,-16,experiment,4,even,7,368149,364855,365945,3206,103226,365947,352509,3214,79068,371131,366948,370151,7083,370150,NA,Sternberg task,45,43162,56,yes,1024
80.70175439,80.70175439,768.9824561,768.9824561,black,experiment,legacy,legacy,legacy,0,uniform,1,undefined,1,left,56,56,56,0,0,56,56,0,0,56,56,56,0,56,0,10/27/19 12:47,The main experiment item,yes,Sternbergtask.osexp,C:/Users/Breena Riley/Desktop/2019 Fall/MultQuant/lab 3.1,no,mono,no,18,no,white,no,yes,768,legacy,44,11,C:/Users/Breena Riley/Desktop/2019 Fall/MultQuant/lab 3.1/BR-subject-4.csv,legacy,4 1 8 7 5,Kafkaesque Koffka,3.2.8,3,y,0,left,right,right,left,NA,670,3868,24158,670,NA,2,legacy,5,1024,2,48000,-16,experiment,4,even,8,374434,371139,372228,3206,103226,372231,352509,3214,79068,377106,373233,376436,7083,376435,NA,Sternberg task,46,43832,57,yes,1024
81.03448276,81.03448276,785.1724138,785.1724138,black,experiment,legacy,legacy,legacy,0,uniform,1,undefined,1,right,57,57,57,0,0,57,57,0,0,57,57,57,0,57,0,10/27/19 12:47,The main experiment item,yes,Sternbergtask.osexp,C:/Users/Breena Riley/Desktop/2019 Fall/MultQuant/lab 3.1,no,mono,no,18,no,white,no,yes,768,legacy,45,11,C:/Users/Breena Riley/Desktop/2019 Fall/MultQuant/lab 3.1/BR-subject-4.csv,legacy,1 6 4,Kafkaesque Koffka,3.2.8,0,n,0,right,right,right,right,NA,1708,3868,24158,1708,NA,2,legacy,3,1024,2,48000,-16,experiment,4,even,7,380408,377114,378204,3206,103226,378206,352509,3214,79068,384117,379207,382409,7083,382409,NA,Sternberg task,47,45540,58,yes,1024
81.3559322,81.3559322,793.6779661,793.6779661,black,experiment,legacy,legacy,legacy,0,uniform,1,undefined,1,right,58,58,58,0,0,58,58,0,0,58,58,58,0,58,0,10/27/19 12:47,The main experiment item,yes,Sternbergtask.osexp,C:/Users/Breena Riley/Desktop/2019 Fall/MultQuant/lab 3.1,no,mono,no,18,no,white,no,yes,768,legacy,46,11,C:/Users/Breena Riley/Desktop/2019 Fall/MultQuant/lab 3.1/BR-subject-4.csv,legacy,8 2 1 4 5 9,Kafkaesque Koffka,3.2.8,0,n,0,right,right,right,right,NA,1287,3868,24158,1287,NA,2,legacy,6,1024,2,48000,-16,experiment,4,even,7,387422,384125,385218,3206,103226,385220,352509,3214,79068,390712,386221,389424,7083,389424,NA,Sternberg task,48,46827,59,yes,1024
81.66666667,81.66666667,792.3333333,792.3333333,black,experiment,legacy,legacy,legacy,0,uniform,1,undefined,1,left,59,59,59,0,0,59,59,0,0,59,59,59,0,59,0,10/27/19 12:47,The main experiment item,yes,Sternbergtask.osexp,C:/Users/Breena Riley/Desktop/2019 Fall/MultQuant/lab 3.1,no,mono,no,18,no,white,no,yes,768,legacy,47,11,C:/Users/Breena Riley/Desktop/2019 Fall/MultQuant/lab 3.1/BR-subject-4.csv,legacy,6 9 7 4 5 1,Kafkaesque Koffka,3.2.8,2,y,0,left,right,right,left,NA,713,3868,24158,713,NA,2,legacy,6,1024,2,48000,-16,experiment,4,even,9,394017,390720,391813,3206,103226,391815,352509,3214,79068,396733,392816,396019,7083,396019,NA,Sternberg task,49,47540,60,yes,1024
81.96721311,81.96721311,791.7213115,791.7213115,black,experiment,legacy,legacy,legacy,0,uniform,1,undefined,1,left,60,60,60,0,0,60,60,0,0,60,60,60,0,60,0,10/27/19 12:47,The main experiment item,yes,Sternbergtask.osexp,C:/Users/Breena Riley/Desktop/2019 Fall/MultQuant/lab 3.1,no,mono,no,18,no,white,no,yes,768,legacy,48,11,C:/Users/Breena Riley/Desktop/2019 Fall/MultQuant/lab 3.1/BR-subject-4.csv,legacy,3 5 7 1,Kafkaesque Koffka,3.2.8,3,y,0,left,right,right,left,NA,755,3868,24158,755,NA,2,legacy,4,1024,2,48000,-16,experiment,4,even,7,400034,396740,397830,3206,103226,397832,352509,3214,79068,402790,398833,402035,7083,402035,NA,Sternberg task,50,48295,61,yes,1024
82.25806452,82.25806452,789.0806452,789.0806452,black,experiment,legacy,legacy,legacy,0,uniform,1,undefined,1,left,61,61,61,0,0,61,61,0,0,61,61,61,0,61,0,10/27/19 12:47,The main experiment item,yes,Sternbergtask.osexp,C:/Users/Breena Riley/Desktop/2019 Fall/MultQuant/lab 3.1,no,mono,no,18,no,white,no,yes,768,legacy,49,11,C:/Users/Breena Riley/Desktop/2019 Fall/MultQuant/lab 3.1/BR-subject-4.csv,legacy,8 9 5 6 7,Kafkaesque Koffka,3.2.8,1,y,0,left,right,right,left,NA,628,3868,24158,628,NA,2,legacy,5,1024,2,48000,-16,experiment,4,even,8,406095,402799,403890,3206,103226,403892,352509,3214,79068,408725,404894,408097,7083,408096,NA,Sternberg task,51,48923,62,yes,1024
82.53968254,82.53968254,786.3809524,786.3809524,black,experiment,legacy,legacy,legacy,0,uniform,1,undefined,1,left,62,62,62,0,0,62,62,0,0,62,62,62,0,62,0,10/27/19 12:47,The main experiment item,yes,Sternbergtask.osexp,C:/Users/Breena Riley/Desktop/2019 Fall/MultQuant/lab 3.1,no,mono,no,18,no,white,no,yes,768,legacy,50,11,C:/Users/Breena Riley/Desktop/2019 Fall/MultQuant/lab 3.1/BR-subject-4.csv,legacy,9 8 4,Kafkaesque Koffka,3.2.8,1,y,0,left,right,right,left,NA,619,3868,24158,619,NA,2,legacy,3,1024,2,48000,-16,experiment,4,even,9,412024,408729,409818,3206,103226,409820,352509,3214,79068,414646,410822,414026,7083,414025,NA,Sternberg task,52,49542,63,yes,1024
82.8125,82.8125,785.125,785.125,black,experiment,legacy,legacy,legacy,0,uniform,1,undefined,1,right,63,63,63,0,0,63,63,0,0,63,63,63,0,63,0,10/27/19 12:47,The main experiment item,yes,Sternbergtask.osexp,C:/Users/Breena Riley/Desktop/2019 Fall/MultQuant/lab 3.1,no,mono,no,18,no,white,no,yes,768,legacy,51,11,C:/Users/Breena Riley/Desktop/2019 Fall/MultQuant/lab 3.1/BR-subject-4.csv,legacy,9 5 3 2 8 6,Kafkaesque Koffka,3.2.8,0,n,0,right,right,right,right,NA,706,3868,24158,706,NA,2,legacy,6,1024,2,48000,-16,experiment,4,even,7,417948,414654,415743,3206,103226,415745,352509,3214,79068,420657,416746,419950,7083,419950,NA,Sternberg task,53,50248,64,yes,1024
83.07692308,83.07692308,782,782,black,experiment,legacy,legacy,legacy,0,uniform,1,undefined,1,left,64,64,64,0,0,64,64,0,0,64,64,64,0,64,0,10/27/19 12:47,The main experiment item,yes,Sternbergtask.osexp,C:/Users/Breena Riley/Desktop/2019 Fall/MultQuant/lab 3.1,no,mono,no,18,no,white,no,yes,768,legacy,52,11,C:/Users/Breena Riley/Desktop/2019 Fall/MultQuant/lab 3.1/BR-subject-4.csv,legacy,9 4 2,Kafkaesque Koffka,3.2.8,1,y,0,left,right,right,left,NA,582,3868,24158,582,NA,2,legacy,3,1024,2,48000,-16,experiment,4,even,9,423958,420665,421754,3206,103226,421756,352509,3214,79068,426543,422757,425960,7083,425960,NA,Sternberg task,54,50830,65,yes,1024
83.33333333,83.33333333,779.7121212,779.7121212,black,experiment,legacy,legacy,legacy,0,uniform,1,undefined,1,right,65,65,65,0,0,65,65,0,0,65,65,65,0,65,0,10/27/19 12:47,The main experiment item,yes,Sternbergtask.osexp,C:/Users/Breena Riley/Desktop/2019 Fall/MultQuant/lab 3.1,no,mono,no,18,no,white,no,yes,768,legacy,53,11,C:/Users/Breena Riley/Desktop/2019 Fall/MultQuant/lab 3.1/BR-subject-4.csv,legacy,1,Kafkaesque Koffka,3.2.8,0,n,0,right,right,right,right,NA,631,3868,24158,631,NA,2,legacy,1,1024,2,48000,-16,experiment,4,even,7,429846,426551,427642,3206,103226,427644,352509,3214,79068,432479,428645,431848,7083,431848,NA,Sternberg task,55,51461,66,yes,1024
82.08955224,82.08955224,779.6716418,779.6716418,black,experiment,legacy,legacy,legacy,0,uniform,0,undefined,0,left,66,66,66,0,0,66,66,0,0,66,66,66,0,66,0,10/27/19 12:47,The main experiment item,yes,Sternbergtask.osexp,C:/Users/Breena Riley/Desktop/2019 Fall/MultQuant/lab 3.1,no,mono,no,18,no,white,no,yes,768,legacy,54,11,C:/Users/Breena Riley/Desktop/2019 Fall/MultQuant/lab 3.1/BR-subject-4.csv,legacy,3 4,Kafkaesque Koffka,3.2.8,1,y,0,right,right,right,right,NA,777,3868,24158,777,NA,2,legacy,2,1024,2,48000,-16,experiment,4,even,3,435780,432488,433577,3206,103226,433578,352509,3214,79068,438561,434579,437783,7083,437782,NA,Sternberg task,55,52238,67,yes,1024
82.35294118,82.35294118,779.75,779.75,black,experiment,legacy,legacy,legacy,0,uniform,1,undefined,1,left,67,67,67,0,0,67,67,0,0,67,67,67,0,67,0,10/27/19 12:47,The main experiment item,yes,Sternbergtask.osexp,C:/Users/Breena Riley/Desktop/2019 Fall/MultQuant/lab 3.1,no,mono,no,18,no,white,no,yes,768,legacy,55,11,C:/Users/Breena Riley/Desktop/2019 Fall/MultQuant/lab 3.1/BR-subject-4.csv,legacy,3 5 9 6 2 4,Kafkaesque Koffka,3.2.8,1,y,0,left,right,right,left,NA,785,3868,24158,785,NA,2,legacy,6,1024,2,48000,-16,experiment,4,even,3,441885,432488,439680,3206,103226,439682,438568,3214,79068,444672,440683,443886,7083,443886,NA,Sternberg task,56,53023,68,yes,1024
82.60869565,82.60869565,779.5072464,779.5072464,black,experiment,legacy,legacy,legacy,0,uniform,1,undefined,1,right,68,68,68,0,0,68,68,0,0,68,68,68,0,68,0,10/27/19 12:47,The main experiment item,yes,Sternbergtask.osexp,C:/Users/Breena Riley/Desktop/2019 Fall/MultQuant/lab 3.1,no,mono,no,18,no,white,no,yes,768,legacy,56,11,C:/Users/Breena Riley/Desktop/2019 Fall/MultQuant/lab 3.1/BR-subject-4.csv,legacy,2 7 5,Kafkaesque Koffka,3.2.8,0,n,0,right,right,right,right,NA,763,3868,24158,763,NA,2,legacy,3,1024,2,48000,-16,experiment,4,even,8,447974,444680,445770,3206,103226,445772,438568,3214,79068,450740,446773,449976,7083,449976,NA,Sternberg task,57,53786,69,yes,1024
82.85714286,82.85714286,775.5571429,775.5571429,black,experiment,legacy,legacy,legacy,0,uniform,1,undefined,1,left,69,69,69,0,0,69,69,0,0,69,69,69,0,69,0,10/27/19 12:47,The main experiment item,yes,Sternbergtask.osexp,C:/Users/Breena Riley/Desktop/2019 Fall/MultQuant/lab 3.1,no,mono,no,18,no,white,no,yes,768,legacy,57,11,C:/Users/Breena Riley/Desktop/2019 Fall/MultQuant/lab 3.1/BR-subject-4.csv,legacy,4 7 6 8 2 3,Kafkaesque Koffka,3.2.8,6,y,0,left,right,right,left,NA,503,3868,24158,503,NA,2,legacy,6,1024,2,48000,-16,experiment,4,even,3,454044,450748,451838,3206,103226,451840,438568,3214,79068,456550,452841,456046,7083,456045,NA,Sternberg task,58,54289,70,yes,1024
83.09859155,83.09859155,773.2816901,773.2816901,black,experiment,legacy,legacy,legacy,0,uniform,1,undefined,1,left,70,70,70,0,0,70,70,0,0,70,70,70,0,70,0,10/27/19 12:47,The main experiment item,yes,Sternbergtask.osexp,C:/Users/Breena Riley/Desktop/2019 Fall/MultQuant/lab 3.1,no,mono,no,18,no,white,no,yes,768,legacy,58,11,C:/Users/Breena Riley/Desktop/2019 Fall/MultQuant/lab 3.1/BR-subject-4.csv,legacy,9 3 8 2 1 4,Kafkaesque Koffka,3.2.8,3,y,0,left,right,right,left,NA,614,3868,24158,614,NA,2,legacy,6,1024,2,48000,-16,experiment,4,even,8,459854,456558,457649,3206,103226,457651,438568,3214,79068,462470,458652,461855,7083,461855,NA,Sternberg task,59,54903,71,yes,1024
83.33333333,83.33333333,770.9166667,770.9166667,black,experiment,legacy,legacy,legacy,0,uniform,1,undefined,1,right,71,71,71,0,0,71,71,0,0,71,71,71,0,71,0,10/27/19 12:47,The main experiment item,yes,Sternbergtask.osexp,C:/Users/Breena Riley/Desktop/2019 Fall/MultQuant/lab 3.1,no,mono,no,18,no,white,no,yes,768,legacy,59,11,C:/Users/Breena Riley/Desktop/2019 Fall/MultQuant/lab 3.1/BR-subject-4.csv,legacy,2 8 6 3 1,Kafkaesque Koffka,3.2.8,0,n,0,right,right,right,right,NA,603,3868,24158,603,NA,2,legacy,5,1024,2,48000,-16,experiment,4,even,7,465773,462478,463567,3206,103226,463569,438568,3214,79068,468378,464571,467774,7083,467774,NA,Sternberg task,60,55506,72,yes,1024
83.56164384,83.56164384,771.0547945,771.0547945,black,experiment,legacy,legacy,legacy,0,uniform,1,undefined,1,left,72,72,72,0,0,72,72,0,0,72,72,72,0,72,0,10/27/19 12:47,The main experiment item,yes,Sternbergtask.osexp,C:/Users/Breena Riley/Desktop/2019 Fall/MultQuant/lab 3.1,no,mono,no,18,no,white,no,yes,768,legacy,60,11,C:/Users/Breena Riley/Desktop/2019 Fall/MultQuant/lab 3.1/BR-subject-4.csv,legacy,8 7 3,Kafkaesque Koffka,3.2.8,1,y,0,left,right,right,left,NA,781,3868,24158,781,NA,2,legacy,3,1024,2,48000,-16,experiment,4,even,8,471679,468385,469474,3206,103226,469476,438568,3214,79068,474463,470477,473681,7083,473681,NA,Sternberg task,61,56287,73,yes,1024
83.78378378,83.78378378,767.8783784,767.8783784,black,experiment,legacy,legacy,legacy,0,uniform,1,undefined,1,right,73,73,73,0,0,73,73,0,0,73,73,73,0,73,0,10/27/19 12:47,The main experiment item,yes,Sternbergtask.osexp,C:/Users/Breena Riley/Desktop/2019 Fall/MultQuant/lab 3.1,no,mono,no,18,no,white,no,yes,768,legacy,61,11,C:/Users/Breena Riley/Desktop/2019 Fall/MultQuant/lab 3.1/BR-subject-4.csv,legacy,7 1,Kafkaesque Koffka,3.2.8,0,n,0,right,right,right,right,NA,536,3868,24158,536,NA,2,legacy,2,1024,2,48000,-16,experiment,4,even,8,477765,474472,475561,3206,103226,475563,438568,3214,79068,480304,476564,479767,7083,479767,NA,Sternberg task,62,56823,74,yes,1024
84,84,769.2933333,769.2933333,black,experiment,legacy,legacy,legacy,0,uniform,1,undefined,1,right,74,74,74,0,0,74,74,0,0,74,74,74,0,74,0,10/27/19 12:47,The main experiment item,yes,Sternbergtask.osexp,C:/Users/Breena Riley/Desktop/2019 Fall/MultQuant/lab 3.1,no,mono,no,18,no,white,no,yes,768,legacy,62,11,C:/Users/Breena Riley/Desktop/2019 Fall/MultQuant/lab 3.1/BR-subject-4.csv,legacy,2 8 7 9 5 3,Kafkaesque Koffka,3.2.8,0,n,0,right,right,right,right,NA,874,3868,24158,874,NA,2,legacy,6,1024,2,48000,-16,experiment,4,even,6,483609,480312,481405,3206,103226,481407,438568,3214,79068,486485,482408,485610,7083,485610,NA,Sternberg task,63,57697,75,yes,1024
82.89473684,82.89473684,769.1973684,769.1973684,black,experiment,legacy,legacy,legacy,0,uniform,0,undefined,0,left,75,75,75,0,0,75,75,0,0,75,75,75,0,75,0,10/27/19 12:47,The main experiment item,yes,Sternbergtask.osexp,C:/Users/Breena Riley/Desktop/2019 Fall/MultQuant/lab 3.1,no,mono,no,18,no,white,no,yes,768,legacy,63,11,C:/Users/Breena Riley/Desktop/2019 Fall/MultQuant/lab 3.1/BR-subject-4.csv,legacy,6 8 9 3 4 9,Kafkaesque Koffka,3.2.8,5,y,0,right,right,right,right,NA,762,3868,24158,762,NA,2,legacy,6,1024,2,48000,-16,experiment,4,even,4,489789,486493,487583,3206,103226,487585,438568,3214,79068,492554,488587,491791,7083,491791,NA,Sternberg task,63,58459,76,yes,1024
83.11688312,83.11688312,768.8701299,768.8701299,black,experiment,legacy,legacy,legacy,0,uniform,1,undefined,1,left,76,76,76,0,0,76,76,0,0,76,76,76,0,76,0,10/27/19 12:47,The main experiment item,yes,Sternbergtask.osexp,C:/Users/Breena Riley/Desktop/2019 Fall/MultQuant/lab 3.1,no,mono,no,18,no,white,no,yes,768,legacy,64,11,C:/Users/Breena Riley/Desktop/2019 Fall/MultQuant/lab 3.1/BR-subject-4.csv,legacy,7 4 2 6 3 5,Kafkaesque Koffka,3.2.8,6,y,0,left,right,right,left,NA,744,3868,24158,744,NA,2,legacy,6,1024,2,48000,-16,experiment,4,even,5,495860,486493,493655,3206,103226,493657,492562,3214,79068,498606,494659,497861,7083,497861,NA,Sternberg task,64,59203,77,yes,1024
83.33333333,83.33333333,768.7564103,768.7564103,black,experiment,legacy,legacy,legacy,0,uniform,1,undefined,1,left,77,77,77,0,0,77,77,0,0,77,77,77,0,77,0,10/27/19 12:47,The main experiment item,yes,Sternbergtask.osexp,C:/Users/Breena Riley/Desktop/2019 Fall/MultQuant/lab 3.1,no,mono,no,18,no,white,no,yes,768,legacy,65,11,C:/Users/Breena Riley/Desktop/2019 Fall/MultQuant/lab 3.1/BR-subject-4.csv,legacy,9 6 2 4 1,Kafkaesque Koffka,3.2.8,4,y,0,left,right,right,left,NA,760,3868,24158,760,NA,2,legacy,5,1024,2,48000,-16,experiment,4,even,4,501906,498614,499702,3206,103226,499704,492562,3214,79068,504668,500704,503907,7083,503907,NA,Sternberg task,65,59963,78,yes,1024
83.5443038,83.5443038,767.5063291,767.5063291,black,experiment,legacy,legacy,legacy,0,uniform,1,undefined,1,left,78,78,78,0,0,78,78,0,0,78,78,78,0,78,0,10/27/19 12:47,The main experiment item,yes,Sternbergtask.osexp,C:/Users/Breena Riley/Desktop/2019 Fall/MultQuant/lab 3.1,no,mono,no,18,no,white,no,yes,768,legacy,66,11,C:/Users/Breena Riley/Desktop/2019 Fall/MultQuant/lab 3.1/BR-subject-4.csv,legacy,7 8 6 3 1,Kafkaesque Koffka,3.2.8,5,y,0,left,right,right,left,NA,670,3868,24158,670,NA,2,legacy,5,1024,2,48000,-16,experiment,4,even,1,507973,504676,505768,3206,103226,505770,492562,3214,79068,510645,506772,509974,7083,509974,NA,Sternberg task,66,60633,79,yes,1024
83.75,83.75,766.8125,766.8125,black,experiment,legacy,legacy,legacy,0,uniform,1,undefined,1,right,79,79,79,0,0,79,79,0,0,79,79,79,0,79,0,10/27/19 12:47,The main experiment item,yes,Sternbergtask.osexp,C:/Users/Breena Riley/Desktop/2019 Fall/MultQuant/lab 3.1,no,mono,no,18,no,white,no,yes,768,legacy,67,11,C:/Users/Breena Riley/Desktop/2019 Fall/MultQuant/lab 3.1/BR-subject-4.csv,legacy,2 8 9 4 1,Kafkaesque Koffka,3.2.8,0,n,0,right,right,right,right,NA,712,3868,24158,712,NA,2,legacy,5,1024,2,48000,-16,experiment,4,even,5,513948,510654,511743,3206,103226,511745,492562,3214,79068,516663,512746,515950,7083,515949,NA,Sternberg task,67,61345,80,yes,1024
83.95061728,83.95061728,768.1358025,768.1358025,black,experiment,legacy,legacy,legacy,0,uniform,1,undefined,1,right,80,80,80,0,0,80,80,0,0,80,80,80,0,80,0,10/27/19 12:47,The main experiment item,yes,Sternbergtask.osexp,C:/Users/Breena Riley/Desktop/2019 Fall/MultQuant/lab 3.1,no,mono,no,18,no,white,no,yes,768,legacy,68,11,C:/Users/Breena Riley/Desktop/2019 Fall/MultQuant/lab 3.1/BR-subject-4.csv,legacy,8 5 7 3 6,Kafkaesque Koffka,3.2.8,0,n,0,right,right,right,right,NA,874,3868,24158,874,NA,2,legacy,5,1024,2,48000,-16,experiment,4,even,9,519965,516671,517761,3206,103226,517763,492562,3214,79068,522843,518764,521968,7083,521967,NA,Sternberg task,68,62219,81,yes,1024
84.14634146,84.14634146,768.3170732,768.3170732,black,experiment,legacy,legacy,legacy,0,uniform,1,undefined,1,right,81,81,81,0,0,81,81,0,0,81,81,81,0,81,0,10/27/19 12:47,The main experiment item,yes,Sternbergtask.osexp,C:/Users/Breena Riley/Desktop/2019 Fall/MultQuant/lab 3.1,no,mono,no,18,no,white,no,yes,768,legacy,69,11,C:/Users/Breena Riley/Desktop/2019 Fall/MultQuant/lab 3.1/BR-subject-4.csv,legacy,3 4 9 6 7 8,Kafkaesque Koffka,3.2.8,0,n,0,right,right,right,right,NA,783,3868,24158,783,NA,2,legacy,6,1024,2,48000,-16,experiment,4,even,2,526144,522849,523939,3206,103226,523941,492562,3214,79068,528930,524943,528147,7083,528146,NA,Sternberg task,69,63002,82,yes,1024
83.13253012,83.13253012,766.0722892,766.0722892,black,experiment,legacy,legacy,legacy,0,uniform,0,undefined,0,left,82,82,82,0,0,82,82,0,0,82,82,82,0,82,0,10/27/19 12:47,The main experiment item,yes,Sternbergtask.osexp,C:/Users/Breena Riley/Desktop/2019 Fall/MultQuant/lab 3.1,no,mono,no,18,no,white,no,yes,768,legacy,70,11,C:/Users/Breena Riley/Desktop/2019 Fall/MultQuant/lab 3.1/BR-subject-4.csv,legacy,6 5,Kafkaesque Koffka,3.2.8,2,y,0,right,right,right,right,NA,582,3868,24158,582,NA,2,legacy,2,1024,2,48000,-16,experiment,4,even,5,532246,528939,530041,3206,103226,530043,492562,3214,79068,534831,531044,534248,7083,534247,NA,Sternberg task,69,63584,83,yes,1024
82.14285714,82.14285714,764.8452381,764.8452381,black,experiment,legacy,legacy,legacy,0,uniform,0,undefined,0,right,83,83,83,0,0,83,83,0,0,83,83,83,0,83,0,10/27/19 12:47,The main experiment item,yes,Sternbergtask.osexp,C:/Users/Breena Riley/Desktop/2019 Fall/MultQuant/lab 3.1,no,mono,no,18,no,white,no,yes,768,legacy,71,11,C:/Users/Breena Riley/Desktop/2019 Fall/MultQuant/lab 3.1/BR-subject-4.csv,legacy,6 9 7 3 8 2,Kafkaesque Koffka,3.2.8,0,n,0,left,right,right,left,NA,663,3868,24158,663,NA,2,legacy,6,1024,2,48000,-16,experiment,4,even,5,538134,528939,535928,3206,103226,535930,534839,3214,79068,540800,536932,540136,7083,540136,NA,Sternberg task,69,64247,84,yes,1024
82.35294118,82.35294118,763.5294118,763.5294118,black,experiment,legacy,legacy,legacy,0,uniform,1,undefined,1,left,84,84,84,0,0,84,84,0,0,84,84,84,0,84,0,10/27/19 12:47,The main experiment item,yes,Sternbergtask.osexp,C:/Users/Breena Riley/Desktop/2019 Fall/MultQuant/lab 3.1,no,mono,no,18,no,white,no,yes,768,legacy,72,11,C:/Users/Breena Riley/Desktop/2019 Fall/MultQuant/lab 3.1/BR-subject-4.csv,legacy,2 8 5 1,Kafkaesque Koffka,3.2.8,4,y,0,left,right,right,left,NA,653,3868,24158,653,NA,2,legacy,4,1024,2,48000,-16,experiment,4,even,1,544105,528939,541899,3206,103226,541900,540809,3214,79068,546761,542902,546107,7083,546106,NA,Sternberg task,70,64900,85,yes,1024
81.39534884,81.39534884,767.7790698,767.7790698,black,experiment,legacy,legacy,legacy,0,uniform,0,undefined,0,right,85,85,85,0,0,85,85,0,0,85,85,85,0,85,0,10/27/19 12:47,The main experiment item,yes,Sternbergtask.osexp,C:/Users/Breena Riley/Desktop/2019 Fall/MultQuant/lab 3.1,no,mono,no,18,no,white,no,yes,768,legacy,73,11,C:/Users/Breena Riley/Desktop/2019 Fall/MultQuant/lab 3.1/BR-subject-4.csv,legacy,6 3 1 7 9 8,Kafkaesque Koffka,3.2.8,0,n,0,left,right,right,left,NA,1129,3868,24158,1129,NA,2,legacy,6,1024,2,48000,-16,experiment,4,even,4,550067,546769,547862,3206,103226,547865,540809,3214,79068,553199,548866,552069,7083,552069,NA,Sternberg task,70,66029,86,yes,1024
80.45977011,80.45977011,769.2413793,769.2413793,black,experiment,legacy,legacy,legacy,0,uniform,0,undefined,0,right,86,86,86,0,0,86,86,0,0,86,86,86,0,86,0,10/27/19 12:47,The main experiment item,yes,Sternbergtask.osexp,C:/Users/Breena Riley/Desktop/2019 Fall/MultQuant/lab 3.1,no,mono,no,18,no,white,no,yes,768,legacy,74,11,C:/Users/Breena Riley/Desktop/2019 Fall/MultQuant/lab 3.1/BR-subject-4.csv,legacy,8 4 3 5,Kafkaesque Koffka,3.2.8,0,n,0,left,right,right,left,NA,895,3868,24158,895,NA,2,legacy,4,1024,2,48000,-16,experiment,4,even,6,556501,546769,554294,3206,103226,554297,553206,3214,79068,559398,555299,558502,7083,558502,NA,Sternberg task,70,66924,87,yes,1024
80.68181818,80.68181818,766.3977273,766.3977273,black,experiment,legacy,legacy,legacy,0,uniform,1,undefined,1,left,87,87,87,0,0,87,87,0,0,87,87,87,0,87,0,10/27/19 12:47,The main experiment item,yes,Sternbergtask.osexp,C:/Users/Breena Riley/Desktop/2019 Fall/MultQuant/lab 3.1,no,mono,no,18,no,white,no,yes,768,legacy,75,11,C:/Users/Breena Riley/Desktop/2019 Fall/MultQuant/lab 3.1/BR-subject-4.csv,legacy,7 6,Kafkaesque Koffka,3.2.8,2,y,0,left,right,right,left,NA,519,3868,24158,519,NA,2,legacy,2,1024,2,48000,-16,experiment,4,even,6,562695,546769,560490,3206,103226,560493,559402,3214,79068,565217,561494,564697,7083,564697,NA,Sternberg task,71,67443,88,yes,1024
80.8988764,80.8988764,764.6067416,764.6067416,black,experiment,legacy,legacy,legacy,0,uniform,1,undefined,1,left,88,88,88,0,0,88,88,0,0,88,88,88,0,88,0,10/27/19 12:47,The main experiment item,yes,Sternbergtask.osexp,C:/Users/Breena Riley/Desktop/2019 Fall/MultQuant/lab 3.1,no,mono,no,18,no,white,no,yes,768,legacy,76,11,C:/Users/Breena Riley/Desktop/2019 Fall/MultQuant/lab 3.1/BR-subject-4.csv,legacy,7 8 4 6 9 5,Kafkaesque Koffka,3.2.8,4,y,0,left,right,right,left,NA,607,3868,24158,607,NA,2,legacy,6,1024,2,48000,-16,experiment,4,even,6,568522,565224,566317,3206,103226,566319,559402,3214,79068,571133,567320,570524,7083,570524,NA,Sternberg task,72,68050,89,yes,1024
81.11111111,81.11111111,763.2222222,763.2222222,black,experiment,legacy,legacy,legacy,0,uniform,1,undefined,1,left,89,89,89,0,0,89,89,0,0,89,89,89,0,89,0,10/27/19 12:47,The main experiment item,yes,Sternbergtask.osexp,C:/Users/Breena Riley/Desktop/2019 Fall/MultQuant/lab 3.1,no,mono,no,18,no,white,no,yes,768,legacy,77,11,C:/Users/Breena Riley/Desktop/2019 Fall/MultQuant/lab 3.1/BR-subject-4.csv,legacy,9 1 6 7 8,Kafkaesque Koffka,3.2.8,1,y,0,left,right,right,left,NA,640,3868,24158,640,NA,2,legacy,5,1024,2,48000,-16,experiment,4,even,9,574437,571141,572231,3206,103226,572233,559402,3214,79068,577080,573235,576439,7083,576438,NA,Sternberg task,73,68690,90,yes,1024
81.31868132,81.31868132,764.1648352,764.1648352,black,experiment,legacy,legacy,legacy,0,uniform,1,undefined,1,right,90,90,90,0,0,90,90,0,0,90,90,90,0,90,0,10/27/19 12:47,The main experiment item,yes,Sternbergtask.osexp,C:/Users/Breena Riley/Desktop/2019 Fall/MultQuant/lab 3.1,no,mono,no,18,no,white,no,yes,768,legacy,78,11,C:/Users/Breena Riley/Desktop/2019 Fall/MultQuant/lab 3.1/BR-subject-4.csv,legacy,3 4 2,Kafkaesque Koffka,3.2.8,0,n,0,right,right,right,right,NA,849,3868,24158,849,NA,2,legacy,3,1024,2,48000,-16,experiment,4,even,5,580386,577088,578181,3206,103226,578183,559402,3214,79068,583238,579184,582388,7083,582387,NA,Sternberg task,74,69539,91,yes,1024
81.52173913,81.52173913,762.4130435,762.4130435,black,experiment,legacy,legacy,legacy,0,uniform,1,undefined,1,right,91,91,91,0,0,91,91,0,0,91,91,91,0,91,0,10/27/19 12:47,The main experiment item,yes,Sternbergtask.osexp,C:/Users/Breena Riley/Desktop/2019 Fall/MultQuant/lab 3.1,no,mono,no,18,no,white,no,yes,768,legacy,79,11,C:/Users/Breena Riley/Desktop/2019 Fall/MultQuant/lab 3.1/BR-subject-4.csv,legacy,6 8,Kafkaesque Koffka,3.2.8,0,n,0,right,right,right,right,NA,603,3868,24158,603,NA,2,legacy,2,1024,2,48000,-16,experiment,4,even,9,586539,583246,584336,3206,103226,584337,559402,3214,79068,589144,585338,588540,7083,588540,NA,Sternberg task,75,70142,92,yes,1024
80.64516129,80.64516129,762.2580645,762.2580645,black,experiment,legacy,legacy,legacy,0,uniform,0,undefined,0,right,92,92,92,0,0,92,92,0,0,92,92,92,0,92,0,10/27/19 12:47,The main experiment item,yes,Sternbergtask.osexp,C:/Users/Breena Riley/Desktop/2019 Fall/MultQuant/lab 3.1,no,mono,no,18,no,white,no,yes,768,legacy,80,11,C:/Users/Breena Riley/Desktop/2019 Fall/MultQuant/lab 3.1/BR-subject-4.csv,legacy,7 1 5 6 3,Kafkaesque Koffka,3.2.8,0,n,0,left,right,right,left,NA,748,3868,24158,748,NA,2,legacy,5,1024,2,48000,-16,experiment,4,even,8,592447,589152,590243,3206,103226,590245,559402,3214,79068,595197,591246,594448,7083,594448,NA,Sternberg task,75,70890,93,yes,1024
79.78723404,79.78723404,762.5638298,762.5638298,black,experiment,legacy,legacy,legacy,0,uniform,0,undefined,0,right,93,93,93,0,0,93,93,0,0,93,93,93,0,93,0,10/27/19 12:47,The main experiment item,yes,Sternbergtask.osexp,C:/Users/Breena Riley/Desktop/2019 Fall/MultQuant/lab 3.1,no,mono,no,18,no,white,no,yes,768,legacy,81,11,C:/Users/Breena Riley/Desktop/2019 Fall/MultQuant/lab 3.1/BR-subject-4.csv,legacy,1 6 4 3 9 7,Kafkaesque Koffka,3.2.8,0,n,0,left,right,right,left,NA,791,3868,24158,791,NA,2,legacy,6,1024,2,48000,-16,experiment,4,even,8,598501,589152,596296,3206,103226,596298,595206,3214,79068,601296,597300,600504,7083,600503,NA,Sternberg task,75,71681,94,yes,1024
80,80,761.3368421,761.3368421,black,experiment,legacy,legacy,legacy,0,uniform,1,undefined,1,right,94,94,94,0,0,94,94,0,0,94,94,94,0,94,0,10/27/19 12:47,The main experiment item,yes,Sternbergtask.osexp,C:/Users/Breena Riley/Desktop/2019 Fall/MultQuant/lab 3.1,no,mono,no,18,no,white,no,yes,768,legacy,82,11,C:/Users/Breena Riley/Desktop/2019 Fall/MultQuant/lab 3.1/BR-subject-4.csv,legacy,1 8 7,Kafkaesque Koffka,3.2.8,0,n,0,right,right,right,right,NA,646,3868,24158,646,NA,2,legacy,3,1024,2,48000,-16,experiment,4,even,4,604599,589152,602395,3206,103226,602397,601305,3214,79068,607248,603398,606601,7083,606600,NA,Sternberg task,76,72327,95,yes,1024
80.20833333,80.20833333,758.875,758.875,black,experiment,legacy,legacy,legacy,0,uniform,1,undefined,1,left,95,95,95,0,0,95,95,0,0,95,95,95,0,95,0,10/27/19 12:47,The main experiment item,yes,Sternbergtask.osexp,C:/Users/Breena Riley/Desktop/2019 Fall/MultQuant/lab 3.1,no,mono,no,18,no,white,no,yes,768,legacy,83,11,C:/Users/Breena Riley/Desktop/2019 Fall/MultQuant/lab 3.1/BR-subject-4.csv,legacy,7 2 3,Kafkaesque Koffka,3.2.8,3,y,0,left,right,right,left,NA,525,3868,24158,525,NA,2,legacy,3,1024,2,48000,-16,experiment,4,even,3,610551,607256,608347,3206,103226,608349,601305,3214,79068,613079,609350,612553,7083,612552,NA,Sternberg task,77,72852,96,yes,1024
80.41237113,80.41237113,756.0309278,756.0309278,black,experiment,legacy,legacy,legacy,0,uniform,1,undefined,1,left,96,96,96,0,0,96,96,0,0,96,96,96,0,96,0,10/27/19 12:47,The main experiment item,yes,Sternbergtask.osexp,C:/Users/Breena Riley/Desktop/2019 Fall/MultQuant/lab 3.1,no,mono,no,18,no,white,no,yes,768,legacy,84,11,C:/Users/Breena Riley/Desktop/2019 Fall/MultQuant/lab 3.1/BR-subject-4.csv,legacy,6 2,Kafkaesque Koffka,3.2.8,1,y,0,left,right,right,left,NA,483,3868,24158,483,NA,2,legacy,2,1024,2,48000,-16,experiment,4,even,6,616380,613088,614176,3206,103226,614178,601305,3214,79068,618865,615179,618381,7083,618381,NA,Sternberg task,78,73335,97,yes,1024
80.6122449,80.6122449,754.2959184,754.2959184,black,experiment,legacy,legacy,legacy,0,uniform,1,undefined,1,right,97,97,97,0,0,97,97,0,0,97,97,97,0,97,0,10/27/19 12:47,The main experiment item,yes,Sternbergtask.osexp,C:/Users/Breena Riley/Desktop/2019 Fall/MultQuant/lab 3.1,no,mono,no,18,no,white,no,yes,768,legacy,85,11,C:/Users/Breena Riley/Desktop/2019 Fall/MultQuant/lab 3.1/BR-subject-4.csv,legacy,4 8 1 2,Kafkaesque Koffka,3.2.8,0,n,0,right,right,right,right,NA,586,3868,24158,586,NA,2,legacy,4,1024,2,48000,-16,experiment,4,even,7,622178,618873,619974,3206,103226,619976,601305,3214,79068,624766,620977,624179,7083,624179,NA,Sternberg task,79,73921,98,yes,1024
80.80808081,80.80808081,753,753,black,experiment,legacy,legacy,legacy,0,uniform,1,undefined,1,right,98,98,98,0,0,98,98,0,0,98,98,98,0,98,0,10/27/19 12:47,The main experiment item,yes,Sternbergtask.osexp,C:/Users/Breena Riley/Desktop/2019 Fall/MultQuant/lab 3.1,no,mono,no,18,no,white,no,yes,768,legacy,86,11,C:/Users/Breena Riley/Desktop/2019 Fall/MultQuant/lab 3.1/BR-subject-4.csv,legacy,5,Kafkaesque Koffka,3.2.8,0,n,0,right,right,right,right,NA,626,3868,24158,626,NA,2,legacy,1,1024,2,48000,-16,experiment,4,even,8,628068,624774,625864,3206,103226,625866,601305,3214,79068,630697,626867,630069,7083,630069,NA,Sternberg task,80,74547,99,yes,1024
81,81,752.55,752.55,black,experiment,legacy,legacy,legacy,0,uniform,1,undefined,1,right,99,99,99,0,0,99,99,0,0,99,99,99,0,99,0,10/27/19 12:47,The main experiment item,yes,Sternbergtask.osexp,C:/Users/Breena Riley/Desktop/2019 Fall/MultQuant/lab 3.1,no,mono,no,18,no,white,no,yes,768,legacy,87,11,C:/Users/Breena Riley/Desktop/2019 Fall/MultQuant/lab 3.1/BR-subject-4.csv,legacy,8 6 3 4 7,Kafkaesque Koffka,3.2.8,0,n,0,right,right,right,right,NA,708,3868,24158,708,NA,2,legacy,5,1024,2,48000,-16,experiment,4,even,1,634002,630705,631797,3206,103226,631799,601305,3214,79068,636714,632800,636004,7083,636004,NA,Sternberg task,81,75255,100,yes,1024
81.18811881,81.18811881,751.4752475,751.4752475,black,experiment,legacy,legacy,legacy,0,uniform,1,undefined,1,left,100,100,100,0,0,100,100,0,0,100,100,100,0,100,0,10/27/19 12:47,The main experiment item,yes,Sternbergtask.osexp,C:/Users/Breena Riley/Desktop/2019 Fall/MultQuant/lab 3.1,no,mono,no,18,no,white,no,yes,768,legacy,88,11,C:/Users/Breena Riley/Desktop/2019 Fall/MultQuant/lab 3.1/BR-subject-4.csv,legacy,5 7 8 2 3 8,Kafkaesque Koffka,3.2.8,5,y,0,left,right,right,left,NA,644,3868,24158,644,NA,2,legacy,6,1024,2,48000,-16,experiment,4,even,3,640017,636722,637813,3206,103226,637815,601305,3214,79068,642665,638816,642019,7083,642019,NA,Sternberg task,82,75899,101,yes,1024
81.37254902,81.37254902,752.9019608,752.9019608,black,experiment,legacy,legacy,legacy,0,uniform,1,undefined,1,right,101,101,101,0,0,101,101,0,0,101,101,101,0,101,0,10/27/19 12:47,The main experiment item,yes,Sternbergtask.osexp,C:/Users/Breena Riley/Desktop/2019 Fall/MultQuant/lab 3.1,no,mono,no,18,no,white,no,yes,768,legacy,89,11,C:/Users/Breena Riley/Desktop/2019 Fall/MultQuant/lab 3.1/BR-subject-4.csv,legacy,1 5 3 2 8,Kafkaesque Koffka,3.2.8,0,n,0,right,right,right,right,NA,897,3868,24158,897,NA,2,legacy,5,1024,2,48000,-16,experiment,4,even,4,645966,642672,643762,3206,103226,643764,601305,3214,79068,648867,644765,647968,7083,647968,NA,Sternberg task,83,76796,102,yes,1024
81.55339806,81.55339806,752.4951456,752.4951456,black,experiment,legacy,legacy,legacy,0,uniform,1,undefined,1,right,102,102,102,0,0,102,102,0,0,102,102,102,0,102,0,10/27/19 12:47,The main experiment item,yes,Sternbergtask.osexp,C:/Users/Breena Riley/Desktop/2019 Fall/MultQuant/lab 3.1,no,mono,no,18,no,white,no,yes,768,legacy,90,11,C:/Users/Breena Riley/Desktop/2019 Fall/MultQuant/lab 3.1/BR-subject-4.csv,legacy,2 6 4 3 9,Kafkaesque Koffka,3.2.8,0,n,0,right,right,right,right,NA,711,3868,24158,711,NA,2,legacy,5,1024,2,48000,-16,experiment,4,even,1,652185,648874,649981,3206,103226,649983,601305,3214,79068,654899,650984,654186,7083,654186,NA,Sternberg task,84,77507,103,yes,1024
81.73076923,81.73076923,750.6153846,750.6153846,black,experiment,legacy,legacy,legacy,0,uniform,1,undefined,1,left,103,103,103,0,0,103,103,0,0,103,103,103,0,103,0,10/27/19 12:47,The main experiment item,yes,Sternbergtask.osexp,C:/Users/Breena Riley/Desktop/2019 Fall/MultQuant/lab 3.1,no,mono,no,18,no,white,no,yes,768,legacy,91,11,C:/Users/Breena Riley/Desktop/2019 Fall/MultQuant/lab 3.1/BR-subject-4.csv,legacy,6 7 9 3 1 2,Kafkaesque Koffka,3.2.8,1,y,0,left,right,right,left,NA,557,3868,24158,557,NA,2,legacy,6,1024,2,48000,-16,experiment,4,even,6,658208,654907,656002,3206,103226,656005,601305,3214,79068,660767,657006,660209,7083,660209,NA,Sternberg task,85,78064,104,yes,1024
81.9047619,81.9047619,749.4190476,749.4190476,black,experiment,legacy,legacy,legacy,0,uniform,1,undefined,1,right,104,104,104,0,0,104,104,0,0,104,104,104,0,104,0,10/27/19 12:47,The main experiment item,yes,Sternbergtask.osexp,C:/Users/Breena Riley/Desktop/2019 Fall/MultQuant/lab 3.1,no,mono,no,18,no,white,no,yes,768,legacy,92,11,C:/Users/Breena Riley/Desktop/2019 Fall/MultQuant/lab 3.1/BR-subject-4.csv,legacy,7 4 2 8 1 9,Kafkaesque Koffka,3.2.8,0,n,0,right,right,right,right,NA,625,3868,24158,625,NA,2,legacy,6,1024,2,48000,-16,experiment,4,even,5,664070,660775,661865,3206,103226,661867,601305,3214,79068,666698,662869,666072,7083,666071,NA,Sternberg task,86,78689,105,yes,1024
82.0754717,82.0754717,747.8018868,747.8018868,black,experiment,legacy,legacy,legacy,0,uniform,1,undefined,1,right,105,105,105,0,0,105,105,0,0,105,105,105,0,105,0,10/27/19 12:47,The main experiment item,yes,Sternbergtask.osexp,C:/Users/Breena Riley/Desktop/2019 Fall/MultQuant/lab 3.1,no,mono,no,18,no,white,no,yes,768,legacy,93,11,C:/Users/Breena Riley/Desktop/2019 Fall/MultQuant/lab 3.1/BR-subject-4.csv,legacy,1 4 3 6 5,Kafkaesque Koffka,3.2.8,0,n,0,right,right,right,right,NA,578,3868,24158,578,NA,2,legacy,5,1024,2,48000,-16,experiment,4,even,8,670002,666706,667797,3206,103226,667799,601305,3214,79068,672583,668799,672004,7083,672004,NA,Sternberg task,87,79267,106,yes,1024
82.24299065,82.24299065,746.4579439,746.4579439,black,experiment,legacy,legacy,legacy,0,uniform,1,undefined,1,left,106,106,106,0,0,106,106,0,0,106,106,106,0,106,0,10/27/19 12:47,The main experiment item,yes,Sternbergtask.osexp,C:/Users/Breena Riley/Desktop/2019 Fall/MultQuant/lab 3.1,no,mono,no,18,no,white,no,yes,768,legacy,94,11,C:/Users/Breena Riley/Desktop/2019 Fall/MultQuant/lab 3.1/BR-subject-4.csv,legacy,8 1 6,Kafkaesque Koffka,3.2.8,3,y,0,left,right,right,left,NA,604,3868,24158,604,NA,2,legacy,3,1024,2,48000,-16,experiment,4,even,6,675883,672587,673678,3206,103226,673680,601305,3214,79068,678489,674682,677884,7083,677884,NA,Sternberg task,88,79871,107,yes,1024
81.48148148,81.48148148,744.7222222,744.7222222,black,experiment,legacy,legacy,legacy,0,uniform,0,undefined,0,right,107,107,107,0,0,107,107,0,0,107,107,107,0,107,0,10/27/19 12:47,The main experiment item,yes,Sternbergtask.osexp,C:/Users/Breena Riley/Desktop/2019 Fall/MultQuant/lab 3.1,no,mono,no,18,no,white,no,yes,768,legacy,95,11,C:/Users/Breena Riley/Desktop/2019 Fall/MultQuant/lab 3.1/BR-subject-4.csv,legacy,7 1 8 4 9 3,Kafkaesque Koffka,3.2.8,0,n,0,left,right,right,left,NA,559,3868,24158,559,NA,2,legacy,6,1024,2,48000,-16,experiment,4,even,6,681792,678496,679586,3206,103226,679588,601305,3214,79068,684353,680590,683793,7083,683793,NA,Sternberg task,88,80430,108,yes,1024
80.73394495,80.73394495,745.2018349,745.2018349,black,experiment,legacy,legacy,legacy,0,uniform,0,undefined,0,left,108,108,108,0,0,108,108,0,0,108,108,108,0,108,0,10/27/19 12:47,The main experiment item,yes,Sternbergtask.osexp,C:/Users/Breena Riley/Desktop/2019 Fall/MultQuant/lab 3.1,no,mono,no,18,no,white,no,yes,768,legacy,96,11,C:/Users/Breena Riley/Desktop/2019 Fall/MultQuant/lab 3.1/BR-subject-4.csv,legacy,3 4 9 6 2 9,Kafkaesque Koffka,3.2.8,5,y,0,right,right,right,right,NA,797,3868,24158,797,NA,2,legacy,6,1024,2,48000,-16,experiment,4,even,2,687658,678496,685454,3206,103226,685456,684361,3214,79068,690457,686457,689659,7083,689659,NA,Sternberg task,88,81227,109,yes,1024
80,80,745.1818182,745.1818182,black,experiment,legacy,legacy,legacy,0,uniform,0,undefined,0,left,109,109,109,0,0,109,109,0,0,109,109,109,0,109,0,10/27/19 12:47,The main experiment item,yes,Sternbergtask.osexp,C:/Users/Breena Riley/Desktop/2019 Fall/MultQuant/lab 3.1,no,mono,no,18,no,white,no,yes,768,legacy,97,11,C:/Users/Breena Riley/Desktop/2019 Fall/MultQuant/lab 3.1/BR-subject-4.csv,legacy,3 2 1 4 7,Kafkaesque Koffka,3.2.8,2,y,0,right,right,right,right,NA,743,3868,24158,743,NA,2,legacy,5,1024,2,48000,-16,experiment,4,even,2,693755,678496,691551,3206,103226,691552,690461,3214,79068,696500,692554,695756,7083,695756,NA,Sternberg task,88,81970,110,yes,1024
80.18018018,80.18018018,745.2972973,745.2972973,black,experiment,legacy,legacy,legacy,0,uniform,1,undefined,1,right,110,110,110,0,0,110,110,0,0,110,110,110,0,110,0,10/27/19 12:47,The main experiment item,yes,Sternbergtask.osexp,C:/Users/Breena Riley/Desktop/2019 Fall/MultQuant/lab 3.1,no,mono,no,18,no,white,no,yes,768,legacy,98,11,C:/Users/Breena Riley/Desktop/2019 Fall/MultQuant/lab 3.1/BR-subject-4.csv,legacy,4 1,Kafkaesque Koffka,3.2.8,0,n,0,right,right,right,right,NA,758,3868,24158,758,NA,2,legacy,2,1024,2,48000,-16,experiment,4,even,6,699803,678496,697598,3206,103226,697601,696509,3214,79068,702564,698602,701805,7083,701805,NA,Sternberg task,89,82728,111,yes,1024
80.35714286,80.35714286,743.3392857,743.3392857,black,experiment,legacy,legacy,legacy,0,uniform,1,undefined,1,left,111,111,111,0,0,111,111,0,0,111,111,111,0,111,0,10/27/19 12:47,The main experiment item,yes,Sternbergtask.osexp,C:/Users/Breena Riley/Desktop/2019 Fall/MultQuant/lab 3.1,no,mono,no,18,no,white,no,yes,768,legacy,99,11,C:/Users/Breena Riley/Desktop/2019 Fall/MultQuant/lab 3.1/BR-subject-4.csv,legacy,6 1 2,Kafkaesque Koffka,3.2.8,3,y,0,left,right,right,left,NA,526,3868,24158,526,NA,2,legacy,3,1024,2,48000,-16,experiment,4,even,2,705866,702572,703661,3206,103226,703663,696509,3214,79068,708395,704664,707867,7083,707867,NA,Sternberg task,90,83254,112,yes,1024
80.53097345,80.53097345,741.6106195,741.6106195,black,experiment,legacy,legacy,legacy,0,uniform,1,undefined,1,left,112,112,112,0,0,112,112,0,0,112,112,112,0,112,0,10/27/19 12:47,The main experiment item,yes,Sternbergtask.osexp,C:/Users/Breena Riley/Desktop/2019 Fall/MultQuant/lab 3.1,no,mono,no,18,no,white,no,yes,768,legacy,100,11,C:/Users/Breena Riley/Desktop/2019 Fall/MultQuant/lab 3.1/BR-subject-4.csv,legacy,2 3 7 4,Kafkaesque Koffka,3.2.8,1,y,0,left,right,right,left,NA,548,3868,24158,548,NA,2,legacy,4,1024,2,48000,-16,experiment,4,even,2,711696,708403,709491,3206,103226,709493,696509,3214,79068,714246,710494,713697,7083,713697,NA,Sternberg task,91,83802,113,yes,1024
80.70175439,80.70175439,740.0877193,740.0877193,black,experiment,legacy,legacy,legacy,0,uniform,1,undefined,1,left,113,113,113,0,0,113,113,0,0,113,113,113,0,113,0,10/27/19 12:47,The main experiment item,yes,Sternbergtask.osexp,C:/Users/Breena Riley/Desktop/2019 Fall/MultQuant/lab 3.1,no,mono,no,18,no,white,no,yes,768,legacy,101,11,C:/Users/Breena Riley/Desktop/2019 Fall/MultQuant/lab 3.1/BR-subject-4.csv,legacy,3 9 7 6 4,Kafkaesque Koffka,3.2.8,3,y,0,left,right,right,left,NA,568,3868,24158,568,NA,2,legacy,5,1024,2,48000,-16,experiment,4,even,7,717550,714254,715346,3206,103226,715348,696509,3214,79068,720121,716349,719552,7083,719552,NA,Sternberg task,92,84370,114,yes,1024
80.86956522,80.86956522,737.6695652,737.6695652,black,experiment,legacy,legacy,legacy,0,uniform,1,undefined,1,left,114,114,114,0,0,114,114,0,0,114,114,114,0,114,0,10/27/19 12:47,The main experiment item,yes,Sternbergtask.osexp,C:/Users/Breena Riley/Desktop/2019 Fall/MultQuant/lab 3.1,no,mono,no,18,no,white,no,yes,768,legacy,102,11,C:/Users/Breena Riley/Desktop/2019 Fall/MultQuant/lab 3.1/BR-subject-4.csv,legacy,8 9 5 7 1 6,Kafkaesque Koffka,3.2.8,4,y,0,left,right,right,left,NA,462,3868,24158,462,NA,2,legacy,6,1024,2,48000,-16,experiment,4,even,7,723426,720129,721221,3206,103226,721223,696509,3214,79068,725890,722224,725427,7083,725427,NA,Sternberg task,93,84832,115,yes,1024
81.03448276,81.03448276,735.1810345,735.1810345,black,experiment,legacy,legacy,legacy,0,uniform,1,undefined,1,left,115,115,115,0,0,115,115,0,0,115,115,115,0,115,0,10/27/19 12:47,The main experiment item,yes,Sternbergtask.osexp,C:/Users/Breena Riley/Desktop/2019 Fall/MultQuant/lab 3.1,no,mono,no,18,no,white,no,yes,768,legacy,103,11,C:/Users/Breena Riley/Desktop/2019 Fall/MultQuant/lab 3.1/BR-subject-4.csv,legacy,7 1 3,Kafkaesque Koffka,3.2.8,2,y,0,left,right,right,left,NA,449,3868,24158,449,NA,2,legacy,3,1024,2,48000,-16,experiment,4,even,1,729194,725898,726988,3206,103226,726990,696509,3214,79068,731647,727992,731196,7083,731196,NA,Sternberg task,94,85281,116,yes,1024
81.1965812,81.1965812,734,734,black,experiment,legacy,legacy,legacy,0,uniform,1,undefined,1,right,116,116,116,0,0,116,116,0,0,116,116,116,0,116,0,10/27/19 12:47,The main experiment item,yes,Sternbergtask.osexp,C:/Users/Breena Riley/Desktop/2019 Fall/MultQuant/lab 3.1,no,mono,no,18,no,white,no,yes,768,legacy,104,11,C:/Users/Breena Riley/Desktop/2019 Fall/MultQuant/lab 3.1/BR-subject-4.csv,legacy,7 9,Kafkaesque Koffka,3.2.8,0,n,0,right,right,right,right,NA,597,3868,24158,597,NA,2,legacy,2,1024,2,48000,-16,experiment,4,even,1,734948,731655,732743,3206,103226,732745,696509,3214,79068,737547,733746,736949,7083,736949,NA,Sternberg task,95,85878,117,yes,1024
81.3559322,81.3559322,731.940678,731.940678,black,experiment,legacy,legacy,legacy,0,uniform,1,undefined,1,left,117,117,117,0,0,117,117,0,0,117,117,117,0,117,0,10/27/19 12:47,The main experiment item,yes,Sternbergtask.osexp,C:/Users/Breena Riley/Desktop/2019 Fall/MultQuant/lab 3.1,no,mono,no,18,no,white,no,yes,768,legacy,105,11,C:/Users/Breena Riley/Desktop/2019 Fall/MultQuant/lab 3.1/BR-subject-4.csv,legacy,7 1 8 5 6 2,Kafkaesque Koffka,3.2.8,2,y,0,left,right,right,left,NA,491,3868,24158,491,NA,2,legacy,6,1024,2,48000,-16,experiment,4,even,1,740852,737555,738646,3206,103226,738648,696509,3214,79068,743345,739650,742853,7083,742853,NA,Sternberg task,96,86369,118,yes,1024
81.51260504,81.51260504,730.1008403,730.1008403,black,experiment,legacy,legacy,legacy,0,uniform,1,undefined,1,right,118,118,118,0,0,118,118,0,0,118,118,118,0,118,0,10/27/19 12:47,The main experiment item,yes,Sternbergtask.osexp,C:/Users/Breena Riley/Desktop/2019 Fall/MultQuant/lab 3.1,no,mono,no,18,no,white,no,yes,768,legacy,106,11,C:/Users/Breena Riley/Desktop/2019 Fall/MultQuant/lab 3.1/BR-subject-4.csv,legacy,5 2,Kafkaesque Koffka,3.2.8,0,n,0,right,right,right,right,NA,513,3868,24158,513,NA,2,legacy,2,1024,2,48000,-16,experiment,4,even,7,746648,743353,744444,3206,103226,744446,696509,3214,79068,749164,745447,748650,7083,748650,NA,Sternberg task,97,86882,119,yes,1024
81.66666667,81.66666667,730.9083333,730.9083333,black,experiment,legacy,legacy,legacy,0,uniform,1,undefined,1,left,119,119,119,0,0,119,119,0,0,119,119,119,0,119,0,10/27/19 12:47,The main experiment item,yes,Sternbergtask.osexp,C:/Users/Breena Riley/Desktop/2019 Fall/MultQuant/lab 3.1,no,mono,no,18,no,white,no,yes,768,legacy,107,11,C:/Users/Breena Riley/Desktop/2019 Fall/MultQuant/lab 3.1/BR-subject-4.csv,legacy,9 5 8 1,Kafkaesque Koffka,3.2.8,2,y,0,left,right,right,left,NA,827,3868,24158,827,NA,2,legacy,4,1024,2,48000,-16,experiment,4,even,5,752467,749173,750263,3206,103226,750265,696509,3214,79068,755296,751266,754468,7083,754468,NA,Sternberg task,98,87709,120,yes,1024
81.81818182,81.81818182,729.446281,729.446281,black,experiment,legacy,legacy,legacy,0,uniform,1,undefined,1,right,120,120,120,0,0,120,120,0,0,120,120,120,0,120,0,10/27/19 12:47,The main experiment item,yes,Sternbergtask.osexp,C:/Users/Breena Riley/Desktop/2019 Fall/MultQuant/lab 3.1,no,mono,no,18,no,white,no,yes,768,legacy,108,11,C:/Users/Breena Riley/Desktop/2019 Fall/MultQuant/lab 3.1/BR-subject-4.csv,legacy,5 7 3,Kafkaesque Koffka,3.2.8,0,n,0,right,right,right,right,NA,554,3868,24158,554,NA,2,legacy,3,1024,2,48000,-16,experiment,4,even,9,758596,755303,756391,3206,103226,756393,696509,3214,79068,761152,757394,760597,7083,760597,NA,Sternberg task,99,88263,121,yes,1024
81.96721311,81.96721311,728.795082,728.795082,black,experiment,legacy,legacy,legacy,0,uniform,1,undefined,1,left,121,121,121,0,0,121,121,0,0,121,121,121,0,121,0,10/27/19 12:47,The main experiment item,yes,Sternbergtask.osexp,C:/Users/Breena Riley/Desktop/2019 Fall/MultQuant/lab 3.1,no,mono,no,18,no,white,no,yes,768,legacy,109,11,C:/Users/Breena Riley/Desktop/2019 Fall/MultQuant/lab 3.1/BR-subject-4.csv,legacy,8 5 3 7 4 6,Kafkaesque Koffka,3.2.8,6,y,0,left,right,right,left,NA,650,3868,24158,650,NA,2,legacy,6,1024,2,48000,-16,experiment,4,even,6,764452,761157,762247,3206,103226,762249,696509,3214,79068,767106,763251,766454,7083,766454,NA,Sternberg task,100,88913,122,yes,1024
82.11382114,82.11382114,727.195122,727.195122,black,experiment,legacy,legacy,legacy,0,uniform,1,undefined,1,right,122,122,122,0,0,122,122,0,0,122,122,122,0,122,0,10/27/19 12:47,The main experiment item,yes,Sternbergtask.osexp,C:/Users/Breena Riley/Desktop/2019 Fall/MultQuant/lab 3.1,no,mono,no,18,no,white,no,yes,768,legacy,110,11,C:/Users/Breena Riley/Desktop/2019 Fall/MultQuant/lab 3.1/BR-subject-4.csv,legacy,9,Kafkaesque Koffka,3.2.8,0,n,0,right,right,right,right,NA,532,3868,24158,532,NA,2,legacy,1,1024,2,48000,-16,experiment,4,even,6,770408,767114,768203,3206,103226,768205,696509,3214,79068,772942,769206,772409,7083,772409,NA,Sternberg task,101,89445,123,yes,1024
82.25806452,82.25806452,725.7419355,725.7419355,black,experiment,legacy,legacy,legacy,0,uniform,1,undefined,1,right,123,123,123,0,0,123,123,0,0,123,123,123,0,123,0,10/27/19 12:47,The main experiment item,yes,Sternbergtask.osexp,C:/Users/Breena Riley/Desktop/2019 Fall/MultQuant/lab 3.1,no,mono,no,18,no,white,no,yes,768,legacy,111,11,C:/Users/Breena Riley/Desktop/2019 Fall/MultQuant/lab 3.1/BR-subject-4.csv,legacy,8 4 3 9,Kafkaesque Koffka,3.2.8,0,n,0,right,right,right,right,NA,547,3868,24158,547,NA,2,legacy,4,1024,2,48000,-16,experiment,4,even,5,776257,772950,774051,3206,103226,774053,696509,3214,79068,778806,775054,778258,7083,778258,NA,Sternberg task,102,89992,124,yes,1024
82.4,82.4,724.664,724.664,black,experiment,legacy,legacy,legacy,0,uniform,1,undefined,1,right,124,124,124,0,0,124,124,0,0,124,124,124,0,124,0,10/27/19 12:47,The main experiment item,yes,Sternbergtask.osexp,C:/Users/Breena Riley/Desktop/2019 Fall/MultQuant/lab 3.1,no,mono,no,18,no,white,no,yes,768,legacy,112,11,C:/Users/Breena Riley/Desktop/2019 Fall/MultQuant/lab 3.1/BR-subject-4.csv,legacy,7 9 1 6,Kafkaesque Koffka,3.2.8,0,n,0,right,right,right,right,NA,591,3868,24158,591,NA,2,legacy,4,1024,2,48000,-16,experiment,4,even,4,782118,778814,779912,3206,103226,779915,696509,3214,79068,784713,780917,784121,7083,784120,NA,Sternberg task,103,90583,125,yes,1024
82.53968254,82.53968254,724.5,724.5,black,experiment,legacy,legacy,legacy,0,uniform,1,undefined,1,left,125,125,125,0,0,125,125,0,0,125,125,125,0,125,0,10/27/19 12:47,The main experiment item,yes,Sternbergtask.osexp,C:/Users/Breena Riley/Desktop/2019 Fall/MultQuant/lab 3.1,no,mono,no,18,no,white,no,yes,768,legacy,113,11,C:/Users/Breena Riley/Desktop/2019 Fall/MultQuant/lab 3.1/BR-subject-4.csv,legacy,8 5 4 7 3 1,Kafkaesque Koffka,3.2.8,2,y,0,left,right,right,left,NA,704,3868,24158,704,NA,2,legacy,6,1024,2,48000,-16,experiment,4,even,5,788016,784720,785811,3206,103226,785813,696509,3214,79068,790724,786815,790018,7083,790018,NA,Sternberg task,104,91287,126,yes,1024
81.88976378,81.88976378,724.4645669,724.4645669,black,experiment,legacy,legacy,legacy,0,uniform,0,undefined,0,left,126,126,126,0,0,126,126,0,0,126,126,126,0,126,0,10/27/19 12:47,The main experiment item,yes,Sternbergtask.osexp,C:/Users/Breena Riley/Desktop/2019 Fall/MultQuant/lab 3.1,no,mono,no,18,no,white,no,yes,768,legacy,114,11,C:/Users/Breena Riley/Desktop/2019 Fall/MultQuant/lab 3.1/BR-subject-4.csv,legacy,5 2 9 6 1 7,Kafkaesque Koffka,3.2.8,3,y,0,right,right,right,right,NA,720,3868,24158,720,NA,2,legacy,6,1024,2,48000,-16,experiment,4,even,9,794025,790732,791821,3206,103226,791823,696509,3214,79068,796748,792824,796026,7083,796026,NA,Sternberg task,104,92007,127,yes,1024
81.25,81.25,722.9921875,722.9921875,black,experiment,legacy,legacy,legacy,0,uniform,0,undefined,0,right,127,127,127,0,0,127,127,0,0,127,127,127,0,127,0,10/27/19 12:47,The main experiment item,yes,Sternbergtask.osexp,C:/Users/Breena Riley/Desktop/2019 Fall/MultQuant/lab 3.1,no,mono,no,18,no,white,no,yes,768,legacy,115,11,C:/Users/Breena Riley/Desktop/2019 Fall/MultQuant/lab 3.1/BR-subject-4.csv,legacy,9 8 2 7 4,Kafkaesque Koffka,3.2.8,0,n,0,left,right,right,left,NA,536,3868,24158,536,NA,2,legacy,5,1024,2,48000,-16,experiment,4,even,5,800052,790732,797848,3206,103226,797850,796755,3214,79068,802591,798851,802053,7083,802053,NA,Sternberg task,104,92543,128,yes,1024
80.62015504,80.62015504,723.4728682,723.4728682,black,experiment,legacy,legacy,legacy,0,uniform,0,undefined,0,left,128,128,128,0,0,128,128,0,0,128,128,128,0,128,0,10/27/19 12:47,The main experiment item,yes,Sternbergtask.osexp,C:/Users/Breena Riley/Desktop/2019 Fall/MultQuant/lab 3.1,no,mono,no,18,no,white,no,yes,768,legacy,116,11,C:/Users/Breena Riley/Desktop/2019 Fall/MultQuant/lab 3.1/BR-subject-4.csv,legacy,2 5 4 8 7,Kafkaesque Koffka,3.2.8,3,y,0,right,right,right,right,NA,785,3868,24158,785,NA,2,legacy,5,1024,2,48000,-16,experiment,4,even,4,805896,790732,803691,3206,103226,803693,802599,3214,79068,808685,804694,807898,7083,807897,NA,Sternberg task,104,93328,129,yes,1024
80.76923077,80.76923077,724.0461538,724.0461538,black,experiment,legacy,legacy,legacy,0,uniform,1,undefined,1,right,129,129,129,0,0,129,129,0,0,129,129,129,0,129,0,10/27/19 12:47,The main experiment item,yes,Sternbergtask.osexp,C:/Users/Breena Riley/Desktop/2019 Fall/MultQuant/lab 3.1,no,mono,no,18,no,white,no,yes,768,legacy,117,11,C:/Users/Breena Riley/Desktop/2019 Fall/MultQuant/lab 3.1/BR-subject-4.csv,legacy,6 7 5 9,Kafkaesque Koffka,3.2.8,0,n,0,right,right,right,right,NA,798,3868,24158,798,NA,2,legacy,4,1024,2,48000,-16,experiment,4,even,2,811989,790732,809785,3206,103226,809787,808693,3214,79068,814790,810788,813990,7083,813990,NA,Sternberg task,105,94126,130,yes,1024
80.91603053,80.91603053,722.8244275,722.8244275,black,experiment,legacy,legacy,legacy,0,uniform,1,undefined,1,left,130,130,130,0,0,130,130,0,0,130,130,130,0,130,0,10/27/19 12:47,The main experiment item,yes,Sternbergtask.osexp,C:/Users/Breena Riley/Desktop/2019 Fall/MultQuant/lab 3.1,no,mono,no,18,no,white,no,yes,768,legacy,118,11,C:/Users/Breena Riley/Desktop/2019 Fall/MultQuant/lab 3.1/BR-subject-4.csv,legacy,4,Kafkaesque Koffka,3.2.8,1,y,0,left,right,right,left,NA,564,3868,24158,564,NA,2,legacy,1,1024,2,48000,-16,experiment,4,even,4,818095,814798,815890,3206,103226,815893,808693,3214,79068,820661,816894,820096,7083,820096,NA,Sternberg task,106,94690,131,yes,1024
81.06060606,81.06060606,722.7045455,722.7045455,black,experiment,legacy,legacy,legacy,0,uniform,1,undefined,1,left,131,131,131,0,0,131,131,0,0,131,131,131,0,131,0,10/27/19 12:47,The main experiment item,yes,Sternbergtask.osexp,C:/Users/Breena Riley/Desktop/2019 Fall/MultQuant/lab 3.1,no,mono,no,18,no,white,no,yes,768,legacy,119,11,C:/Users/Breena Riley/Desktop/2019 Fall/MultQuant/lab 3.1/BR-subject-4.csv,legacy,9 1 7 2,Kafkaesque Koffka,3.2.8,2,y,0,left,right,right,left,NA,707,3868,24158,707,NA,2,legacy,4,1024,2,48000,-16,experiment,4,even,1,823965,820669,821759,3206,103226,821762,808693,3214,79068,826676,822763,825967,7083,825966,NA,Sternberg task,107,95397,132,yes,1024
81.20300752,81.20300752,721.4210526,721.4210526,black,experiment,legacy,legacy,legacy,0,uniform,1,undefined,1,left,132,132,132,0,0,132,132,0,0,132,132,132,0,132,0,10/27/19 12:47,The main experiment item,yes,Sternbergtask.osexp,C:/Users/Breena Riley/Desktop/2019 Fall/MultQuant/lab 3.1,no,mono,no,18,no,white,no,yes,768,legacy,120,11,C:/Users/Breena Riley/Desktop/2019 Fall/MultQuant/lab 3.1/BR-subject-4.csv,legacy,6 9 3 1,Kafkaesque Koffka,3.2.8,4,y,0,left,right,right,left,NA,552,3868,24158,552,NA,2,legacy,4,1024,2,48000,-16,experiment,4,even,1,829978,826683,827772,3206,103226,827774,808693,3214,79068,832532,828775,831979,7083,831979,NA,Sternberg task,108,95949,133,yes,1024
81.34328358,81.34328358,720.5223881,720.5223881,black,experiment,legacy,legacy,legacy,0,uniform,1,undefined,1,left,133,133,133,0,0,133,133,0,0,133,133,133,0,133,0,10/27/19 12:47,The main experiment item,yes,Sternbergtask.osexp,C:/Users/Breena Riley/Desktop/2019 Fall/MultQuant/lab 3.1,no,mono,no,18,no,white,no,yes,768,legacy,121,11,C:/Users/Breena Riley/Desktop/2019 Fall/MultQuant/lab 3.1/BR-subject-4.csv,legacy,4 9 7 8 5 3,Kafkaesque Koffka,3.2.8,4,y,0,left,right,right,left,NA,601,3868,24158,601,NA,2,legacy,6,1024,2,48000,-16,experiment,4,even,8,835836,832540,833630,3206,103226,833632,808693,3214,79068,838439,834634,837837,7083,837837,NA,Sternberg task,109,96550,134,yes,1024
81.48148148,81.48148148,719.3851852,719.3851852,black,experiment,legacy,legacy,legacy,0,uniform,1,undefined,1,left,134,134,134,0,0,134,134,0,0,134,134,134,0,134,0,10/27/19 12:47,The main experiment item,yes,Sternbergtask.osexp,C:/Users/Breena Riley/Desktop/2019 Fall/MultQuant/lab 3.1,no,mono,no,18,no,white,no,yes,768,legacy,122,11,C:/Users/Breena Riley/Desktop/2019 Fall/MultQuant/lab 3.1/BR-subject-4.csv,legacy,4 3 2 5 8,Kafkaesque Koffka,3.2.8,2,y,0,left,right,right,left,NA,567,3868,24158,567,NA,2,legacy,5,1024,2,48000,-16,experiment,4,even,3,841747,838447,839540,3206,103226,839542,808693,3214,79068,844317,840545,843749,7083,843748,NA,Sternberg task,110,97117,135,yes,1024
81.61764706,81.61764706,718.6470588,718.6470588,black,experiment,legacy,legacy,legacy,0,uniform,1,undefined,1,right,135,135,135,0,0,135,135,0,0,135,135,135,0,135,0,10/27/19 12:47,The main experiment item,yes,Sternbergtask.osexp,C:/Users/Breena Riley/Desktop/2019 Fall/MultQuant/lab 3.1,no,mono,no,18,no,white,no,yes,768,legacy,123,11,C:/Users/Breena Riley/Desktop/2019 Fall/MultQuant/lab 3.1/BR-subject-4.csv,legacy,1 4 9 3,Kafkaesque Koffka,3.2.8,0,n,0,right,right,right,right,NA,619,3868,24158,619,NA,2,legacy,4,1024,2,48000,-16,experiment,4,even,5,847617,844322,845413,3206,103226,845415,808693,3214,79068,850240,846416,849620,7083,849620,NA,Sternberg task,111,97736,136,yes,1024
81.02189781,81.02189781,728,728,black,experiment,legacy,legacy,legacy,0,uniform,0,undefined,0,left,136,136,136,0,0,136,136,0,0,136,136,136,0,136,0,10/27/19 12:47,The main experiment item,yes,Sternbergtask.osexp,C:/Users/Breena Riley/Desktop/2019 Fall/MultQuant/lab 3.1,no,mono,no,18,no,white,no,yes,768,legacy,124,11,C:/Users/Breena Riley/Desktop/2019 Fall/MultQuant/lab 3.1/BR-subject-4.csv,legacy,1 4 9 3 2 5,Kafkaesque Koffka,3.2.8,3,y,0,None,right,right,None,NA,2000,3868,24158,2000,NA,2,legacy,6,1024,2,48000,-16,experiment,4,even,9,853544,850248,851339,3206,103226,851341,808693,3214,79068,857547,852342,855546,7083,855546,NA,Sternberg task,111,99736,137,yes,1024
80.43478261,80.43478261,727.7753623,727.7753623,black,experiment,legacy,legacy,legacy,0,uniform,0,undefined,0,left,137,137,137,0,0,137,137,0,0,137,137,137,0,137,0,10/27/19 12:47,The main experiment item,yes,Sternbergtask.osexp,C:/Users/Breena Riley/Desktop/2019 Fall/MultQuant/lab 3.1,no,mono,no,18,no,white,no,yes,768,legacy,125,11,C:/Users/Breena Riley/Desktop/2019 Fall/MultQuant/lab 3.1/BR-subject-4.csv,legacy,4 6 5 8,Kafkaesque Koffka,3.2.8,1,y,0,right,right,right,right,NA,697,3868,24158,697,NA,2,legacy,4,1024,2,48000,-16,experiment,4,even,4,860849,850248,858645,3206,103226,858647,857555,3214,79068,863549,859648,862851,7083,862851,NA,Sternberg task,111,100433,138,yes,1024