acc,accuracy,average_response_time,avg_rt,background,block,canvas_backend,clock_backend,color_backend,compensation,coordinates,correct,correct_Instruction1,correct_new_keyboard_response,correct_response,count_Instruction1,count_correctFeedback,count_expSequence,count_experiment,count_experimentLoop,count_fixation,count_incorrectFeedback,count_instructions2,count_isi,count_logger,count_memorySet,count_new_keyboard_response,count_practiceLoop,count_probe,count_thankYou,datetime,description,disable_garbage_collection,experiment_file,experiment_path,font_bold,font_family,font_italic,font_size,font_underline,foreground,form_clicks,fullscreen,height,keyboard_backend,live_row,live_row_practiceLoop,logfile,mouse_backend,numberSet,opensesame_codename,opensesame_version,posInSet,present,repeat_cycle,response,response_Instruction1,response_instructions2,response_new_keyboard_response,response_thankYou,response_time,response_time_Instruction1,response_time_instructions2,response_time_new_keyboard_response,response_time_thankYou,round_decimals,sampler_backend,setSize,sound_buf_size,sound_channels,sound_freq,sound_sample_size,start,subject_nr,subject_parity,target,time_Instruction1,time_correctFeedback,time_expSequence,time_experiment,time_experimentLoop,time_fixation,time_incorrectFeedback,time_instructions2,time_isi,time_logger,time_memorySet,time_new_keyboard_response,time_practiceLoop,time_probe,time_thankYou,title,total_correct,total_response_time,total_responses,uniform_coordinates,width
0,0,957,957,black,practice,legacy,legacy,legacy,0,uniform,0,undefined,0,right,0,0,0,0,0,0,0,0,0,0,0,0,0,0,0,Sun Oct 20 20:43:38 2019,The main experiment item,yes,Sternbergtask.osexp,/Users/KrisBow/Dropbox/GradSchoolTarleton/Fall2019/AdvQuant/Lab3,no,mono,no,18,no,white,no,yes,768,legacy,0,0,/Users/KrisBow/Dropbox/GradSchoolTarleton/Fall2019/AdvQuant/Lab3/KB-subject-1.csv,legacy,5,Kafkaesque Koffka,3.2.6,0,n,0,left,right,NA,left,NA,957,705,NA,957,NA,2,legacy,1,1024,2,48000,-16,experiment,0,even,3,144372,NA,145180,144360,NA,145191,NA,NA,147414,150385,146202,149425,145078,149425,NA,Sternberg task,0,957,1,yes,1024
0,0,1054,1054,black,practice,legacy,legacy,legacy,0,uniform,0,undefined,0,left,0,1,1,0,0,1,1,0,1,1,1,1,0,1,0,Sun Oct 20 20:43:38 2019,The main experiment item,yes,Sternbergtask.osexp,/Users/KrisBow/Dropbox/GradSchoolTarleton/Fall2019/AdvQuant/Lab3,no,mono,no,18,no,white,no,yes,768,legacy,1,1,/Users/KrisBow/Dropbox/GradSchoolTarleton/Fall2019/AdvQuant/Lab3/KB-subject-1.csv,legacy,2 9 4,Kafkaesque Koffka,3.2.6,3,y,0,right,right,NA,right,NA,1151,705,NA,1151,NA,2,legacy,3,1024,2,48000,-16,experiment,0,even,4,144372,NA,151574,144360,NA,151585,150455,NA,153807,156971,152596,155818,145078,155817,NA,Sternberg task,0,2108,2,yes,1024
0,0,1075,1075,black,practice,legacy,legacy,legacy,0,uniform,0,undefined,0,right,0,2,2,0,0,2,2,0,2,2,2,2,0,2,0,Sun Oct 20 20:43:38 2019,The main experiment item,yes,Sternbergtask.osexp,/Users/KrisBow/Dropbox/GradSchoolTarleton/Fall2019/AdvQuant/Lab3,no,mono,no,18,no,white,no,yes,768,legacy,2,2,/Users/KrisBow/Dropbox/GradSchoolTarleton/Fall2019/AdvQuant/Lab3/KB-subject-1.csv,legacy,5 7 8 4 1 2,Kafkaesque Koffka,3.2.6,0,n,0,left,right,NA,left,NA,1117,705,NA,1117,NA,2,legacy,6,1024,2,48000,-16,experiment,0,even,6,144372,NA,158094,144360,NA,158105,156987,NA,160330,163460,159117,162341,145078,162341,NA,Sternberg task,0,3225,3,yes,1024
25,25,1019.5,1019.5,black,practice,legacy,legacy,legacy,0,uniform,1,undefined,1,right,0,3,3,0,0,3,3,0,3,3,3,3,0,3,0,Sun Oct 20 20:43:38 2019,The main experiment item,yes,Sternbergtask.osexp,/Users/KrisBow/Dropbox/GradSchoolTarleton/Fall2019/AdvQuant/Lab3,no,mono,no,18,no,white,no,yes,768,legacy,3,3,/Users/KrisBow/Dropbox/GradSchoolTarleton/Fall2019/AdvQuant/Lab3/KB-subject-1.csv,legacy,2 1,Kafkaesque Koffka,3.2.6,0,n,0,right,right,NA,right,NA,853,705,NA,853,NA,2,legacy,2,1024,2,48000,-16,experiment,0,even,5,144372,NA,164579,144360,NA,164590,163473,NA,166813,169678,165601,168824,145078,168823,NA,Sternberg task,1,4078,4,yes,1024
40,40,1015.6,1015.6,black,practice,legacy,legacy,legacy,0,uniform,1,undefined,1,left,0,4,4,0,0,4,4,0,4,4,4,4,0,4,0,Sun Oct 20 20:43:38 2019,The main experiment item,yes,Sternbergtask.osexp,/Users/KrisBow/Dropbox/GradSchoolTarleton/Fall2019/AdvQuant/Lab3,no,mono,no,18,no,white,no,yes,768,legacy,4,4,/Users/KrisBow/Dropbox/GradSchoolTarleton/Fall2019/AdvQuant/Lab3/KB-subject-1.csv,legacy,1 7 9 8 5,Kafkaesque Koffka,3.2.6,4,y,0,left,right,NA,left,NA,1000,705,NA,1000,NA,2,legacy,5,1024,2,48000,-16,experiment,0,even,8,144372,169691,170798,144360,NA,170808,163473,NA,173032,176045,171820,175043,145078,175043,NA,Sternberg task,2,5078,5,yes,1024
50,50,967,967,black,practice,legacy,legacy,legacy,0,uniform,1,undefined,1,left,0,5,5,0,0,5,5,0,5,5,5,5,0,5,0,Sun Oct 20 20:43:38 2019,The main experiment item,yes,Sternbergtask.osexp,/Users/KrisBow/Dropbox/GradSchoolTarleton/Fall2019/AdvQuant/Lab3,no,mono,no,18,no,white,no,yes,768,legacy,5,5,/Users/KrisBow/Dropbox/GradSchoolTarleton/Fall2019/AdvQuant/Lab3/KB-subject-1.csv,legacy,4 8,Kafkaesque Koffka,3.2.6,1,y,0,left,right,NA,left,NA,724,705,NA,724,NA,2,legacy,2,1024,2,48000,-16,experiment,0,even,4,144372,176058,177166,144360,NA,177177,163473,NA,179400,182138,178188,181412,145078,181412,NA,Sternberg task,3,5802,6,yes,1024
57.14285714,57.14285714,1006.571429,1006.571429,black,practice,legacy,legacy,legacy,0,uniform,1,undefined,1,left,0,6,6,0,0,6,6,0,6,6,6,6,0,6,0,Sun Oct 20 20:43:38 2019,The main experiment item,yes,Sternbergtask.osexp,/Users/KrisBow/Dropbox/GradSchoolTarleton/Fall2019/AdvQuant/Lab3,no,mono,no,18,no,white,no,yes,768,legacy,6,6,/Users/KrisBow/Dropbox/GradSchoolTarleton/Fall2019/AdvQuant/Lab3/KB-subject-1.csv,legacy,4 3 1 7 9 8,Kafkaesque Koffka,3.2.6,1,y,0,left,right,NA,left,NA,1244,705,NA,1244,NA,2,legacy,6,1024,2,48000,-16,experiment,0,even,4,144372,182150,183257,144360,NA,183268,163473,NA,185492,188748,184278,187503,145078,187503,NA,Sternberg task,4,7046,7,yes,1024
62.5,62.5,989.375,989.375,black,practice,legacy,legacy,legacy,0,uniform,1,undefined,1,left,0,7,7,0,0,7,7,0,7,7,7,7,0,7,0,Sun Oct 20 20:43:38 2019,The main experiment item,yes,Sternbergtask.osexp,/Users/KrisBow/Dropbox/GradSchoolTarleton/Fall2019/AdvQuant/Lab3,no,mono,no,18,no,white,no,yes,768,legacy,7,7,/Users/KrisBow/Dropbox/GradSchoolTarleton/Fall2019/AdvQuant/Lab3/KB-subject-1.csv,legacy,6,Kafkaesque Koffka,3.2.6,1,y,0,left,right,NA,left,NA,869,705,NA,869,NA,2,legacy,1,1024,2,48000,-16,experiment,0,even,6,144372,188761,189868,144360,NA,189878,163473,NA,192102,194984,190889,194113,145078,194113,NA,Sternberg task,5,7915,8,yes,1024
66.66666667,66.66666667,968.3333333,968.3333333,black,practice,legacy,legacy,legacy,0,uniform,1,undefined,1,right,0,8,8,0,0,8,8,0,8,8,8,8,0,8,0,Sun Oct 20 20:43:38 2019,The main experiment item,yes,Sternbergtask.osexp,/Users/KrisBow/Dropbox/GradSchoolTarleton/Fall2019/AdvQuant/Lab3,no,mono,no,18,no,white,no,yes,768,legacy,8,8,/Users/KrisBow/Dropbox/GradSchoolTarleton/Fall2019/AdvQuant/Lab3/KB-subject-1.csv,legacy,4 1 5,Kafkaesque Koffka,3.2.6,0,n,0,right,right,NA,right,NA,800,705,NA,800,NA,2,legacy,3,1024,2,48000,-16,experiment,0,even,2,144372,194997,196102,144360,NA,196113,163473,NA,198337,201150,197124,200348,145078,200348,NA,Sternberg task,6,8715,9,yes,1024
70,70,979.9,979.9,black,practice,legacy,legacy,legacy,0,uniform,1,undefined,1,left,0,9,9,0,0,9,9,0,9,9,9,9,0,9,0,Sun Oct 20 20:43:38 2019,The main experiment item,yes,Sternbergtask.osexp,/Users/KrisBow/Dropbox/GradSchoolTarleton/Fall2019/AdvQuant/Lab3,no,mono,no,18,no,white,no,yes,768,legacy,9,9,/Users/KrisBow/Dropbox/GradSchoolTarleton/Fall2019/AdvQuant/Lab3/KB-subject-1.csv,legacy,1 5 2 9,Kafkaesque Koffka,3.2.6,2,y,0,left,right,NA,left,NA,1084,705,NA,1084,NA,2,legacy,4,1024,2,48000,-16,experiment,0,even,5,144372,201165,202273,144360,NA,202283,163473,NA,204507,207604,203294,206518,145078,206518,NA,Sternberg task,7,9799,10,yes,1024
72.72727273,72.72727273,995.1818182,995.1818182,black,practice,legacy,legacy,legacy,0,uniform,1,undefined,1,right,0,10,10,0,0,10,10,0,10,10,10,10,0,10,0,Sun Oct 20 20:43:38 2019,The main experiment item,yes,Sternbergtask.osexp,/Users/KrisBow/Dropbox/GradSchoolTarleton/Fall2019/AdvQuant/Lab3,no,mono,no,18,no,white,no,yes,768,legacy,10,10,/Users/KrisBow/Dropbox/GradSchoolTarleton/Fall2019/AdvQuant/Lab3/KB-subject-1.csv,legacy,3 1 9 4,Kafkaesque Koffka,3.2.6,0,n,0,right,right,NA,right,NA,1148,705,NA,1148,NA,2,legacy,4,1024,2,48000,-16,experiment,0,even,6,144372,207619,208726,144360,NA,208737,163473,NA,210961,214122,209748,212973,145078,212973,NA,Sternberg task,8,10947,11,yes,1024
75,75,977.8333333,977.8333333,black,practice,legacy,legacy,legacy,0,uniform,1,undefined,1,right,0,11,11,0,0,11,11,0,11,11,11,11,0,11,0,Sun Oct 20 20:43:38 2019,The main experiment item,yes,Sternbergtask.osexp,/Users/KrisBow/Dropbox/GradSchoolTarleton/Fall2019/AdvQuant/Lab3,no,mono,no,18,no,white,no,yes,768,legacy,11,11,/Users/KrisBow/Dropbox/GradSchoolTarleton/Fall2019/AdvQuant/Lab3/KB-subject-1.csv,legacy,9 6 7 4 5,Kafkaesque Koffka,3.2.6,0,n,0,right,right,NA,right,NA,787,705,NA,787,NA,2,legacy,5,1024,2,48000,-16,experiment,0,even,3,144372,214136,215242,144360,NA,215253,163473,NA,217476,220275,216264,219487,145078,219487,NA,Sternberg task,9,11734,12,yes,1024
76.92307692,76.92307692,966.6153846,966.6153846,black,experiment,legacy,legacy,legacy,0,uniform,1,undefined,1,right,0,12,12,0,0,12,12,0,12,12,12,12,0,12,0,Sun Oct 20 20:43:38 2019,The main experiment item,yes,Sternbergtask.osexp,/Users/KrisBow/Dropbox/GradSchoolTarleton/Fall2019/AdvQuant/Lab3,no,mono,no,18,no,white,no,yes,768,legacy,0,11,/Users/KrisBow/Dropbox/GradSchoolTarleton/Fall2019/AdvQuant/Lab3/KB-subject-1.csv,legacy,1 4 9 2 5,Kafkaesque Koffka,3.2.6,0,n,0,right,right,right,right,NA,832,705,4742,832,NA,2,legacy,5,1024,2,48000,-16,experiment,0,even,7,144372,220289,226195,144360,226076,226206,163473,221332,228431,231276,227218,230442,145078,230442,NA,Sternberg task,10,12566,13,yes,1024
78.57142857,78.57142857,959.7142857,959.7142857,black,experiment,legacy,legacy,legacy,0,uniform,1,undefined,1,left,0,13,13,0,0,13,13,0,13,13,13,13,0,13,0,Sun Oct 20 20:43:38 2019,The main experiment item,yes,Sternbergtask.osexp,/Users/KrisBow/Dropbox/GradSchoolTarleton/Fall2019/AdvQuant/Lab3,no,mono,no,18,no,white,no,yes,768,legacy,1,11,/Users/KrisBow/Dropbox/GradSchoolTarleton/Fall2019/AdvQuant/Lab3/KB-subject-1.csv,legacy,3 9 7 6 4,Kafkaesque Koffka,3.2.6,3,y,0,left,right,right,left,NA,870,705,4742,870,NA,2,legacy,5,1024,2,48000,-16,experiment,0,even,7,144372,231291,232408,144360,226076,232419,163473,221332,234643,237526,233430,236654,145078,236653,NA,Sternberg task,11,13436,14,yes,1024
80,80,942.2666667,942.2666667,black,experiment,legacy,legacy,legacy,0,uniform,1,undefined,1,left,0,14,14,0,0,14,14,0,14,14,14,14,0,14,0,Sun Oct 20 20:43:38 2019,The main experiment item,yes,Sternbergtask.osexp,/Users/KrisBow/Dropbox/GradSchoolTarleton/Fall2019/AdvQuant/Lab3,no,mono,no,18,no,white,no,yes,768,legacy,2,11,/Users/KrisBow/Dropbox/GradSchoolTarleton/Fall2019/AdvQuant/Lab3/KB-subject-1.csv,legacy,8 1 6,Kafkaesque Koffka,3.2.6,3,y,0,left,right,right,left,NA,698,705,4742,698,NA,2,legacy,3,1024,2,48000,-16,experiment,0,even,6,144372,237540,238646,144360,226076,238657,163473,221332,240880,243592,239668,242892,145078,242892,NA,Sternberg task,12,14134,15,yes,1024
81.25,81.25,926.375,926.375,black,experiment,legacy,legacy,legacy,0,uniform,1,undefined,1,right,0,15,15,0,0,15,15,0,15,15,15,15,0,15,0,Sun Oct 20 20:43:38 2019,The main experiment item,yes,Sternbergtask.osexp,/Users/KrisBow/Dropbox/GradSchoolTarleton/Fall2019/AdvQuant/Lab3,no,mono,no,18,no,white,no,yes,768,legacy,3,11,/Users/KrisBow/Dropbox/GradSchoolTarleton/Fall2019/AdvQuant/Lab3/KB-subject-1.csv,legacy,7 8 6 1,Kafkaesque Koffka,3.2.6,0,n,0,right,right,right,right,NA,688,705,4742,688,NA,2,legacy,4,1024,2,48000,-16,experiment,0,even,3,144372,243604,244711,144360,226076,244722,163473,221332,246945,249645,245733,248956,145078,248955,NA,Sternberg task,13,14822,16,yes,1024
82.35294118,82.35294118,925.0588235,925.0588235,black,experiment,legacy,legacy,legacy,0,uniform,1,undefined,1,right,0,16,16,0,0,16,16,0,16,16,16,16,0,16,0,Sun Oct 20 20:43:38 2019,The main experiment item,yes,Sternbergtask.osexp,/Users/KrisBow/Dropbox/GradSchoolTarleton/Fall2019/AdvQuant/Lab3,no,mono,no,18,no,white,no,yes,768,legacy,4,11,/Users/KrisBow/Dropbox/GradSchoolTarleton/Fall2019/AdvQuant/Lab3/KB-subject-1.csv,legacy,2 6 4 3 9,Kafkaesque Koffka,3.2.6,0,n,0,right,right,right,right,NA,904,705,4742,904,NA,2,legacy,5,1024,2,48000,-16,experiment,0,even,1,144372,249658,250764,144360,226076,250775,163473,221332,252997,255913,251786,255007,145078,255007,NA,Sternberg task,14,15726,17,yes,1024
83.33333333,83.33333333,913.9444444,913.9444444,black,experiment,legacy,legacy,legacy,0,uniform,1,undefined,1,left,0,17,17,0,0,17,17,0,17,17,17,17,0,17,0,Sun Oct 20 20:43:38 2019,The main experiment item,yes,Sternbergtask.osexp,/Users/KrisBow/Dropbox/GradSchoolTarleton/Fall2019/AdvQuant/Lab3,no,mono,no,18,no,white,no,yes,768,legacy,5,11,/Users/KrisBow/Dropbox/GradSchoolTarleton/Fall2019/AdvQuant/Lab3/KB-subject-1.csv,legacy,7 1 3,Kafkaesque Koffka,3.2.6,2,y,0,left,right,right,left,NA,725,705,4742,725,NA,2,legacy,3,1024,2,48000,-16,experiment,0,even,1,144372,255926,257032,144360,226076,257042,163473,221332,259268,262004,258055,261278,145078,261278,NA,Sternberg task,15,16451,18,yes,1024
84.21052632,84.21052632,927,927,black,experiment,legacy,legacy,legacy,0,uniform,1,undefined,1,left,0,18,18,0,0,18,18,0,18,18,18,18,0,18,0,Sun Oct 20 20:43:38 2019,The main experiment item,yes,Sternbergtask.osexp,/Users/KrisBow/Dropbox/GradSchoolTarleton/Fall2019/AdvQuant/Lab3,no,mono,no,18,no,white,no,yes,768,legacy,6,11,/Users/KrisBow/Dropbox/GradSchoolTarleton/Fall2019/AdvQuant/Lab3/KB-subject-1.csv,legacy,4 9 7 8 5 3,Kafkaesque Koffka,3.2.6,4,y,0,left,right,right,left,NA,1162,705,4742,1162,NA,2,legacy,6,1024,2,48000,-16,experiment,0,even,8,144372,262017,263123,144360,226076,263135,163473,221332,265357,268531,264146,267368,145078,267368,NA,Sternberg task,16,17613,19,yes,1024
85,85,910.85,910.85,black,experiment,legacy,legacy,legacy,0,uniform,1,undefined,1,right,0,19,19,0,0,19,19,0,19,19,19,19,0,19,0,Sun Oct 20 20:43:38 2019,The main experiment item,yes,Sternbergtask.osexp,/Users/KrisBow/Dropbox/GradSchoolTarleton/Fall2019/AdvQuant/Lab3,no,mono,no,18,no,white,no,yes,768,legacy,7,11,/Users/KrisBow/Dropbox/GradSchoolTarleton/Fall2019/AdvQuant/Lab3/KB-subject-1.csv,legacy,3 4 2,Kafkaesque Koffka,3.2.6,0,n,0,right,right,right,right,NA,604,705,4742,604,NA,2,legacy,3,1024,2,48000,-16,experiment,0,even,5,144372,268543,269651,144360,226076,269661,163473,221332,271885,274501,270672,273895,145078,273895,NA,Sternberg task,17,18217,20,yes,1024
85.71428571,85.71428571,908.8095238,908.8095238,black,experiment,legacy,legacy,legacy,0,uniform,1,undefined,1,left,0,20,20,0,0,20,20,0,20,20,20,20,0,20,0,Sun Oct 20 20:43:38 2019,The main experiment item,yes,Sternbergtask.osexp,/Users/KrisBow/Dropbox/GradSchoolTarleton/Fall2019/AdvQuant/Lab3,no,mono,no,18,no,white,no,yes,768,legacy,8,11,/Users/KrisBow/Dropbox/GradSchoolTarleton/Fall2019/AdvQuant/Lab3/KB-subject-1.csv,legacy,5 7 3 6 2,Kafkaesque Koffka,3.2.6,5,y,0,left,right,right,left,NA,868,705,4742,868,NA,2,legacy,5,1024,2,48000,-16,experiment,0,even,2,144372,274513,275619,144360,226076,275630,163473,221332,277854,280735,276641,279865,145078,279865,NA,Sternberg task,18,19085,21,yes,1024
86.36363636,86.36363636,908.5454545,908.5454545,black,experiment,legacy,legacy,legacy,0,uniform,1,undefined,1,right,0,21,21,0,0,21,21,0,21,21,21,21,0,21,0,Sun Oct 20 20:43:38 2019,The main experiment item,yes,Sternbergtask.osexp,/Users/KrisBow/Dropbox/GradSchoolTarleton/Fall2019/AdvQuant/Lab3,no,mono,no,18,no,white,no,yes,768,legacy,9,11,/Users/KrisBow/Dropbox/GradSchoolTarleton/Fall2019/AdvQuant/Lab3/KB-subject-1.csv,legacy,8 9,Kafkaesque Koffka,3.2.6,0,n,0,right,right,right,right,NA,903,705,4742,903,NA,2,legacy,2,1024,2,48000,-16,experiment,0,even,5,144372,280747,281854,144360,226076,281865,163473,221332,284088,287005,282876,286100,145078,286100,NA,Sternberg task,19,19988,22,yes,1024
86.95652174,86.95652174,909.4782609,909.4782609,black,experiment,legacy,legacy,legacy,0,uniform,1,undefined,1,left,0,22,22,0,0,22,22,0,22,22,22,22,0,22,0,Sun Oct 20 20:43:38 2019,The main experiment item,yes,Sternbergtask.osexp,/Users/KrisBow/Dropbox/GradSchoolTarleton/Fall2019/AdvQuant/Lab3,no,mono,no,18,no,white,no,yes,768,legacy,10,11,/Users/KrisBow/Dropbox/GradSchoolTarleton/Fall2019/AdvQuant/Lab3/KB-subject-1.csv,legacy,3 2 1 4 7,Kafkaesque Koffka,3.2.6,2,y,0,left,right,right,left,NA,930,705,4742,930,NA,2,legacy,5,1024,2,48000,-16,experiment,0,even,2,144372,287018,288124,144360,226076,288136,163473,221332,290360,293303,289147,292371,145078,292371,NA,Sternberg task,20,20918,23,yes,1024
87.5,87.5,891.9166667,891.9166667,black,experiment,legacy,legacy,legacy,0,uniform,1,undefined,1,right,0,23,23,0,0,23,23,0,23,23,23,23,0,23,0,Sun Oct 20 20:43:38 2019,The main experiment item,yes,Sternbergtask.osexp,/Users/KrisBow/Dropbox/GradSchoolTarleton/Fall2019/AdvQuant/Lab3,no,mono,no,18,no,white,no,yes,768,legacy,11,11,/Users/KrisBow/Dropbox/GradSchoolTarleton/Fall2019/AdvQuant/Lab3/KB-subject-1.csv,legacy,6 8 4,Kafkaesque Koffka,3.2.6,0,n,0,right,right,right,right,NA,488,705,4742,488,NA,2,legacy,3,1024,2,48000,-16,experiment,0,even,1,144372,293320,294433,144360,226076,294445,163473,221332,296670,299171,295457,298681,145078,298681,NA,Sternberg task,21,21406,24,yes,1024
88,88,888.6,888.6,black,experiment,legacy,legacy,legacy,0,uniform,1,undefined,1,left,0,24,24,0,0,24,24,0,24,24,24,24,0,24,0,Sun Oct 20 20:43:38 2019,The main experiment item,yes,Sternbergtask.osexp,/Users/KrisBow/Dropbox/GradSchoolTarleton/Fall2019/AdvQuant/Lab3,no,mono,no,18,no,white,no,yes,768,legacy,12,11,/Users/KrisBow/Dropbox/GradSchoolTarleton/Fall2019/AdvQuant/Lab3/KB-subject-1.csv,legacy,3 9 6 2,Kafkaesque Koffka,3.2.6,4,y,0,left,right,right,left,NA,809,705,4742,809,NA,2,legacy,4,1024,2,48000,-16,experiment,0,even,2,144372,299184,300291,144360,226076,300301,163473,221332,302525,305347,301313,304536,145078,304536,NA,Sternberg task,22,22215,25,yes,1024
88.46153846,88.46153846,880.3076923,880.3076923,black,experiment,legacy,legacy,legacy,0,uniform,1,undefined,1,left,0,25,25,0,0,25,25,0,25,25,25,25,0,25,0,Sun Oct 20 20:43:38 2019,The main experiment item,yes,Sternbergtask.osexp,/Users/KrisBow/Dropbox/GradSchoolTarleton/Fall2019/AdvQuant/Lab3,no,mono,no,18,no,white,no,yes,768,legacy,13,11,/Users/KrisBow/Dropbox/GradSchoolTarleton/Fall2019/AdvQuant/Lab3/KB-subject-1.csv,legacy,7 2 3,Kafkaesque Koffka,3.2.6,3,y,0,left,right,right,left,NA,673,705,4742,673,NA,2,legacy,3,1024,2,48000,-16,experiment,0,even,3,144372,305359,306469,144360,226076,306480,163473,221332,308703,311389,307491,310714,145078,310714,NA,Sternberg task,23,22888,26,yes,1024
88.88888889,88.88888889,869.3703704,869.3703704,black,experiment,legacy,legacy,legacy,0,uniform,1,undefined,1,left,0,26,26,0,0,26,26,0,26,26,26,26,0,26,0,Sun Oct 20 20:43:38 2019,The main experiment item,yes,Sternbergtask.osexp,/Users/KrisBow/Dropbox/GradSchoolTarleton/Fall2019/AdvQuant/Lab3,no,mono,no,18,no,white,no,yes,768,legacy,14,11,/Users/KrisBow/Dropbox/GradSchoolTarleton/Fall2019/AdvQuant/Lab3/KB-subject-1.csv,legacy,3 5 7 1,Kafkaesque Koffka,3.2.6,3,y,0,left,right,right,left,NA,585,705,4742,585,NA,2,legacy,4,1024,2,48000,-16,experiment,0,even,7,144372,311402,312508,144360,226076,312519,163473,221332,314743,317342,313530,316754,145078,316754,NA,Sternberg task,24,23473,27,yes,1024
89.28571429,89.28571429,864,864,black,experiment,legacy,legacy,legacy,0,uniform,1,undefined,1,right,0,27,27,0,0,27,27,0,27,27,27,27,0,27,0,Sun Oct 20 20:43:38 2019,The main experiment item,yes,Sternbergtask.osexp,/Users/KrisBow/Dropbox/GradSchoolTarleton/Fall2019/AdvQuant/Lab3,no,mono,no,18,no,white,no,yes,768,legacy,15,11,/Users/KrisBow/Dropbox/GradSchoolTarleton/Fall2019/AdvQuant/Lab3/KB-subject-1.csv,legacy,1 7 5 2,Kafkaesque Koffka,3.2.6,0,n,0,right,right,right,right,NA,719,705,4742,719,NA,2,legacy,4,1024,2,48000,-16,experiment,0,even,3,144372,317355,318462,144360,226076,318472,163473,221332,320695,323427,319483,322706,145078,322706,NA,Sternberg task,25,24192,28,yes,1024
89.65517241,89.65517241,858.3448276,858.3448276,black,experiment,legacy,legacy,legacy,0,uniform,1,undefined,1,right,0,28,28,0,0,28,28,0,28,28,28,28,0,28,0,Sun Oct 20 20:43:38 2019,The main experiment item,yes,Sternbergtask.osexp,/Users/KrisBow/Dropbox/GradSchoolTarleton/Fall2019/AdvQuant/Lab3,no,mono,no,18,no,white,no,yes,768,legacy,16,11,/Users/KrisBow/Dropbox/GradSchoolTarleton/Fall2019/AdvQuant/Lab3/KB-subject-1.csv,legacy,7 1,Kafkaesque Koffka,3.2.6,0,n,0,right,right,right,right,NA,700,705,4742,700,NA,2,legacy,2,1024,2,48000,-16,experiment,0,even,8,144372,323444,324551,144360,226076,324561,163473,221332,326786,329499,325573,328797,145078,328797,NA,Sternberg task,26,24892,29,yes,1024
90,90,848.6333333,848.6333333,black,experiment,legacy,legacy,legacy,0,uniform,1,undefined,1,right,0,29,29,0,0,29,29,0,29,29,29,29,0,29,0,Sun Oct 20 20:43:38 2019,The main experiment item,yes,Sternbergtask.osexp,/Users/KrisBow/Dropbox/GradSchoolTarleton/Fall2019/AdvQuant/Lab3,no,mono,no,18,no,white,no,yes,768,legacy,17,11,/Users/KrisBow/Dropbox/GradSchoolTarleton/Fall2019/AdvQuant/Lab3/KB-subject-1.csv,legacy,1,Kafkaesque Koffka,3.2.6,0,n,0,right,right,right,right,NA,567,705,4742,567,NA,2,legacy,1,1024,2,48000,-16,experiment,0,even,7,144372,329512,330618,144360,226076,330628,163473,221332,332851,335432,331639,334863,145078,334863,NA,Sternberg task,27,25459,30,yes,1024
90.32258065,90.32258065,847.8387097,847.8387097,black,experiment,legacy,legacy,legacy,0,uniform,1,undefined,1,right,0,30,30,0,0,30,30,0,30,30,30,30,0,30,0,Sun Oct 20 20:43:38 2019,The main experiment item,yes,Sternbergtask.osexp,/Users/KrisBow/Dropbox/GradSchoolTarleton/Fall2019/AdvQuant/Lab3,no,mono,no,18,no,white,no,yes,768,legacy,18,11,/Users/KrisBow/Dropbox/GradSchoolTarleton/Fall2019/AdvQuant/Lab3/KB-subject-1.csv,legacy,7 1 8 4 9 3,Kafkaesque Koffka,3.2.6,0,n,0,right,right,right,right,NA,824,705,4742,824,NA,2,legacy,6,1024,2,48000,-16,experiment,0,even,6,144372,335445,336553,144360,226076,336564,163473,221332,338789,341627,337576,340801,145078,340800,NA,Sternberg task,28,26283,31,yes,1024
90.625,90.625,842.09375,842.09375,black,experiment,legacy,legacy,legacy,0,uniform,1,undefined,1,left,0,31,31,0,0,31,31,0,31,31,31,31,0,31,0,Sun Oct 20 20:43:38 2019,The main experiment item,yes,Sternbergtask.osexp,/Users/KrisBow/Dropbox/GradSchoolTarleton/Fall2019/AdvQuant/Lab3,no,mono,no,18,no,white,no,yes,768,legacy,19,11,/Users/KrisBow/Dropbox/GradSchoolTarleton/Fall2019/AdvQuant/Lab3/KB-subject-1.csv,legacy,2 8 5 1,Kafkaesque Koffka,3.2.6,4,y,0,left,right,right,left,NA,664,705,4742,664,NA,2,legacy,4,1024,2,48000,-16,experiment,0,even,1,144372,341640,342747,144360,226076,342757,163473,221332,344980,347657,343768,346992,145078,346991,NA,Sternberg task,29,26947,32,yes,1024
90.90909091,90.90909091,834.9393939,834.9393939,black,experiment,legacy,legacy,legacy,0,uniform,1,undefined,1,right,0,32,32,0,0,32,32,0,32,32,32,32,0,32,0,Sun Oct 20 20:43:38 2019,The main experiment item,yes,Sternbergtask.osexp,/Users/KrisBow/Dropbox/GradSchoolTarleton/Fall2019/AdvQuant/Lab3,no,mono,no,18,no,white,no,yes,768,legacy,20,11,/Users/KrisBow/Dropbox/GradSchoolTarleton/Fall2019/AdvQuant/Lab3/KB-subject-1.csv,legacy,1 6 4,Kafkaesque Koffka,3.2.6,0,n,0,right,right,right,right,NA,606,705,4742,606,NA,2,legacy,3,1024,2,48000,-16,experiment,0,even,7,144372,347670,348776,144360,226076,348787,163473,221332,351009,353628,349798,353020,145078,353020,NA,Sternberg task,30,27553,33,yes,1024
91.17647059,91.17647059,827.9705882,827.9705882,black,experiment,legacy,legacy,legacy,0,uniform,1,undefined,1,right,0,33,33,0,0,33,33,0,33,33,33,33,0,33,0,Sun Oct 20 20:43:38 2019,The main experiment item,yes,Sternbergtask.osexp,/Users/KrisBow/Dropbox/GradSchoolTarleton/Fall2019/AdvQuant/Lab3,no,mono,no,18,no,white,no,yes,768,legacy,21,11,/Users/KrisBow/Dropbox/GradSchoolTarleton/Fall2019/AdvQuant/Lab3/KB-subject-1.csv,legacy,2 8 9,Kafkaesque Koffka,3.2.6,0,n,0,right,right,right,right,NA,598,705,4742,598,NA,2,legacy,3,1024,2,48000,-16,experiment,0,even,6,144372,353646,354753,144360,226076,354763,163473,221332,356985,359595,355775,358995,145078,358995,NA,Sternberg task,31,28151,34,yes,1024
91.42857143,91.42857143,827.0285714,827.0285714,black,experiment,legacy,legacy,legacy,0,uniform,1,undefined,1,left,0,34,34,0,0,34,34,0,34,34,34,34,0,34,0,Sun Oct 20 20:43:38 2019,The main experiment item,yes,Sternbergtask.osexp,/Users/KrisBow/Dropbox/GradSchoolTarleton/Fall2019/AdvQuant/Lab3,no,mono,no,18,no,white,no,yes,768,legacy,22,11,/Users/KrisBow/Dropbox/GradSchoolTarleton/Fall2019/AdvQuant/Lab3/KB-subject-1.csv,legacy,4 1 5,Kafkaesque Koffka,3.2.6,2,y,0,left,right,right,left,NA,795,705,4742,795,NA,2,legacy,3,1024,2,48000,-16,experiment,0,even,1,144372,359608,360714,144360,226076,360725,163473,221332,362948,365757,361736,364960,145078,364959,NA,Sternberg task,32,28946,35,yes,1024
91.66666667,91.66666667,826.5555556,826.5555556,black,experiment,legacy,legacy,legacy,0,uniform,1,undefined,1,left,0,35,35,0,0,35,35,0,35,35,35,35,0,35,0,Sun Oct 20 20:43:38 2019,The main experiment item,yes,Sternbergtask.osexp,/Users/KrisBow/Dropbox/GradSchoolTarleton/Fall2019/AdvQuant/Lab3,no,mono,no,18,no,white,no,yes,768,legacy,23,11,/Users/KrisBow/Dropbox/GradSchoolTarleton/Fall2019/AdvQuant/Lab3/KB-subject-1.csv,legacy,8 3,Kafkaesque Koffka,3.2.6,2,y,0,left,right,right,left,NA,810,705,4742,810,NA,2,legacy,2,1024,2,48000,-16,experiment,0,even,3,144372,365770,366875,144360,226076,366886,163473,221332,369109,371932,367897,371120,145078,371119,NA,Sternberg task,33,29756,36,yes,1024
91.89189189,91.89189189,820.4864865,820.4864865,black,experiment,legacy,legacy,legacy,0,uniform,1,undefined,1,right,0,36,36,0,0,36,36,0,36,36,36,36,0,36,0,Sun Oct 20 20:43:38 2019,The main experiment item,yes,Sternbergtask.osexp,/Users/KrisBow/Dropbox/GradSchoolTarleton/Fall2019/AdvQuant/Lab3,no,mono,no,18,no,white,no,yes,768,legacy,24,11,/Users/KrisBow/Dropbox/GradSchoolTarleton/Fall2019/AdvQuant/Lab3/KB-subject-1.csv,legacy,9 8 2 7 4,Kafkaesque Koffka,3.2.6,0,n,0,right,right,right,right,NA,602,705,4742,602,NA,2,legacy,5,1024,2,48000,-16,experiment,0,even,5,144372,371945,373049,144360,226076,373060,163473,221332,375284,377904,374071,377300,145078,377300,NA,Sternberg task,34,30358,37,yes,1024
92.10526316,92.10526316,819.2631579,819.2631579,black,experiment,legacy,legacy,legacy,0,uniform,1,undefined,1,right,0,37,37,0,0,37,37,0,37,37,37,37,0,37,0,Sun Oct 20 20:43:38 2019,The main experiment item,yes,Sternbergtask.osexp,/Users/KrisBow/Dropbox/GradSchoolTarleton/Fall2019/AdvQuant/Lab3,no,mono,no,18,no,white,no,yes,768,legacy,25,11,/Users/KrisBow/Dropbox/GradSchoolTarleton/Fall2019/AdvQuant/Lab3/KB-subject-1.csv,legacy,6 8,Kafkaesque Koffka,3.2.6,0,n,0,right,right,right,right,NA,774,705,4742,774,NA,2,legacy,2,1024,2,48000,-16,experiment,0,even,9,144372,377917,379023,144360,226076,379034,163473,221332,381256,384044,380045,383268,145078,383267,NA,Sternberg task,35,31132,38,yes,1024
92.30769231,92.30769231,811.6410256,811.6410256,black,experiment,legacy,legacy,legacy,0,uniform,1,undefined,1,right,0,38,38,0,0,38,38,0,38,38,38,38,0,38,0,Sun Oct 20 20:43:38 2019,The main experiment item,yes,Sternbergtask.osexp,/Users/KrisBow/Dropbox/GradSchoolTarleton/Fall2019/AdvQuant/Lab3,no,mono,no,18,no,white,no,yes,768,legacy,26,11,/Users/KrisBow/Dropbox/GradSchoolTarleton/Fall2019/AdvQuant/Lab3/KB-subject-1.csv,legacy,5 2,Kafkaesque Koffka,3.2.6,0,n,0,right,right,right,right,NA,522,705,4742,522,NA,2,legacy,2,1024,2,48000,-16,experiment,0,even,7,144372,384060,385168,144360,226076,385179,163473,221332,387402,389938,386190,389414,145078,389414,NA,Sternberg task,36,31654,39,yes,1024
92.5,92.5,809.575,809.575,black,experiment,legacy,legacy,legacy,0,uniform,1,undefined,1,right,0,39,39,0,0,39,39,0,39,39,39,39,0,39,0,Sun Oct 20 20:43:38 2019,The main experiment item,yes,Sternbergtask.osexp,/Users/KrisBow/Dropbox/GradSchoolTarleton/Fall2019/AdvQuant/Lab3,no,mono,no,18,no,white,no,yes,768,legacy,27,11,/Users/KrisBow/Dropbox/GradSchoolTarleton/Fall2019/AdvQuant/Lab3/KB-subject-1.csv,legacy,2 8 9 4 1,Kafkaesque Koffka,3.2.6,0,n,0,right,right,right,right,NA,729,705,4742,729,NA,2,legacy,5,1024,2,48000,-16,experiment,0,even,5,144372,389950,391059,144360,226076,391069,163473,221332,393292,396035,392080,395303,145078,395303,NA,Sternberg task,37,32383,40,yes,1024
92.68292683,92.68292683,818.7073171,818.7073171,black,experiment,legacy,legacy,legacy,0,uniform,1,undefined,1,left,0,40,40,0,0,40,40,0,40,40,40,40,0,40,0,Sun Oct 20 20:43:38 2019,The main experiment item,yes,Sternbergtask.osexp,/Users/KrisBow/Dropbox/GradSchoolTarleton/Fall2019/AdvQuant/Lab3,no,mono,no,18,no,white,no,yes,768,legacy,28,11,/Users/KrisBow/Dropbox/GradSchoolTarleton/Fall2019/AdvQuant/Lab3/KB-subject-1.csv,legacy,1 4 9 3 2 5,Kafkaesque Koffka,3.2.6,3,y,0,left,right,right,left,NA,1184,705,4742,1184,NA,2,legacy,6,1024,2,48000,-16,experiment,0,even,9,144372,396048,397155,144360,226076,397166,163473,221332,399392,402589,398179,401403,145078,401403,NA,Sternberg task,38,33567,41,yes,1024
92.85714286,92.85714286,816.2857143,816.2857143,black,experiment,legacy,legacy,legacy,0,uniform,1,undefined,1,right,0,41,41,0,0,41,41,0,41,41,41,41,0,41,0,Sun Oct 20 20:43:38 2019,The main experiment item,yes,Sternbergtask.osexp,/Users/KrisBow/Dropbox/GradSchoolTarleton/Fall2019/AdvQuant/Lab3,no,mono,no,18,no,white,no,yes,768,legacy,29,11,/Users/KrisBow/Dropbox/GradSchoolTarleton/Fall2019/AdvQuant/Lab3/KB-subject-1.csv,legacy,2 8 6 3 1,Kafkaesque Koffka,3.2.6,0,n,0,right,right,right,right,NA,717,705,4742,717,NA,2,legacy,5,1024,2,48000,-16,experiment,0,even,7,144372,402602,403708,144360,226076,403718,163473,221332,405941,408670,404729,407952,145078,407951,NA,Sternberg task,39,34284,42,yes,1024
93.02325581,93.02325581,810.744186,810.744186,black,experiment,legacy,legacy,legacy,0,uniform,1,undefined,1,right,0,42,42,0,0,42,42,0,42,42,42,42,0,42,0,Sun Oct 20 20:43:38 2019,The main experiment item,yes,Sternbergtask.osexp,/Users/KrisBow/Dropbox/GradSchoolTarleton/Fall2019/AdvQuant/Lab3,no,mono,no,18,no,white,no,yes,768,legacy,30,11,/Users/KrisBow/Dropbox/GradSchoolTarleton/Fall2019/AdvQuant/Lab3/KB-subject-1.csv,legacy,5 9 2 3,Kafkaesque Koffka,3.2.6,0,n,0,right,right,right,right,NA,578,705,4742,578,NA,2,legacy,4,1024,2,48000,-16,experiment,0,even,8,144372,408684,409790,144360,226076,409801,163473,221332,412024,414615,410812,414035,145078,414035,NA,Sternberg task,40,34862,43,yes,1024
93.18181818,93.18181818,806.4318182,806.4318182,black,experiment,legacy,legacy,legacy,0,uniform,1,undefined,1,right,0,43,43,0,0,43,43,0,43,43,43,43,0,43,0,Sun Oct 20 20:43:38 2019,The main experiment item,yes,Sternbergtask.osexp,/Users/KrisBow/Dropbox/GradSchoolTarleton/Fall2019/AdvQuant/Lab3,no,mono,no,18,no,white,no,yes,768,legacy,31,11,/Users/KrisBow/Dropbox/GradSchoolTarleton/Fall2019/AdvQuant/Lab3/KB-subject-1.csv,legacy,1 3 2 6 9,Kafkaesque Koffka,3.2.6,0,n,0,right,right,right,right,NA,621,705,4742,621,NA,2,legacy,5,1024,2,48000,-16,experiment,0,even,5,144372,414628,415734,144360,226076,415745,163473,221332,417968,420604,416756,419980,145078,419980,NA,Sternberg task,41,35483,44,yes,1024
93.33333333,93.33333333,810.6888889,810.6888889,black,experiment,legacy,legacy,legacy,0,uniform,1,undefined,1,left,0,44,44,0,0,44,44,0,44,44,44,44,0,44,0,Sun Oct 20 20:43:38 2019,The main experiment item,yes,Sternbergtask.osexp,/Users/KrisBow/Dropbox/GradSchoolTarleton/Fall2019/AdvQuant/Lab3,no,mono,no,18,no,white,no,yes,768,legacy,32,11,/Users/KrisBow/Dropbox/GradSchoolTarleton/Fall2019/AdvQuant/Lab3/KB-subject-1.csv,legacy,5 7 8 2 3 8,Kafkaesque Koffka,3.2.6,5,y,0,left,right,right,left,NA,998,705,4742,998,NA,2,legacy,6,1024,2,48000,-16,experiment,0,even,3,144372,420618,421725,144360,226076,421735,163473,221332,423959,426970,422746,425970,145078,425970,NA,Sternberg task,42,36481,45,yes,1024
93.47826087,93.47826087,805.9782609,805.9782609,black,experiment,legacy,legacy,legacy,0,uniform,1,undefined,1,left,0,45,45,0,0,45,45,0,45,45,45,45,0,45,0,Sun Oct 20 20:43:38 2019,The main experiment item,yes,Sternbergtask.osexp,/Users/KrisBow/Dropbox/GradSchoolTarleton/Fall2019/AdvQuant/Lab3,no,mono,no,18,no,white,no,yes,768,legacy,33,11,/Users/KrisBow/Dropbox/GradSchoolTarleton/Fall2019/AdvQuant/Lab3/KB-subject-1.csv,legacy,2 3,Kafkaesque Koffka,3.2.6,1,y,0,left,right,right,left,NA,594,705,4742,594,NA,2,legacy,2,1024,2,48000,-16,experiment,0,even,2,144372,426983,428087,144360,226076,428099,163473,221332,430323,432930,429110,432334,145078,432333,NA,Sternberg task,43,37075,46,yes,1024
93.61702128,93.61702128,800.2765957,800.2765957,black,experiment,legacy,legacy,legacy,0,uniform,1,undefined,1,left,0,46,46,0,0,46,46,0,46,46,46,46,0,46,0,Sun Oct 20 20:43:38 2019,The main experiment item,yes,Sternbergtask.osexp,/Users/KrisBow/Dropbox/GradSchoolTarleton/Fall2019/AdvQuant/Lab3,no,mono,no,18,no,white,no,yes,768,legacy,34,11,/Users/KrisBow/Dropbox/GradSchoolTarleton/Fall2019/AdvQuant/Lab3/KB-subject-1.csv,legacy,4,Kafkaesque Koffka,3.2.6,1,y,0,left,right,right,left,NA,538,705,4742,538,NA,2,legacy,1,1024,2,48000,-16,experiment,0,even,4,144372,432943,434048,144360,226076,434059,163473,221332,436283,438834,435071,438294,145078,438294,NA,Sternberg task,44,37613,47,yes,1024
93.75,93.75,795.6875,795.6875,black,experiment,legacy,legacy,legacy,0,uniform,1,undefined,1,right,0,47,47,0,0,47,47,0,47,47,47,47,0,47,0,Sun Oct 20 20:43:38 2019,The main experiment item,yes,Sternbergtask.osexp,/Users/KrisBow/Dropbox/GradSchoolTarleton/Fall2019/AdvQuant/Lab3,no,mono,no,18,no,white,no,yes,768,legacy,35,11,/Users/KrisBow/Dropbox/GradSchoolTarleton/Fall2019/AdvQuant/Lab3/KB-subject-1.csv,legacy,6 7 5 9,Kafkaesque Koffka,3.2.6,0,n,0,right,right,right,right,NA,580,705,4742,580,NA,2,legacy,4,1024,2,48000,-16,experiment,0,even,2,144372,438847,439962,144360,226076,439974,163473,221332,442198,444791,440985,444209,145078,444208,NA,Sternberg task,45,38193,48,yes,1024
93.87755102,93.87755102,797.9387755,797.9387755,black,experiment,legacy,legacy,legacy,0,uniform,1,undefined,1,left,0,48,48,0,0,48,48,0,48,48,48,48,0,48,0,Sun Oct 20 20:43:38 2019,The main experiment item,yes,Sternbergtask.osexp,/Users/KrisBow/Dropbox/GradSchoolTarleton/Fall2019/AdvQuant/Lab3,no,mono,no,18,no,white,no,yes,768,legacy,36,11,/Users/KrisBow/Dropbox/GradSchoolTarleton/Fall2019/AdvQuant/Lab3/KB-subject-1.csv,legacy,7 8 6 3 1,Kafkaesque Koffka,3.2.6,5,y,0,left,right,right,left,NA,906,705,4742,906,NA,2,legacy,5,1024,2,48000,-16,experiment,0,even,1,144372,444804,445911,144360,226076,445922,163473,221332,448144,451063,446933,450155,145078,450155,NA,Sternberg task,46,39099,49,yes,1024
92,92,796.74,796.74,black,experiment,legacy,legacy,legacy,0,uniform,0,undefined,0,right,0,49,49,0,0,49,49,0,49,49,49,49,0,49,0,Sun Oct 20 20:43:38 2019,The main experiment item,yes,Sternbergtask.osexp,/Users/KrisBow/Dropbox/GradSchoolTarleton/Fall2019/AdvQuant/Lab3,no,mono,no,18,no,white,no,yes,768,legacy,37,11,/Users/KrisBow/Dropbox/GradSchoolTarleton/Fall2019/AdvQuant/Lab3/KB-subject-1.csv,legacy,6 2 9 3 8 4,Kafkaesque Koffka,3.2.6,0,n,0,left,right,right,left,NA,738,705,4742,738,NA,2,legacy,6,1024,2,48000,-16,experiment,0,even,1,144372,451076,452184,144360,226076,452195,163473,221332,454419,457170,453206,456430,145078,456430,NA,Sternberg task,46,39837,50,yes,1024
92.15686275,92.15686275,793.5098039,793.5098039,black,experiment,legacy,legacy,legacy,0,uniform,1,undefined,1,right,0,50,50,0,0,50,50,0,50,50,50,50,0,50,0,Sun Oct 20 20:43:38 2019,The main experiment item,yes,Sternbergtask.osexp,/Users/KrisBow/Dropbox/GradSchoolTarleton/Fall2019/AdvQuant/Lab3,no,mono,no,18,no,white,no,yes,768,legacy,38,11,/Users/KrisBow/Dropbox/GradSchoolTarleton/Fall2019/AdvQuant/Lab3/KB-subject-1.csv,legacy,8 4 3 9,Kafkaesque Koffka,3.2.6,0,n,0,right,right,right,right,NA,632,705,4742,632,NA,2,legacy,4,1024,2,48000,-16,experiment,0,even,5,144372,451076,458289,144360,226076,458300,457183,221332,460524,463169,459311,462535,145078,462535,NA,Sternberg task,47,40469,51,yes,1024
92.30769231,92.30769231,792.1730769,792.1730769,black,experiment,legacy,legacy,legacy,0,uniform,1,undefined,1,right,0,51,51,0,0,51,51,0,51,51,51,51,0,51,0,Sun Oct 20 20:43:38 2019,The main experiment item,yes,Sternbergtask.osexp,/Users/KrisBow/Dropbox/GradSchoolTarleton/Fall2019/AdvQuant/Lab3,no,mono,no,18,no,white,no,yes,768,legacy,39,11,/Users/KrisBow/Dropbox/GradSchoolTarleton/Fall2019/AdvQuant/Lab3/KB-subject-1.csv,legacy,3 9 1,Kafkaesque Koffka,3.2.6,0,n,0,right,right,right,right,NA,724,705,4742,724,NA,2,legacy,3,1024,2,48000,-16,experiment,0,even,7,144372,463182,464290,144360,226076,464301,457183,221332,466525,469263,465312,468537,145078,468536,NA,Sternberg task,48,41193,52,yes,1024
92.45283019,92.45283019,789.9433962,789.9433962,black,experiment,legacy,legacy,legacy,0,uniform,1,undefined,1,right,0,52,52,0,0,52,52,0,52,52,52,52,0,52,0,Sun Oct 20 20:43:38 2019,The main experiment item,yes,Sternbergtask.osexp,/Users/KrisBow/Dropbox/GradSchoolTarleton/Fall2019/AdvQuant/Lab3,no,mono,no,18,no,white,no,yes,768,legacy,40,11,/Users/KrisBow/Dropbox/GradSchoolTarleton/Fall2019/AdvQuant/Lab3/KB-subject-1.csv,legacy,1 6 4 3 9 7,Kafkaesque Koffka,3.2.6,0,n,0,right,right,right,right,NA,674,705,4742,674,NA,2,legacy,6,1024,2,48000,-16,experiment,0,even,8,144372,469275,470383,144360,226076,470394,457183,221332,472623,475312,471408,474635,145078,474634,NA,Sternberg task,49,41867,53,yes,1024
92.59259259,92.59259259,785.7777778,785.7777778,black,experiment,legacy,legacy,legacy,0,uniform,1,undefined,1,right,0,53,53,0,0,53,53,0,53,53,53,53,0,53,0,Sun Oct 20 20:43:38 2019,The main experiment item,yes,Sternbergtask.osexp,/Users/KrisBow/Dropbox/GradSchoolTarleton/Fall2019/AdvQuant/Lab3,no,mono,no,18,no,white,no,yes,768,legacy,41,11,/Users/KrisBow/Dropbox/GradSchoolTarleton/Fall2019/AdvQuant/Lab3/KB-subject-1.csv,legacy,9,Kafkaesque Koffka,3.2.6,0,n,0,right,right,right,right,NA,565,705,4742,565,NA,2,legacy,1,1024,2,48000,-16,experiment,0,even,6,144372,475324,476431,144360,226076,476441,457183,221332,478663,481242,477453,480674,145078,480674,NA,Sternberg task,50,42432,54,yes,1024
92.72727273,92.72727273,783.1636364,783.1636364,black,experiment,legacy,legacy,legacy,0,uniform,1,undefined,1,right,0,54,54,0,0,54,54,0,54,54,54,54,0,54,0,Sun Oct 20 20:43:38 2019,The main experiment item,yes,Sternbergtask.osexp,/Users/KrisBow/Dropbox/GradSchoolTarleton/Fall2019/AdvQuant/Lab3,no,mono,no,18,no,white,no,yes,768,legacy,42,11,/Users/KrisBow/Dropbox/GradSchoolTarleton/Fall2019/AdvQuant/Lab3/KB-subject-1.csv,legacy,3 4 9 6 7 8,Kafkaesque Koffka,3.2.6,0,n,0,right,right,right,right,NA,642,705,4742,642,NA,2,legacy,6,1024,2,48000,-16,experiment,0,even,2,144372,481256,482362,144360,226076,482373,457183,221332,484597,487252,483384,486608,145078,486608,NA,Sternberg task,51,43074,55,yes,1024
92.85714286,92.85714286,786.4464286,786.4464286,black,experiment,legacy,legacy,legacy,0,uniform,1,undefined,1,left,0,55,55,0,0,55,55,0,55,55,55,55,0,55,0,Sun Oct 20 20:43:38 2019,The main experiment item,yes,Sternbergtask.osexp,/Users/KrisBow/Dropbox/GradSchoolTarleton/Fall2019/AdvQuant/Lab3,no,mono,no,18,no,white,no,yes,768,legacy,43,11,/Users/KrisBow/Dropbox/GradSchoolTarleton/Fall2019/AdvQuant/Lab3/KB-subject-1.csv,legacy,3 5 9 6 2 4,Kafkaesque Koffka,3.2.6,1,y,0,left,right,right,left,NA,967,705,4742,967,NA,2,legacy,6,1024,2,48000,-16,experiment,0,even,3,144372,487265,488371,144360,226076,488382,457183,221332,490606,493586,489392,492617,145078,492617,NA,Sternberg task,52,44041,56,yes,1024
92.98245614,92.98245614,785.7192982,785.7192982,black,experiment,legacy,legacy,legacy,0,uniform,1,undefined,1,right,0,56,56,0,0,56,56,0,56,56,56,56,0,56,0,Sun Oct 20 20:43:38 2019,The main experiment item,yes,Sternbergtask.osexp,/Users/KrisBow/Dropbox/GradSchoolTarleton/Fall2019/AdvQuant/Lab3,no,mono,no,18,no,white,no,yes,768,legacy,44,11,/Users/KrisBow/Dropbox/GradSchoolTarleton/Fall2019/AdvQuant/Lab3/KB-subject-1.csv,legacy,1 7 5 2 9,Kafkaesque Koffka,3.2.6,0,n,0,right,right,right,right,NA,745,705,4742,745,NA,2,legacy,5,1024,2,48000,-16,experiment,0,even,3,144372,493599,494705,144360,226076,494715,457183,221332,496939,499698,495727,498951,145078,498951,NA,Sternberg task,53,44786,57,yes,1024
93.10344828,93.10344828,780.8275862,780.8275862,black,experiment,legacy,legacy,legacy,0,uniform,1,undefined,1,right,0,57,57,0,0,57,57,0,57,57,57,57,0,57,0,Sun Oct 20 20:43:38 2019,The main experiment item,yes,Sternbergtask.osexp,/Users/KrisBow/Dropbox/GradSchoolTarleton/Fall2019/AdvQuant/Lab3,no,mono,no,18,no,white,no,yes,768,legacy,45,11,/Users/KrisBow/Dropbox/GradSchoolTarleton/Fall2019/AdvQuant/Lab3/KB-subject-1.csv,legacy,2 5 1 4,Kafkaesque Koffka,3.2.6,0,n,0,right,right,right,right,NA,502,705,4742,502,NA,2,legacy,4,1024,2,48000,-16,experiment,0,even,6,144372,499711,500818,144360,226076,500829,457183,221332,503050,505566,501840,505061,145078,505061,NA,Sternberg task,54,45288,58,yes,1024
91.52542373,91.52542373,783.4745763,783.4745763,black,experiment,legacy,legacy,legacy,0,uniform,0,undefined,0,left,0,58,58,0,0,58,58,0,58,58,58,58,0,58,0,Sun Oct 20 20:43:38 2019,The main experiment item,yes,Sternbergtask.osexp,/Users/KrisBow/Dropbox/GradSchoolTarleton/Fall2019/AdvQuant/Lab3,no,mono,no,18,no,white,no,yes,768,legacy,46,11,/Users/KrisBow/Dropbox/GradSchoolTarleton/Fall2019/AdvQuant/Lab3/KB-subject-1.csv,legacy,9 1 7 2,Kafkaesque Koffka,3.2.6,2,y,0,right,right,right,right,NA,937,705,4742,937,NA,2,legacy,4,1024,2,48000,-16,experiment,0,even,1,144372,505579,506687,144360,226076,506698,457183,221332,508922,511872,507709,510933,145078,510933,NA,Sternberg task,54,46225,59,yes,1024
91.66666667,91.66666667,780.5333333,780.5333333,black,experiment,legacy,legacy,legacy,0,uniform,1,undefined,1,left,0,59,59,0,0,59,59,0,59,59,59,59,0,59,0,Sun Oct 20 20:43:38 2019,The main experiment item,yes,Sternbergtask.osexp,/Users/KrisBow/Dropbox/GradSchoolTarleton/Fall2019/AdvQuant/Lab3,no,mono,no,18,no,white,no,yes,768,legacy,47,11,/Users/KrisBow/Dropbox/GradSchoolTarleton/Fall2019/AdvQuant/Lab3/KB-subject-1.csv,legacy,3 5 4 7,Kafkaesque Koffka,3.2.6,1,y,0,left,right,right,left,NA,607,705,4742,607,NA,2,legacy,4,1024,2,48000,-16,experiment,0,even,3,144372,505579,512991,144360,226076,513000,511885,221332,515225,517844,514012,517235,145078,517235,NA,Sternberg task,55,46832,60,yes,1024
91.80327869,91.80327869,780.1967213,780.1967213,black,experiment,legacy,legacy,legacy,0,uniform,1,undefined,1,left,0,60,60,0,0,60,60,0,60,60,60,60,0,60,0,Sun Oct 20 20:43:38 2019,The main experiment item,yes,Sternbergtask.osexp,/Users/KrisBow/Dropbox/GradSchoolTarleton/Fall2019/AdvQuant/Lab3,no,mono,no,18,no,white,no,yes,768,legacy,48,11,/Users/KrisBow/Dropbox/GradSchoolTarleton/Fall2019/AdvQuant/Lab3/KB-subject-1.csv,legacy,9 1 6 7 8,Kafkaesque Koffka,3.2.6,1,y,0,left,right,right,left,NA,760,705,4742,760,NA,2,legacy,5,1024,2,48000,-16,experiment,0,even,9,144372,517857,518963,144360,226076,518973,511885,221332,521198,523972,519984,523210,145078,523210,NA,Sternberg task,56,47592,61,yes,1024
90.32258065,90.32258065,782.3225806,782.3225806,black,experiment,legacy,legacy,legacy,0,uniform,0,undefined,0,left,0,61,61,0,0,61,61,0,61,61,61,61,0,61,0,Sun Oct 20 20:43:38 2019,The main experiment item,yes,Sternbergtask.osexp,/Users/KrisBow/Dropbox/GradSchoolTarleton/Fall2019/AdvQuant/Lab3,no,mono,no,18,no,white,no,yes,768,legacy,49,11,/Users/KrisBow/Dropbox/GradSchoolTarleton/Fall2019/AdvQuant/Lab3/KB-subject-1.csv,legacy,9 5 8 1,Kafkaesque Koffka,3.2.6,2,y,0,right,right,right,right,NA,912,705,4742,912,NA,2,legacy,4,1024,2,48000,-16,experiment,0,even,5,144372,523985,525090,144360,226076,525101,511885,221332,527325,530250,526112,529336,145078,529336,NA,Sternberg task,56,48504,62,yes,1024
90.47619048,90.47619048,779.8571429,779.8571429,black,experiment,legacy,legacy,legacy,0,uniform,1,undefined,1,left,0,62,62,0,0,62,62,0,62,62,62,62,0,62,0,Sun Oct 20 20:43:38 2019,The main experiment item,yes,Sternbergtask.osexp,/Users/KrisBow/Dropbox/GradSchoolTarleton/Fall2019/AdvQuant/Lab3,no,mono,no,18,no,white,no,yes,768,legacy,50,11,/Users/KrisBow/Dropbox/GradSchoolTarleton/Fall2019/AdvQuant/Lab3/KB-subject-1.csv,legacy,8 7 3,Kafkaesque Koffka,3.2.6,1,y,0,left,right,right,left,NA,627,705,4742,627,NA,2,legacy,3,1024,2,48000,-16,experiment,0,even,8,144372,523985,531374,144360,226076,531385,530263,221332,533611,536252,532396,535622,145078,535622,NA,Sternberg task,57,49131,63,yes,1024
89.0625,89.0625,778.015625,778.015625,black,experiment,legacy,legacy,legacy,0,uniform,0,undefined,0,right,0,63,63,0,0,63,63,0,63,63,63,63,0,63,0,Sun Oct 20 20:43:38 2019,The main experiment item,yes,Sternbergtask.osexp,/Users/KrisBow/Dropbox/GradSchoolTarleton/Fall2019/AdvQuant/Lab3,no,mono,no,18,no,white,no,yes,768,legacy,51,11,/Users/KrisBow/Dropbox/GradSchoolTarleton/Fall2019/AdvQuant/Lab3/KB-subject-1.csv,legacy,5 3 8 7 2 4,Kafkaesque Koffka,3.2.6,0,n,0,left,right,right,left,NA,662,705,4742,662,NA,2,legacy,6,1024,2,48000,-16,experiment,0,even,9,144372,536265,537371,144360,226076,537382,530263,221332,539605,542280,538393,541616,145078,541615,NA,Sternberg task,57,49793,64,yes,1024
89.23076923,89.23076923,783.6307692,783.6307692,black,experiment,legacy,legacy,legacy,0,uniform,1,undefined,1,left,0,64,64,0,0,64,64,0,64,64,64,64,0,64,0,Sun Oct 20 20:43:38 2019,The main experiment item,yes,Sternbergtask.osexp,/Users/KrisBow/Dropbox/GradSchoolTarleton/Fall2019/AdvQuant/Lab3,no,mono,no,18,no,white,no,yes,768,legacy,52,11,/Users/KrisBow/Dropbox/GradSchoolTarleton/Fall2019/AdvQuant/Lab3/KB-subject-1.csv,legacy,4 1 8 7 5,Kafkaesque Koffka,3.2.6,3,y,0,left,right,right,left,NA,1143,705,4742,1143,NA,2,legacy,5,1024,2,48000,-16,experiment,0,even,8,144372,536265,543408,144360,226076,543420,542293,221332,545643,548800,544432,547654,145078,547653,NA,Sternberg task,58,50936,65,yes,1024
89.39393939,89.39393939,786.7272727,786.7272727,black,experiment,legacy,legacy,legacy,0,uniform,1,undefined,1,left,0,65,65,0,0,65,65,0,65,65,65,65,0,65,0,Sun Oct 20 20:43:38 2019,The main experiment item,yes,Sternbergtask.osexp,/Users/KrisBow/Dropbox/GradSchoolTarleton/Fall2019/AdvQuant/Lab3,no,mono,no,18,no,white,no,yes,768,legacy,53,11,/Users/KrisBow/Dropbox/GradSchoolTarleton/Fall2019/AdvQuant/Lab3/KB-subject-1.csv,legacy,3 4 9 6 2 9,Kafkaesque Koffka,3.2.6,5,y,0,left,right,right,left,NA,988,705,4742,988,NA,2,legacy,6,1024,2,48000,-16,experiment,0,even,2,144372,548812,549918,144360,226076,549929,542293,221332,552153,555154,550940,554164,145078,554164,NA,Sternberg task,59,51924,66,yes,1024
88.05970149,88.05970149,787.5373134,787.5373134,black,experiment,legacy,legacy,legacy,0,uniform,0,undefined,0,left,0,66,66,0,0,66,66,0,66,66,66,66,0,66,0,Sun Oct 20 20:43:38 2019,The main experiment item,yes,Sternbergtask.osexp,/Users/KrisBow/Dropbox/GradSchoolTarleton/Fall2019/AdvQuant/Lab3,no,mono,no,18,no,white,no,yes,768,legacy,54,11,/Users/KrisBow/Dropbox/GradSchoolTarleton/Fall2019/AdvQuant/Lab3/KB-subject-1.csv,legacy,7 4 2 6 3 5,Kafkaesque Koffka,3.2.6,6,y,0,right,right,right,right,NA,841,705,4742,841,NA,2,legacy,6,1024,2,48000,-16,experiment,0,even,5,144372,555167,556275,144360,226076,556286,542293,221332,558510,561365,557297,560522,145078,560521,NA,Sternberg task,59,52765,67,yes,1024
88.23529412,88.23529412,789.1911765,789.1911765,black,experiment,legacy,legacy,legacy,0,uniform,1,undefined,1,right,0,67,67,0,0,67,67,0,67,67,67,67,0,67,0,Sun Oct 20 20:43:38 2019,The main experiment item,yes,Sternbergtask.osexp,/Users/KrisBow/Dropbox/GradSchoolTarleton/Fall2019/AdvQuant/Lab3,no,mono,no,18,no,white,no,yes,768,legacy,55,11,/Users/KrisBow/Dropbox/GradSchoolTarleton/Fall2019/AdvQuant/Lab3/KB-subject-1.csv,legacy,9 5 3 2 8 6,Kafkaesque Koffka,3.2.6,0,n,0,right,right,right,right,NA,900,705,4742,900,NA,2,legacy,6,1024,2,48000,-16,experiment,0,even,7,144372,555167,562490,144360,226076,562501,561382,221332,564723,567636,563512,566734,145078,566734,NA,Sternberg task,60,53665,68,yes,1024
88.4057971,88.4057971,791.0144928,791.0144928,black,experiment,legacy,legacy,legacy,0,uniform,1,undefined,1,right,0,68,68,0,0,68,68,0,68,68,68,68,0,68,0,Sun Oct 20 20:43:38 2019,The main experiment item,yes,Sternbergtask.osexp,/Users/KrisBow/Dropbox/GradSchoolTarleton/Fall2019/AdvQuant/Lab3,no,mono,no,18,no,white,no,yes,768,legacy,56,11,/Users/KrisBow/Dropbox/GradSchoolTarleton/Fall2019/AdvQuant/Lab3/KB-subject-1.csv,legacy,1 4 9 3,Kafkaesque Koffka,3.2.6,0,n,0,right,right,right,right,NA,915,705,4742,915,NA,2,legacy,4,1024,2,48000,-16,experiment,0,even,5,144372,567649,568754,144360,226076,568765,561382,221332,570988,573917,569776,573000,145078,573000,NA,Sternberg task,61,54580,69,yes,1024
88.57142857,88.57142857,791.8,791.8,black,experiment,legacy,legacy,legacy,0,uniform,1,undefined,1,left,0,69,69,0,0,69,69,0,69,69,69,69,0,69,0,Sun Oct 20 20:43:38 2019,The main experiment item,yes,Sternbergtask.osexp,/Users/KrisBow/Dropbox/GradSchoolTarleton/Fall2019/AdvQuant/Lab3,no,mono,no,18,no,white,no,yes,768,legacy,57,11,/Users/KrisBow/Dropbox/GradSchoolTarleton/Fall2019/AdvQuant/Lab3/KB-subject-1.csv,legacy,9 5 3 8 4,Kafkaesque Koffka,3.2.6,1,y,0,left,right,right,left,NA,846,705,4742,846,NA,2,legacy,5,1024,2,48000,-16,experiment,0,even,9,144372,573930,575036,144360,226076,575047,561382,221332,577272,580132,576058,579283,145078,579282,NA,Sternberg task,62,55426,70,yes,1024
88.73239437,88.73239437,797.1690141,797.1690141,black,experiment,legacy,legacy,legacy,0,uniform,1,undefined,1,right,0,70,70,0,0,70,70,0,70,70,70,70,0,70,0,Sun Oct 20 20:43:38 2019,The main experiment item,yes,Sternbergtask.osexp,/Users/KrisBow/Dropbox/GradSchoolTarleton/Fall2019/AdvQuant/Lab3,no,mono,no,18,no,white,no,yes,768,legacy,58,11,/Users/KrisBow/Dropbox/GradSchoolTarleton/Fall2019/AdvQuant/Lab3/KB-subject-1.csv,legacy,7 3 2 8,Kafkaesque Koffka,3.2.6,0,n,0,right,right,right,right,NA,1173,705,4742,1173,NA,2,legacy,4,1024,2,48000,-16,experiment,0,even,4,144372,580145,581251,144360,226076,581262,561382,221332,583486,586676,582273,585500,145078,585500,NA,Sternberg task,63,56599,71,yes,1024
88.88888889,88.88888889,797.9027778,797.9027778,black,experiment,legacy,legacy,legacy,0,uniform,1,undefined,1,right,0,71,71,0,0,71,71,0,71,71,71,71,0,71,0,Sun Oct 20 20:43:38 2019,The main experiment item,yes,Sternbergtask.osexp,/Users/KrisBow/Dropbox/GradSchoolTarleton/Fall2019/AdvQuant/Lab3,no,mono,no,18,no,white,no,yes,768,legacy,59,11,/Users/KrisBow/Dropbox/GradSchoolTarleton/Fall2019/AdvQuant/Lab3/KB-subject-1.csv,legacy,8 5 7 3 6,Kafkaesque Koffka,3.2.6,0,n,0,right,right,right,right,NA,850,705,4742,850,NA,2,legacy,5,1024,2,48000,-16,experiment,0,even,9,144372,586689,587797,144360,226076,587808,561382,221332,590031,592896,588819,592043,145078,592043,NA,Sternberg task,64,57449,72,yes,1024
89.04109589,89.04109589,796.7123288,796.7123288,black,experiment,legacy,legacy,legacy,0,uniform,1,undefined,1,left,0,72,72,0,0,72,72,0,72,72,72,72,0,72,0,Sun Oct 20 20:43:38 2019,The main experiment item,yes,Sternbergtask.osexp,/Users/KrisBow/Dropbox/GradSchoolTarleton/Fall2019/AdvQuant/Lab3,no,mono,no,18,no,white,no,yes,768,legacy,60,11,/Users/KrisBow/Dropbox/GradSchoolTarleton/Fall2019/AdvQuant/Lab3/KB-subject-1.csv,legacy,2 6 1 7 4,Kafkaesque Koffka,3.2.6,2,y,0,left,right,right,left,NA,711,705,4742,711,NA,2,legacy,5,1024,2,48000,-16,experiment,0,even,6,144372,592909,594014,144360,226076,594025,561382,221332,596249,598973,595036,598260,145078,598260,NA,Sternberg task,65,58160,73,yes,1024
89.18918919,89.18918919,795.0540541,795.0540541,black,experiment,legacy,legacy,legacy,0,uniform,1,undefined,1,left,0,73,73,0,0,73,73,0,73,73,73,73,0,73,0,Sun Oct 20 20:43:38 2019,The main experiment item,yes,Sternbergtask.osexp,/Users/KrisBow/Dropbox/GradSchoolTarleton/Fall2019/AdvQuant/Lab3,no,mono,no,18,no,white,no,yes,768,legacy,61,11,/Users/KrisBow/Dropbox/GradSchoolTarleton/Fall2019/AdvQuant/Lab3/KB-subject-1.csv,legacy,8,Kafkaesque Koffka,3.2.6,1,y,0,left,right,right,left,NA,674,705,4742,674,NA,2,legacy,1,1024,2,48000,-16,experiment,0,even,8,144372,598986,600091,144360,226076,600101,561382,221332,602324,605011,601112,604335,145078,604335,NA,Sternberg task,66,58834,74,yes,1024
89.33333333,89.33333333,794.9866667,794.9866667,black,experiment,legacy,legacy,legacy,0,uniform,1,undefined,1,right,0,74,74,0,0,74,74,0,74,74,74,74,0,74,0,Sun Oct 20 20:43:38 2019,The main experiment item,yes,Sternbergtask.osexp,/Users/KrisBow/Dropbox/GradSchoolTarleton/Fall2019/AdvQuant/Lab3,no,mono,no,18,no,white,no,yes,768,legacy,62,11,/Users/KrisBow/Dropbox/GradSchoolTarleton/Fall2019/AdvQuant/Lab3/KB-subject-1.csv,legacy,7 9 1 6,Kafkaesque Koffka,3.2.6,0,n,0,right,right,right,right,NA,790,705,4742,790,NA,2,legacy,4,1024,2,48000,-16,experiment,0,even,4,144372,605025,606144,144360,226076,606154,561382,221332,608379,611182,607166,610390,145078,610390,NA,Sternberg task,67,59624,75,yes,1024
89.47368421,89.47368421,792.7631579,792.7631579,black,experiment,legacy,legacy,legacy,0,uniform,1,undefined,1,left,0,75,75,0,0,75,75,0,75,75,75,75,0,75,0,Sun Oct 20 20:43:38 2019,The main experiment item,yes,Sternbergtask.osexp,/Users/KrisBow/Dropbox/GradSchoolTarleton/Fall2019/AdvQuant/Lab3,no,mono,no,18,no,white,no,yes,768,legacy,63,11,/Users/KrisBow/Dropbox/GradSchoolTarleton/Fall2019/AdvQuant/Lab3/KB-subject-1.csv,legacy,4 6 2 5 1,Kafkaesque Koffka,3.2.6,5,y,0,left,right,right,left,NA,626,705,4742,626,NA,2,legacy,5,1024,2,48000,-16,experiment,0,even,1,144372,611195,612302,144360,226076,612312,561382,221332,614536,617176,613324,616548,145078,616548,NA,Sternberg task,68,60250,76,yes,1024
89.61038961,89.61038961,790.9480519,790.9480519,black,experiment,legacy,legacy,legacy,0,uniform,1,undefined,1,right,0,76,76,0,0,76,76,0,76,76,76,76,0,76,0,Sun Oct 20 20:43:38 2019,The main experiment item,yes,Sternbergtask.osexp,/Users/KrisBow/Dropbox/GradSchoolTarleton/Fall2019/AdvQuant/Lab3,no,mono,no,18,no,white,no,yes,768,legacy,64,11,/Users/KrisBow/Dropbox/GradSchoolTarleton/Fall2019/AdvQuant/Lab3/KB-subject-1.csv,legacy,6 9 5,Kafkaesque Koffka,3.2.6,0,n,0,right,right,right,right,NA,653,705,4742,653,NA,2,legacy,3,1024,2,48000,-16,experiment,0,even,8,144372,617189,618297,144360,226076,618308,561382,221332,620532,623200,619319,622544,145078,622543,NA,Sternberg task,69,60903,77,yes,1024
89.74358974,89.74358974,789.3076923,789.3076923,black,experiment,legacy,legacy,legacy,0,uniform,1,undefined,1,right,0,77,77,0,0,77,77,0,77,77,77,77,0,77,0,Sun Oct 20 20:43:38 2019,The main experiment item,yes,Sternbergtask.osexp,/Users/KrisBow/Dropbox/GradSchoolTarleton/Fall2019/AdvQuant/Lab3,no,mono,no,18,no,white,no,yes,768,legacy,65,11,/Users/KrisBow/Dropbox/GradSchoolTarleton/Fall2019/AdvQuant/Lab3/KB-subject-1.csv,legacy,6 9 7 3 8 2,Kafkaesque Koffka,3.2.6,0,n,0,right,right,right,right,NA,663,705,4742,663,NA,2,legacy,6,1024,2,48000,-16,experiment,0,even,5,144372,623220,624328,144360,226076,624339,561382,221332,626561,629238,625350,628572,145078,628572,NA,Sternberg task,70,61566,78,yes,1024
89.87341772,89.87341772,789.1518987,789.1518987,black,experiment,legacy,legacy,legacy,0,uniform,1,undefined,1,left,0,78,78,0,0,78,78,0,78,78,78,78,0,78,0,Sun Oct 20 20:43:38 2019,The main experiment item,yes,Sternbergtask.osexp,/Users/KrisBow/Dropbox/GradSchoolTarleton/Fall2019/AdvQuant/Lab3,no,mono,no,18,no,white,no,yes,768,legacy,66,11,/Users/KrisBow/Dropbox/GradSchoolTarleton/Fall2019/AdvQuant/Lab3/KB-subject-1.csv,legacy,2 4 8 5 1 3,Kafkaesque Koffka,3.2.6,1,y,0,left,right,right,left,NA,777,705,4742,777,NA,2,legacy,6,1024,2,48000,-16,experiment,0,even,2,144372,629251,630359,144360,226076,630369,561382,221332,632592,635382,631381,634603,145078,634603,NA,Sternberg task,71,62343,79,yes,1024
88.75,88.75,787.55,787.55,black,experiment,legacy,legacy,legacy,0,uniform,0,undefined,0,left,0,79,79,0,0,79,79,0,79,79,79,79,0,79,0,Sun Oct 20 20:43:38 2019,The main experiment item,yes,Sternbergtask.osexp,/Users/KrisBow/Dropbox/GradSchoolTarleton/Fall2019/AdvQuant/Lab3,no,mono,no,18,no,white,no,yes,768,legacy,67,11,/Users/KrisBow/Dropbox/GradSchoolTarleton/Fall2019/AdvQuant/Lab3/KB-subject-1.csv,legacy,9 4 2,Kafkaesque Koffka,3.2.6,1,y,0,right,right,right,right,NA,661,705,4742,661,NA,2,legacy,3,1024,2,48000,-16,experiment,0,even,9,144372,635394,636501,144360,226076,636512,561382,221332,638736,641410,637524,640747,145078,640746,NA,Sternberg task,71,63004,80,yes,1024
88.88888889,88.88888889,787.1604938,787.1604938,black,experiment,legacy,legacy,legacy,0,uniform,1,undefined,1,left,0,80,80,0,0,80,80,0,80,80,80,80,0,80,0,Sun Oct 20 20:43:38 2019,The main experiment item,yes,Sternbergtask.osexp,/Users/KrisBow/Dropbox/GradSchoolTarleton/Fall2019/AdvQuant/Lab3,no,mono,no,18,no,white,no,yes,768,legacy,68,11,/Users/KrisBow/Dropbox/GradSchoolTarleton/Fall2019/AdvQuant/Lab3/KB-subject-1.csv,legacy,8 9 6 1,Kafkaesque Koffka,3.2.6,2,y,0,left,right,right,left,NA,756,705,4742,756,NA,2,legacy,4,1024,2,48000,-16,experiment,0,even,9,144372,635394,642529,144360,226076,642540,641423,221332,644761,647531,643550,646772,145078,646772,NA,Sternberg task,72,63760,81,yes,1024
89.02439024,89.02439024,787.4756098,787.4756098,black,experiment,legacy,legacy,legacy,0,uniform,1,undefined,1,right,0,81,81,0,0,81,81,0,81,81,81,81,0,81,0,Sun Oct 20 20:43:38 2019,The main experiment item,yes,Sternbergtask.osexp,/Users/KrisBow/Dropbox/GradSchoolTarleton/Fall2019/AdvQuant/Lab3,no,mono,no,18,no,white,no,yes,768,legacy,69,11,/Users/KrisBow/Dropbox/GradSchoolTarleton/Fall2019/AdvQuant/Lab3/KB-subject-1.csv,legacy,8 5 4 2 9 6,Kafkaesque Koffka,3.2.6,0,n,0,right,right,right,right,NA,813,705,4742,813,NA,2,legacy,6,1024,2,48000,-16,experiment,0,even,3,144372,647545,648653,144360,226076,648663,641423,221332,650887,653713,649675,652898,145078,652897,NA,Sternberg task,73,64573,82,yes,1024
89.15662651,89.15662651,787,787,black,experiment,legacy,legacy,legacy,0,uniform,1,undefined,1,left,0,82,82,0,0,82,82,0,82,82,82,82,0,82,0,Sun Oct 20 20:43:38 2019,The main experiment item,yes,Sternbergtask.osexp,/Users/KrisBow/Dropbox/GradSchoolTarleton/Fall2019/AdvQuant/Lab3,no,mono,no,18,no,white,no,yes,768,legacy,70,11,/Users/KrisBow/Dropbox/GradSchoolTarleton/Fall2019/AdvQuant/Lab3/KB-subject-1.csv,legacy,2 4 6 9,Kafkaesque Koffka,3.2.6,3,y,0,left,right,right,left,NA,748,705,4742,748,NA,2,legacy,4,1024,2,48000,-16,experiment,0,even,6,144372,653726,654832,144360,226076,654843,641423,221332,657065,659827,655855,659076,145078,659076,NA,Sternberg task,74,65321,83,yes,1024
88.0952381,88.0952381,786.1190476,786.1190476,black,experiment,legacy,legacy,legacy,0,uniform,0,undefined,0,right,0,83,83,0,0,83,83,0,83,83,83,83,0,83,0,Sun Oct 20 20:43:38 2019,The main experiment item,yes,Sternbergtask.osexp,/Users/KrisBow/Dropbox/GradSchoolTarleton/Fall2019/AdvQuant/Lab3,no,mono,no,18,no,white,no,yes,768,legacy,71,11,/Users/KrisBow/Dropbox/GradSchoolTarleton/Fall2019/AdvQuant/Lab3/KB-subject-1.csv,legacy,2 8 7 9 5 3,Kafkaesque Koffka,3.2.6,0,n,0,left,right,right,left,NA,713,705,4742,713,NA,2,legacy,6,1024,2,48000,-16,experiment,0,even,6,144372,659840,660948,144360,226076,660959,641423,221332,663182,665910,661970,665194,145078,665194,NA,Sternberg task,74,66034,84,yes,1024
88.23529412,88.23529412,786.2352941,786.2352941,black,experiment,legacy,legacy,legacy,0,uniform,1,undefined,1,left,0,84,84,0,0,84,84,0,84,84,84,84,0,84,0,Sun Oct 20 20:43:38 2019,The main experiment item,yes,Sternbergtask.osexp,/Users/KrisBow/Dropbox/GradSchoolTarleton/Fall2019/AdvQuant/Lab3,no,mono,no,18,no,white,no,yes,768,legacy,72,11,/Users/KrisBow/Dropbox/GradSchoolTarleton/Fall2019/AdvQuant/Lab3/KB-subject-1.csv,legacy,9 3 8 2 1 4,Kafkaesque Koffka,3.2.6,3,y,0,left,right,right,left,NA,796,705,4742,796,NA,2,legacy,6,1024,2,48000,-16,experiment,0,even,8,144372,659840,667028,144360,226076,667039,665923,221332,669263,672072,668050,671274,145078,671274,NA,Sternberg task,75,66830,85,yes,1024
88.37209302,88.37209302,785.4651163,785.4651163,black,experiment,legacy,legacy,legacy,0,uniform,1,undefined,1,right,0,85,85,0,0,85,85,0,85,85,85,85,0,85,0,Sun Oct 20 20:43:38 2019,The main experiment item,yes,Sternbergtask.osexp,/Users/KrisBow/Dropbox/GradSchoolTarleton/Fall2019/AdvQuant/Lab3,no,mono,no,18,no,white,no,yes,768,legacy,73,11,/Users/KrisBow/Dropbox/GradSchoolTarleton/Fall2019/AdvQuant/Lab3/KB-subject-1.csv,legacy,7 9,Kafkaesque Koffka,3.2.6,0,n,0,right,right,right,right,NA,720,705,4742,720,NA,2,legacy,2,1024,2,48000,-16,experiment,0,even,1,144372,672086,673194,144360,226076,673204,665923,221332,675429,678162,674216,677440,145078,677440,NA,Sternberg task,76,67550,86,yes,1024
88.50574713,88.50574713,785.8735632,785.8735632,black,experiment,legacy,legacy,legacy,0,uniform,1,undefined,1,right,0,86,86,0,0,86,86,0,86,86,86,86,0,86,0,Sun Oct 20 20:43:38 2019,The main experiment item,yes,Sternbergtask.osexp,/Users/KrisBow/Dropbox/GradSchoolTarleton/Fall2019/AdvQuant/Lab3,no,mono,no,18,no,white,no,yes,768,legacy,74,11,/Users/KrisBow/Dropbox/GradSchoolTarleton/Fall2019/AdvQuant/Lab3/KB-subject-1.csv,legacy,1 8 7,Kafkaesque Koffka,3.2.6,0,n,0,right,right,right,right,NA,821,705,4742,821,NA,2,legacy,3,1024,2,48000,-16,experiment,0,even,4,144372,678175,679281,144360,226076,679292,665923,221332,681515,684350,680303,683526,145078,683526,NA,Sternberg task,77,68371,87,yes,1024
88.63636364,88.63636364,784,784,black,experiment,legacy,legacy,legacy,0,uniform,1,undefined,1,left,0,87,87,0,0,87,87,0,87,87,87,87,0,87,0,Sun Oct 20 20:43:38 2019,The main experiment item,yes,Sternbergtask.osexp,/Users/KrisBow/Dropbox/GradSchoolTarleton/Fall2019/AdvQuant/Lab3,no,mono,no,18,no,white,no,yes,768,legacy,75,11,/Users/KrisBow/Dropbox/GradSchoolTarleton/Fall2019/AdvQuant/Lab3/KB-subject-1.csv,legacy,2 5 4 8 7,Kafkaesque Koffka,3.2.6,3,y,0,left,right,right,left,NA,621,705,4742,621,NA,2,legacy,5,1024,2,48000,-16,experiment,0,even,4,144372,684362,685472,144360,226076,685483,665923,221332,687706,690341,686494,689718,145078,689718,NA,Sternberg task,78,68992,88,yes,1024
88.76404494,88.76404494,782.2247191,782.2247191,black,experiment,legacy,legacy,legacy,0,uniform,1,undefined,1,left,0,88,88,0,0,88,88,0,88,88,88,88,0,88,0,Sun Oct 20 20:43:38 2019,The main experiment item,yes,Sternbergtask.osexp,/Users/KrisBow/Dropbox/GradSchoolTarleton/Fall2019/AdvQuant/Lab3,no,mono,no,18,no,white,no,yes,768,legacy,76,11,/Users/KrisBow/Dropbox/GradSchoolTarleton/Fall2019/AdvQuant/Lab3/KB-subject-1.csv,legacy,6 7 8 5,Kafkaesque Koffka,3.2.6,3,y,0,left,right,right,left,NA,626,705,4742,626,NA,2,legacy,4,1024,2,48000,-16,experiment,0,even,8,144372,690354,691460,144360,226076,691471,665923,221332,693694,696334,692482,695705,145078,695705,NA,Sternberg task,79,69618,89,yes,1024
88.88888889,88.88888889,782.4333333,782.4333333,black,experiment,legacy,legacy,legacy,0,uniform,1,undefined,1,right,0,89,89,0,0,89,89,0,89,89,89,89,0,89,0,Sun Oct 20 20:43:38 2019,The main experiment item,yes,Sternbergtask.osexp,/Users/KrisBow/Dropbox/GradSchoolTarleton/Fall2019/AdvQuant/Lab3,no,mono,no,18,no,white,no,yes,768,legacy,77,11,/Users/KrisBow/Dropbox/GradSchoolTarleton/Fall2019/AdvQuant/Lab3/KB-subject-1.csv,legacy,4 8 1 2,Kafkaesque Koffka,3.2.6,0,n,0,right,right,right,right,NA,801,705,4742,801,NA,2,legacy,4,1024,2,48000,-16,experiment,0,even,7,144372,696346,697453,144360,226076,697463,665923,221332,699686,702500,698475,701697,145078,701696,NA,Sternberg task,80,70419,90,yes,1024
89.01098901,89.01098901,784.5164835,784.5164835,black,experiment,legacy,legacy,legacy,0,uniform,1,undefined,1,right,0,90,90,0,0,90,90,0,90,90,90,90,0,90,0,Sun Oct 20 20:43:38 2019,The main experiment item,yes,Sternbergtask.osexp,/Users/KrisBow/Dropbox/GradSchoolTarleton/Fall2019/AdvQuant/Lab3,no,mono,no,18,no,white,no,yes,768,legacy,78,11,/Users/KrisBow/Dropbox/GradSchoolTarleton/Fall2019/AdvQuant/Lab3/KB-subject-1.csv,legacy,1 4 3 6 5,Kafkaesque Koffka,3.2.6,0,n,0,right,right,right,right,NA,972,705,4742,972,NA,2,legacy,5,1024,2,48000,-16,experiment,0,even,8,144372,702513,703619,144360,226076,703630,665923,221332,705854,708840,704641,707865,145078,707865,NA,Sternberg task,81,71391,91,yes,1024
89.13043478,89.13043478,782.8043478,782.8043478,black,experiment,legacy,legacy,legacy,0,uniform,1,undefined,1,left,0,91,91,0,0,91,91,0,91,91,91,91,0,91,0,Sun Oct 20 20:43:38 2019,The main experiment item,yes,Sternbergtask.osexp,/Users/KrisBow/Dropbox/GradSchoolTarleton/Fall2019/AdvQuant/Lab3,no,mono,no,18,no,white,no,yes,768,legacy,79,11,/Users/KrisBow/Dropbox/GradSchoolTarleton/Fall2019/AdvQuant/Lab3/KB-subject-1.csv,legacy,3 4,Kafkaesque Koffka,3.2.6,1,y,0,left,right,right,left,NA,627,705,4742,627,NA,2,legacy,2,1024,2,48000,-16,experiment,0,even,3,144372,708853,709963,144360,226076,709974,665923,221332,712198,714840,710986,714210,145078,714210,NA,Sternberg task,82,72018,92,yes,1024
89.24731183,89.24731183,782.0860215,782.0860215,black,experiment,legacy,legacy,legacy,0,uniform,1,undefined,1,right,0,92,92,0,0,92,92,0,92,92,92,92,0,92,0,Sun Oct 20 20:43:38 2019,The main experiment item,yes,Sternbergtask.osexp,/Users/KrisBow/Dropbox/GradSchoolTarleton/Fall2019/AdvQuant/Lab3,no,mono,no,18,no,white,no,yes,768,legacy,80,11,/Users/KrisBow/Dropbox/GradSchoolTarleton/Fall2019/AdvQuant/Lab3/KB-subject-1.csv,legacy,8 6 3 4 7,Kafkaesque Koffka,3.2.6,0,n,0,right,right,right,right,NA,716,705,4742,716,NA,2,legacy,5,1024,2,48000,-16,experiment,0,even,1,144372,714853,715962,144360,226076,715973,665923,221332,718197,720926,716984,720208,145078,720208,NA,Sternberg task,83,72734,93,yes,1024
89.36170213,89.36170213,780.7659574,780.7659574,black,experiment,legacy,legacy,legacy,0,uniform,1,undefined,1,right,0,93,93,0,0,93,93,0,93,93,93,93,0,93,0,Sun Oct 20 20:43:38 2019,The main experiment item,yes,Sternbergtask.osexp,/Users/KrisBow/Dropbox/GradSchoolTarleton/Fall2019/AdvQuant/Lab3,no,mono,no,18,no,white,no,yes,768,legacy,81,11,/Users/KrisBow/Dropbox/GradSchoolTarleton/Fall2019/AdvQuant/Lab3/KB-subject-1.csv,legacy,8 2 1 4 5 9,Kafkaesque Koffka,3.2.6,0,n,0,right,right,right,right,NA,658,705,4742,658,NA,2,legacy,6,1024,2,48000,-16,experiment,0,even,7,144372,720939,722047,144360,226076,722057,665923,221332,724281,726952,723068,726292,145078,726292,NA,Sternberg task,84,73392,94,yes,1024
89.47368421,89.47368421,779.8105263,779.8105263,black,experiment,legacy,legacy,legacy,0,uniform,1,undefined,1,right,0,94,94,0,0,94,94,0,94,94,94,94,0,94,0,Sun Oct 20 20:43:38 2019,The main experiment item,yes,Sternbergtask.osexp,/Users/KrisBow/Dropbox/GradSchoolTarleton/Fall2019/AdvQuant/Lab3,no,mono,no,18,no,white,no,yes,768,legacy,82,11,/Users/KrisBow/Dropbox/GradSchoolTarleton/Fall2019/AdvQuant/Lab3/KB-subject-1.csv,legacy,4 2 6 9,Kafkaesque Koffka,3.2.6,0,n,0,right,right,right,right,NA,690,705,4742,690,NA,2,legacy,4,1024,2,48000,-16,experiment,0,even,7,144372,726965,728070,144360,226076,728081,665923,221332,730305,733009,729092,732316,145078,732316,NA,Sternberg task,85,74082,95,yes,1024
89.58333333,89.58333333,778.6145833,778.6145833,black,experiment,legacy,legacy,legacy,0,uniform,1,undefined,1,right,0,95,95,0,0,95,95,0,95,95,95,95,0,95,0,Sun Oct 20 20:43:38 2019,The main experiment item,yes,Sternbergtask.osexp,/Users/KrisBow/Dropbox/GradSchoolTarleton/Fall2019/AdvQuant/Lab3,no,mono,no,18,no,white,no,yes,768,legacy,83,11,/Users/KrisBow/Dropbox/GradSchoolTarleton/Fall2019/AdvQuant/Lab3/KB-subject-1.csv,legacy,7 1 5 6 3,Kafkaesque Koffka,3.2.6,0,n,0,right,right,right,right,NA,665,705,4742,665,NA,2,legacy,5,1024,2,48000,-16,experiment,0,even,8,144372,733021,734130,144360,226076,734140,665923,221332,736365,739043,735152,738376,145078,738375,NA,Sternberg task,86,74747,96,yes,1024
89.69072165,89.69072165,780.3298969,780.3298969,black,experiment,legacy,legacy,legacy,0,uniform,1,undefined,1,left,0,96,96,0,0,96,96,0,96,96,96,96,0,96,0,Sun Oct 20 20:43:38 2019,The main experiment item,yes,Sternbergtask.osexp,/Users/KrisBow/Dropbox/GradSchoolTarleton/Fall2019/AdvQuant/Lab3,no,mono,no,18,no,white,no,yes,768,legacy,84,11,/Users/KrisBow/Dropbox/GradSchoolTarleton/Fall2019/AdvQuant/Lab3/KB-subject-1.csv,legacy,6 9 3 1,Kafkaesque Koffka,3.2.6,4,y,0,left,right,right,left,NA,945,705,4742,945,NA,2,legacy,4,1024,2,48000,-16,experiment,0,even,1,144372,739057,740164,144360,226076,740175,665923,221332,742400,745359,741187,744411,145078,744411,NA,Sternberg task,87,75692,97,yes,1024
89.79591837,89.79591837,778.0204082,778.0204082,black,experiment,legacy,legacy,legacy,0,uniform,1,undefined,1,left,0,97,97,0,0,97,97,0,97,97,97,97,0,97,0,Sun Oct 20 20:43:38 2019,The main experiment item,yes,Sternbergtask.osexp,/Users/KrisBow/Dropbox/GradSchoolTarleton/Fall2019/AdvQuant/Lab3,no,mono,no,18,no,white,no,yes,768,legacy,85,11,/Users/KrisBow/Dropbox/GradSchoolTarleton/Fall2019/AdvQuant/Lab3/KB-subject-1.csv,legacy,7,Kafkaesque Koffka,3.2.6,1,y,0,left,right,right,left,NA,554,705,4742,554,NA,2,legacy,1,1024,2,48000,-16,experiment,0,even,7,144372,745371,746478,144360,226076,746488,665923,221332,748711,751279,747499,750722,145078,750721,NA,Sternberg task,88,76246,98,yes,1024
89.8989899,89.8989899,780.8585859,780.8585859,black,experiment,legacy,legacy,legacy,0,uniform,1,undefined,1,left,0,98,98,0,0,98,98,0,98,98,98,98,0,98,0,Sun Oct 20 20:43:38 2019,The main experiment item,yes,Sternbergtask.osexp,/Users/KrisBow/Dropbox/GradSchoolTarleton/Fall2019/AdvQuant/Lab3,no,mono,no,18,no,white,no,yes,768,legacy,86,11,/Users/KrisBow/Dropbox/GradSchoolTarleton/Fall2019/AdvQuant/Lab3/KB-subject-1.csv,legacy,6 2,Kafkaesque Koffka,3.2.6,1,y,0,left,right,right,left,NA,1059,705,4742,1059,NA,2,legacy,2,1024,2,48000,-16,experiment,0,even,6,144372,751292,752397,144360,226076,752408,665923,221332,754631,757708,753419,756646,145078,756646,NA,Sternberg task,89,77305,99,yes,1024
90,90,781.45,781.45,black,experiment,legacy,legacy,legacy,0,uniform,1,undefined,1,right,0,99,99,0,0,99,99,0,99,99,99,99,0,99,0,Sun Oct 20 20:43:38 2019,The main experiment item,yes,Sternbergtask.osexp,/Users/KrisBow/Dropbox/GradSchoolTarleton/Fall2019/AdvQuant/Lab3,no,mono,no,18,no,white,no,yes,768,legacy,87,11,/Users/KrisBow/Dropbox/GradSchoolTarleton/Fall2019/AdvQuant/Lab3/KB-subject-1.csv,legacy,1 5 3 2 8,Kafkaesque Koffka,3.2.6,0,n,0,right,right,right,right,NA,840,705,4742,840,NA,2,legacy,5,1024,2,48000,-16,experiment,0,even,4,144372,757720,758842,144360,226076,758854,665923,221332,761078,763931,759866,763089,145078,763089,NA,Sternberg task,90,78145,100,yes,1024
90.0990099,90.0990099,785.2673267,785.2673267,black,experiment,legacy,legacy,legacy,0,uniform,1,undefined,1,right,0,100,100,0,0,100,100,0,100,100,100,100,0,100,0,Sun Oct 20 20:43:38 2019,The main experiment item,yes,Sternbergtask.osexp,/Users/KrisBow/Dropbox/GradSchoolTarleton/Fall2019/AdvQuant/Lab3,no,mono,no,18,no,white,no,yes,768,legacy,88,11,/Users/KrisBow/Dropbox/GradSchoolTarleton/Fall2019/AdvQuant/Lab3/KB-subject-1.csv,legacy,6 9 4 5 3 2,Kafkaesque Koffka,3.2.6,0,n,0,right,right,right,right,NA,1167,705,4742,1167,NA,2,legacy,6,1024,2,48000,-16,experiment,0,even,8,144372,763944,765051,144360,226076,765061,665923,221332,767284,770465,766071,769295,145078,769295,NA,Sternberg task,91,79312,101,yes,1024
90.19607843,90.19607843,786.8333333,786.8333333,black,experiment,legacy,legacy,legacy,0,uniform,1,undefined,1,left,0,101,101,0,0,101,101,0,101,101,101,101,0,101,0,Sun Oct 20 20:43:38 2019,The main experiment item,yes,Sternbergtask.osexp,/Users/KrisBow/Dropbox/GradSchoolTarleton/Fall2019/AdvQuant/Lab3,no,mono,no,18,no,white,no,yes,768,legacy,89,11,/Users/KrisBow/Dropbox/GradSchoolTarleton/Fall2019/AdvQuant/Lab3/KB-subject-1.csv,legacy,5 2 9 6 1 7,Kafkaesque Koffka,3.2.6,3,y,0,left,right,right,left,NA,945,705,4742,945,NA,2,legacy,6,1024,2,48000,-16,experiment,0,even,9,144372,770478,771585,144360,226076,771595,665923,221332,773821,776779,772608,775832,145078,775832,NA,Sternberg task,92,80257,102,yes,1024
90.29126214,90.29126214,784.9029126,784.9029126,black,experiment,legacy,legacy,legacy,0,uniform,1,undefined,1,left,0,102,102,0,0,102,102,0,102,102,102,102,0,102,0,Sun Oct 20 20:43:38 2019,The main experiment item,yes,Sternbergtask.osexp,/Users/KrisBow/Dropbox/GradSchoolTarleton/Fall2019/AdvQuant/Lab3,no,mono,no,18,no,white,no,yes,768,legacy,90,11,/Users/KrisBow/Dropbox/GradSchoolTarleton/Fall2019/AdvQuant/Lab3/KB-subject-1.csv,legacy,8 9 5 6 7,Kafkaesque Koffka,3.2.6,1,y,0,left,right,right,left,NA,588,705,4742,588,NA,2,legacy,5,1024,2,48000,-16,experiment,0,even,8,144372,776793,777898,144360,226076,777909,665923,221332,780133,782734,778920,782144,145078,782144,NA,Sternberg task,93,80845,103,yes,1024
90.38461538,90.38461538,785.375,785.375,black,experiment,legacy,legacy,legacy,0,uniform,1,undefined,1,left,0,103,103,0,0,103,103,0,103,103,103,103,0,103,0,Sun Oct 20 20:43:38 2019,The main experiment item,yes,Sternbergtask.osexp,/Users/KrisBow/Dropbox/GradSchoolTarleton/Fall2019/AdvQuant/Lab3,no,mono,no,18,no,white,no,yes,768,legacy,91,11,/Users/KrisBow/Dropbox/GradSchoolTarleton/Fall2019/AdvQuant/Lab3/KB-subject-1.csv,legacy,9 6 2 4 1,Kafkaesque Koffka,3.2.6,4,y,0,left,right,right,left,NA,834,705,4742,834,NA,2,legacy,5,1024,2,48000,-16,experiment,0,even,4,144372,782747,783859,144360,226076,783870,665923,221332,786093,788941,784881,788104,145078,788104,NA,Sternberg task,94,81679,104,yes,1024
90.47619048,90.47619048,784.5809524,784.5809524,black,experiment,legacy,legacy,legacy,0,uniform,1,undefined,1,right,0,104,104,0,0,104,104,0,104,104,104,104,0,104,0,Sun Oct 20 20:43:38 2019,The main experiment item,yes,Sternbergtask.osexp,/Users/KrisBow/Dropbox/GradSchoolTarleton/Fall2019/AdvQuant/Lab3,no,mono,no,18,no,white,no,yes,768,legacy,92,11,/Users/KrisBow/Dropbox/GradSchoolTarleton/Fall2019/AdvQuant/Lab3/KB-subject-1.csv,legacy,4 1,Kafkaesque Koffka,3.2.6,0,n,0,right,right,right,right,NA,702,705,4742,702,NA,2,legacy,2,1024,2,48000,-16,experiment,0,even,6,144372,788953,790061,144360,226076,790072,665923,221332,792296,795013,791083,794308,145078,794307,NA,Sternberg task,95,82381,105,yes,1024
89.62264151,89.62264151,783.990566,783.990566,black,experiment,legacy,legacy,legacy,0,uniform,0,undefined,0,right,0,105,105,0,0,105,105,0,105,105,105,105,0,105,0,Sun Oct 20 20:43:38 2019,The main experiment item,yes,Sternbergtask.osexp,/Users/KrisBow/Dropbox/GradSchoolTarleton/Fall2019/AdvQuant/Lab3,no,mono,no,18,no,white,no,yes,768,legacy,93,11,/Users/KrisBow/Dropbox/GradSchoolTarleton/Fall2019/AdvQuant/Lab3/KB-subject-1.csv,legacy,5 3 2 6 9 8,Kafkaesque Koffka,3.2.6,0,n,0,left,right,right,left,NA,722,705,4742,722,NA,2,legacy,6,1024,2,48000,-16,experiment,0,even,4,144372,795026,796134,144360,226076,796145,665923,221332,798368,801104,797156,800379,145078,800379,NA,Sternberg task,95,83103,106,yes,1024
89.71962617,89.71962617,782.7757009,782.7757009,black,experiment,legacy,legacy,legacy,0,uniform,1,undefined,1,right,0,106,106,0,0,106,106,0,106,106,106,106,0,106,0,Sun Oct 20 20:43:38 2019,The main experiment item,yes,Sternbergtask.osexp,/Users/KrisBow/Dropbox/GradSchoolTarleton/Fall2019/AdvQuant/Lab3,no,mono,no,18,no,white,no,yes,768,legacy,94,11,/Users/KrisBow/Dropbox/GradSchoolTarleton/Fall2019/AdvQuant/Lab3/KB-subject-1.csv,legacy,1 7 8 3 9,Kafkaesque Koffka,3.2.6,0,n,0,right,right,right,right,NA,654,705,4742,654,NA,2,legacy,5,1024,2,48000,-16,experiment,0,even,2,144372,795026,802224,144360,226076,802235,801117,221332,804459,807126,803246,806470,145078,806470,NA,Sternberg task,96,83757,107,yes,1024
89.81481481,89.81481481,782.0185185,782.0185185,black,experiment,legacy,legacy,legacy,0,uniform,1,undefined,1,left,0,107,107,0,0,107,107,0,107,107,107,107,0,107,0,Sun Oct 20 20:43:38 2019,The main experiment item,yes,Sternbergtask.osexp,/Users/KrisBow/Dropbox/GradSchoolTarleton/Fall2019/AdvQuant/Lab3,no,mono,no,18,no,white,no,yes,768,legacy,95,11,/Users/KrisBow/Dropbox/GradSchoolTarleton/Fall2019/AdvQuant/Lab3/KB-subject-1.csv,legacy,5 2 6,Kafkaesque Koffka,3.2.6,2,y,0,left,right,right,left,NA,701,705,4742,701,NA,2,legacy,3,1024,2,48000,-16,experiment,0,even,2,144372,807141,808247,144360,226076,808258,801117,221332,810481,813196,809269,812493,145078,812492,NA,Sternberg task,97,84458,108,yes,1024
88.99082569,88.99082569,782.3577982,782.3577982,black,experiment,legacy,legacy,legacy,0,uniform,0,undefined,0,left,0,108,108,0,0,108,108,0,108,108,108,108,0,108,0,Sun Oct 20 20:43:38 2019,The main experiment item,yes,Sternbergtask.osexp,/Users/KrisBow/Dropbox/GradSchoolTarleton/Fall2019/AdvQuant/Lab3,no,mono,no,18,no,white,no,yes,768,legacy,96,11,/Users/KrisBow/Dropbox/GradSchoolTarleton/Fall2019/AdvQuant/Lab3/KB-subject-1.csv,legacy,7 1 8 5 6 2,Kafkaesque Koffka,3.2.6,2,y,0,right,right,right,right,NA,819,705,4742,819,NA,2,legacy,6,1024,2,48000,-16,experiment,0,even,1,144372,813209,814317,144360,226076,814328,801117,221332,816552,819385,815339,818563,145078,818563,NA,Sternberg task,97,85277,109,yes,1024
89.09090909,89.09090909,780.9909091,780.9909091,black,experiment,legacy,legacy,legacy,0,uniform,1,undefined,1,left,0,109,109,0,0,109,109,0,109,109,109,109,0,109,0,Sun Oct 20 20:43:38 2019,The main experiment item,yes,Sternbergtask.osexp,/Users/KrisBow/Dropbox/GradSchoolTarleton/Fall2019/AdvQuant/Lab3,no,mono,no,18,no,white,no,yes,768,legacy,97,11,/Users/KrisBow/Dropbox/GradSchoolTarleton/Fall2019/AdvQuant/Lab3/KB-subject-1.csv,legacy,8 5 1 3 9,Kafkaesque Koffka,3.2.6,4,y,0,left,right,right,left,NA,632,705,4742,632,NA,2,legacy,5,1024,2,48000,-16,experiment,0,even,3,144372,813209,820504,144360,226076,820515,819398,221332,822738,825385,821526,824750,145078,824749,NA,Sternberg task,98,85909,110,yes,1024
89.18918919,89.18918919,782.9369369,782.9369369,black,experiment,legacy,legacy,legacy,0,uniform,1,undefined,1,left,0,110,110,0,0,110,110,0,110,110,110,110,0,110,0,Sun Oct 20 20:43:38 2019,The main experiment item,yes,Sternbergtask.osexp,/Users/KrisBow/Dropbox/GradSchoolTarleton/Fall2019/AdvQuant/Lab3,no,mono,no,18,no,white,no,yes,768,legacy,98,11,/Users/KrisBow/Dropbox/GradSchoolTarleton/Fall2019/AdvQuant/Lab3/KB-subject-1.csv,legacy,6 5,Kafkaesque Koffka,3.2.6,2,y,0,left,right,right,left,NA,997,705,4742,997,NA,2,legacy,2,1024,2,48000,-16,experiment,0,even,5,144372,825398,826505,144360,226076,826515,819398,221332,828737,831747,827526,830748,145078,830748,NA,Sternberg task,99,86906,111,yes,1024
89.28571429,89.28571429,782.4821429,782.4821429,black,experiment,legacy,legacy,legacy,0,uniform,1,undefined,1,right,0,111,111,0,0,111,111,0,111,111,111,111,0,111,0,Sun Oct 20 20:43:38 2019,The main experiment item,yes,Sternbergtask.osexp,/Users/KrisBow/Dropbox/GradSchoolTarleton/Fall2019/AdvQuant/Lab3,no,mono,no,18,no,white,no,yes,768,legacy,99,11,/Users/KrisBow/Dropbox/GradSchoolTarleton/Fall2019/AdvQuant/Lab3/KB-subject-1.csv,legacy,9 7 4 5 8,Kafkaesque Koffka,3.2.6,0,n,0,right,right,right,right,NA,732,705,4742,732,NA,2,legacy,5,1024,2,48000,-16,experiment,0,even,6,144372,831765,832872,144360,226076,832883,819398,221332,835106,837852,833894,837117,145078,837116,NA,Sternberg task,100,87638,112,yes,1024
89.38053097,89.38053097,783.4778761,783.4778761,black,experiment,legacy,legacy,legacy,0,uniform,1,undefined,1,left,0,112,112,0,0,112,112,0,112,112,112,112,0,112,0,Sun Oct 20 20:43:38 2019,The main experiment item,yes,Sternbergtask.osexp,/Users/KrisBow/Dropbox/GradSchoolTarleton/Fall2019/AdvQuant/Lab3,no,mono,no,18,no,white,no,yes,768,legacy,100,11,/Users/KrisBow/Dropbox/GradSchoolTarleton/Fall2019/AdvQuant/Lab3/KB-subject-1.csv,legacy,6 9 7 4 5 1,Kafkaesque Koffka,3.2.6,2,y,0,left,right,right,left,NA,895,705,4742,895,NA,2,legacy,6,1024,2,48000,-16,experiment,0,even,9,144372,837865,838971,144360,226076,838982,819398,221332,841204,844114,839992,843216,145078,843216,NA,Sternberg task,101,88533,113,yes,1024
89.47368421,89.47368421,781.7017544,781.7017544,black,experiment,legacy,legacy,legacy,0,uniform,1,undefined,1,left,0,113,113,0,0,113,113,0,113,113,113,113,0,113,0,Sun Oct 20 20:43:38 2019,The main experiment item,yes,Sternbergtask.osexp,/Users/KrisBow/Dropbox/GradSchoolTarleton/Fall2019/AdvQuant/Lab3,no,mono,no,18,no,white,no,yes,768,legacy,101,11,/Users/KrisBow/Dropbox/GradSchoolTarleton/Fall2019/AdvQuant/Lab3/KB-subject-1.csv,legacy,9 8 4,Kafkaesque Koffka,3.2.6,1,y,0,left,right,right,left,NA,581,705,4742,581,NA,2,legacy,3,1024,2,48000,-16,experiment,0,even,9,144372,844128,845233,144360,226076,845244,819398,221332,847467,850063,846255,849479,145078,849479,NA,Sternberg task,102,89114,114,yes,1024
89.56521739,89.56521739,780.6608696,780.6608696,black,experiment,legacy,legacy,legacy,0,uniform,1,undefined,1,left,0,114,114,0,0,114,114,0,114,114,114,114,0,114,0,Sun Oct 20 20:43:38 2019,The main experiment item,yes,Sternbergtask.osexp,/Users/KrisBow/Dropbox/GradSchoolTarleton/Fall2019/AdvQuant/Lab3,no,mono,no,18,no,white,no,yes,768,legacy,102,11,/Users/KrisBow/Dropbox/GradSchoolTarleton/Fall2019/AdvQuant/Lab3/KB-subject-1.csv,legacy,6 7 9 3 1 2,Kafkaesque Koffka,3.2.6,1,y,0,left,right,right,left,NA,662,705,4742,662,NA,2,legacy,6,1024,2,48000,-16,experiment,0,even,6,144372,850076,851184,144360,226076,851194,819398,221332,853416,856093,852205,855428,145078,855428,NA,Sternberg task,103,89776,115,yes,1024
89.65517241,89.65517241,784.0948276,784.0948276,black,experiment,legacy,legacy,legacy,0,uniform,1,undefined,1,right,0,115,115,0,0,115,115,0,115,115,115,115,0,115,0,Sun Oct 20 20:43:38 2019,The main experiment item,yes,Sternbergtask.osexp,/Users/KrisBow/Dropbox/GradSchoolTarleton/Fall2019/AdvQuant/Lab3,no,mono,no,18,no,white,no,yes,768,legacy,103,11,/Users/KrisBow/Dropbox/GradSchoolTarleton/Fall2019/AdvQuant/Lab3/KB-subject-1.csv,legacy,8 4 3 5,Kafkaesque Koffka,3.2.6,0,n,0,right,right,right,right,NA,1179,705,4742,1179,NA,2,legacy,4,1024,2,48000,-16,experiment,0,even,6,144372,856107,857214,144360,226076,857224,819398,221332,859447,862641,858235,861459,145078,861458,NA,Sternberg task,104,90955,116,yes,1024
89.74358974,89.74358974,785.0683761,785.0683761,black,experiment,legacy,legacy,legacy,0,uniform,1,undefined,1,right,0,116,116,0,0,116,116,0,116,116,116,116,0,116,0,Sun Oct 20 20:43:38 2019,The main experiment item,yes,Sternbergtask.osexp,/Users/KrisBow/Dropbox/GradSchoolTarleton/Fall2019/AdvQuant/Lab3,no,mono,no,18,no,white,no,yes,768,legacy,104,11,/Users/KrisBow/Dropbox/GradSchoolTarleton/Fall2019/AdvQuant/Lab3/KB-subject-1.csv,legacy,7 6 4 8 1 2,Kafkaesque Koffka,3.2.6,0,n,0,right,right,right,right,NA,898,705,4742,898,NA,2,legacy,6,1024,2,48000,-16,experiment,0,even,9,144372,862653,863761,144360,226076,863772,819398,221332,865996,868908,864783,868006,145078,868005,NA,Sternberg task,105,91853,117,yes,1024
89.83050847,89.83050847,784.220339,784.220339,black,experiment,legacy,legacy,legacy,0,uniform,1,undefined,1,right,0,117,117,0,0,117,117,0,117,117,117,117,0,117,0,Sun Oct 20 20:43:38 2019,The main experiment item,yes,Sternbergtask.osexp,/Users/KrisBow/Dropbox/GradSchoolTarleton/Fall2019/AdvQuant/Lab3,no,mono,no,18,no,white,no,yes,768,legacy,105,11,/Users/KrisBow/Dropbox/GradSchoolTarleton/Fall2019/AdvQuant/Lab3/KB-subject-1.csv,legacy,7 4 2 8 1 9,Kafkaesque Koffka,3.2.6,0,n,0,right,right,right,right,NA,685,705,4742,685,NA,2,legacy,6,1024,2,48000,-16,experiment,0,even,5,144372,868921,870027,144360,226076,870038,819398,221332,872262,874960,871049,874273,145078,874272,NA,Sternberg task,106,92538,118,yes,1024
89.91596639,89.91596639,782.5798319,782.5798319,black,experiment,legacy,legacy,legacy,0,uniform,1,undefined,1,right,0,118,118,0,0,118,118,0,118,118,118,118,0,118,0,Sun Oct 20 20:43:38 2019,The main experiment item,yes,Sternbergtask.osexp,/Users/KrisBow/Dropbox/GradSchoolTarleton/Fall2019/AdvQuant/Lab3,no,mono,no,18,no,white,no,yes,768,legacy,106,11,/Users/KrisBow/Dropbox/GradSchoolTarleton/Fall2019/AdvQuant/Lab3/KB-subject-1.csv,legacy,5,Kafkaesque Koffka,3.2.6,0,n,0,right,right,right,right,NA,589,705,4742,589,NA,2,legacy,1,1024,2,48000,-16,experiment,0,even,8,144372,874973,876087,144360,226076,876098,819398,221332,878322,880925,877109,880333,145078,880333,NA,Sternberg task,107,93127,119,yes,1024
90,90,782.6833333,782.6833333,black,experiment,legacy,legacy,legacy,0,uniform,1,undefined,1,left,0,119,119,0,0,119,119,0,119,119,119,119,0,119,0,Sun Oct 20 20:43:38 2019,The main experiment item,yes,Sternbergtask.osexp,/Users/KrisBow/Dropbox/GradSchoolTarleton/Fall2019/AdvQuant/Lab3,no,mono,no,18,no,white,no,yes,768,legacy,107,11,/Users/KrisBow/Dropbox/GradSchoolTarleton/Fall2019/AdvQuant/Lab3/KB-subject-1.csv,legacy,6 1 2,Kafkaesque Koffka,3.2.6,3,y,0,left,right,right,left,NA,795,705,4742,795,NA,2,legacy,3,1024,2,48000,-16,experiment,0,even,2,144372,880938,882044,144360,226076,882055,819398,221332,884280,887088,883066,886291,145078,886291,NA,Sternberg task,108,93922,120,yes,1024
90.08264463,90.08264463,788.7768595,788.7768595,black,experiment,legacy,legacy,legacy,0,uniform,1,undefined,1,left,0,120,120,0,0,120,120,0,120,120,120,120,0,120,0,Sun Oct 20 20:43:38 2019,The main experiment item,yes,Sternbergtask.osexp,/Users/KrisBow/Dropbox/GradSchoolTarleton/Fall2019/AdvQuant/Lab3,no,mono,no,18,no,white,no,yes,768,legacy,108,11,/Users/KrisBow/Dropbox/GradSchoolTarleton/Fall2019/AdvQuant/Lab3/KB-subject-1.csv,legacy,4 7 6 8 2 3,Kafkaesque Koffka,3.2.6,6,y,0,left,right,right,left,NA,1520,705,4742,1520,NA,2,legacy,6,1024,2,48000,-16,experiment,0,even,3,144372,887101,888209,144360,226076,888219,819398,221332,890444,893979,889231,892455,145078,892455,NA,Sternberg task,109,95442,121,yes,1024
90.16393443,90.16393443,788.3606557,788.3606557,black,experiment,legacy,legacy,legacy,0,uniform,1,undefined,1,right,0,121,121,0,0,121,121,0,121,121,121,121,0,121,0,Sun Oct 20 20:43:38 2019,The main experiment item,yes,Sternbergtask.osexp,/Users/KrisBow/Dropbox/GradSchoolTarleton/Fall2019/AdvQuant/Lab3,no,mono,no,18,no,white,no,yes,768,legacy,109,11,/Users/KrisBow/Dropbox/GradSchoolTarleton/Fall2019/AdvQuant/Lab3/KB-subject-1.csv,legacy,2 3 8 5 6 7,Kafkaesque Koffka,3.2.6,0,n,0,right,right,right,right,NA,738,705,4742,738,NA,2,legacy,6,1024,2,48000,-16,experiment,0,even,1,144372,893991,895100,144360,226076,895111,819398,221332,897332,900084,896121,899343,145078,899343,NA,Sternberg task,110,96180,122,yes,1024
90.24390244,90.24390244,787.3577236,787.3577236,black,experiment,legacy,legacy,legacy,0,uniform,1,undefined,1,left,0,122,122,0,0,122,122,0,122,122,122,122,0,122,0,Sun Oct 20 20:43:38 2019,The main experiment item,yes,Sternbergtask.osexp,/Users/KrisBow/Dropbox/GradSchoolTarleton/Fall2019/AdvQuant/Lab3,no,mono,no,18,no,white,no,yes,768,legacy,110,11,/Users/KrisBow/Dropbox/GradSchoolTarleton/Fall2019/AdvQuant/Lab3/KB-subject-1.csv,legacy,7 8 4 6 9 5,Kafkaesque Koffka,3.2.6,4,y,0,left,right,right,left,NA,665,705,4742,665,NA,2,legacy,6,1024,2,48000,-16,experiment,0,even,6,144372,900096,901203,144360,226076,901214,819398,221332,903438,906117,902225,905449,145078,905449,NA,Sternberg task,111,96845,123,yes,1024
90.32258065,90.32258065,787.7177419,787.7177419,black,experiment,legacy,legacy,legacy,0,uniform,1,undefined,1,right,0,123,123,0,0,123,123,0,123,123,123,123,0,123,0,Sun Oct 20 20:43:38 2019,The main experiment item,yes,Sternbergtask.osexp,/Users/KrisBow/Dropbox/GradSchoolTarleton/Fall2019/AdvQuant/Lab3,no,mono,no,18,no,white,no,yes,768,legacy,111,11,/Users/KrisBow/Dropbox/GradSchoolTarleton/Fall2019/AdvQuant/Lab3/KB-subject-1.csv,legacy,2 7 5,Kafkaesque Koffka,3.2.6,0,n,0,right,right,right,right,NA,832,705,4742,832,NA,2,legacy,3,1024,2,48000,-16,experiment,0,even,8,144372,906131,907239,144360,226076,907249,819398,221332,909471,912317,908260,911482,145078,911482,NA,Sternberg task,112,97677,124,yes,1024
90.4,90.4,786.136,786.136,black,experiment,legacy,legacy,legacy,0,uniform,1,undefined,1,left,0,124,124,0,0,124,124,0,124,124,124,124,0,124,0,Sun Oct 20 20:43:38 2019,The main experiment item,yes,Sternbergtask.osexp,/Users/KrisBow/Dropbox/GradSchoolTarleton/Fall2019/AdvQuant/Lab3,no,mono,no,18,no,white,no,yes,768,legacy,112,11,/Users/KrisBow/Dropbox/GradSchoolTarleton/Fall2019/AdvQuant/Lab3/KB-subject-1.csv,legacy,4 3 2 5 8,Kafkaesque Koffka,3.2.6,2,y,0,left,right,right,left,NA,590,705,4742,590,NA,2,legacy,5,1024,2,48000,-16,experiment,0,even,3,144372,912331,913436,144360,226076,913447,819398,221332,915671,918275,914459,917682,145078,917682,NA,Sternberg task,113,98267,125,yes,1024
90.47619048,90.47619048,784.9603175,784.9603175,black,experiment,legacy,legacy,legacy,0,uniform,1,undefined,1,left,0,125,125,0,0,125,125,0,125,125,125,125,0,125,0,Sun Oct 20 20:43:38 2019,The main experiment item,yes,Sternbergtask.osexp,/Users/KrisBow/Dropbox/GradSchoolTarleton/Fall2019/AdvQuant/Lab3,no,mono,no,18,no,white,no,yes,768,legacy,113,11,/Users/KrisBow/Dropbox/GradSchoolTarleton/Fall2019/AdvQuant/Lab3/KB-subject-1.csv,legacy,8 9 5 7 1 6,Kafkaesque Koffka,3.2.6,4,y,0,left,right,right,left,NA,638,705,4742,638,NA,2,legacy,6,1024,2,48000,-16,experiment,0,even,7,144372,918287,919394,144360,226076,919404,819398,221332,921628,924279,920415,923638,145078,923638,NA,Sternberg task,114,98905,126,yes,1024
90.5511811,90.5511811,783.2204724,783.2204724,black,experiment,legacy,legacy,legacy,0,uniform,1,undefined,1,left,0,126,126,0,0,126,126,0,126,126,126,126,0,126,0,Sun Oct 20 20:43:38 2019,The main experiment item,yes,Sternbergtask.osexp,/Users/KrisBow/Dropbox/GradSchoolTarleton/Fall2019/AdvQuant/Lab3,no,mono,no,18,no,white,no,yes,768,legacy,114,11,/Users/KrisBow/Dropbox/GradSchoolTarleton/Fall2019/AdvQuant/Lab3/KB-subject-1.csv,legacy,4 6 5 8,Kafkaesque Koffka,3.2.6,1,y,0,left,right,right,left,NA,564,705,4742,564,NA,2,legacy,4,1024,2,48000,-16,experiment,0,even,4,144372,924291,925399,144360,226076,925410,819398,221332,927633,930211,926421,929644,145078,929644,NA,Sternberg task,115,99469,127,yes,1024
90.625,90.625,781.8828125,781.8828125,black,experiment,legacy,legacy,legacy,0,uniform,1,undefined,1,left,0,127,127,0,0,127,127,0,127,127,127,127,0,127,0,Sun Oct 20 20:43:38 2019,The main experiment item,yes,Sternbergtask.osexp,/Users/KrisBow/Dropbox/GradSchoolTarleton/Fall2019/AdvQuant/Lab3,no,mono,no,18,no,white,no,yes,768,legacy,115,11,/Users/KrisBow/Dropbox/GradSchoolTarleton/Fall2019/AdvQuant/Lab3/KB-subject-1.csv,legacy,7 6,Kafkaesque Koffka,3.2.6,2,y,0,left,right,right,left,NA,612,705,4742,612,NA,2,legacy,2,1024,2,48000,-16,experiment,0,even,6,144372,930224,931329,144360,226076,931339,819398,221332,933563,936188,932351,935574,145078,935574,NA,Sternberg task,116,100081,128,yes,1024
90.69767442,90.69767442,779.9767442,779.9767442,black,experiment,legacy,legacy,legacy,0,uniform,1,undefined,1,left,0,128,128,0,0,128,128,0,128,128,128,128,0,128,0,Sun Oct 20 20:43:38 2019,The main experiment item,yes,Sternbergtask.osexp,/Users/KrisBow/Dropbox/GradSchoolTarleton/Fall2019/AdvQuant/Lab3,no,mono,no,18,no,white,no,yes,768,legacy,116,11,/Users/KrisBow/Dropbox/GradSchoolTarleton/Fall2019/AdvQuant/Lab3/KB-subject-1.csv,legacy,2 3 7 4,Kafkaesque Koffka,3.2.6,1,y,0,left,right,right,left,NA,536,705,4742,536,NA,2,legacy,4,1024,2,48000,-16,experiment,0,even,2,144372,936201,937309,144360,226076,937322,819398,221332,939545,942096,938333,941557,145078,941557,NA,Sternberg task,117,100617,129,yes,1024
90.76923077,90.76923077,779.5538462,779.5538462,black,experiment,legacy,legacy,legacy,0,uniform,1,undefined,1,right,0,129,129,0,0,129,129,0,129,129,129,129,0,129,0,Sun Oct 20 20:43:38 2019,The main experiment item,yes,Sternbergtask.osexp,/Users/KrisBow/Dropbox/GradSchoolTarleton/Fall2019/AdvQuant/Lab3,no,mono,no,18,no,white,no,yes,768,legacy,117,11,/Users/KrisBow/Dropbox/GradSchoolTarleton/Fall2019/AdvQuant/Lab3/KB-subject-1.csv,legacy,3 9 8 1 6 4,Kafkaesque Koffka,3.2.6,0,n,0,right,right,right,right,NA,725,705,4742,725,NA,2,legacy,6,1024,2,48000,-16,experiment,0,even,7,144372,942109,943217,144360,226076,943228,819398,221332,945451,948190,944239,947462,145078,947462,NA,Sternberg task,118,101342,130,yes,1024
90.83969466,90.83969466,780.740458,780.740458,black,experiment,legacy,legacy,legacy,0,uniform,1,undefined,1,right,0,130,130,0,0,130,130,0,130,130,130,130,0,130,0,Sun Oct 20 20:43:38 2019,The main experiment item,yes,Sternbergtask.osexp,/Users/KrisBow/Dropbox/GradSchoolTarleton/Fall2019/AdvQuant/Lab3,no,mono,no,18,no,white,no,yes,768,legacy,118,11,/Users/KrisBow/Dropbox/GradSchoolTarleton/Fall2019/AdvQuant/Lab3/KB-subject-1.csv,legacy,4 2 7 6 1 3,Kafkaesque Koffka,3.2.6,0,n,0,right,right,right,right,NA,935,705,4742,935,NA,2,legacy,6,1024,2,48000,-16,experiment,0,even,8,144372,948203,949309,144360,226076,949320,819398,221332,951543,954492,950331,953554,145078,953554,NA,Sternberg task,119,102277,131,yes,1024
90.90909091,90.90909091,779.5984848,779.5984848,black,experiment,legacy,legacy,legacy,0,uniform,1,undefined,1,right,0,131,131,0,0,131,131,0,131,131,131,131,0,131,0,Sun Oct 20 20:43:38 2019,The main experiment item,yes,Sternbergtask.osexp,/Users/KrisBow/Dropbox/GradSchoolTarleton/Fall2019/AdvQuant/Lab3,no,mono,no,18,no,white,no,yes,768,legacy,119,11,/Users/KrisBow/Dropbox/GradSchoolTarleton/Fall2019/AdvQuant/Lab3/KB-subject-1.csv,legacy,6 9 4 5 2,Kafkaesque Koffka,3.2.6,0,n,0,right,right,right,right,NA,630,705,4742,630,NA,2,legacy,5,1024,2,48000,-16,experiment,0,even,1,144372,954506,955614,144360,226076,955625,819398,221332,957848,960491,956636,959858,145078,959858,NA,Sternberg task,120,102907,132,yes,1024
90.22556391,90.22556391,779,779,black,experiment,legacy,legacy,legacy,0,uniform,0,undefined,0,left,0,132,132,0,0,132,132,0,132,132,132,132,0,132,0,Sun Oct 20 20:43:38 2019,The main experiment item,yes,Sternbergtask.osexp,/Users/KrisBow/Dropbox/GradSchoolTarleton/Fall2019/AdvQuant/Lab3,no,mono,no,18,no,white,no,yes,768,legacy,120,11,/Users/KrisBow/Dropbox/GradSchoolTarleton/Fall2019/AdvQuant/Lab3/KB-subject-1.csv,legacy,8 5 4 7 3 1,Kafkaesque Koffka,3.2.6,2,y,0,right,right,right,right,NA,700,705,4742,700,NA,2,legacy,6,1024,2,48000,-16,experiment,0,even,5,144372,960504,961610,144360,226076,961621,819398,221332,963845,966559,962633,965857,145078,965857,NA,Sternberg task,120,103607,133,yes,1024
90.29850746,90.29850746,779.1492537,779.1492537,black,experiment,legacy,legacy,legacy,0,uniform,1,undefined,1,right,0,133,133,0,0,133,133,0,133,133,133,133,0,133,0,Sun Oct 20 20:43:38 2019,The main experiment item,yes,Sternbergtask.osexp,/Users/KrisBow/Dropbox/GradSchoolTarleton/Fall2019/AdvQuant/Lab3,no,mono,no,18,no,white,no,yes,768,legacy,121,11,/Users/KrisBow/Dropbox/GradSchoolTarleton/Fall2019/AdvQuant/Lab3/KB-subject-1.csv,legacy,5 7 3,Kafkaesque Koffka,3.2.6,0,n,0,right,right,right,right,NA,799,705,4742,799,NA,2,legacy,3,1024,2,48000,-16,experiment,0,even,9,144372,960504,967681,144360,226076,967691,966573,221332,969915,972729,968702,971927,145078,971926,NA,Sternberg task,121,104406,134,yes,1024
90.37037037,90.37037037,778.5851852,778.5851852,black,experiment,legacy,legacy,legacy,0,uniform,1,undefined,1,right,0,134,134,0,0,134,134,0,134,134,134,134,0,134,0,Sun Oct 20 20:43:38 2019,The main experiment item,yes,Sternbergtask.osexp,/Users/KrisBow/Dropbox/GradSchoolTarleton/Fall2019/AdvQuant/Lab3,no,mono,no,18,no,white,no,yes,768,legacy,122,11,/Users/KrisBow/Dropbox/GradSchoolTarleton/Fall2019/AdvQuant/Lab3/KB-subject-1.csv,legacy,6 3 1 7 9 8,Kafkaesque Koffka,3.2.6,0,n,0,right,right,right,right,NA,703,705,4742,703,NA,2,legacy,6,1024,2,48000,-16,experiment,0,even,4,144372,972742,973849,144360,226076,973859,966573,221332,976082,978799,974870,978093,145078,978093,NA,Sternberg task,122,105109,135,yes,1024
90.44117647,90.44117647,776.9264706,776.9264706,black,experiment,legacy,legacy,legacy,0,uniform,1,undefined,1,left,0,135,135,0,0,135,135,0,135,135,135,135,0,135,0,Sun Oct 20 20:43:38 2019,The main experiment item,yes,Sternbergtask.osexp,/Users/KrisBow/Dropbox/GradSchoolTarleton/Fall2019/AdvQuant/Lab3,no,mono,no,18,no,white,no,yes,768,legacy,123,11,/Users/KrisBow/Dropbox/GradSchoolTarleton/Fall2019/AdvQuant/Lab3/KB-subject-1.csv,legacy,9 3 1 2 5,Kafkaesque Koffka,3.2.6,4,y,0,left,right,right,left,NA,553,705,4742,553,NA,2,legacy,5,1024,2,48000,-16,experiment,0,even,2,144372,978812,979949,144360,226076,979960,966573,221332,982183,984750,980972,984194,145078,984194,NA,Sternberg task,123,105662,136,yes,1024
89.7810219,89.7810219,775.0437956,775.0437956,black,experiment,legacy,legacy,legacy,0,uniform,0,undefined,0,left,0,136,136,0,0,136,136,0,136,136,136,136,0,136,0,Sun Oct 20 20:43:38 2019,The main experiment item,yes,Sternbergtask.osexp,/Users/KrisBow/Dropbox/GradSchoolTarleton/Fall2019/AdvQuant/Lab3,no,mono,no,18,no,white,no,yes,768,legacy,124,11,/Users/KrisBow/Dropbox/GradSchoolTarleton/Fall2019/AdvQuant/Lab3/KB-subject-1.csv,legacy,8 5 3 7 4 6,Kafkaesque Koffka,3.2.6,6,y,0,right,right,right,right,NA,519,705,4742,519,NA,2,legacy,6,1024,2,48000,-16,experiment,0,even,6,144372,984764,985871,144360,226076,985882,966573,221332,988105,990638,986893,990116,145078,990116,NA,Sternberg task,123,106181,137,yes,1024
89.85507246,89.85507246,773.6304348,773.6304348,black,experiment,legacy,legacy,legacy,0,uniform,1,undefined,1,left,0,137,137,0,0,137,137,0,137,137,137,137,0,137,0,Sun Oct 20 20:43:38 2019,The main experiment item,yes,Sternbergtask.osexp,/Users/KrisBow/Dropbox/GradSchoolTarleton/Fall2019/AdvQuant/Lab3,no,mono,no,18,no,white,no,yes,768,legacy,125,11,/Users/KrisBow/Dropbox/GradSchoolTarleton/Fall2019/AdvQuant/Lab3/KB-subject-1.csv,legacy,6 8 9 3 4 9,Kafkaesque Koffka,3.2.6,5,y,0,left,right,right,left,NA,580,705,4742,580,NA,2,legacy,6,1024,2,48000,-16,experiment,0,even,4,144372,984764,991758,144360,226076,991768,990651,221332,993990,996583,992779,996000,145078,996000,NA,Sternberg task,124,106761,138,yes,1024