acc,accuracy,average_response_time,avg_rt,background,block,canvas_backend,clock_backend,color_backend,compensation,coordinates,correct,correct_Keyboard_response,correct_instruction1,correct_response,count_ISI,count_Keyboard_response,count_PracticeLoop,count_correctFeedback,count_exp_sequence,count_experiment,count_experimentLoop,count_fixation,count_incorrectFeedback,count_instruction1,count_instructions2,count_logger,count_memorySet,count_probe,count_thankYou,datetime,description,disable_garbage_collection,experiment_file,experiment_path,font_bold,font_family,font_italic,font_size,font_underline,foreground,form_clicks,fullscreen,height,keyboard_backend,live_row,live_row_PracticeLoop,logfile,mouse_backend,numberSet,opensesame_codename,opensesame_version,posInSet,present,repeat_cycle,response,response_Keyboard_response,response_instruction1,response_instructions2,response_thankYou,response_time,response_time_Keyboard_response,response_time_instruction1,response_time_instructions2,response_time_thankYou,round_decimals,sampler_backend,setSize,sound_buf_size,sound_channels,sound_freq,sound_sample_size,start,subject_nr,subject_parity,target,time_ISI,time_Keyboard_response,time_PracticeLoop,time_correctFeedback,time_exp_sequence,time_experiment,time_experimentLoop,time_fixation,time_incorrectFeedback,time_instruction1,time_instructions2,time_logger,time_memorySet,time_probe,time_thankYou,title,total_correct,total_response_time,total_responses,uniform_coordinates,width
0,0,2000,2000,black,practice,legacy,legacy,legacy,0,uniform,0,0,undefined,left,0,0,0,0,0,0,0,0,0,0,0,0,0,0,0,10/27/19 8:15,The main experiment item,yes,SternbergTask.osexp,C:\Users\hosan\Desktop,no,mono,no,18,no,white,no,yes,768,legacy,0,0,C:/Users/hosan/Desktop/Tb-subject-2.csv,legacy,4 3 1 7 9 8,Kafkaesque Koffka,3.2.8,1,y,0,None,None,right,NA,NA,2000,2000,60597,NA,NA,2,legacy,6,1024,2,48000,-16,experiment,2,even,4,72559,74565,65729,NA,70349,5122,NA,70351,NA,5130,NA,76565,71353,74564,NA,Sternberg Task,0,2000,1,yes,1024
0,0,1467,1467,black,practice,legacy,legacy,legacy,0,uniform,0,0,undefined,right,1,1,0,1,1,0,0,1,1,0,0,1,1,1,0,10/27/19 8:15,The main experiment item,yes,SternbergTask.osexp,C:\Users\hosan\Desktop,no,mono,no,18,no,white,no,yes,768,legacy,1,1,C:/Users/hosan/Desktop/Tb-subject-2.csv,legacy,5,Kafkaesque Koffka,3.2.8,0,n,0,left,left,right,NA,NA,934,934,60597,NA,NA,2,legacy,1,1024,2,48000,-16,experiment,2,even,3,80008,82014,65729,NA,77795,5122,NA,77797,76678,5130,NA,82948,78801,82013,NA,Sternberg Task,0,2934,2,yes,1024
33.33333333,33.33333333,1273.333333,1273.333333,black,practice,legacy,legacy,legacy,0,uniform,1,1,undefined,left,2,2,0,2,2,0,0,2,2,0,0,2,2,2,0,10/27/19 8:15,The main experiment item,yes,SternbergTask.osexp,C:\Users\hosan\Desktop,no,mono,no,18,no,white,no,yes,768,legacy,2,2,C:/Users/hosan/Desktop/Tb-subject-2.csv,legacy,6,Kafkaesque Koffka,3.2.8,1,y,0,left,left,right,NA,NA,886,886,60597,NA,NA,2,legacy,1,1024,2,48000,-16,experiment,2,even,6,86319,88325,65729,NA,84105,5122,NA,84108,82988,5130,NA,89212,85112,88325,NA,Sternberg Task,1,3820,3,yes,1024
50,50,1153.5,1153.5,black,practice,legacy,legacy,legacy,0,uniform,1,1,undefined,right,3,3,0,3,3,0,0,3,3,0,0,3,3,3,0,10/27/19 8:15,The main experiment item,yes,SternbergTask.osexp,C:\Users\hosan\Desktop,no,mono,no,18,no,white,no,yes,768,legacy,3,3,C:/Users/hosan/Desktop/Tb-subject-2.csv,legacy,4 1 5,Kafkaesque Koffka,3.2.8,0,n,0,right,right,right,NA,NA,794,794,60597,NA,NA,2,legacy,3,1024,2,48000,-16,experiment,2,even,2,92640,94647,65729,89271,90425,5122,NA,90428,82988,5130,NA,95441,91434,94646,NA,Sternberg Task,2,4614,4,yes,1024
60,60,1108.2,1108.2,black,practice,legacy,legacy,legacy,0,uniform,1,1,undefined,right,4,4,0,4,4,0,0,4,4,0,0,4,4,4,0,10/27/19 8:15,The main experiment item,yes,SternbergTask.osexp,C:\Users\hosan\Desktop,no,mono,no,18,no,white,no,yes,768,legacy,4,4,C:/Users/hosan/Desktop/Tb-subject-2.csv,legacy,3 1 9 4,Kafkaesque Koffka,3.2.8,0,n,0,right,right,right,NA,NA,927,927,60597,NA,NA,2,legacy,4,1024,2,48000,-16,experiment,2,even,6,98923,100930,65729,95532,96711,5122,NA,96714,82988,5130,NA,101858,97717,100930,NA,Sternberg Task,3,5541,5,yes,1024
50,50,1050.666667,1050.666667,black,practice,legacy,legacy,legacy,0,uniform,0,0,undefined,right,5,5,0,5,5,0,0,5,5,0,0,5,5,5,0,10/27/19 8:15,The main experiment item,yes,SternbergTask.osexp,C:\Users\hosan\Desktop,no,mono,no,18,no,white,no,yes,768,legacy,5,5,C:/Users/hosan/Desktop/Tb-subject-2.csv,legacy,2 1,Kafkaesque Koffka,3.2.8,0,n,0,left,left,right,NA,NA,763,763,60597,NA,NA,2,legacy,2,1024,2,48000,-16,experiment,2,even,5,105264,107274,65729,101895,103046,5122,NA,103049,82988,5130,NA,108037,104052,107273,NA,Sternberg Task,3,6304,6,yes,1024
57.14285714,57.14285714,1044.714286,1044.714286,black,practice,legacy,legacy,legacy,0,uniform,1,1,undefined,right,6,6,0,6,6,0,0,6,6,0,0,6,6,6,0,10/27/19 8:15,The main experiment item,yes,SternbergTask.osexp,C:\Users\hosan\Desktop,no,mono,no,18,no,white,no,yes,768,legacy,6,6,C:/Users/hosan/Desktop/Tb-subject-2.csv,legacy,9 6 7 4 5,Kafkaesque Koffka,3.2.8,0,n,0,right,right,right,NA,NA,1009,1009,60597,NA,NA,2,legacy,5,1024,2,48000,-16,experiment,2,even,3,111624,113632,65729,101895,109411,5122,NA,109414,108230,5130,NA,114641,110418,113631,NA,Sternberg Task,4,7313,7,yes,1024
62.5,62.5,1016.5,1016.5,black,practice,legacy,legacy,legacy,0,uniform,1,1,undefined,left,7,7,0,7,7,0,0,7,7,0,0,7,7,7,0,10/27/19 8:15,The main experiment item,yes,SternbergTask.osexp,C:\Users\hosan\Desktop,no,mono,no,18,no,white,no,yes,768,legacy,7,7,C:/Users/hosan/Desktop/Tb-subject-2.csv,legacy,2 9 4,Kafkaesque Koffka,3.2.8,3,y,0,left,left,right,NA,NA,819,819,60597,NA,NA,2,legacy,3,1024,2,48000,-16,experiment,2,even,4,118020,120025,65729,114670,115804,5122,NA,115807,108230,5130,NA,120844,116813,120024,NA,Sternberg Task,5,8132,8,yes,1024
66.66666667,66.66666667,968.2222222,968.2222222,black,practice,legacy,legacy,legacy,0,uniform,1,1,undefined,left,8,8,0,8,8,0,0,8,8,0,0,8,8,8,0,10/27/19 8:15,The main experiment item,yes,SternbergTask.osexp,C:\Users\hosan\Desktop,no,mono,no,18,no,white,no,yes,768,legacy,8,8,C:/Users/hosan/Desktop/Tb-subject-2.csv,legacy,4 8,Kafkaesque Koffka,3.2.8,1,y,0,left,left,right,NA,NA,582,582,60597,NA,NA,2,legacy,2,1024,2,48000,-16,experiment,2,even,4,124239,126244,65729,120894,122028,5122,NA,122030,108230,5130,NA,126827,123034,126244,NA,Sternberg Task,6,8714,9,yes,1024
70,70,954.7,954.7,black,practice,legacy,legacy,legacy,0,uniform,1,1,undefined,left,9,9,0,9,9,0,0,9,9,0,0,9,9,9,0,10/27/19 8:15,The main experiment item,yes,SternbergTask.osexp,C:\Users\hosan\Desktop,no,mono,no,18,no,white,no,yes,768,legacy,9,9,C:/Users/hosan/Desktop/Tb-subject-2.csv,legacy,1 5 2 9,Kafkaesque Koffka,3.2.8,2,y,0,left,left,right,NA,NA,833,833,60597,NA,NA,2,legacy,4,1024,2,48000,-16,experiment,2,even,5,130321,132327,65729,126941,128108,5122,NA,128111,108230,5130,NA,133161,129115,132327,NA,Sternberg Task,7,9547,10,yes,1024
72.72727273,72.72727273,934.4545455,934.4545455,black,practice,legacy,legacy,legacy,0,uniform,1,1,undefined,right,10,10,0,10,10,0,0,10,10,0,0,10,10,10,0,10/27/19 8:15,The main experiment item,yes,SternbergTask.osexp,C:\Users\hosan\Desktop,no,mono,no,18,no,white,no,yes,768,legacy,10,10,C:/Users/hosan/Desktop/Tb-subject-2.csv,legacy,5 7 8 4 1 2,Kafkaesque Koffka,3.2.8,0,n,0,right,right,right,NA,NA,732,732,60597,NA,NA,2,legacy,6,1024,2,48000,-16,experiment,2,even,6,136624,138631,65729,133259,134407,5122,NA,134411,108230,5130,NA,139364,135418,138630,NA,Sternberg Task,8,10279,11,yes,1024
75,75,928.8333333,928.8333333,black,practice,legacy,legacy,legacy,0,uniform,1,1,undefined,left,11,11,0,11,11,0,0,11,11,0,0,11,11,11,0,10/27/19 8:15,The main experiment item,yes,SternbergTask.osexp,C:\Users\hosan\Desktop,no,mono,no,18,no,white,no,yes,768,legacy,11,11,C:/Users/hosan/Desktop/Tb-subject-2.csv,legacy,1 7 9 8 5,Kafkaesque Koffka,3.2.8,4,y,0,left,left,right,NA,NA,867,867,60597,NA,NA,2,legacy,5,1024,2,48000,-16,experiment,2,even,8,142843,144849,65729,139401,140633,5122,NA,140636,108230,5130,NA,145717,141639,144848,NA,Sternberg Task,9,11146,12,yes,1024
76.92307692,76.92307692,907.4615385,907.4615385,black,experiment,legacy,legacy,legacy,0,uniform,1,1,undefined,right,12,12,0,12,12,0,0,12,12,0,0,12,12,12,0,10/27/19 8:15,The main experiment item,yes,SternbergTask.osexp,C:\Users\hosan\Desktop,no,mono,no,18,no,white,no,yes,768,legacy,0,11,C:/Users/hosan/Desktop/Tb-subject-2.csv,legacy,5 9 2 3,Kafkaesque Koffka,3.2.8,0,n,0,right,right,right,right,NA,651,651,60597,16220,NA,2,legacy,4,1024,2,48000,-16,experiment,2,even,8,165388,167395,65729,145766,163173,5122,163029,163176,108230,5130,146808,168047,164182,167394,NA,Sternberg Task,10,11797,13,yes,1024
78.57142857,78.57142857,894,894,black,experiment,legacy,legacy,legacy,0,uniform,1,1,undefined,right,13,13,0,13,13,0,0,13,13,0,0,13,13,13,0,10/27/19 8:15,The main experiment item,yes,SternbergTask.osexp,C:\Users\hosan\Desktop,no,mono,no,18,no,white,no,yes,768,legacy,1,11,C:/Users/hosan/Desktop/Tb-subject-2.csv,legacy,1 7 8 3 9,Kafkaesque Koffka,3.2.8,0,n,0,right,right,right,right,NA,719,719,60597,16220,NA,2,legacy,5,1024,2,48000,-16,experiment,2,even,2,171508,173513,65729,168105,169296,5122,163029,169298,108230,5130,146808,174233,170304,173513,NA,Sternberg Task,11,12516,14,yes,1024
80,80,872.1333333,872.1333333,black,experiment,legacy,legacy,legacy,0,uniform,1,1,undefined,left,14,14,0,14,14,0,0,14,14,0,0,14,14,14,0,10/27/19 8:15,The main experiment item,yes,SternbergTask.osexp,C:\Users\hosan\Desktop,no,mono,no,18,no,white,no,yes,768,legacy,2,11,C:/Users/hosan/Desktop/Tb-subject-2.csv,legacy,9 6 2 4 1,Kafkaesque Koffka,3.2.8,4,y,0,left,left,right,right,NA,566,566,60597,16220,NA,2,legacy,5,1024,2,48000,-16,experiment,2,even,4,177675,179683,65729,174307,175464,5122,163029,175467,108230,5130,146808,180250,176470,179682,NA,Sternberg Task,12,13082,15,yes,1024
81.25,81.25,875.4375,875.4375,black,experiment,legacy,legacy,legacy,0,uniform,1,1,undefined,right,15,15,0,15,15,0,0,15,15,0,0,15,15,15,0,10/27/19 8:15,The main experiment item,yes,SternbergTask.osexp,C:\Users\hosan\Desktop,no,mono,no,18,no,white,no,yes,768,legacy,3,11,C:/Users/hosan/Desktop/Tb-subject-2.csv,legacy,7 3 2 8,Kafkaesque Koffka,3.2.8,0,n,0,right,right,right,right,NA,925,925,60597,16220,NA,2,legacy,4,1024,2,48000,-16,experiment,2,even,4,183636,185642,65729,180283,181422,5122,163029,181425,108230,5130,146808,186568,182430,185641,NA,Sternberg Task,13,14007,16,yes,1024
82.35294118,82.35294118,860.4705882,860.4705882,black,experiment,legacy,legacy,legacy,0,uniform,1,1,undefined,left,16,16,0,16,16,0,0,16,16,0,0,16,16,16,0,10/27/19 8:15,The main experiment item,yes,SternbergTask.osexp,C:\Users\hosan\Desktop,no,mono,no,18,no,white,no,yes,768,legacy,4,11,C:/Users/hosan/Desktop/Tb-subject-2.csv,legacy,2 3 7 4,Kafkaesque Koffka,3.2.8,1,y,0,left,left,right,right,NA,621,621,60597,16220,NA,2,legacy,4,1024,2,48000,-16,experiment,2,even,2,189982,191988,65729,186637,187765,5122,163029,187768,108230,5130,146808,192609,188775,191988,NA,Sternberg Task,14,14628,17,yes,1024
77.77777778,77.77777778,867.1111111,867.1111111,black,experiment,legacy,legacy,legacy,0,uniform,0,0,undefined,left,17,17,0,17,17,0,0,17,17,0,0,17,17,17,0,10/27/19 8:15,The main experiment item,yes,SternbergTask.osexp,C:\Users\hosan\Desktop,no,mono,no,18,no,white,no,yes,768,legacy,5,11,C:/Users/hosan/Desktop/Tb-subject-2.csv,legacy,6 9 7 4 5 1,Kafkaesque Koffka,3.2.8,2,y,0,right,right,right,right,NA,980,980,60597,16220,NA,2,legacy,6,1024,2,48000,-16,experiment,2,even,9,196013,198020,65729,192637,193798,5122,163029,193801,108230,5130,146808,199001,194807,198019,NA,Sternberg Task,14,15608,18,yes,1024
78.94736842,78.94736842,867.3157895,867.3157895,black,experiment,legacy,legacy,legacy,0,uniform,1,1,undefined,right,18,18,0,18,18,0,0,18,18,0,0,18,18,18,0,10/27/19 8:15,The main experiment item,yes,SternbergTask.osexp,C:\Users\hosan\Desktop,no,mono,no,18,no,white,no,yes,768,legacy,6,11,C:/Users/hosan/Desktop/Tb-subject-2.csv,legacy,7 4 2 8 1 9,Kafkaesque Koffka,3.2.8,0,n,0,right,right,right,right,NA,871,871,60597,16220,NA,2,legacy,6,1024,2,48000,-16,experiment,2,even,5,202495,204502,65729,192637,200279,5122,163029,200281,199096,5130,146808,205374,201287,204502,NA,Sternberg Task,15,16479,19,yes,1024
80,80,858.5,858.5,black,experiment,legacy,legacy,legacy,0,uniform,1,1,undefined,left,19,19,0,19,19,0,0,19,19,0,0,19,19,19,0,10/27/19 8:15,The main experiment item,yes,SternbergTask.osexp,C:\Users\hosan\Desktop,no,mono,no,18,no,white,no,yes,768,legacy,7,11,C:/Users/hosan/Desktop/Tb-subject-2.csv,legacy,7,Kafkaesque Koffka,3.2.8,1,y,0,left,left,right,right,NA,691,691,60597,16220,NA,2,legacy,1,1024,2,48000,-16,experiment,2,even,7,208832,210840,65729,205477,206622,5122,163029,206624,199096,5130,146808,211532,207629,210839,NA,Sternberg Task,16,17170,20,yes,1024
80.95238095,80.95238095,852.3333333,852.3333333,black,experiment,legacy,legacy,legacy,0,uniform,1,1,undefined,right,20,20,0,20,20,0,0,20,20,0,0,20,20,20,0,10/27/19 8:15,The main experiment item,yes,SternbergTask.osexp,C:\Users\hosan\Desktop,no,mono,no,18,no,white,no,yes,768,legacy,8,11,C:/Users/hosan/Desktop/Tb-subject-2.csv,legacy,6 9 5,Kafkaesque Koffka,3.2.8,0,n,0,right,right,right,right,NA,729,729,60597,16220,NA,2,legacy,3,1024,2,48000,-16,experiment,2,even,8,215004,217012,65729,211614,212791,5122,163029,212794,199096,5130,146808,217742,213798,217012,NA,Sternberg Task,17,17899,21,yes,1024
81.81818182,81.81818182,844.3636364,844.3636364,black,experiment,legacy,legacy,legacy,0,uniform,1,1,undefined,left,21,21,0,21,21,0,0,21,21,0,0,21,21,21,0,10/27/19 8:15,The main experiment item,yes,SternbergTask.osexp,C:\Users\hosan\Desktop,no,mono,no,18,no,white,no,yes,768,legacy,9,11,C:/Users/hosan/Desktop/Tb-subject-2.csv,legacy,7 4 2 6 3 5,Kafkaesque Koffka,3.2.8,6,y,0,left,left,right,right,NA,677,677,60597,16220,NA,2,legacy,6,1024,2,48000,-16,experiment,2,even,5,221116,223123,65729,217765,218902,5122,163029,218904,199096,5130,146808,223801,219909,223123,NA,Sternberg Task,18,18576,22,yes,1024
82.60869565,82.60869565,839.4782609,839.4782609,black,experiment,legacy,legacy,legacy,0,uniform,1,1,undefined,right,22,22,0,22,22,0,0,22,22,0,0,22,22,22,0,10/27/19 8:15,The main experiment item,yes,SternbergTask.osexp,C:\Users\hosan\Desktop,no,mono,no,18,no,white,no,yes,768,legacy,10,11,C:/Users/hosan/Desktop/Tb-subject-2.csv,legacy,6 9 4 5 3 2,Kafkaesque Koffka,3.2.8,0,n,0,right,right,right,right,NA,732,732,60597,16220,NA,2,legacy,6,1024,2,48000,-16,experiment,2,even,8,227241,229247,65729,223864,225028,5122,163029,225030,199096,5130,146808,229980,226036,229247,NA,Sternberg Task,19,19308,23,yes,1024
83.33333333,83.33333333,832.9583333,832.9583333,black,experiment,legacy,legacy,legacy,0,uniform,1,1,undefined,left,23,23,0,23,23,0,0,23,23,0,0,23,23,23,0,10/27/19 8:15,The main experiment item,yes,SternbergTask.osexp,C:\Users\hosan\Desktop,no,mono,no,18,no,white,no,yes,768,legacy,11,11,C:/Users/hosan/Desktop/Tb-subject-2.csv,legacy,6 8 9 3 4 9,Kafkaesque Koffka,3.2.8,5,y,0,left,left,right,right,NA,683,683,60597,16220,NA,2,legacy,6,1024,2,48000,-16,experiment,2,even,4,233367,235369,65729,230010,231153,5122,163029,231156,199096,5130,146808,236052,232162,235369,NA,Sternberg Task,20,19991,24,yes,1024
84,84,834.68,834.68,black,experiment,legacy,legacy,legacy,0,uniform,1,1,undefined,right,24,24,0,24,24,0,0,24,24,0,0,24,24,24,0,10/27/19 8:15,The main experiment item,yes,SternbergTask.osexp,C:\Users\hosan\Desktop,no,mono,no,18,no,white,no,yes,768,legacy,12,11,C:/Users/hosan/Desktop/Tb-subject-2.csv,legacy,1 7 5 2 9,Kafkaesque Koffka,3.2.8,0,n,0,right,right,right,right,NA,876,876,60597,16220,NA,2,legacy,5,1024,2,48000,-16,experiment,2,even,3,239440,241446,65729,236077,237225,5122,163029,237228,199096,5130,146808,242323,238234,241446,NA,Sternberg Task,21,20867,25,yes,1024
84.61538462,84.61538462,829.0769231,829.0769231,black,experiment,legacy,legacy,legacy,0,uniform,1,1,undefined,right,25,25,0,25,25,0,0,25,25,0,0,25,25,25,0,10/27/19 8:15,The main experiment item,yes,SternbergTask.osexp,C:\Users\hosan\Desktop,no,mono,no,18,no,white,no,yes,768,legacy,13,11,C:/Users/hosan/Desktop/Tb-subject-2.csv,legacy,7 1,Kafkaesque Koffka,3.2.8,0,n,0,right,right,right,right,NA,689,689,60597,16220,NA,2,legacy,2,1024,2,48000,-16,experiment,2,even,8,245736,247742,65729,242386,243523,5122,163029,243526,199096,5130,146808,248432,244531,247741,NA,Sternberg Task,22,21556,26,yes,1024
85.18518519,85.18518519,819.037037,819.037037,black,experiment,legacy,legacy,legacy,0,uniform,1,1,undefined,left,26,26,0,26,26,0,0,26,26,0,0,26,26,26,0,10/27/19 8:15,The main experiment item,yes,SternbergTask.osexp,C:\Users\hosan\Desktop,no,mono,no,18,no,white,no,yes,768,legacy,14,11,C:/Users/hosan/Desktop/Tb-subject-2.csv,legacy,9 4 2,Kafkaesque Koffka,3.2.8,1,y,0,left,left,right,right,NA,558,558,60597,16220,NA,2,legacy,3,1024,2,48000,-16,experiment,2,even,9,251913,253921,65729,248508,249700,5122,163029,249702,199096,5130,146808,254480,250707,253921,NA,Sternberg Task,23,22114,27,yes,1024
85.71428571,85.71428571,810.8928571,810.8928571,black,experiment,legacy,legacy,legacy,0,uniform,1,1,undefined,left,27,27,0,27,27,0,0,27,27,0,0,27,27,27,0,10/27/19 8:15,The main experiment item,yes,SternbergTask.osexp,C:\Users\hosan\Desktop,no,mono,no,18,no,white,no,yes,768,legacy,15,11,C:/Users/hosan/Desktop/Tb-subject-2.csv,legacy,5 2 6,Kafkaesque Koffka,3.2.8,2,y,0,left,left,right,right,NA,591,591,60597,16220,NA,2,legacy,3,1024,2,48000,-16,experiment,2,even,2,257901,259908,65729,254511,255688,5122,163029,255691,199096,5130,146808,260500,256694,259907,NA,Sternberg Task,24,22705,28,yes,1024
86.20689655,86.20689655,801.3793103,801.3793103,black,experiment,legacy,legacy,legacy,0,uniform,1,1,undefined,left,28,28,0,28,28,0,0,28,28,0,0,28,28,28,0,10/27/19 8:15,The main experiment item,yes,SternbergTask.osexp,C:\Users\hosan\Desktop,no,mono,no,18,no,white,no,yes,768,legacy,16,11,C:/Users/hosan/Desktop/Tb-subject-2.csv,legacy,4 1 8 7 5,Kafkaesque Koffka,3.2.8,3,y,0,left,left,right,right,NA,535,535,60597,16220,NA,2,legacy,5,1024,2,48000,-16,experiment,2,even,8,263899,265906,65729,260556,261685,5122,163029,261688,199096,5130,146808,266442,262694,265905,NA,Sternberg Task,25,23240,29,yes,1024
86.66666667,86.66666667,798.1333333,798.1333333,black,experiment,legacy,legacy,legacy,0,uniform,1,1,undefined,right,29,29,0,29,29,0,0,29,29,0,0,29,29,29,0,10/27/19 8:15,The main experiment item,yes,SternbergTask.osexp,C:\Users\hosan\Desktop,no,mono,no,18,no,white,no,yes,768,legacy,17,11,C:/Users/hosan/Desktop/Tb-subject-2.csv,legacy,1 4 9 2 5,Kafkaesque Koffka,3.2.8,0,n,0,right,right,right,right,NA,704,704,60597,16220,NA,2,legacy,5,1024,2,48000,-16,experiment,2,even,7,269902,271909,65729,266497,267688,5122,163029,267691,199096,5130,146808,272614,268696,271908,NA,Sternberg Task,26,23944,30,yes,1024
87.09677419,87.09677419,796.9032258,796.9032258,black,experiment,legacy,legacy,legacy,0,uniform,1,1,undefined,left,30,30,0,30,30,0,0,30,30,0,0,30,30,30,0,10/27/19 8:15,The main experiment item,yes,SternbergTask.osexp,C:\Users\hosan\Desktop,no,mono,no,18,no,white,no,yes,768,legacy,18,11,C:/Users/hosan/Desktop/Tb-subject-2.csv,legacy,6 7 8 5,Kafkaesque Koffka,3.2.8,3,y,0,left,left,right,right,NA,760,760,60597,16220,NA,2,legacy,4,1024,2,48000,-16,experiment,2,even,8,276029,278036,65729,272674,273816,5122,163029,273818,199096,5130,146808,278797,274824,278035,NA,Sternberg Task,27,24704,31,yes,1024
87.5,87.5,788.46875,788.46875,black,experiment,legacy,legacy,legacy,0,uniform,1,1,undefined,left,31,31,0,31,31,0,0,31,31,0,0,31,31,31,0,10/27/19 8:15,The main experiment item,yes,SternbergTask.osexp,C:\Users\hosan\Desktop,no,mono,no,18,no,white,no,yes,768,legacy,19,11,C:/Users/hosan/Desktop/Tb-subject-2.csv,legacy,4 6 5 8,Kafkaesque Koffka,3.2.8,1,y,0,left,left,right,right,NA,527,527,60597,16220,NA,2,legacy,4,1024,2,48000,-16,experiment,2,even,4,282229,284235,65729,278851,280014,5122,163029,280017,199096,5130,146808,284763,281023,284235,NA,Sternberg Task,28,25231,32,yes,1024
87.87878788,87.87878788,799.3030303,799.3030303,black,experiment,legacy,legacy,legacy,0,uniform,1,1,undefined,left,32,32,0,32,32,0,0,32,32,0,0,32,32,32,0,10/27/19 8:15,The main experiment item,yes,SternbergTask.osexp,C:\Users\hosan\Desktop,no,mono,no,18,no,white,no,yes,768,legacy,20,11,C:/Users/hosan/Desktop/Tb-subject-2.csv,legacy,4 3 2 5 8,Kafkaesque Koffka,3.2.8,2,y,0,left,left,right,right,NA,1146,1146,60597,16220,NA,2,legacy,5,1024,2,48000,-16,experiment,2,even,3,288195,290202,65729,284818,285984,5122,163029,285987,199096,5130,146808,291349,286990,290202,NA,Sternberg Task,29,26377,33,yes,1024
88.23529412,88.23529412,792.6470588,792.6470588,black,experiment,legacy,legacy,legacy,0,uniform,1,1,undefined,left,33,33,0,33,33,0,0,33,33,0,0,33,33,33,0,10/27/19 8:15,The main experiment item,yes,SternbergTask.osexp,C:\Users\hosan\Desktop,no,mono,no,18,no,white,no,yes,768,legacy,21,11,C:/Users/hosan/Desktop/Tb-subject-2.csv,legacy,6 5,Kafkaesque Koffka,3.2.8,2,y,0,left,left,right,right,NA,573,573,60597,16220,NA,2,legacy,2,1024,2,48000,-16,experiment,2,even,5,294762,296769,65729,291415,292548,5122,163029,292550,199096,5130,146808,297343,293556,296769,NA,Sternberg Task,30,26950,34,yes,1024
88.57142857,88.57142857,787.1142857,787.1142857,black,experiment,legacy,legacy,legacy,0,uniform,1,1,undefined,right,34,34,0,34,34,0,0,34,34,0,0,34,34,34,0,10/27/19 8:15,The main experiment item,yes,SternbergTask.osexp,C:\Users\hosan\Desktop,no,mono,no,18,no,white,no,yes,768,legacy,22,11,C:/Users/hosan/Desktop/Tb-subject-2.csv,legacy,8 2 1 4 5 9,Kafkaesque Koffka,3.2.8,0,n,0,right,right,right,right,NA,599,599,60597,16220,NA,2,legacy,6,1024,2,48000,-16,experiment,2,even,7,300729,302736,65729,297372,298516,5122,163029,298518,199096,5130,146808,303336,299524,302735,NA,Sternberg Task,31,27549,35,yes,1024
88.88888889,88.88888889,783.6111111,783.6111111,black,experiment,legacy,legacy,legacy,0,uniform,1,1,undefined,right,35,35,0,35,35,0,0,35,35,0,0,35,35,35,0,10/27/19 8:15,The main experiment item,yes,SternbergTask.osexp,C:\Users\hosan\Desktop,no,mono,no,18,no,white,no,yes,768,legacy,23,11,C:/Users/hosan/Desktop/Tb-subject-2.csv,legacy,4 1,Kafkaesque Koffka,3.2.8,0,n,0,right,right,right,right,NA,661,661,60597,16220,NA,2,legacy,2,1024,2,48000,-16,experiment,2,even,6,306777,308783,65729,303411,304564,5122,163029,304566,199096,5130,146808,309445,305572,308783,NA,Sternberg Task,32,28210,36,yes,1024
89.18918919,89.18918919,781.4594595,781.4594595,black,experiment,legacy,legacy,legacy,0,uniform,1,1,undefined,right,36,36,0,36,36,0,0,36,36,0,0,36,36,36,0,10/27/19 8:15,The main experiment item,yes,SternbergTask.osexp,C:\Users\hosan\Desktop,no,mono,no,18,no,white,no,yes,768,legacy,24,11,C:/Users/hosan/Desktop/Tb-subject-2.csv,legacy,6 8,Kafkaesque Koffka,3.2.8,0,n,0,right,right,right,right,NA,704,704,60597,16220,NA,2,legacy,2,1024,2,48000,-16,experiment,2,even,9,312858,314862,65729,309507,310645,5122,163029,310647,199096,5130,146808,315567,311653,314862,NA,Sternberg Task,33,28914,37,yes,1024
89.47368421,89.47368421,782.3947368,782.3947368,black,experiment,legacy,legacy,legacy,0,uniform,1,1,undefined,right,37,37,0,37,37,0,0,37,37,0,0,37,37,37,0,10/27/19 8:15,The main experiment item,yes,SternbergTask.osexp,C:\Users\hosan\Desktop,no,mono,no,18,no,white,no,yes,768,legacy,25,11,C:/Users/hosan/Desktop/Tb-subject-2.csv,legacy,6 9 7 3 8 2,Kafkaesque Koffka,3.2.8,0,n,0,right,right,right,right,NA,817,817,60597,16220,NA,2,legacy,6,1024,2,48000,-16,experiment,2,even,5,319002,321008,65729,315650,316788,5122,163029,316790,199096,5130,146808,321826,317795,321008,NA,Sternberg Task,34,29731,38,yes,1024
89.74358974,89.74358974,781.7692308,781.7692308,black,experiment,legacy,legacy,legacy,0,uniform,1,1,undefined,right,38,38,0,38,38,0,0,38,38,0,0,38,38,38,0,10/27/19 8:15,The main experiment item,yes,SternbergTask.osexp,C:\Users\hosan\Desktop,no,mono,no,18,no,white,no,yes,768,legacy,26,11,C:/Users/hosan/Desktop/Tb-subject-2.csv,legacy,9 5 3 2 8 6,Kafkaesque Koffka,3.2.8,0,n,0,right,right,right,right,NA,758,758,60597,16220,NA,2,legacy,6,1024,2,48000,-16,experiment,2,even,7,325257,327262,65729,321897,323046,5122,163029,323048,199096,5130,146808,328022,324054,327262,NA,Sternberg Task,35,30489,39,yes,1024
90,90,783.2,783.2,black,experiment,legacy,legacy,legacy,0,uniform,1,1,undefined,right,39,39,0,39,39,0,0,39,39,0,0,39,39,39,0,10/27/19 8:15,The main experiment item,yes,SternbergTask.osexp,C:\Users\hosan\Desktop,no,mono,no,18,no,white,no,yes,768,legacy,27,11,C:/Users/hosan/Desktop/Tb-subject-2.csv,legacy,2 8 9 4 1,Kafkaesque Koffka,3.2.8,0,n,0,right,right,right,right,NA,839,839,60597,16220,NA,2,legacy,5,1024,2,48000,-16,experiment,2,even,5,331467,333474,65729,328082,329253,5122,163029,329256,199096,5130,146808,334314,330261,333473,NA,Sternberg Task,36,31328,40,yes,1024
87.80487805,87.80487805,801.7804878,801.7804878,black,experiment,legacy,legacy,legacy,0,uniform,0,0,undefined,left,40,40,0,40,40,0,0,40,40,0,0,40,40,40,0,10/27/19 8:15,The main experiment item,yes,SternbergTask.osexp,C:\Users\hosan\Desktop,no,mono,no,18,no,white,no,yes,768,legacy,28,11,C:/Users/hosan/Desktop/Tb-subject-2.csv,legacy,1 4 9 3 2 5,Kafkaesque Koffka,3.2.8,3,y,0,right,right,right,right,NA,1545,1545,60597,16220,NA,2,legacy,6,1024,2,48000,-16,experiment,2,even,9,337722,339729,65729,334381,335508,5122,163029,335511,199096,5130,146808,341275,336517,339728,NA,Sternberg Task,36,32873,41,yes,1024
88.0952381,88.0952381,799.0714286,799.0714286,black,experiment,legacy,legacy,legacy,0,uniform,1,1,undefined,left,41,41,0,41,41,0,0,41,41,0,0,41,41,41,0,10/27/19 8:15,The main experiment item,yes,SternbergTask.osexp,C:\Users\hosan\Desktop,no,mono,no,18,no,white,no,yes,768,legacy,29,11,C:/Users/hosan/Desktop/Tb-subject-2.csv,legacy,7 8 4 6 9 5,Kafkaesque Koffka,3.2.8,4,y,0,left,left,right,right,NA,688,688,60597,16220,NA,2,legacy,6,1024,2,48000,-16,experiment,2,even,6,344660,346665,65729,334381,342450,5122,163029,342452,341331,5130,146808,347355,343456,346665,NA,Sternberg Task,37,33561,42,yes,1024
88.37209302,88.37209302,797.2093023,797.2093023,black,experiment,legacy,legacy,legacy,0,uniform,1,1,undefined,right,42,42,0,42,42,0,0,42,42,0,0,42,42,42,0,10/27/19 8:15,The main experiment item,yes,SternbergTask.osexp,C:\Users\hosan\Desktop,no,mono,no,18,no,white,no,yes,768,legacy,30,11,C:/Users/hosan/Desktop/Tb-subject-2.csv,legacy,6 9 4 5 2,Kafkaesque Koffka,3.2.8,0,n,0,right,right,right,right,NA,719,719,60597,16220,NA,2,legacy,5,1024,2,48000,-16,experiment,2,even,1,350737,352743,65729,347376,348523,5122,163029,348526,341331,5130,146808,353463,349532,352743,NA,Sternberg Task,38,34280,43,yes,1024
88.63636364,88.63636364,799.8181818,799.8181818,black,experiment,legacy,legacy,legacy,0,uniform,1,1,undefined,left,43,43,0,43,43,0,0,43,43,0,0,43,43,43,0,10/27/19 8:15,The main experiment item,yes,SternbergTask.osexp,C:\Users\hosan\Desktop,no,mono,no,18,no,white,no,yes,768,legacy,31,11,C:/Users/hosan/Desktop/Tb-subject-2.csv,legacy,3 4 9 6 2 9,Kafkaesque Koffka,3.2.8,5,y,0,left,left,right,right,NA,912,912,60597,16220,NA,2,legacy,6,1024,2,48000,-16,experiment,2,even,2,356885,358891,65729,353533,354670,5122,163029,354673,341331,5130,146808,359804,355679,358890,NA,Sternberg Task,39,35192,44,yes,1024
88.88888889,88.88888889,798.9111111,798.9111111,black,experiment,legacy,legacy,legacy,0,uniform,1,1,undefined,left,44,44,0,44,44,0,0,44,44,0,0,44,44,44,0,10/27/19 8:15,The main experiment item,yes,SternbergTask.osexp,C:\Users\hosan\Desktop,no,mono,no,18,no,white,no,yes,768,legacy,32,11,C:/Users/hosan/Desktop/Tb-subject-2.csv,legacy,5 2 9 6 1 7,Kafkaesque Koffka,3.2.8,3,y,0,left,left,right,right,NA,759,759,60597,16220,NA,2,legacy,6,1024,2,48000,-16,experiment,2,even,9,363238,365243,65729,359862,361024,5122,163029,361027,341331,5130,146808,366003,362033,365243,NA,Sternberg Task,40,35951,45,yes,1024
89.13043478,89.13043478,794.2826087,794.2826087,black,experiment,legacy,legacy,legacy,0,uniform,1,1,undefined,left,45,45,0,45,45,0,0,45,45,0,0,45,45,45,0,10/27/19 8:15,The main experiment item,yes,SternbergTask.osexp,C:\Users\hosan\Desktop,no,mono,no,18,no,white,no,yes,768,legacy,33,11,C:/Users/hosan/Desktop/Tb-subject-2.csv,legacy,2 5 4 8 7,Kafkaesque Koffka,3.2.8,3,y,0,left,left,right,right,NA,586,586,60597,16220,NA,2,legacy,5,1024,2,48000,-16,experiment,2,even,4,369455,371460,65729,366074,367241,5122,163029,367244,341331,5130,146808,372047,368249,371460,NA,Sternberg Task,41,36537,46,yes,1024
89.36170213,89.36170213,797.0851064,797.0851064,black,experiment,legacy,legacy,legacy,0,uniform,1,1,undefined,right,46,46,0,46,46,0,0,46,46,0,0,46,46,46,0,10/27/19 8:15,The main experiment item,yes,SternbergTask.osexp,C:\Users\hosan\Desktop,no,mono,no,18,no,white,no,yes,768,legacy,34,11,C:/Users/hosan/Desktop/Tb-subject-2.csv,legacy,1 4 9 3,Kafkaesque Koffka,3.2.8,0,n,0,right,right,right,right,NA,926,926,60597,16220,NA,2,legacy,4,1024,2,48000,-16,experiment,2,even,5,375462,377468,65729,372111,373249,5122,163029,373251,341331,5130,146808,378395,374257,377468,NA,Sternberg Task,42,37463,47,yes,1024
89.58333333,89.58333333,796.9583333,796.9583333,black,experiment,legacy,legacy,legacy,0,uniform,1,1,undefined,right,47,47,0,47,47,0,0,47,47,0,0,47,47,47,0,10/27/19 8:15,The main experiment item,yes,SternbergTask.osexp,C:\Users\hosan\Desktop,no,mono,no,18,no,white,no,yes,768,legacy,35,11,C:/Users/hosan/Desktop/Tb-subject-2.csv,legacy,6 7 5 9,Kafkaesque Koffka,3.2.8,0,n,0,right,right,right,right,NA,791,791,60597,16220,NA,2,legacy,4,1024,2,48000,-16,experiment,2,even,2,381818,383824,65729,378462,379603,5122,163029,379605,341331,5130,146808,384616,380612,383824,NA,Sternberg Task,43,38254,48,yes,1024
87.75510204,87.75510204,808.8163265,808.8163265,black,experiment,legacy,legacy,legacy,0,uniform,0,0,undefined,right,48,48,0,48,48,0,0,48,48,0,0,48,48,48,0,10/27/19 8:15,The main experiment item,yes,SternbergTask.osexp,C:\Users\hosan\Desktop,no,mono,no,18,no,white,no,yes,768,legacy,36,11,C:/Users/hosan/Desktop/Tb-subject-2.csv,legacy,8 4 3 5,Kafkaesque Koffka,3.2.8,0,n,0,left,left,right,right,NA,1378,1378,60597,16220,NA,2,legacy,4,1024,2,48000,-16,experiment,2,even,6,388091,390099,65729,384686,385879,5122,163029,385882,341331,5130,146808,391478,386887,390098,NA,Sternberg Task,43,39632,49,yes,1024
88,88,809.16,809.16,black,experiment,legacy,legacy,legacy,0,uniform,1,1,undefined,right,49,49,0,49,49,0,0,49,49,0,0,49,49,49,0,10/27/19 8:15,The main experiment item,yes,SternbergTask.osexp,C:\Users\hosan\Desktop,no,mono,no,18,no,white,no,yes,768,legacy,37,11,C:/Users/hosan/Desktop/Tb-subject-2.csv,legacy,1 5 3 2 8,Kafkaesque Koffka,3.2.8,0,n,0,right,right,right,right,NA,826,826,60597,16220,NA,2,legacy,5,1024,2,48000,-16,experiment,2,even,4,394904,396910,65729,384686,392692,5122,163029,392694,391536,5130,146808,397737,393700,396910,NA,Sternberg Task,44,40458,50,yes,1024
88.23529412,88.23529412,807.3137255,807.3137255,black,experiment,legacy,legacy,legacy,0,uniform,1,1,undefined,right,50,50,0,50,50,0,0,50,50,0,0,50,50,50,0,10/27/19 8:15,The main experiment item,yes,SternbergTask.osexp,C:\Users\hosan\Desktop,no,mono,no,18,no,white,no,yes,768,legacy,38,11,C:/Users/hosan/Desktop/Tb-subject-2.csv,legacy,1 4 3 6 5,Kafkaesque Koffka,3.2.8,0,n,0,right,right,right,right,NA,715,715,60597,16220,NA,2,legacy,5,1024,2,48000,-16,experiment,2,even,8,401176,403183,65729,397800,398963,5122,163029,398965,391536,5130,146808,403898,399970,403182,NA,Sternberg Task,45,41173,51,yes,1024
88.46153846,88.46153846,808.6923077,808.6923077,black,experiment,legacy,legacy,legacy,0,uniform,1,1,undefined,right,51,51,0,51,51,0,0,51,51,0,0,51,51,51,0,10/27/19 8:15,The main experiment item,yes,SternbergTask.osexp,C:\Users\hosan\Desktop,no,mono,no,18,no,white,no,yes,768,legacy,39,11,C:/Users/hosan/Desktop/Tb-subject-2.csv,legacy,3 9 8 1 6 4,Kafkaesque Koffka,3.2.8,0,n,0,right,right,right,right,NA,879,879,60597,16220,NA,2,legacy,6,1024,2,48000,-16,experiment,2,even,7,407343,409350,65729,403955,405130,5122,163029,405132,391536,5130,146808,410230,406138,409350,NA,Sternberg Task,46,42052,52,yes,1024
88.67924528,88.67924528,812.245283,812.245283,black,experiment,legacy,legacy,legacy,0,uniform,1,1,undefined,left,52,52,0,52,52,0,0,52,52,0,0,52,52,52,0,10/27/19 8:15,The main experiment item,yes,SternbergTask.osexp,C:\Users\hosan\Desktop,no,mono,no,18,no,white,no,yes,768,legacy,40,11,C:/Users/hosan/Desktop/Tb-subject-2.csv,legacy,3 5 7 1,Kafkaesque Koffka,3.2.8,3,y,0,left,left,right,right,NA,997,997,60597,16220,NA,2,legacy,4,1024,2,48000,-16,experiment,2,even,7,413657,415664,65729,410299,411445,5122,163029,411447,391536,5130,146808,416663,412451,415663,NA,Sternberg Task,47,43049,53,yes,1024
88.88888889,88.88888889,812.7037037,812.7037037,black,experiment,legacy,legacy,legacy,0,uniform,1,1,undefined,left,53,53,0,53,53,0,0,53,53,0,0,53,53,53,0,10/27/19 8:15,The main experiment item,yes,SternbergTask.osexp,C:\Users\hosan\Desktop,no,mono,no,18,no,white,no,yes,768,legacy,41,11,C:/Users/hosan/Desktop/Tb-subject-2.csv,legacy,8 5 4 7 3 1,Kafkaesque Koffka,3.2.8,2,y,0,left,left,right,right,NA,837,837,60597,16220,NA,2,legacy,6,1024,2,48000,-16,experiment,2,even,5,420048,422054,65729,416719,417836,5122,163029,417838,391536,5130,146808,422892,418843,422054,NA,Sternberg Task,48,43886,54,yes,1024
89.09090909,89.09090909,809.2363636,809.2363636,black,experiment,legacy,legacy,legacy,0,uniform,1,1,undefined,left,54,54,0,54,54,0,0,54,54,0,0,54,54,54,0,10/27/19 8:15,The main experiment item,yes,SternbergTask.osexp,C:\Users\hosan\Desktop,no,mono,no,18,no,white,no,yes,768,legacy,42,11,C:/Users/hosan/Desktop/Tb-subject-2.csv,legacy,8 9 5 7 1 6,Kafkaesque Koffka,3.2.8,4,y,0,left,left,right,right,NA,622,622,60597,16220,NA,2,legacy,6,1024,2,48000,-16,experiment,2,even,7,426326,428333,65729,422955,424114,5122,163029,424116,391536,5130,146808,428956,425119,428333,NA,Sternberg Task,49,44508,55,yes,1024
89.28571429,89.28571429,807.4821429,807.4821429,black,experiment,legacy,legacy,legacy,0,uniform,1,1,undefined,left,55,55,0,55,55,0,0,55,55,0,0,55,55,55,0,10/27/19 8:15,The main experiment item,yes,SternbergTask.osexp,C:\Users\hosan\Desktop,no,mono,no,18,no,white,no,yes,768,legacy,43,11,C:/Users/hosan/Desktop/Tb-subject-2.csv,legacy,3 9 6 2,Kafkaesque Koffka,3.2.8,4,y,0,left,left,right,right,NA,711,711,60597,16220,NA,2,legacy,4,1024,2,48000,-16,experiment,2,even,2,432393,434399,65729,429022,430179,5122,163029,430182,391536,5130,146808,435111,431188,434399,NA,Sternberg Task,50,45219,56,yes,1024
89.47368421,89.47368421,801.9473684,801.9473684,black,experiment,legacy,legacy,legacy,0,uniform,1,1,undefined,left,56,56,0,56,56,0,0,56,56,0,0,56,56,56,0,10/27/19 8:15,The main experiment item,yes,SternbergTask.osexp,C:\Users\hosan\Desktop,no,mono,no,18,no,white,no,yes,768,legacy,44,11,C:/Users/hosan/Desktop/Tb-subject-2.csv,legacy,4 7 6 8 2 3,Kafkaesque Koffka,3.2.8,6,y,0,left,left,right,right,NA,492,492,60597,16220,NA,2,legacy,6,1024,2,48000,-16,experiment,2,even,3,438551,440558,65729,435188,436337,5122,163029,436340,391536,5130,146808,441051,437345,440557,NA,Sternberg Task,51,45711,57,yes,1024
89.65517241,89.65517241,803.4137931,803.4137931,black,experiment,legacy,legacy,legacy,0,uniform,1,1,undefined,right,57,57,0,57,57,0,0,57,57,0,0,57,57,57,0,10/27/19 8:15,The main experiment item,yes,SternbergTask.osexp,C:\Users\hosan\Desktop,no,mono,no,18,no,white,no,yes,768,legacy,45,11,C:/Users/hosan/Desktop/Tb-subject-2.csv,legacy,2 6 4 3 9,Kafkaesque Koffka,3.2.8,0,n,0,right,right,right,right,NA,887,887,60597,16220,NA,2,legacy,5,1024,2,48000,-16,experiment,2,even,1,444455,446463,65729,441117,442242,5122,163029,442244,391536,5130,146808,447351,443250,446463,NA,Sternberg Task,52,46598,58,yes,1024
89.83050847,89.83050847,805.6779661,805.6779661,black,experiment,legacy,legacy,legacy,0,uniform,1,1,undefined,right,58,58,0,58,58,0,0,58,58,0,0,58,58,58,0,10/27/19 8:15,The main experiment item,yes,SternbergTask.osexp,C:\Users\hosan\Desktop,no,mono,no,18,no,white,no,yes,768,legacy,46,11,C:/Users/hosan/Desktop/Tb-subject-2.csv,legacy,6 3 1 7 9 8,Kafkaesque Koffka,3.2.8,0,n,0,right,right,right,right,NA,937,937,60597,16220,NA,2,legacy,6,1024,2,48000,-16,experiment,2,even,4,450759,452766,65729,447416,448546,5122,163029,448548,391536,5130,146808,453705,449553,452765,NA,Sternberg Task,53,47535,59,yes,1024
90,90,807.8666667,807.8666667,black,experiment,legacy,legacy,legacy,0,uniform,1,1,undefined,left,59,59,0,59,59,0,0,59,59,0,0,59,59,59,0,10/27/19 8:15,The main experiment item,yes,SternbergTask.osexp,C:\Users\hosan\Desktop,no,mono,no,18,no,white,no,yes,768,legacy,47,11,C:/Users/hosan/Desktop/Tb-subject-2.csv,legacy,4 1 5,Kafkaesque Koffka,3.2.8,2,y,0,left,left,right,right,NA,937,937,60597,16220,NA,2,legacy,3,1024,2,48000,-16,experiment,2,even,1,457136,459140,65729,453771,454925,5122,163029,454927,391536,5130,146808,460078,455929,459140,NA,Sternberg Task,54,48472,60,yes,1024
90.16393443,90.16393443,808.1639344,808.1639344,black,experiment,legacy,legacy,legacy,0,uniform,1,1,undefined,right,60,60,0,60,60,0,0,60,60,0,0,60,60,60,0,10/27/19 8:15,The main experiment item,yes,SternbergTask.osexp,C:\Users\hosan\Desktop,no,mono,no,18,no,white,no,yes,768,legacy,48,11,C:/Users/hosan/Desktop/Tb-subject-2.csv,legacy,4 2 6 9,Kafkaesque Koffka,3.2.8,0,n,0,right,right,right,right,NA,826,826,60597,16220,NA,2,legacy,4,1024,2,48000,-16,experiment,2,even,7,463473,465480,65729,460136,461260,5122,163029,461263,391536,5130,146808,466307,462268,465479,NA,Sternberg Task,55,49298,61,yes,1024
90.32258065,90.32258065,804.9354839,804.9354839,black,experiment,legacy,legacy,legacy,0,uniform,1,1,undefined,left,61,61,0,61,61,0,0,61,61,0,0,61,61,61,0,10/27/19 8:15,The main experiment item,yes,SternbergTask.osexp,C:\Users\hosan\Desktop,no,mono,no,18,no,white,no,yes,768,legacy,49,11,C:/Users/hosan/Desktop/Tb-subject-2.csv,legacy,9 1 6 7 8,Kafkaesque Koffka,3.2.8,1,y,0,left,left,right,right,NA,608,608,60597,16220,NA,2,legacy,5,1024,2,48000,-16,experiment,2,even,9,469732,471739,65729,466371,467518,5122,163029,467521,391536,5130,146808,472348,468527,471738,NA,Sternberg Task,56,49906,62,yes,1024
90.47619048,90.47619048,800.8095238,800.8095238,black,experiment,legacy,legacy,legacy,0,uniform,1,1,undefined,left,62,62,0,62,62,0,0,62,62,0,0,62,62,62,0,10/27/19 8:15,The main experiment item,yes,SternbergTask.osexp,C:\Users\hosan\Desktop,no,mono,no,18,no,white,no,yes,768,legacy,50,11,C:/Users/hosan/Desktop/Tb-subject-2.csv,legacy,8 3,Kafkaesque Koffka,3.2.8,2,y,0,left,left,right,right,NA,545,545,60597,16220,NA,2,legacy,2,1024,2,48000,-16,experiment,2,even,3,475783,477789,65729,472415,473569,5122,163029,473571,391536,5130,146808,478335,474577,477789,NA,Sternberg Task,57,50451,63,yes,1024
90.625,90.625,800.078125,800.078125,black,experiment,legacy,legacy,legacy,0,uniform,1,1,undefined,right,63,63,0,63,63,0,0,63,63,0,0,63,63,63,0,10/27/19 8:15,The main experiment item,yes,SternbergTask.osexp,C:\Users\hosan\Desktop,no,mono,no,18,no,white,no,yes,768,legacy,51,11,C:/Users/hosan/Desktop/Tb-subject-2.csv,legacy,1 8 7,Kafkaesque Koffka,3.2.8,0,n,0,right,right,right,right,NA,754,754,60597,16220,NA,2,legacy,3,1024,2,48000,-16,experiment,2,even,4,481841,483847,65729,478392,479629,5122,163029,479631,391536,5130,146808,484603,480636,483847,NA,Sternberg Task,58,51205,64,yes,1024
89.23076923,89.23076923,818.5538462,818.5538462,black,experiment,legacy,legacy,legacy,0,uniform,0,0,undefined,right,64,64,0,64,64,0,0,64,64,0,0,64,64,64,0,10/27/19 8:15,The main experiment item,yes,SternbergTask.osexp,C:\Users\hosan\Desktop,no,mono,no,18,no,white,no,yes,768,legacy,52,11,C:/Users/hosan/Desktop/Tb-subject-2.csv,legacy,2 7 5,Kafkaesque Koffka,3.2.8,0,n,0,None,None,right,right,NA,2001,2001,60597,16220,NA,2,legacy,3,1024,2,48000,-16,experiment,2,even,8,487998,490004,65729,484655,485784,5122,163029,485786,391536,5130,146808,492006,486793,490004,NA,Sternberg Task,58,53206,65,yes,1024
89.39393939,89.39393939,814.5606061,814.5606061,black,experiment,legacy,legacy,legacy,0,uniform,1,1,undefined,right,65,65,0,65,65,0,0,65,65,0,0,65,65,65,0,10/27/19 8:15,The main experiment item,yes,SternbergTask.osexp,C:\Users\hosan\Desktop,no,mono,no,18,no,white,no,yes,768,legacy,53,11,C:/Users/hosan/Desktop/Tb-subject-2.csv,legacy,9,Kafkaesque Koffka,3.2.8,0,n,0,right,right,right,right,NA,555,555,60597,16220,NA,2,legacy,1,1024,2,48000,-16,experiment,2,even,6,495442,497446,65729,484655,493229,5122,163029,493231,492076,5130,146808,498002,494237,497446,NA,Sternberg Task,59,53761,66,yes,1024
89.55223881,89.55223881,815.8208955,815.8208955,black,experiment,legacy,legacy,legacy,0,uniform,1,1,undefined,right,66,66,0,66,66,0,0,66,66,0,0,66,66,66,0,10/27/19 8:15,The main experiment item,yes,SternbergTask.osexp,C:\Users\hosan\Desktop,no,mono,no,18,no,white,no,yes,768,legacy,54,11,C:/Users/hosan/Desktop/Tb-subject-2.csv,legacy,8 4 3 9,Kafkaesque Koffka,3.2.8,0,n,0,right,right,right,right,NA,899,899,60597,16220,NA,2,legacy,4,1024,2,48000,-16,experiment,2,even,5,501406,503412,65729,498065,499193,5122,163029,499195,492076,5130,146808,504312,500201,503411,NA,Sternberg Task,60,54660,67,yes,1024
89.70588235,89.70588235,815.75,815.75,black,experiment,legacy,legacy,legacy,0,uniform,1,1,undefined,left,67,67,0,67,67,0,0,67,67,0,0,67,67,67,0,10/27/19 8:15,The main experiment item,yes,SternbergTask.osexp,C:\Users\hosan\Desktop,no,mono,no,18,no,white,no,yes,768,legacy,55,11,C:/Users/hosan/Desktop/Tb-subject-2.csv,legacy,8 7 3,Kafkaesque Koffka,3.2.8,1,y,0,left,left,right,right,NA,811,811,60597,16220,NA,2,legacy,3,1024,2,48000,-16,experiment,2,even,8,507723,509729,65729,504376,505509,5122,163029,505512,492076,5130,146808,510541,506517,509729,NA,Sternberg Task,61,55471,68,yes,1024
89.85507246,89.85507246,817.8695652,817.8695652,black,experiment,legacy,legacy,legacy,0,uniform,1,1,undefined,right,68,68,0,68,68,0,0,68,68,0,0,68,68,68,0,10/27/19 8:15,The main experiment item,yes,SternbergTask.osexp,C:\Users\hosan\Desktop,no,mono,no,18,no,white,no,yes,768,legacy,56,11,C:/Users/hosan/Desktop/Tb-subject-2.csv,legacy,4 8 1 2,Kafkaesque Koffka,3.2.8,0,n,0,right,right,right,right,NA,962,962,60597,16220,NA,2,legacy,4,1024,2,48000,-16,experiment,2,even,7,513969,515975,65729,510604,511755,5122,163029,511758,492076,5130,146808,516939,512763,515974,NA,Sternberg Task,62,56433,69,yes,1024
90,90,816.7571429,816.7571429,black,experiment,legacy,legacy,legacy,0,uniform,1,1,undefined,right,69,69,0,69,69,0,0,69,69,0,0,69,69,69,0,10/27/19 8:15,The main experiment item,yes,SternbergTask.osexp,C:\Users\hosan\Desktop,no,mono,no,18,no,white,no,yes,768,legacy,57,11,C:/Users/hosan/Desktop/Tb-subject-2.csv,legacy,3 4 9 6 7 8,Kafkaesque Koffka,3.2.8,0,n,0,right,right,right,right,NA,740,740,60597,16220,NA,2,legacy,6,1024,2,48000,-16,experiment,2,even,2,520348,522354,65729,517008,518135,5122,163029,518138,492076,5130,146808,523096,519143,522354,NA,Sternberg Task,63,57173,70,yes,1024
88.73239437,88.73239437,816.5774648,816.5774648,black,experiment,legacy,legacy,legacy,0,uniform,0,0,undefined,left,70,70,0,70,70,0,0,70,70,0,0,70,70,70,0,10/27/19 8:15,The main experiment item,yes,SternbergTask.osexp,C:\Users\hosan\Desktop,no,mono,no,18,no,white,no,yes,768,legacy,58,11,C:/Users/hosan/Desktop/Tb-subject-2.csv,legacy,2 8 5 1,Kafkaesque Koffka,3.2.8,4,y,0,right,right,right,right,NA,804,804,60597,16220,NA,2,legacy,4,1024,2,48000,-16,experiment,2,even,1,526511,528518,65729,523163,524295,5122,163029,524297,492076,5130,146808,529324,525304,528518,NA,Sternberg Task,63,57977,71,yes,1024
88.88888889,88.88888889,814.6527778,814.6527778,black,experiment,legacy,legacy,legacy,0,uniform,1,1,undefined,right,71,71,0,71,71,0,0,71,71,0,0,71,71,71,0,10/27/19 8:15,The main experiment item,yes,SternbergTask.osexp,C:\Users\hosan\Desktop,no,mono,no,18,no,white,no,yes,768,legacy,59,11,C:/Users/hosan/Desktop/Tb-subject-2.csv,legacy,1 6 4,Kafkaesque Koffka,3.2.8,0,n,0,right,right,right,right,NA,678,678,60597,16220,NA,2,legacy,3,1024,2,48000,-16,experiment,2,even,7,532789,534795,65729,523163,530579,5122,163029,530581,529393,5130,146808,535474,531586,534795,NA,Sternberg Task,64,58655,72,yes,1024
89.04109589,89.04109589,814.2054795,814.2054795,black,experiment,legacy,legacy,legacy,0,uniform,1,1,undefined,right,72,72,0,72,72,0,0,72,72,0,0,72,72,72,0,10/27/19 8:15,The main experiment item,yes,SternbergTask.osexp,C:\Users\hosan\Desktop,no,mono,no,18,no,white,no,yes,768,legacy,60,11,C:/Users/hosan/Desktop/Tb-subject-2.csv,legacy,5 3 2 6 9 8,Kafkaesque Koffka,3.2.8,0,n,0,right,right,right,right,NA,782,782,60597,16220,NA,2,legacy,6,1024,2,48000,-16,experiment,2,even,4,538889,540896,65729,535546,536676,5122,163029,536678,529393,5130,146808,541679,537684,540896,NA,Sternberg Task,65,59437,73,yes,1024
89.18918919,89.18918919,825.1081081,825.1081081,black,experiment,legacy,legacy,legacy,0,uniform,1,1,undefined,left,73,73,0,73,73,0,0,73,73,0,0,73,73,73,0,10/27/19 8:15,The main experiment item,yes,SternbergTask.osexp,C:\Users\hosan\Desktop,no,mono,no,18,no,white,no,yes,768,legacy,61,11,C:/Users/hosan/Desktop/Tb-subject-2.csv,legacy,4 9 7 8 5 3,Kafkaesque Koffka,3.2.8,4,y,0,left,left,right,right,NA,1621,1621,60597,16220,NA,2,legacy,6,1024,2,48000,-16,experiment,2,even,8,545103,547110,65729,541737,542888,5122,163029,542891,529393,5130,146808,548732,543897,547110,NA,Sternberg Task,66,61058,74,yes,1024
89.33333333,89.33333333,823.16,823.16,black,experiment,legacy,legacy,legacy,0,uniform,1,1,undefined,right,74,74,0,74,74,0,0,74,74,0,0,74,74,74,0,10/27/19 8:15,The main experiment item,yes,SternbergTask.osexp,C:\Users\hosan\Desktop,no,mono,no,18,no,white,no,yes,768,legacy,62,11,C:/Users/hosan/Desktop/Tb-subject-2.csv,legacy,5 3 8 7 2 4,Kafkaesque Koffka,3.2.8,0,n,0,right,right,right,right,NA,679,679,60597,16220,NA,2,legacy,6,1024,2,48000,-16,experiment,2,even,9,552134,554140,65729,548799,549923,5122,163029,549925,529393,5130,146808,554821,550931,554139,NA,Sternberg Task,67,61737,75,yes,1024
89.47368421,89.47368421,821.4473684,821.4473684,black,experiment,legacy,legacy,legacy,0,uniform,1,1,undefined,right,75,75,0,75,75,0,0,75,75,0,0,75,75,75,0,10/27/19 8:15,The main experiment item,yes,SternbergTask.osexp,C:\Users\hosan\Desktop,no,mono,no,18,no,white,no,yes,768,legacy,63,11,C:/Users/hosan/Desktop/Tb-subject-2.csv,legacy,7 6 4 8 1 2,Kafkaesque Koffka,3.2.8,0,n,0,right,right,right,right,NA,693,693,60597,16220,NA,2,legacy,6,1024,2,48000,-16,experiment,2,even,9,558226,560233,65729,554888,556012,5122,163029,556014,529393,5130,146808,560927,557020,560232,NA,Sternberg Task,68,62430,76,yes,1024
89.61038961,89.61038961,822.5454545,822.5454545,black,experiment,legacy,legacy,legacy,0,uniform,1,1,undefined,left,76,76,0,76,76,0,0,76,76,0,0,76,76,76,0,10/27/19 8:15,The main experiment item,yes,SternbergTask.osexp,C:\Users\hosan\Desktop,no,mono,no,18,no,white,no,yes,768,legacy,64,11,C:/Users/hosan/Desktop/Tb-subject-2.csv,legacy,4 6 2 5 1,Kafkaesque Koffka,3.2.8,5,y,0,left,left,right,right,NA,906,906,60597,16220,NA,2,legacy,5,1024,2,48000,-16,experiment,2,even,1,564327,566332,65729,560989,562117,5122,163029,562120,529393,5130,146808,567239,563125,566331,NA,Sternberg Task,69,63336,77,yes,1024
89.74358974,89.74358974,824.5897436,824.5897436,black,experiment,legacy,legacy,legacy,0,uniform,1,1,undefined,left,77,77,0,77,77,0,0,77,77,0,0,77,77,77,0,10/27/19 8:15,The main experiment item,yes,SternbergTask.osexp,C:\Users\hosan\Desktop,no,mono,no,18,no,white,no,yes,768,legacy,65,11,C:/Users/hosan/Desktop/Tb-subject-2.csv,legacy,8 1 6,Kafkaesque Koffka,3.2.8,3,y,0,left,left,right,right,NA,982,982,60597,16220,NA,2,legacy,3,1024,2,48000,-16,experiment,2,even,6,570657,572663,65729,567306,568445,5122,163029,568447,529393,5130,146808,573646,569452,572662,NA,Sternberg Task,70,64318,78,yes,1024
89.87341772,89.87341772,824.6202532,824.6202532,black,experiment,legacy,legacy,legacy,0,uniform,1,1,undefined,left,78,78,0,78,78,0,0,78,78,0,0,78,78,78,0,10/27/19 8:15,The main experiment item,yes,SternbergTask.osexp,C:\Users\hosan\Desktop,no,mono,no,18,no,white,no,yes,768,legacy,66,11,C:/Users/hosan/Desktop/Tb-subject-2.csv,legacy,8,Kafkaesque Koffka,3.2.8,1,y,0,left,left,right,right,NA,827,827,60597,16220,NA,2,legacy,1,1024,2,48000,-16,experiment,2,even,8,577138,579144,65729,573720,574927,5122,163029,574930,529393,5130,146808,579972,575933,579144,NA,Sternberg Task,71,65145,79,yes,1024
90,90,825.075,825.075,black,experiment,legacy,legacy,legacy,0,uniform,1,1,undefined,left,79,79,0,79,79,0,0,79,79,0,0,79,79,79,0,10/27/19 8:15,The main experiment item,yes,SternbergTask.osexp,C:\Users\hosan\Desktop,no,mono,no,18,no,white,no,yes,768,legacy,67,11,C:/Users/hosan/Desktop/Tb-subject-2.csv,legacy,7 1 8 5 6 2,Kafkaesque Koffka,3.2.8,2,y,0,left,left,right,right,NA,861,861,60597,16220,NA,2,legacy,6,1024,2,48000,-16,experiment,2,even,1,583379,585385,65729,580042,581172,5122,163029,581175,529393,5130,146808,586247,582178,585384,NA,Sternberg Task,72,66006,80,yes,1024
90.12345679,90.12345679,821.5925926,821.5925926,black,experiment,legacy,legacy,legacy,0,uniform,1,1,undefined,left,80,80,0,80,80,0,0,80,80,0,0,80,80,80,0,10/27/19 8:15,The main experiment item,yes,SternbergTask.osexp,C:\Users\hosan\Desktop,no,mono,no,18,no,white,no,yes,768,legacy,68,11,C:/Users/hosan/Desktop/Tb-subject-2.csv,legacy,3 4,Kafkaesque Koffka,3.2.8,1,y,0,left,left,right,right,NA,543,543,60597,16220,NA,2,legacy,2,1024,2,48000,-16,experiment,2,even,3,589678,591685,65729,586307,587464,5122,163029,587466,529393,5130,146808,592229,588472,591684,NA,Sternberg Task,73,66549,81,yes,1024
90.24390244,90.24390244,820.0609756,820.0609756,black,experiment,legacy,legacy,legacy,0,uniform,1,1,undefined,right,81,81,0,81,81,0,0,81,81,0,0,81,81,81,0,10/27/19 8:15,The main experiment item,yes,SternbergTask.osexp,C:\Users\hosan\Desktop,no,mono,no,18,no,white,no,yes,768,legacy,69,11,C:/Users/hosan/Desktop/Tb-subject-2.csv,legacy,7 9 1 6,Kafkaesque Koffka,3.2.8,0,n,0,right,right,right,right,NA,696,696,60597,16220,NA,2,legacy,4,1024,2,48000,-16,experiment,2,even,4,595679,597685,65729,592303,593466,5122,163029,593468,529393,5130,146808,598383,594471,597685,NA,Sternberg Task,74,67245,82,yes,1024
90.36144578,90.36144578,821,821,black,experiment,legacy,legacy,legacy,0,uniform,1,1,undefined,left,82,82,0,82,82,0,0,82,82,0,0,82,82,82,0,10/27/19 8:15,The main experiment item,yes,SternbergTask.osexp,C:\Users\hosan\Desktop,no,mono,no,18,no,white,no,yes,768,legacy,70,11,C:/Users/hosan/Desktop/Tb-subject-2.csv,legacy,6 9 3 1,Kafkaesque Koffka,3.2.8,4,y,0,left,left,right,right,NA,898,898,60597,16220,NA,2,legacy,4,1024,2,48000,-16,experiment,2,even,1,601815,603821,65729,598448,599601,5122,163029,599603,529393,5130,146808,604722,600609,603820,NA,Sternberg Task,75,68143,83,yes,1024
90.47619048,90.47619048,820.4880952,820.4880952,black,experiment,legacy,legacy,legacy,0,uniform,1,1,undefined,right,83,83,0,83,83,0,0,83,83,0,0,83,83,83,0,10/27/19 8:15,The main experiment item,yes,SternbergTask.osexp,C:\Users\hosan\Desktop,no,mono,no,18,no,white,no,yes,768,legacy,71,11,C:/Users/hosan/Desktop/Tb-subject-2.csv,legacy,7 1 8 4 9 3,Kafkaesque Koffka,3.2.8,0,n,0,right,right,right,right,NA,778,778,60597,16220,NA,2,legacy,6,1024,2,48000,-16,experiment,2,even,6,608170,610176,65729,604794,605957,5122,163029,605959,529393,5130,146808,610955,606964,610176,NA,Sternberg Task,76,68921,84,yes,1024
90.58823529,90.58823529,818.3058824,818.3058824,black,experiment,legacy,legacy,legacy,0,uniform,1,1,undefined,left,84,84,0,84,84,0,0,84,84,0,0,84,84,84,0,10/27/19 8:15,The main experiment item,yes,SternbergTask.osexp,C:\Users\hosan\Desktop,no,mono,no,18,no,white,no,yes,768,legacy,72,11,C:/Users/hosan/Desktop/Tb-subject-2.csv,legacy,2 3,Kafkaesque Koffka,3.2.8,1,y,0,left,left,right,right,NA,635,635,60597,16220,NA,2,legacy,2,1024,2,48000,-16,experiment,2,even,2,614391,616398,65729,611022,612176,5122,163029,612179,529393,5130,146808,617035,613184,616398,NA,Sternberg Task,77,69556,85,yes,1024
90.69767442,90.69767442,816.6744186,816.6744186,black,experiment,legacy,legacy,legacy,0,uniform,1,1,undefined,left,85,85,0,85,85,0,0,85,85,0,0,85,85,85,0,10/27/19 8:15,The main experiment item,yes,SternbergTask.osexp,C:\Users\hosan\Desktop,no,mono,no,18,no,white,no,yes,768,legacy,73,11,C:/Users/hosan/Desktop/Tb-subject-2.csv,legacy,9 3 8 2 1 4,Kafkaesque Koffka,3.2.8,3,y,0,left,left,right,right,NA,678,678,60597,16220,NA,2,legacy,6,1024,2,48000,-16,experiment,2,even,8,620453,622460,65729,617066,618241,5122,163029,618244,529393,5130,146808,623139,619250,622460,NA,Sternberg Task,78,70234,86,yes,1024
90.8045977,90.8045977,814.5632184,814.5632184,black,experiment,legacy,legacy,legacy,0,uniform,1,1,undefined,right,86,86,0,86,86,0,0,86,86,0,0,86,86,86,0,10/27/19 8:15,The main experiment item,yes,SternbergTask.osexp,C:\Users\hosan\Desktop,no,mono,no,18,no,white,no,yes,768,legacy,74,11,C:/Users/hosan/Desktop/Tb-subject-2.csv,legacy,6 2 9 3 8 4,Kafkaesque Koffka,3.2.8,0,n,0,right,right,right,right,NA,633,633,60597,16220,NA,2,legacy,6,1024,2,48000,-16,experiment,2,even,1,626568,628574,65729,623199,624353,5122,163029,624355,529393,5130,146808,629208,625361,628574,NA,Sternberg Task,79,70867,87,yes,1024
90.90909091,90.90909091,813.5113636,813.5113636,black,experiment,legacy,legacy,legacy,0,uniform,1,1,undefined,right,87,87,0,87,87,0,0,87,87,0,0,87,87,87,0,10/27/19 8:15,The main experiment item,yes,SternbergTask.osexp,C:\Users\hosan\Desktop,no,mono,no,18,no,white,no,yes,768,legacy,75,11,C:/Users/hosan/Desktop/Tb-subject-2.csv,legacy,7 8 6 1,Kafkaesque Koffka,3.2.8,0,n,0,right,right,right,right,NA,722,722,60597,16220,NA,2,legacy,4,1024,2,48000,-16,experiment,2,even,3,632717,634723,65729,629277,630506,5122,163029,630509,529393,5130,146808,635446,631514,634723,NA,Sternberg Task,80,71589,88,yes,1024
91.01123596,91.01123596,815.4044944,815.4044944,black,experiment,legacy,legacy,legacy,0,uniform,1,1,undefined,right,88,88,0,88,88,0,0,88,88,0,0,88,88,88,0,10/27/19 8:15,The main experiment item,yes,SternbergTask.osexp,C:\Users\hosan\Desktop,no,mono,no,18,no,white,no,yes,768,legacy,76,11,C:/Users/hosan/Desktop/Tb-subject-2.csv,legacy,8 6 3 4 7,Kafkaesque Koffka,3.2.8,0,n,0,right,right,right,right,NA,982,982,60597,16220,NA,2,legacy,5,1024,2,48000,-16,experiment,2,even,1,638877,640884,65729,635509,636663,5122,163029,636665,529393,5130,146808,641868,637671,640883,NA,Sternberg Task,81,72571,89,yes,1024
91.11111111,91.11111111,816.2777778,816.2777778,black,experiment,legacy,legacy,legacy,0,uniform,1,1,undefined,left,89,89,0,89,89,0,0,89,89,0,0,89,89,89,0,10/27/19 8:15,The main experiment item,yes,SternbergTask.osexp,C:\Users\hosan\Desktop,no,mono,no,18,no,white,no,yes,768,legacy,77,11,C:/Users/hosan/Desktop/Tb-subject-2.csv,legacy,3 5 4 7,Kafkaesque Koffka,3.2.8,1,y,0,left,left,right,right,NA,894,894,60597,16220,NA,2,legacy,4,1024,2,48000,-16,experiment,2,even,3,645262,647270,65729,641897,643048,5122,163029,643051,529393,5130,146808,648165,644057,647270,NA,Sternberg Task,82,73465,90,yes,1024
91.20879121,91.20879121,821.4285714,821.4285714,black,experiment,legacy,legacy,legacy,0,uniform,1,1,undefined,right,90,90,0,90,90,0,0,90,90,0,0,90,90,90,0,10/27/19 8:15,The main experiment item,yes,SternbergTask.osexp,C:\Users\hosan\Desktop,no,mono,no,18,no,white,no,yes,768,legacy,78,11,C:/Users/hosan/Desktop/Tb-subject-2.csv,legacy,5 2,Kafkaesque Koffka,3.2.8,0,n,0,right,right,right,right,NA,1285,1285,60597,16220,NA,2,legacy,2,1024,2,48000,-16,experiment,2,even,7,651660,653664,65729,648255,649446,5122,163029,649448,529393,5130,146808,654951,650455,653664,NA,Sternberg Task,83,74750,91,yes,1024
91.30434783,91.30434783,820.6086957,820.6086957,black,experiment,legacy,legacy,legacy,0,uniform,1,1,undefined,left,91,91,0,91,91,0,0,91,91,0,0,91,91,91,0,10/27/19 8:15,The main experiment item,yes,SternbergTask.osexp,C:\Users\hosan\Desktop,no,mono,no,18,no,white,no,yes,768,legacy,79,11,C:/Users/hosan/Desktop/Tb-subject-2.csv,legacy,9 8 4,Kafkaesque Koffka,3.2.8,1,y,0,left,left,right,right,NA,746,746,60597,16220,NA,2,legacy,3,1024,2,48000,-16,experiment,2,even,9,658456,660462,65729,655018,656243,5122,163029,656245,529393,5130,146808,661209,657250,660462,NA,Sternberg Task,84,75496,92,yes,1024
91.39784946,91.39784946,820.6236559,820.6236559,black,experiment,legacy,legacy,legacy,0,uniform,1,1,undefined,right,92,92,0,92,92,0,0,92,92,0,0,92,92,92,0,10/27/19 8:15,The main experiment item,yes,SternbergTask.osexp,C:\Users\hosan\Desktop,no,mono,no,18,no,white,no,yes,768,legacy,80,11,C:/Users/hosan/Desktop/Tb-subject-2.csv,legacy,6 8 4,Kafkaesque Koffka,3.2.8,0,n,0,right,right,right,right,NA,822,822,60597,16220,NA,2,legacy,3,1024,2,48000,-16,experiment,2,even,1,664629,666635,65729,661270,662414,5122,163029,662417,529393,5130,146808,667458,663422,666635,NA,Sternberg Task,85,76318,93,yes,1024
91.4893617,91.4893617,820.0531915,820.0531915,black,experiment,legacy,legacy,legacy,0,uniform,1,1,undefined,right,93,93,0,93,93,0,0,93,93,0,0,93,93,93,0,10/27/19 8:15,The main experiment item,yes,SternbergTask.osexp,C:\Users\hosan\Desktop,no,mono,no,18,no,white,no,yes,768,legacy,81,11,C:/Users/hosan/Desktop/Tb-subject-2.csv,legacy,2 8 7 9 5 3,Kafkaesque Koffka,3.2.8,0,n,0,right,right,right,right,NA,767,767,60597,16220,NA,2,legacy,6,1024,2,48000,-16,experiment,2,even,6,670886,672892,65729,667513,668672,5122,163029,668674,529393,5130,146808,673661,669680,672891,NA,Sternberg Task,86,77085,94,yes,1024
91.57894737,91.57894737,817.4631579,817.4631579,black,experiment,legacy,legacy,legacy,0,uniform,1,1,undefined,left,94,94,0,94,94,0,0,94,94,0,0,94,94,94,0,10/27/19 8:15,The main experiment item,yes,SternbergTask.osexp,C:\Users\hosan\Desktop,no,mono,no,18,no,white,no,yes,768,legacy,82,11,C:/Users/hosan/Desktop/Tb-subject-2.csv,legacy,6 2,Kafkaesque Koffka,3.2.8,1,y,0,left,left,right,right,NA,574,574,60597,16220,NA,2,legacy,2,1024,2,48000,-16,experiment,2,even,6,677063,679069,65729,673725,674849,5122,163029,674852,529393,5130,146808,679644,675857,679068,NA,Sternberg Task,87,77659,95,yes,1024
91.66666667,91.66666667,817.125,817.125,black,experiment,legacy,legacy,legacy,0,uniform,1,1,undefined,left,95,95,0,95,95,0,0,95,95,0,0,95,95,95,0,10/27/19 8:15,The main experiment item,yes,SternbergTask.osexp,C:\Users\hosan\Desktop,no,mono,no,18,no,white,no,yes,768,legacy,83,11,C:/Users/hosan/Desktop/Tb-subject-2.csv,legacy,9 5 3 8 4,Kafkaesque Koffka,3.2.8,1,y,0,left,left,right,right,NA,785,785,60597,16220,NA,2,legacy,5,1024,2,48000,-16,experiment,2,even,9,683047,685053,65729,679704,680836,5122,163029,680839,529393,5130,146808,685839,681844,685052,NA,Sternberg Task,88,78444,96,yes,1024
90.72164948,90.72164948,817.8659794,817.8659794,black,experiment,legacy,legacy,legacy,0,uniform,0,0,undefined,left,96,96,0,96,96,0,0,96,96,0,0,96,96,96,0,10/27/19 8:15,The main experiment item,yes,SternbergTask.osexp,C:\Users\hosan\Desktop,no,mono,no,18,no,white,no,yes,768,legacy,84,11,C:/Users/hosan/Desktop/Tb-subject-2.csv,legacy,5 7 3 6 2,Kafkaesque Koffka,3.2.8,5,y,0,right,right,right,right,NA,889,889,60597,16220,NA,2,legacy,5,1024,2,48000,-16,experiment,2,even,2,689210,691217,65729,685868,686995,5122,163029,686998,529393,5130,146808,692107,688003,691216,NA,Sternberg Task,88,79333,97,yes,1024
90.81632653,90.81632653,815.9591837,815.9591837,black,experiment,legacy,legacy,legacy,0,uniform,1,1,undefined,left,97,97,0,97,97,0,0,97,97,0,0,97,97,97,0,10/27/19 8:15,The main experiment item,yes,SternbergTask.osexp,C:\Users\hosan\Desktop,no,mono,no,18,no,white,no,yes,768,legacy,85,11,C:/Users/hosan/Desktop/Tb-subject-2.csv,legacy,8 9 6 1,Kafkaesque Koffka,3.2.8,2,y,0,left,left,right,right,NA,631,631,60597,16220,NA,2,legacy,4,1024,2,48000,-16,experiment,2,even,9,695547,697553,65729,685868,693332,5122,163029,693335,692178,5130,146808,698187,694340,697552,NA,Sternberg Task,89,79964,98,yes,1024
90.90909091,90.90909091,813.1010101,813.1010101,black,experiment,legacy,legacy,legacy,0,uniform,1,1,undefined,left,98,98,0,98,98,0,0,98,98,0,0,98,98,98,0,10/27/19 8:15,The main experiment item,yes,SternbergTask.osexp,C:\Users\hosan\Desktop,no,mono,no,18,no,white,no,yes,768,legacy,86,11,C:/Users/hosan/Desktop/Tb-subject-2.csv,legacy,7 1 3,Kafkaesque Koffka,3.2.8,2,y,0,left,left,right,right,NA,533,533,60597,16220,NA,2,legacy,3,1024,2,48000,-16,experiment,2,even,1,701596,703602,65729,698224,699383,5122,163029,699385,692178,5130,146808,704137,700390,703601,NA,Sternberg Task,90,80497,99,yes,1024
91,91,811.75,811.75,black,experiment,legacy,legacy,legacy,0,uniform,1,1,undefined,right,99,99,0,99,99,0,0,99,99,0,0,99,99,99,0,10/27/19 8:15,The main experiment item,yes,SternbergTask.osexp,C:\Users\hosan\Desktop,no,mono,no,18,no,white,no,yes,768,legacy,87,11,C:/Users/hosan/Desktop/Tb-subject-2.csv,legacy,9 8 2 7 4,Kafkaesque Koffka,3.2.8,0,n,0,right,right,right,right,NA,678,678,60597,16220,NA,2,legacy,5,1024,2,48000,-16,experiment,2,even,5,707549,709555,65729,704203,705335,5122,163029,705337,692178,5130,146808,710234,706344,709554,NA,Sternberg Task,91,81175,100,yes,1024
91.08910891,91.08910891,808.7524752,808.7524752,black,experiment,legacy,legacy,legacy,0,uniform,1,1,undefined,left,100,100,0,100,100,0,0,100,100,0,0,100,100,100,0,10/27/19 8:15,The main experiment item,yes,SternbergTask.osexp,C:\Users\hosan\Desktop,no,mono,no,18,no,white,no,yes,768,legacy,88,11,C:/Users/hosan/Desktop/Tb-subject-2.csv,legacy,6 7 9 3 1 2,Kafkaesque Koffka,3.2.8,1,y,0,left,left,right,right,NA,509,509,60597,16220,NA,2,legacy,6,1024,2,48000,-16,experiment,2,even,6,713705,715713,65729,710303,711494,5122,163029,711496,692178,5130,146808,716223,712500,715712,NA,Sternberg Task,92,81684,101,yes,1024
91.17647059,91.17647059,806.6568627,806.6568627,black,experiment,legacy,legacy,legacy,0,uniform,1,1,undefined,right,101,101,0,101,101,0,0,101,101,0,0,101,101,101,0,10/27/19 8:15,The main experiment item,yes,SternbergTask.osexp,C:\Users\hosan\Desktop,no,mono,no,18,no,white,no,yes,768,legacy,89,11,C:/Users/hosan/Desktop/Tb-subject-2.csv,legacy,2 5 1 4,Kafkaesque Koffka,3.2.8,0,n,0,right,right,right,right,NA,595,595,60597,16220,NA,2,legacy,4,1024,2,48000,-16,experiment,2,even,6,719624,721630,65729,716291,717411,5122,163029,717414,692178,5130,146808,722227,718417,721630,NA,Sternberg Task,93,82279,102,yes,1024
91.26213592,91.26213592,803.7475728,803.7475728,black,experiment,legacy,legacy,legacy,0,uniform,1,1,undefined,left,102,102,0,102,102,0,0,102,102,0,0,102,102,102,0,10/27/19 8:15,The main experiment item,yes,SternbergTask.osexp,C:\Users\hosan\Desktop,no,mono,no,18,no,white,no,yes,768,legacy,90,11,C:/Users/hosan/Desktop/Tb-subject-2.csv,legacy,4,Kafkaesque Koffka,3.2.8,1,y,0,left,left,right,right,NA,507,507,60597,16220,NA,2,legacy,1,1024,2,48000,-16,experiment,2,even,4,725640,727646,65729,722288,723426,5122,163029,723428,692178,5130,146808,728154,724435,727646,NA,Sternberg Task,94,82786,103,yes,1024
91.34615385,91.34615385,802.1634615,802.1634615,black,experiment,legacy,legacy,legacy,0,uniform,1,1,undefined,right,103,103,0,103,103,0,0,103,103,0,0,103,103,103,0,10/27/19 8:15,The main experiment item,yes,SternbergTask.osexp,C:\Users\hosan\Desktop,no,mono,no,18,no,white,no,yes,768,legacy,91,11,C:/Users/hosan/Desktop/Tb-subject-2.csv,legacy,1 3 2 6 9,Kafkaesque Koffka,3.2.8,0,n,0,right,right,right,right,NA,639,639,60597,16220,NA,2,legacy,5,1024,2,48000,-16,experiment,2,even,5,731608,733615,65729,728214,729395,5122,163029,729397,692178,5130,146808,734255,730403,733614,NA,Sternberg Task,95,83425,104,yes,1024
91.42857143,91.42857143,802.352381,802.352381,black,experiment,legacy,legacy,legacy,0,uniform,1,1,undefined,left,104,104,0,104,104,0,0,104,104,0,0,104,104,104,0,10/27/19 8:15,The main experiment item,yes,SternbergTask.osexp,C:\Users\hosan\Desktop,no,mono,no,18,no,white,no,yes,768,legacy,92,11,C:/Users/hosan/Desktop/Tb-subject-2.csv,legacy,3 2 1 4 7,Kafkaesque Koffka,3.2.8,2,y,0,left,left,right,right,NA,822,822,60597,16220,NA,2,legacy,5,1024,2,48000,-16,experiment,2,even,2,737625,739633,65729,734277,735410,5122,163029,735412,692178,5130,146808,740457,736418,739632,NA,Sternberg Task,96,84247,105,yes,1024
91.50943396,91.50943396,800.7264151,800.7264151,black,experiment,legacy,legacy,legacy,0,uniform,1,1,undefined,right,105,105,0,105,105,0,0,105,105,0,0,105,105,105,0,10/27/19 8:15,The main experiment item,yes,SternbergTask.osexp,C:\Users\hosan\Desktop,no,mono,no,18,no,white,no,yes,768,legacy,93,11,C:/Users/hosan/Desktop/Tb-subject-2.csv,legacy,8 9,Kafkaesque Koffka,3.2.8,0,n,0,right,right,right,right,NA,630,630,60597,16220,NA,2,legacy,2,1024,2,48000,-16,experiment,2,even,5,743880,745887,65729,740525,741665,5122,163029,741668,692178,5130,146808,746519,742674,745887,NA,Sternberg Task,97,84877,106,yes,1024
91.58878505,91.58878505,799.9065421,799.9065421,black,experiment,legacy,legacy,legacy,0,uniform,1,1,undefined,right,106,106,0,106,106,0,0,106,106,0,0,106,106,106,0,10/27/19 8:15,The main experiment item,yes,SternbergTask.osexp,C:\Users\hosan\Desktop,no,mono,no,18,no,white,no,yes,768,legacy,94,11,C:/Users/hosan/Desktop/Tb-subject-2.csv,legacy,5,Kafkaesque Koffka,3.2.8,0,n,0,right,right,right,right,NA,713,713,60597,16220,NA,2,legacy,1,1024,2,48000,-16,experiment,2,even,8,749906,751909,65729,746543,747692,5122,163029,747694,692178,5130,146808,752623,748700,751909,NA,Sternberg Task,98,85590,107,yes,1024
91.66666667,91.66666667,801.9074074,801.9074074,black,experiment,legacy,legacy,legacy,0,uniform,1,1,undefined,right,107,107,0,107,107,0,0,107,107,0,0,107,107,107,0,10/27/19 8:15,The main experiment item,yes,SternbergTask.osexp,C:\Users\hosan\Desktop,no,mono,no,18,no,white,no,yes,768,legacy,95,11,C:/Users/hosan/Desktop/Tb-subject-2.csv,legacy,1,Kafkaesque Koffka,3.2.8,0,n,0,right,right,right,right,NA,1016,1016,60597,16220,NA,2,legacy,1,1024,2,48000,-16,experiment,2,even,7,756039,758045,65729,752687,753824,5122,163029,753827,692178,5130,146808,759062,754833,758044,NA,Sternberg Task,99,86606,108,yes,1024
91.74311927,91.74311927,803.9541284,803.9541284,black,experiment,legacy,legacy,legacy,0,uniform,1,1,undefined,left,108,108,0,108,108,0,0,108,108,0,0,108,108,108,0,10/27/19 8:15,The main experiment item,yes,SternbergTask.osexp,C:\Users\hosan\Desktop,no,mono,no,18,no,white,no,yes,768,legacy,96,11,C:/Users/hosan/Desktop/Tb-subject-2.csv,legacy,5 7 8 2 3 8,Kafkaesque Koffka,3.2.8,5,y,0,left,left,right,right,NA,1025,1025,60597,16220,NA,2,legacy,6,1024,2,48000,-16,experiment,2,even,3,762465,764471,65729,759121,760250,5122,163029,760253,692178,5130,146808,765498,761259,764471,NA,Sternberg Task,100,87631,109,yes,1024
91.81818182,91.81818182,803.2272727,803.2272727,black,experiment,legacy,legacy,legacy,0,uniform,1,1,undefined,left,109,109,0,109,109,0,0,109,109,0,0,109,109,109,0,10/27/19 8:15,The main experiment item,yes,SternbergTask.osexp,C:\Users\hosan\Desktop,no,mono,no,18,no,white,no,yes,768,legacy,97,11,C:/Users/hosan/Desktop/Tb-subject-2.csv,legacy,7 2 3,Kafkaesque Koffka,3.2.8,3,y,0,left,left,right,right,NA,724,724,60597,16220,NA,2,legacy,3,1024,2,48000,-16,experiment,2,even,3,768913,770918,65729,765561,766698,5122,163029,766701,692178,5130,146808,771643,767707,770918,NA,Sternberg Task,101,88355,110,yes,1024
91.89189189,91.89189189,802.4054054,802.4054054,black,experiment,legacy,legacy,legacy,0,uniform,1,1,undefined,left,110,110,0,110,110,0,0,110,110,0,0,110,110,110,0,10/27/19 8:15,The main experiment item,yes,SternbergTask.osexp,C:\Users\hosan\Desktop,no,mono,no,18,no,white,no,yes,768,legacy,98,11,C:/Users/hosan/Desktop/Tb-subject-2.csv,legacy,3 9 7 6 4,Kafkaesque Koffka,3.2.8,3,y,0,left,left,right,right,NA,712,712,60597,16220,NA,2,legacy,5,1024,2,48000,-16,experiment,2,even,7,775053,777060,65729,771705,772840,5122,163029,772843,692178,5130,146808,777774,773848,777059,NA,Sternberg Task,102,89067,111,yes,1024
91.96428571,91.96428571,806.9285714,806.9285714,black,experiment,legacy,legacy,legacy,0,uniform,1,1,undefined,right,111,111,0,111,111,0,0,111,111,0,0,111,111,111,0,10/27/19 8:15,The main experiment item,yes,SternbergTask.osexp,C:\Users\hosan\Desktop,no,mono,no,18,no,white,no,yes,768,legacy,99,11,C:/Users/hosan/Desktop/Tb-subject-2.csv,legacy,3 9 1,Kafkaesque Koffka,3.2.8,0,n,0,right,right,right,right,NA,1309,1309,60597,16220,NA,2,legacy,3,1024,2,48000,-16,experiment,2,even,7,781215,783218,65729,777840,779001,5122,163029,779003,692178,5130,146808,784528,780009,783218,NA,Sternberg Task,103,90376,112,yes,1024
92.03539823,92.03539823,811.4247788,811.4247788,black,experiment,legacy,legacy,legacy,0,uniform,1,1,undefined,right,112,112,0,112,112,0,0,112,112,0,0,112,112,112,0,10/27/19 8:15,The main experiment item,yes,SternbergTask.osexp,C:\Users\hosan\Desktop,no,mono,no,18,no,white,no,yes,768,legacy,100,11,C:/Users/hosan/Desktop/Tb-subject-2.csv,legacy,3 4 2,Kafkaesque Koffka,3.2.8,0,n,0,right,right,right,right,NA,1315,1315,60597,16220,NA,2,legacy,3,1024,2,48000,-16,experiment,2,even,5,787934,789941,65729,784591,785721,5122,163029,785723,692178,5130,146808,791258,786728,789941,NA,Sternberg Task,104,91691,113,yes,1024
92.10526316,92.10526316,809.3421053,809.3421053,black,experiment,legacy,legacy,legacy,0,uniform,1,1,undefined,left,113,113,0,113,113,0,0,113,113,0,0,113,113,113,0,10/27/19 8:15,The main experiment item,yes,SternbergTask.osexp,C:\Users\hosan\Desktop,no,mono,no,18,no,white,no,yes,768,legacy,101,11,C:/Users/hosan/Desktop/Tb-subject-2.csv,legacy,6 1 2,Kafkaesque Koffka,3.2.8,3,y,0,left,left,right,right,NA,574,574,60597,16220,NA,2,legacy,3,1024,2,48000,-16,experiment,2,even,2,794657,796662,65729,791312,792447,5122,163029,792449,692178,5130,146808,797237,793452,796662,NA,Sternberg Task,105,92265,114,yes,1024
92.17391304,92.17391304,807.2347826,807.2347826,black,experiment,legacy,legacy,legacy,0,uniform,1,1,undefined,left,114,114,0,114,114,0,0,114,114,0,0,114,114,114,0,10/27/19 8:15,The main experiment item,yes,SternbergTask.osexp,C:\Users\hosan\Desktop,no,mono,no,18,no,white,no,yes,768,legacy,102,11,C:/Users/hosan/Desktop/Tb-subject-2.csv,legacy,2 4 6 9,Kafkaesque Koffka,3.2.8,3,y,0,left,left,right,right,NA,567,567,60597,16220,NA,2,legacy,4,1024,2,48000,-16,experiment,2,even,6,800667,802674,65729,797314,798453,5122,163029,798455,692178,5130,146808,803242,799461,802673,NA,Sternberg Task,106,92832,115,yes,1024
91.37931034,91.37931034,807.0689655,807.0689655,black,experiment,legacy,legacy,legacy,0,uniform,0,0,undefined,left,115,115,0,115,115,0,0,115,115,0,0,115,115,115,0,10/27/19 8:15,The main experiment item,yes,SternbergTask.osexp,C:\Users\hosan\Desktop,no,mono,no,18,no,white,no,yes,768,legacy,103,11,C:/Users/hosan/Desktop/Tb-subject-2.csv,legacy,8 9 5 6 7,Kafkaesque Koffka,3.2.8,1,y,0,right,right,right,right,NA,788,788,60597,16220,NA,2,legacy,5,1024,2,48000,-16,experiment,2,even,8,806664,808670,65729,803304,804451,5122,163029,804454,692178,5130,146808,809460,805459,808669,NA,Sternberg Task,106,93620,116,yes,1024
91.45299145,91.45299145,805.5213675,805.5213675,black,experiment,legacy,legacy,legacy,0,uniform,1,1,undefined,left,116,116,0,116,116,0,0,116,116,0,0,116,116,116,0,10/27/19 8:15,The main experiment item,yes,SternbergTask.osexp,C:\Users\hosan\Desktop,no,mono,no,18,no,white,no,yes,768,legacy,104,11,C:/Users/hosan/Desktop/Tb-subject-2.csv,legacy,2 6 1 7 4,Kafkaesque Koffka,3.2.8,2,y,0,left,left,right,right,NA,626,626,60597,16220,NA,2,legacy,5,1024,2,48000,-16,experiment,2,even,6,812932,814937,65729,803304,810717,5122,163029,810720,809535,5130,146808,815565,811726,814937,NA,Sternberg Task,107,94246,117,yes,1024
91.52542373,91.52542373,804.1271186,804.1271186,black,experiment,legacy,legacy,legacy,0,uniform,1,1,undefined,left,117,117,0,117,117,0,0,117,117,0,0,117,117,117,0,10/27/19 8:15,The main experiment item,yes,SternbergTask.osexp,C:\Users\hosan\Desktop,no,mono,no,18,no,white,no,yes,768,legacy,105,11,C:/Users/hosan/Desktop/Tb-subject-2.csv,legacy,7 8 6 3 1,Kafkaesque Koffka,3.2.8,5,y,0,left,left,right,right,NA,641,641,60597,16220,NA,2,legacy,5,1024,2,48000,-16,experiment,2,even,1,818976,820981,65729,815626,816763,5122,163029,816765,809535,5130,146808,821623,817770,820981,NA,Sternberg Task,108,94887,118,yes,1024
91.59663866,91.59663866,803.7478992,803.7478992,black,experiment,legacy,legacy,legacy,0,uniform,1,1,undefined,right,118,118,0,118,118,0,0,118,118,0,0,118,118,118,0,10/27/19 8:15,The main experiment item,yes,SternbergTask.osexp,C:\Users\hosan\Desktop,no,mono,no,18,no,white,no,yes,768,legacy,106,11,C:/Users/hosan/Desktop/Tb-subject-2.csv,legacy,8 5 7 3 6,Kafkaesque Koffka,3.2.8,0,n,0,right,right,right,right,NA,759,759,60597,16220,NA,2,legacy,5,1024,2,48000,-16,experiment,2,even,9,825051,827059,65729,821687,822838,5122,163029,822840,809535,5130,146808,827819,823845,827059,NA,Sternberg Task,109,95646,119,yes,1024
91.66666667,91.66666667,805.7916667,805.7916667,black,experiment,legacy,legacy,legacy,0,uniform,1,1,undefined,right,119,119,0,119,119,0,0,119,119,0,0,119,119,119,0,10/27/19 8:15,The main experiment item,yes,SternbergTask.osexp,C:\Users\hosan\Desktop,no,mono,no,18,no,white,no,yes,768,legacy,107,11,C:/Users/hosan/Desktop/Tb-subject-2.csv,legacy,1 6 4 3 9 7,Kafkaesque Koffka,3.2.8,0,n,0,right,right,right,right,NA,1049,1049,60597,16220,NA,2,legacy,6,1024,2,48000,-16,experiment,2,even,8,831223,833230,65729,827877,829010,5122,163029,829012,809535,5130,146808,834281,830018,833229,NA,Sternberg Task,110,96695,120,yes,1024
91.73553719,91.73553719,807.7107438,807.7107438,black,experiment,legacy,legacy,legacy,0,uniform,1,1,undefined,left,120,120,0,120,120,0,0,120,120,0,0,120,120,120,0,10/27/19 8:15,The main experiment item,yes,SternbergTask.osexp,C:\Users\hosan\Desktop,no,mono,no,18,no,white,no,yes,768,legacy,108,11,C:/Users/hosan/Desktop/Tb-subject-2.csv,legacy,8 5 1 3 9,Kafkaesque Koffka,3.2.8,4,y,0,left,left,right,right,NA,1038,1038,60597,16220,NA,2,legacy,5,1024,2,48000,-16,experiment,2,even,3,837693,839699,65729,834351,835479,5122,163029,835482,809535,5130,146808,840739,836487,839699,NA,Sternberg Task,111,97733,121,yes,1024
91.80327869,91.80327869,807.1065574,807.1065574,black,experiment,legacy,legacy,legacy,0,uniform,1,1,undefined,right,121,121,0,121,121,0,0,121,121,0,0,121,121,121,0,10/27/19 8:15,The main experiment item,yes,SternbergTask.osexp,C:\Users\hosan\Desktop,no,mono,no,18,no,white,no,yes,768,legacy,109,11,C:/Users/hosan/Desktop/Tb-subject-2.csv,legacy,2 8 6 3 1,Kafkaesque Koffka,3.2.8,0,n,0,right,right,right,right,NA,734,734,60597,16220,NA,2,legacy,5,1024,2,48000,-16,experiment,2,even,7,844172,846180,65729,840810,841960,5122,163029,841962,809535,5130,146808,846918,842967,846179,NA,Sternberg Task,112,98467,122,yes,1024
91.8699187,91.8699187,807.7073171,807.7073171,black,experiment,legacy,legacy,legacy,0,uniform,1,1,undefined,right,122,122,0,122,122,0,0,122,122,0,0,122,122,122,0,10/27/19 8:15,The main experiment item,yes,SternbergTask.osexp,C:\Users\hosan\Desktop,no,mono,no,18,no,white,no,yes,768,legacy,110,11,C:/Users/hosan/Desktop/Tb-subject-2.csv,legacy,4 2 7 6 1 3,Kafkaesque Koffka,3.2.8,0,n,0,right,right,right,right,NA,881,881,60597,16220,NA,2,legacy,6,1024,2,48000,-16,experiment,2,even,8,850329,852336,65729,846985,848116,5122,163029,848119,809535,5130,146808,853219,849124,852336,NA,Sternberg Task,113,99348,123,yes,1024
91.93548387,91.93548387,808.0967742,808.0967742,black,experiment,legacy,legacy,legacy,0,uniform,1,1,undefined,right,123,123,0,123,123,0,0,123,123,0,0,123,123,123,0,10/27/19 8:15,The main experiment item,yes,SternbergTask.osexp,C:\Users\hosan\Desktop,no,mono,no,18,no,white,no,yes,768,legacy,111,11,C:/Users/hosan/Desktop/Tb-subject-2.csv,legacy,7 1 5 6 3,Kafkaesque Koffka,3.2.8,0,n,0,right,right,right,right,NA,856,856,60597,16220,NA,2,legacy,5,1024,2,48000,-16,experiment,2,even,8,856620,858626,65729,853251,854406,5122,163029,854409,809535,5130,146808,859484,855415,858625,NA,Sternberg Task,114,100204,124,yes,1024
92,92,808.576,808.576,black,experiment,legacy,legacy,legacy,0,uniform,1,1,undefined,right,124,124,0,124,124,0,0,124,124,0,0,124,124,124,0,10/27/19 8:15,The main experiment item,yes,SternbergTask.osexp,C:\Users\hosan\Desktop,no,mono,no,18,no,white,no,yes,768,legacy,112,11,C:/Users/hosan/Desktop/Tb-subject-2.csv,legacy,1 7 5 2,Kafkaesque Koffka,3.2.8,0,n,0,right,right,right,right,NA,868,868,60597,16220,NA,2,legacy,4,1024,2,48000,-16,experiment,2,even,3,862915,864921,65729,859551,860700,5122,163029,860703,809535,5130,146808,865791,861709,864921,NA,Sternberg Task,115,101072,125,yes,1024
92.06349206,92.06349206,806.5952381,806.5952381,black,experiment,legacy,legacy,legacy,0,uniform,1,1,undefined,left,125,125,0,125,125,0,0,125,125,0,0,125,125,125,0,10/27/19 8:15,The main experiment item,yes,SternbergTask.osexp,C:\Users\hosan\Desktop,no,mono,no,18,no,white,no,yes,768,legacy,113,11,C:/Users/hosan/Desktop/Tb-subject-2.csv,legacy,8 5 3 7 4 6,Kafkaesque Koffka,3.2.8,6,y,0,left,left,right,right,NA,559,559,60597,16220,NA,2,legacy,6,1024,2,48000,-16,experiment,2,even,6,869219,871226,65729,865857,867005,5122,163029,867008,809535,5130,146808,871786,868014,871226,NA,Sternberg Task,116,101631,126,yes,1024
92.12598425,92.12598425,806.4251969,806.4251969,black,experiment,legacy,legacy,legacy,0,uniform,1,1,undefined,right,126,126,0,126,126,0,0,126,126,0,0,126,126,126,0,10/27/19 8:15,The main experiment item,yes,SternbergTask.osexp,C:\Users\hosan\Desktop,no,mono,no,18,no,white,no,yes,768,legacy,114,11,C:/Users/hosan/Desktop/Tb-subject-2.csv,legacy,8 5 4 2 9 6,Kafkaesque Koffka,3.2.8,0,n,0,right,right,right,right,NA,785,785,60597,16220,NA,2,legacy,6,1024,2,48000,-16,experiment,2,even,3,875207,877210,65729,871862,872992,5122,163029,872995,809535,5130,146808,877996,874000,877210,NA,Sternberg Task,117,102416,127,yes,1024
92.1875,92.1875,807.390625,807.390625,black,experiment,legacy,legacy,legacy,0,uniform,1,1,undefined,right,127,127,0,127,127,0,0,127,127,0,0,127,127,127,0,10/27/19 8:15,The main experiment item,yes,SternbergTask.osexp,C:\Users\hosan\Desktop,no,mono,no,18,no,white,no,yes,768,legacy,115,11,C:/Users/hosan/Desktop/Tb-subject-2.csv,legacy,9 7 4 5 8,Kafkaesque Koffka,3.2.8,0,n,0,right,right,right,right,NA,930,930,60597,16220,NA,2,legacy,5,1024,2,48000,-16,experiment,2,even,6,881425,883428,65729,878055,879211,5122,163029,879214,809535,5130,146808,884360,880219,883428,NA,Sternberg Task,118,103346,128,yes,1024
92.24806202,92.24806202,810.0542636,810.0542636,black,experiment,legacy,legacy,legacy,0,uniform,1,1,undefined,right,128,128,0,128,128,0,0,128,128,0,0,128,128,128,0,10/27/19 8:15,The main experiment item,yes,SternbergTask.osexp,C:\Users\hosan\Desktop,no,mono,no,18,no,white,no,yes,768,legacy,116,11,C:/Users/hosan/Desktop/Tb-subject-2.csv,legacy,2 8 9,Kafkaesque Koffka,3.2.8,0,n,0,right,right,right,right,NA,1151,1151,60597,16220,NA,2,legacy,3,1024,2,48000,-16,experiment,2,even,6,887786,889793,65729,884422,885575,5122,163029,885577,809535,5130,146808,890945,886581,889792,NA,Sternberg Task,119,104497,129,yes,1024
92.30769231,92.30769231,808.9307692,808.9307692,black,experiment,legacy,legacy,legacy,0,uniform,1,1,undefined,left,129,129,0,129,129,0,0,129,129,0,0,129,129,129,0,10/27/19 8:15,The main experiment item,yes,SternbergTask.osexp,C:\Users\hosan\Desktop,no,mono,no,18,no,white,no,yes,768,legacy,117,11,C:/Users/hosan/Desktop/Tb-subject-2.csv,legacy,9 1 7 2,Kafkaesque Koffka,3.2.8,2,y,0,left,left,right,right,NA,664,664,60597,16220,NA,2,legacy,4,1024,2,48000,-16,experiment,2,even,1,894340,896349,65729,891006,892129,5122,163029,892132,809535,5130,146808,897015,893136,896348,NA,Sternberg Task,120,105161,130,yes,1024
92.36641221,92.36641221,809.4198473,809.4198473,black,experiment,legacy,legacy,legacy,0,uniform,1,1,undefined,right,130,130,0,130,130,0,0,130,130,0,0,130,130,130,0,10/27/19 8:15,The main experiment item,yes,SternbergTask.osexp,C:\Users\hosan\Desktop,no,mono,no,18,no,white,no,yes,768,legacy,118,11,C:/Users/hosan/Desktop/Tb-subject-2.csv,legacy,7 9,Kafkaesque Koffka,3.2.8,0,n,0,right,right,right,right,NA,873,873,60597,16220,NA,2,legacy,2,1024,2,48000,-16,experiment,2,even,1,900440,902446,65729,897052,898227,5122,163029,898229,809535,5130,146808,903320,899234,902446,NA,Sternberg Task,121,106034,131,yes,1024
91.66666667,91.66666667,809.0681818,809.0681818,black,experiment,legacy,legacy,legacy,0,uniform,0,0,undefined,left,131,131,0,131,131,0,0,131,131,0,0,131,131,131,0,10/27/19 8:15,The main experiment item,yes,SternbergTask.osexp,C:\Users\hosan\Desktop,no,mono,no,18,no,white,no,yes,768,legacy,119,11,C:/Users/hosan/Desktop/Tb-subject-2.csv,legacy,2 4 8 5 1 3,Kafkaesque Koffka,3.2.8,1,y,0,right,right,right,right,NA,763,763,60597,16220,NA,2,legacy,6,1024,2,48000,-16,experiment,2,even,2,906771,908778,65729,903387,904559,5122,163029,904561,809535,5130,146808,909543,905566,908777,NA,Sternberg Task,121,106797,132,yes,1024
91.72932331,91.72932331,809.3834586,809.3834586,black,experiment,legacy,legacy,legacy,0,uniform,1,1,undefined,left,132,132,0,132,132,0,0,132,132,0,0,132,132,132,0,10/27/19 8:15,The main experiment item,yes,SternbergTask.osexp,C:\Users\hosan\Desktop,no,mono,no,18,no,white,no,yes,768,legacy,120,11,C:/Users/hosan/Desktop/Tb-subject-2.csv,legacy,9 5 8 1,Kafkaesque Koffka,3.2.8,2,y,0,left,left,right,right,NA,851,851,60597,16220,NA,2,legacy,4,1024,2,48000,-16,experiment,2,even,5,912964,914969,65729,903387,910752,5122,163029,910754,909608,5130,146808,915822,911759,914969,NA,Sternberg Task,122,107648,133,yes,1024
91.79104478,91.79104478,807.1044776,807.1044776,black,experiment,legacy,legacy,legacy,0,uniform,1,1,undefined,left,133,133,0,133,133,0,0,133,133,0,0,133,133,133,0,10/27/19 8:15,The main experiment item,yes,SternbergTask.osexp,C:\Users\hosan\Desktop,no,mono,no,18,no,white,no,yes,768,legacy,121,11,C:/Users/hosan/Desktop/Tb-subject-2.csv,legacy,3 5 9 6 2 4,Kafkaesque Koffka,3.2.8,1,y,0,left,left,right,right,NA,504,504,60597,16220,NA,2,legacy,6,1024,2,48000,-16,experiment,2,even,3,919249,921256,65729,915887,917036,5122,163029,917039,909608,5130,146808,921762,918044,921255,NA,Sternberg Task,123,108152,134,yes,1024
91.85185185,91.85185185,806.437037,806.437037,black,experiment,legacy,legacy,legacy,0,uniform,1,1,undefined,right,134,134,0,134,134,0,0,134,134,0,0,134,134,134,0,10/27/19 8:15,The main experiment item,yes,SternbergTask.osexp,C:\Users\hosan\Desktop,no,mono,no,18,no,white,no,yes,768,legacy,122,11,C:/Users/hosan/Desktop/Tb-subject-2.csv,legacy,5 7 3,Kafkaesque Koffka,3.2.8,0,n,0,right,right,right,right,NA,717,717,60597,16220,NA,2,legacy,3,1024,2,48000,-16,experiment,2,even,9,925175,927182,65729,921830,922963,5122,163029,922966,909608,5130,146808,927902,923969,927182,NA,Sternberg Task,124,108869,135,yes,1024
91.17647059,91.17647059,806.4411765,806.4411765,black,experiment,legacy,legacy,legacy,0,uniform,0,0,undefined,left,135,135,0,135,135,0,0,135,135,0,0,135,135,135,0,10/27/19 8:15,The main experiment item,yes,SternbergTask.osexp,C:\Users\hosan\Desktop,no,mono,no,18,no,white,no,yes,768,legacy,123,11,C:/Users/hosan/Desktop/Tb-subject-2.csv,legacy,9 3 1 2 5,Kafkaesque Koffka,3.2.8,4,y,0,right,right,right,right,NA,807,807,60597,16220,NA,2,legacy,5,1024,2,48000,-16,experiment,2,even,2,931315,933320,65729,927928,929100,5122,163029,929103,909608,5130,146808,934128,930109,933320,NA,Sternberg Task,124,109676,136,yes,1024
91.24087591,91.24087591,807.3138686,807.3138686,black,experiment,legacy,legacy,legacy,0,uniform,1,1,undefined,right,136,136,0,136,136,0,0,136,136,0,0,136,136,136,0,10/27/19 8:15,The main experiment item,yes,SternbergTask.osexp,C:\Users\hosan\Desktop,no,mono,no,18,no,white,no,yes,768,legacy,124,11,C:/Users/hosan/Desktop/Tb-subject-2.csv,legacy,2 3 8 5 6 7,Kafkaesque Koffka,3.2.8,0,n,0,right,right,right,right,NA,926,926,60597,16220,NA,2,legacy,6,1024,2,48000,-16,experiment,2,even,1,937542,939548,65729,927928,935328,5122,163029,935331,934192,5130,146808,940476,936336,939548,NA,Sternberg Task,125,110602,137,yes,1024
91.30434783,91.30434783,807.1884058,807.1884058,black,experiment,legacy,legacy,legacy,0,uniform,1,1,undefined,left,137,137,0,137,137,0,0,137,137,0,0,137,137,137,0,10/27/19 8:15,The main experiment item,yes,SternbergTask.osexp,C:\Users\hosan\Desktop,no,mono,no,18,no,white,no,yes,768,legacy,125,11,C:/Users/hosan/Desktop/Tb-subject-2.csv,legacy,7 6,Kafkaesque Koffka,3.2.8,2,y,0,left,left,right,right,NA,790,790,60597,16220,NA,2,legacy,2,1024,2,48000,-16,experiment,2,even,6,943913,945920,65729,940536,941702,5122,163029,941704,934192,5130,146808,946712,942711,945919,NA,Sternberg Task,126,111392,138,yes,1024