acc,accuracy,average_response_time,avg_rt,background,block,canvas_backend,clock_backend,color_backend,compensation,coordinates,correct,correct_Instruction1,correct_keyboard_response,correct_response,count_CorrectFeedback,count_ExperimentLoop,count_Fixation,count_ISI,count_IncorrectFeedback,count_Instruction1,count_Instruction2,count_MemorySet,count_Practiceloop,count_Probe,count_ThankYou,count_expSequence,count_experiment,count_keyboard_response,count_logger,datetime,description,disable_garbage_collection,experiment_file,experiment_path,font_bold,font_family,font_italic,font_size,font_underline,foreground,form_clicks,fullscreen,height,keyboard_backend,live_row,live_row_Practiceloop,logfile,mouse_backend,numberSet,opensesame_codename,opensesame_version,posInSet,present,repeat_cycle,response,response_Instruction1,response_Instruction2,response_ThankYou,response_keyboard_response,response_time,response_time_Instruction1,response_time_Instruction2,response_time_ThankYou,response_time_keyboard_response,round_decimals,sampler_backend,setSize,sound_buf_size,sound_channels,sound_freq,sound_sample_size,start,subject_nr,subject_parity,target,time_CorrectFeedback,time_ExperimentLoop,time_Fixation,time_ISI,time_IncorrectFeedback,time_Instruction1,time_Instruction2,time_MemorySet,time_Practiceloop,time_Probe,time_ThankYou,time_expSequence,time_experiment,time_keyboard_response,time_logger,title,total_correct,total_response_time,total_responses,uniform_coordinates,width
0,0,2000,2000,black,practice,legacy,legacy,legacy,0,uniform,0,undefined,0,right,0,0,0,0,0,0,0,0,0,0,0,0,0,0,0,10/17/19 17:38,The main experiment item,yes,SternbergTask.osexp,C:/Users/Carolyn/Desktop,no,mono,no,18,no,white,no,yes,768,legacy,0,0,C:/Users/Carolyn/Desktop/cp_subject-3.csv,legacy,3 1 9 4,Kafkaesque Koffka,3.2.8,0,n,0,None,right,NA,NA,None,2000,36148,NA,NA,2000,2,legacy,4,1024,2,48000,-16,experiment,3,odd,6,NA,NA,49307,51514,NA,5621,NA,50310,41770,53517,NA,49302,5616,53518,55518,Sternberg Task,0,2000,1,yes,1024
50,50,1794,1794,black,practice,legacy,legacy,legacy,0,uniform,1,undefined,1,right,1,0,1,1,1,0,0,1,0,1,0,1,0,1,1,10/17/19 17:38,The main experiment item,yes,SternbergTask.osexp,C:/Users/Carolyn/Desktop,no,mono,no,18,no,white,no,yes,768,legacy,1,1,C:/Users/Carolyn/Desktop/cp_subject-3.csv,legacy,9 6 7 4 5,Kafkaesque Koffka,3.2.8,0,n,0,right,right,NA,NA,right,1588,36148,NA,NA,1588,2,legacy,5,1024,2,48000,-16,experiment,3,odd,3,NA,NA,56930,59137,55750,5621,NA,57933,41770,61140,NA,56926,5616,61141,62730,Sternberg Task,1,3588,2,yes,1024
33.33333333,33.33333333,1862.666667,1862.666667,black,practice,legacy,legacy,legacy,0,uniform,0,undefined,0,left,2,0,2,2,2,0,0,2,0,2,0,2,0,2,2,10/17/19 17:38,The main experiment item,yes,SternbergTask.osexp,C:/Users/Carolyn/Desktop,no,mono,no,18,no,white,no,yes,768,legacy,2,2,C:/Users/Carolyn/Desktop/cp_subject-3.csv,legacy,4 8,Kafkaesque Koffka,3.2.8,1,y,0,None,right,NA,NA,None,2000,36148,NA,NA,2000,2,legacy,2,1024,2,48000,-16,experiment,3,odd,4,62783,NA,63961,66167,55750,5621,NA,64964,41770,68170,NA,63957,5616,68171,70171,Sternberg Task,1,5588,3,yes,1024
25,25,1897,1897,black,practice,legacy,legacy,legacy,0,uniform,0,undefined,0,left,3,0,3,3,3,0,0,3,0,3,0,3,0,3,3,10/17/19 17:38,The main experiment item,yes,SternbergTask.osexp,C:/Users/Carolyn/Desktop,no,mono,no,18,no,white,no,yes,768,legacy,3,3,C:/Users/Carolyn/Desktop/cp_subject-3.csv,legacy,1 5 2 9,Kafkaesque Koffka,3.2.8,2,y,0,None,right,NA,NA,None,2000,36148,NA,NA,2000,2,legacy,4,1024,2,48000,-16,experiment,3,odd,5,62783,NA,71395,73602,70216,5621,NA,72398,41770,75605,NA,71391,5616,75605,77605,Sternberg Task,1,7588,4,yes,1024
20,20,1917.6,1917.6,black,practice,legacy,legacy,legacy,0,uniform,0,undefined,0,right,4,0,4,4,4,0,0,4,0,4,0,4,0,4,4,10/17/19 17:38,The main experiment item,yes,SternbergTask.osexp,C:/Users/Carolyn/Desktop,no,mono,no,18,no,white,no,yes,768,legacy,4,4,C:/Users/Carolyn/Desktop/cp_subject-3.csv,legacy,2 1,Kafkaesque Koffka,3.2.8,0,n,0,None,right,NA,NA,None,2000,36148,NA,NA,2000,2,legacy,2,1024,2,48000,-16,experiment,3,odd,5,62783,NA,78872,81079,77694,5621,NA,79875,41770,83082,NA,78868,5616,83083,85083,Sternberg Task,1,9588,5,yes,1024
16.66666667,16.66666667,1931.333333,1931.333333,black,practice,legacy,legacy,legacy,0,uniform,0,undefined,0,left,5,0,5,5,5,0,0,5,0,5,0,5,0,5,5,10/17/19 17:38,The main experiment item,yes,SternbergTask.osexp,C:/Users/Carolyn/Desktop,no,mono,no,18,no,white,no,yes,768,legacy,5,5,C:/Users/Carolyn/Desktop/cp_subject-3.csv,legacy,4 3 1 7 9 8,Kafkaesque Koffka,3.2.8,1,y,0,None,right,NA,NA,None,2000,36148,NA,NA,2000,2,legacy,6,1024,2,48000,-16,experiment,3,odd,4,62783,NA,86310,88516,85133,5621,NA,87313,41770,90520,NA,86306,5616,90521,92521,Sternberg Task,1,11588,6,yes,1024
28.57142857,28.57142857,1912.857143,1912.857143,black,practice,legacy,legacy,legacy,0,uniform,1,undefined,1,right,6,0,6,6,6,0,0,6,0,6,0,6,0,6,6,10/17/19 17:38,The main experiment item,yes,SternbergTask.osexp,C:/Users/Carolyn/Desktop,no,mono,no,18,no,white,no,yes,768,legacy,6,6,C:/Users/Carolyn/Desktop/cp_subject-3.csv,legacy,5,Kafkaesque Koffka,3.2.8,0,n,0,right,right,NA,NA,right,1802,36148,NA,NA,1802,2,legacy,1,1024,2,48000,-16,experiment,3,odd,3,62783,NA,93748,95955,92574,5621,NA,94751,41770,97958,NA,93745,5616,97959,99762,Sternberg Task,2,13390,7,yes,1024
25,25,1819.5,1819.5,black,practice,legacy,legacy,legacy,0,uniform,0,undefined,0,left,7,0,7,7,7,0,0,7,0,7,0,7,0,7,7,10/17/19 17:38,The main experiment item,yes,SternbergTask.osexp,C:/Users/Carolyn/Desktop,no,mono,no,18,no,white,no,yes,768,legacy,7,7,C:/Users/Carolyn/Desktop/cp_subject-3.csv,legacy,6,Kafkaesque Koffka,3.2.8,1,y,0,right,right,NA,NA,right,1166,36148,NA,NA,1166,2,legacy,1,1024,2,48000,-16,experiment,3,odd,6,99807,NA,100984,103191,92574,5621,NA,101987,41770,105194,NA,100980,5616,105195,106362,Sternberg Task,2,14556,8,yes,1024
22.22222222,22.22222222,1839.555556,1839.555556,black,practice,legacy,legacy,legacy,0,uniform,0,undefined,0,left,8,0,8,8,8,0,0,8,0,8,0,8,0,8,8,10/17/19 17:38,The main experiment item,yes,SternbergTask.osexp,C:/Users/Carolyn/Desktop,no,mono,no,18,no,white,no,yes,768,legacy,8,8,C:/Users/Carolyn/Desktop/cp_subject-3.csv,legacy,1 7 9 8 5,Kafkaesque Koffka,3.2.8,4,y,0,None,right,NA,NA,None,2000,36148,NA,NA,2000,2,legacy,5,1024,2,48000,-16,experiment,3,odd,8,99807,NA,107592,109799,106416,5621,NA,108596,41770,111803,NA,107588,5616,111803,113803,Sternberg Task,2,16556,9,yes,1024
30,30,1851,1851,black,practice,legacy,legacy,legacy,0,uniform,1,undefined,1,left,9,0,9,9,9,0,0,9,0,9,0,9,0,9,9,10/17/19 17:38,The main experiment item,yes,SternbergTask.osexp,C:/Users/Carolyn/Desktop,no,mono,no,18,no,white,no,yes,768,legacy,9,9,C:/Users/Carolyn/Desktop/cp_subject-3.csv,legacy,2 9 4,Kafkaesque Koffka,3.2.8,3,y,0,left,right,NA,NA,left,1954,36148,NA,NA,1954,2,legacy,3,1024,2,48000,-16,experiment,3,odd,4,99807,NA,115052,117259,113874,5621,NA,116055,41770,119262,NA,115048,5616,119263,121218,Sternberg Task,3,18510,10,yes,1024
36.36363636,36.36363636,1781,1781,black,practice,legacy,legacy,legacy,0,uniform,1,undefined,1,right,10,0,10,10,10,0,0,10,0,10,0,10,0,10,10,10/17/19 17:38,The main experiment item,yes,SternbergTask.osexp,C:/Users/Carolyn/Desktop,no,mono,no,18,no,white,no,yes,768,legacy,10,10,C:/Users/Carolyn/Desktop/cp_subject-3.csv,legacy,5 7 8 4 1 2,Kafkaesque Koffka,3.2.8,0,n,0,right,right,NA,NA,right,1081,36148,NA,NA,1081,2,legacy,6,1024,2,48000,-16,experiment,3,odd,6,121266,NA,122445,124652,113874,5621,NA,123448,41770,126655,NA,122441,5616,126656,127738,Sternberg Task,4,19591,11,yes,1024
33.33333333,33.33333333,1745.583333,1745.583333,black,practice,legacy,legacy,legacy,0,uniform,0,undefined,0,right,11,0,11,11,11,0,0,11,0,11,0,11,0,11,11,10/17/19 17:38,The main experiment item,yes,SternbergTask.osexp,C:/Users/Carolyn/Desktop,no,mono,no,18,no,white,no,yes,768,legacy,11,11,C:/Users/Carolyn/Desktop/cp_subject-3.csv,legacy,4 1 5,Kafkaesque Koffka,3.2.8,0,n,0,left,right,NA,NA,left,1356,36148,NA,NA,1356,2,legacy,3,1024,2,48000,-16,experiment,3,odd,2,127774,NA,128953,131161,113874,5621,NA,129956,41770,133164,NA,128949,5616,133165,134522,Sternberg Task,4,20947,12,yes,1024
38.46153846,38.46153846,1728.846154,1728.846154,black,experiment,legacy,legacy,legacy,0,uniform,1,undefined,1,right,12,0,12,12,12,0,0,12,0,12,0,12,0,12,12,10/17/19 17:38,The main experiment item,yes,SternbergTask.osexp,C:/Users/Carolyn/Desktop,no,mono,no,18,no,white,no,yes,768,legacy,0,11,C:/Users/Carolyn/Desktop/cp_subject-3.csv,legacy,5 9 2 3,Kafkaesque Koffka,3.2.8,0,n,0,right,right,left,NA,right,1528,36148,16384,NA,1528,2,legacy,4,1024,2,48000,-16,experiment,3,odd,8,127774,151986,152205,154413,134566,5621,135601,153208,41770,156416,NA,152201,5616,156417,157946,Sternberg Task,5,22475,13,yes,1024
42.85714286,42.85714286,1692.714286,1692.714286,black,experiment,legacy,legacy,legacy,0,uniform,1,undefined,1,right,13,0,13,13,13,0,0,13,0,13,0,13,0,13,13,10/17/19 17:38,The main experiment item,yes,SternbergTask.osexp,C:/Users/Carolyn/Desktop,no,mono,no,18,no,white,no,yes,768,legacy,1,11,C:/Users/Carolyn/Desktop/cp_subject-3.csv,legacy,4 1,Kafkaesque Koffka,3.2.8,0,n,0,right,right,left,NA,right,1223,36148,16384,NA,1223,2,legacy,2,1024,2,48000,-16,experiment,3,odd,6,157982,151986,159159,161366,134566,5621,135601,160162,41770,163369,NA,159155,5616,163370,164594,Sternberg Task,6,23698,14,yes,1024
46.66666667,46.66666667,1628,1628,black,experiment,legacy,legacy,legacy,0,uniform,1,undefined,1,left,14,0,14,14,14,0,0,14,0,14,0,14,0,14,14,10/17/19 17:38,The main experiment item,yes,SternbergTask.osexp,C:/Users/Carolyn/Desktop,no,mono,no,18,no,white,no,yes,768,legacy,2,11,C:/Users/Carolyn/Desktop/cp_subject-3.csv,legacy,9 5 3 8 4,Kafkaesque Koffka,3.2.8,1,y,0,left,right,left,NA,left,722,36148,16384,NA,722,2,legacy,5,1024,2,48000,-16,experiment,3,odd,9,164632,151986,165812,168019,134566,5621,135601,166815,41770,170022,NA,165808,5616,170023,170746,Sternberg Task,7,24420,15,yes,1024
50,50,1595.5625,1595.5625,black,experiment,legacy,legacy,legacy,0,uniform,1,undefined,1,right,15,0,15,15,15,0,0,15,0,15,0,15,0,15,15,10/17/19 17:38,The main experiment item,yes,SternbergTask.osexp,C:/Users/Carolyn/Desktop,no,mono,no,18,no,white,no,yes,768,legacy,3,11,C:/Users/Carolyn/Desktop/cp_subject-3.csv,legacy,2 8 9,Kafkaesque Koffka,3.2.8,0,n,0,right,right,left,NA,right,1109,36148,16384,NA,1109,2,legacy,3,1024,2,48000,-16,experiment,3,odd,6,170790,151986,171968,174176,134566,5621,135601,172971,41770,176179,NA,171964,5616,176180,177290,Sternberg Task,8,25529,16,yes,1024
52.94117647,52.94117647,1566.705882,1566.705882,black,experiment,legacy,legacy,legacy,0,uniform,1,undefined,1,right,16,0,16,16,16,0,0,16,0,16,0,16,0,16,16,10/17/19 17:38,The main experiment item,yes,SternbergTask.osexp,C:/Users/Carolyn/Desktop,no,mono,no,18,no,white,no,yes,768,legacy,4,11,C:/Users/Carolyn/Desktop/cp_subject-3.csv,legacy,8 2 1 4 5 9,Kafkaesque Koffka,3.2.8,0,n,0,right,right,left,NA,right,1105,36148,16384,NA,1105,2,legacy,6,1024,2,48000,-16,experiment,3,odd,7,177332,151986,178508,180715,134566,5621,135601,179511,41770,182718,NA,178504,5616,182719,183825,Sternberg Task,9,26634,17,yes,1024
55.55555556,55.55555556,1526.277778,1526.277778,black,experiment,legacy,legacy,legacy,0,uniform,1,undefined,1,left,17,0,17,17,17,0,0,17,0,17,0,17,0,17,17,10/17/19 17:38,The main experiment item,yes,SternbergTask.osexp,C:/Users/Carolyn/Desktop,no,mono,no,18,no,white,no,yes,768,legacy,5,11,C:/Users/Carolyn/Desktop/cp_subject-3.csv,legacy,7 1 3,Kafkaesque Koffka,3.2.8,2,y,0,left,right,left,NA,left,839,36148,16384,NA,839,2,legacy,3,1024,2,48000,-16,experiment,3,odd,1,183873,151986,185054,187261,134566,5621,135601,186057,41770,189264,NA,185050,5616,189265,190105,Sternberg Task,10,27473,18,yes,1024
57.89473684,57.89473684,1499.263158,1499.263158,black,experiment,legacy,legacy,legacy,0,uniform,1,undefined,1,right,18,0,18,18,18,0,0,18,0,18,0,18,0,18,18,10/17/19 17:38,The main experiment item,yes,SternbergTask.osexp,C:/Users/Carolyn/Desktop,no,mono,no,18,no,white,no,yes,768,legacy,6,11,C:/Users/Carolyn/Desktop/cp_subject-3.csv,legacy,9,Kafkaesque Koffka,3.2.8,0,n,0,right,right,left,NA,right,1013,36148,16384,NA,1013,2,legacy,1,1024,2,48000,-16,experiment,3,odd,6,190165,151986,191343,193551,134566,5621,135601,192347,41770,195554,NA,191340,5616,195555,196569,Sternberg Task,11,28486,19,yes,1024
60,60,1465.35,1465.35,black,experiment,legacy,legacy,legacy,0,uniform,1,undefined,1,right,19,0,19,19,19,0,0,19,0,19,0,19,0,19,19,10/17/19 17:38,The main experiment item,yes,SternbergTask.osexp,C:/Users/Carolyn/Desktop,no,mono,no,18,no,white,no,yes,768,legacy,7,11,C:/Users/Carolyn/Desktop/cp_subject-3.csv,legacy,6 2 9 3 8 4,Kafkaesque Koffka,3.2.8,0,n,0,right,right,left,NA,right,821,36148,16384,NA,821,2,legacy,6,1024,2,48000,-16,experiment,3,odd,1,196615,151986,197792,199999,134566,5621,135601,198795,41770,202002,NA,197788,5616,202003,202825,Sternberg Task,12,29307,20,yes,1024
61.9047619,61.9047619,1461.047619,1461.047619,black,experiment,legacy,legacy,legacy,0,uniform,1,undefined,1,right,20,0,20,20,20,0,0,20,0,20,0,20,0,20,20,10/17/19 17:38,The main experiment item,yes,SternbergTask.osexp,C:/Users/Carolyn/Desktop,no,mono,no,18,no,white,no,yes,768,legacy,8,11,C:/Users/Carolyn/Desktop/cp_subject-3.csv,legacy,4 8 1 2,Kafkaesque Koffka,3.2.8,0,n,0,right,right,left,NA,right,1375,36148,16384,NA,1375,2,legacy,4,1024,2,48000,-16,experiment,3,odd,7,202873,151986,204061,206269,134566,5621,135601,205064,41770,208272,NA,204057,5616,208273,209649,Sternberg Task,13,30682,21,yes,1024
59.09090909,59.09090909,1440.545455,1440.545455,black,experiment,legacy,legacy,legacy,0,uniform,0,undefined,0,right,21,0,21,21,21,0,0,21,0,21,0,21,0,21,21,10/17/19 17:38,The main experiment item,yes,SternbergTask.osexp,C:/Users/Carolyn/Desktop,no,mono,no,18,no,white,no,yes,768,legacy,9,11,C:/Users/Carolyn/Desktop/cp_subject-3.csv,legacy,5,Kafkaesque Koffka,3.2.8,0,n,0,left,right,left,NA,left,1010,36148,16384,NA,1010,2,legacy,1,1024,2,48000,-16,experiment,3,odd,8,209698,151986,210874,213081,134566,5621,135601,211877,41770,215085,NA,210870,5616,215086,216097,Sternberg Task,13,31692,22,yes,1024
60.86956522,60.86956522,1418.73913,1418.73913,black,experiment,legacy,legacy,legacy,0,uniform,1,undefined,1,right,22,0,22,22,22,0,0,22,0,22,0,22,0,22,22,10/17/19 17:38,The main experiment item,yes,SternbergTask.osexp,C:/Users/Carolyn/Desktop,no,mono,no,18,no,white,no,yes,768,legacy,10,11,C:/Users/Carolyn/Desktop/cp_subject-3.csv,legacy,2 6 4 3 9,Kafkaesque Koffka,3.2.8,0,n,0,right,right,left,NA,right,939,36148,16384,NA,939,2,legacy,5,1024,2,48000,-16,experiment,3,odd,1,209698,151986,217323,219529,216148,5621,135601,218326,41770,221532,NA,217319,5616,221533,222474,Sternberg Task,14,32631,23,yes,1024
62.5,62.5,1403.958333,1403.958333,black,experiment,legacy,legacy,legacy,0,uniform,1,undefined,1,left,23,0,23,23,23,0,0,23,0,23,0,23,0,23,23,10/17/19 17:38,The main experiment item,yes,SternbergTask.osexp,C:/Users/Carolyn/Desktop,no,mono,no,18,no,white,no,yes,768,legacy,11,11,C:/Users/Carolyn/Desktop/cp_subject-3.csv,legacy,6 9 7 4 5 1,Kafkaesque Koffka,3.2.8,2,y,0,left,right,left,NA,left,1064,36148,16384,NA,1064,2,legacy,6,1024,2,48000,-16,experiment,3,odd,9,222514,151986,223694,225901,216148,5621,135601,224697,41770,227904,NA,223690,5616,227904,228969,Sternberg Task,15,33695,24,yes,1024
64,64,1381.6,1381.6,black,experiment,legacy,legacy,legacy,0,uniform,1,undefined,1,right,24,0,24,24,24,0,0,24,0,24,0,24,0,24,24,10/17/19 17:38,The main experiment item,yes,SternbergTask.osexp,C:/Users/Carolyn/Desktop,no,mono,no,18,no,white,no,yes,768,legacy,12,11,C:/Users/Carolyn/Desktop/cp_subject-3.csv,legacy,4 2 6 9,Kafkaesque Koffka,3.2.8,0,n,0,right,right,left,NA,right,845,36148,16384,NA,845,2,legacy,4,1024,2,48000,-16,experiment,3,odd,7,229014,151986,230192,232399,216148,5621,135601,231195,41770,234402,NA,230188,5616,234403,235249,Sternberg Task,16,34540,25,yes,1024
65.38461538,65.38461538,1369.923077,1369.923077,black,experiment,legacy,legacy,legacy,0,uniform,1,undefined,1,left,25,0,25,25,25,0,0,25,0,25,0,25,0,25,25,10/17/19 17:38,The main experiment item,yes,SternbergTask.osexp,C:/Users/Carolyn/Desktop,no,mono,no,18,no,white,no,yes,768,legacy,13,11,C:/Users/Carolyn/Desktop/cp_subject-3.csv,legacy,2 4 6 9,Kafkaesque Koffka,3.2.8,3,y,0,left,right,left,NA,left,1078,36148,16384,NA,1078,2,legacy,4,1024,2,48000,-16,experiment,3,odd,6,235297,151986,236472,238679,216148,5621,135601,237475,41770,240682,NA,236468,5616,240682,241761,Sternberg Task,17,35618,26,yes,1024
62.96296296,62.96296296,1354.962963,1354.962963,black,experiment,legacy,legacy,legacy,0,uniform,0,undefined,0,left,26,0,26,26,26,0,0,26,0,26,0,26,0,26,26,10/17/19 17:38,The main experiment item,yes,SternbergTask.osexp,C:/Users/Carolyn/Desktop,no,mono,no,18,no,white,no,yes,768,legacy,14,11,C:/Users/Carolyn/Desktop/cp_subject-3.csv,legacy,3 2 1 4 7,Kafkaesque Koffka,3.2.8,2,y,0,right,right,left,NA,right,966,36148,16384,NA,966,2,legacy,5,1024,2,48000,-16,experiment,3,odd,2,241806,151986,242983,245190,216148,5621,135601,243987,41770,247193,NA,242980,5616,247194,248161,Sternberg Task,17,36584,27,yes,1024
64.28571429,64.28571429,1343.142857,1343.142857,black,experiment,legacy,legacy,legacy,0,uniform,1,undefined,1,right,27,0,27,27,27,0,0,27,0,27,0,27,0,27,27,10/17/19 17:38,The main experiment item,yes,SternbergTask.osexp,C:/Users/Carolyn/Desktop,no,mono,no,18,no,white,no,yes,768,legacy,15,11,C:/Users/Carolyn/Desktop/cp_subject-3.csv,legacy,5 3 2 6 9 8,Kafkaesque Koffka,3.2.8,0,n,0,right,right,left,NA,right,1024,36148,16384,NA,1024,2,legacy,6,1024,2,48000,-16,experiment,3,odd,4,241806,151986,249382,251588,248206,5621,135601,250385,41770,253591,NA,249378,5616,253592,254617,Sternberg Task,18,37608,28,yes,1024
62.06896552,62.06896552,1326.241379,1326.241379,black,experiment,legacy,legacy,legacy,0,uniform,0,undefined,0,left,28,0,28,28,28,0,0,28,0,28,0,28,0,28,28,10/17/19 17:38,The main experiment item,yes,SternbergTask.osexp,C:/Users/Carolyn/Desktop,no,mono,no,18,no,white,no,yes,768,legacy,16,11,C:/Users/Carolyn/Desktop/cp_subject-3.csv,legacy,9 5 8 1,Kafkaesque Koffka,3.2.8,2,y,0,right,right,left,NA,right,853,36148,16384,NA,853,2,legacy,4,1024,2,48000,-16,experiment,3,odd,5,254664,151986,255841,258047,248206,5621,135601,256844,41770,260050,NA,255837,5616,260051,260905,Sternberg Task,18,38461,29,yes,1024
63.33333333,63.33333333,1313.9,1313.9,black,experiment,legacy,legacy,legacy,0,uniform,1,undefined,1,left,29,0,29,29,29,0,0,29,0,29,0,29,0,29,29,10/17/19 17:38,The main experiment item,yes,SternbergTask.osexp,C:/Users/Carolyn/Desktop,no,mono,no,18,no,white,no,yes,768,legacy,17,11,C:/Users/Carolyn/Desktop/cp_subject-3.csv,legacy,2 3,Kafkaesque Koffka,3.2.8,1,y,0,left,right,left,NA,left,956,36148,16384,NA,956,2,legacy,2,1024,2,48000,-16,experiment,3,odd,2,254664,151986,262122,264328,260947,5621,135601,263125,41770,266331,NA,262118,5616,266332,267289,Sternberg Task,19,39417,30,yes,1024
64.51612903,64.51612903,1316.483871,1316.483871,black,experiment,legacy,legacy,legacy,0,uniform,1,undefined,1,right,30,0,30,30,30,0,0,30,0,30,0,30,0,30,30,10/17/19 17:38,The main experiment item,yes,SternbergTask.osexp,C:/Users/Carolyn/Desktop,no,mono,no,18,no,white,no,yes,768,legacy,18,11,C:/Users/Carolyn/Desktop/cp_subject-3.csv,legacy,8 4 3 5,Kafkaesque Koffka,3.2.8,0,n,0,right,right,left,NA,right,1394,36148,16384,NA,1394,2,legacy,4,1024,2,48000,-16,experiment,3,odd,6,267331,151986,268507,270714,260947,5621,135601,269510,41770,272717,NA,268503,5616,272718,274113,Sternberg Task,20,40811,31,yes,1024
65.625,65.625,1323.625,1323.625,black,experiment,legacy,legacy,legacy,0,uniform,1,undefined,1,left,31,0,31,31,31,0,0,31,0,31,0,31,0,31,31,10/17/19 17:38,The main experiment item,yes,SternbergTask.osexp,C:/Users/Carolyn/Desktop,no,mono,no,18,no,white,no,yes,768,legacy,19,11,C:/Users/Carolyn/Desktop/cp_subject-3.csv,legacy,4 1 8 7 5,Kafkaesque Koffka,3.2.8,3,y,0,left,right,left,NA,left,1545,36148,16384,NA,1545,2,legacy,5,1024,2,48000,-16,experiment,3,odd,8,274164,151986,275340,277547,260947,5621,135601,276343,41770,279550,NA,275336,5616,279551,281098,Sternberg Task,21,42356,32,yes,1024
66.66666667,66.66666667,1311,1311,black,experiment,legacy,legacy,legacy,0,uniform,1,undefined,1,right,32,0,32,32,32,0,0,32,0,32,0,32,0,32,32,10/17/19 17:38,The main experiment item,yes,SternbergTask.osexp,C:/Users/Carolyn/Desktop,no,mono,no,18,no,white,no,yes,768,legacy,20,11,C:/Users/Carolyn/Desktop/cp_subject-3.csv,legacy,2 8 6 3 1,Kafkaesque Koffka,3.2.8,0,n,0,right,right,left,NA,right,907,36148,16384,NA,907,2,legacy,5,1024,2,48000,-16,experiment,3,odd,7,281147,151986,282323,284530,260947,5621,135601,283326,41770,286533,NA,282319,5616,286533,287441,Sternberg Task,22,43263,33,yes,1024
67.64705882,67.64705882,1299.852941,1299.852941,black,experiment,legacy,legacy,legacy,0,uniform,1,undefined,1,right,33,0,33,33,33,0,0,33,0,33,0,33,0,33,33,10/17/19 17:38,The main experiment item,yes,SternbergTask.osexp,C:/Users/Carolyn/Desktop,no,mono,no,18,no,white,no,yes,768,legacy,21,11,C:/Users/Carolyn/Desktop/cp_subject-3.csv,legacy,6 8 4,Kafkaesque Koffka,3.2.8,0,n,0,right,right,left,NA,right,932,36148,16384,NA,932,2,legacy,3,1024,2,48000,-16,experiment,3,odd,1,287489,151986,288665,290872,260947,5621,135601,289668,41770,292875,NA,288661,5616,292876,293809,Sternberg Task,23,44195,34,yes,1024
65.71428571,65.71428571,1298.914286,1298.914286,black,experiment,legacy,legacy,legacy,0,uniform,0,undefined,0,left,34,0,34,34,34,0,0,34,0,34,0,34,0,34,34,10/17/19 17:38,The main experiment item,yes,SternbergTask.osexp,C:/Users/Carolyn/Desktop,no,mono,no,18,no,white,no,yes,768,legacy,22,11,C:/Users/Carolyn/Desktop/cp_subject-3.csv,legacy,4 1 5,Kafkaesque Koffka,3.2.8,2,y,0,right,right,left,NA,right,1267,36148,16384,NA,1267,2,legacy,3,1024,2,48000,-16,experiment,3,odd,1,293856,151986,295034,297242,260947,5621,135601,296037,41770,299245,NA,295030,5616,299245,300513,Sternberg Task,23,45462,35,yes,1024
63.88888889,63.88888889,1285.555556,1285.555556,black,experiment,legacy,legacy,legacy,0,uniform,0,undefined,0,left,35,0,35,35,35,0,0,35,0,35,0,35,0,35,35,10/17/19 17:38,The main experiment item,yes,SternbergTask.osexp,C:/Users/Carolyn/Desktop,no,mono,no,18,no,white,no,yes,768,legacy,23,11,C:/Users/Carolyn/Desktop/cp_subject-3.csv,legacy,8 5 3 7 4 6,Kafkaesque Koffka,3.2.8,6,y,0,right,right,left,NA,right,818,36148,16384,NA,818,2,legacy,6,1024,2,48000,-16,experiment,3,odd,6,293856,151986,301740,303946,300564,5621,135601,302743,41770,305949,NA,301736,5616,305950,306769,Sternberg Task,23,46280,36,yes,1024
64.86486486,64.86486486,1277.567568,1277.567568,black,experiment,legacy,legacy,legacy,0,uniform,1,undefined,1,right,36,0,36,36,36,0,0,36,0,36,0,36,0,36,36,10/17/19 17:38,The main experiment item,yes,SternbergTask.osexp,C:/Users/Carolyn/Desktop,no,mono,no,18,no,white,no,yes,768,legacy,24,11,C:/Users/Carolyn/Desktop/cp_subject-3.csv,legacy,2 3 8 5 6 7,Kafkaesque Koffka,3.2.8,0,n,0,right,right,left,NA,right,990,36148,16384,NA,990,2,legacy,6,1024,2,48000,-16,experiment,3,odd,1,293856,151986,307992,310198,306813,5621,135601,308995,41770,312201,NA,307988,5616,312202,313194,Sternberg Task,24,47270,37,yes,1024
65.78947368,65.78947368,1267.473684,1267.473684,black,experiment,legacy,legacy,legacy,0,uniform,1,undefined,1,right,37,0,37,37,37,0,0,37,0,37,0,37,0,37,37,10/17/19 17:38,The main experiment item,yes,SternbergTask.osexp,C:/Users/Carolyn/Desktop,no,mono,no,18,no,white,no,yes,768,legacy,25,11,C:/Users/Carolyn/Desktop/cp_subject-3.csv,legacy,7 9 1 6,Kafkaesque Koffka,3.2.8,0,n,0,right,right,left,NA,right,894,36148,16384,NA,894,2,legacy,4,1024,2,48000,-16,experiment,3,odd,4,313238,151986,314415,316622,306813,5621,135601,315418,41770,318625,NA,314411,5616,318626,319521,Sternberg Task,25,48164,38,yes,1024
66.66666667,66.66666667,1260.74359,1260.74359,black,experiment,legacy,legacy,legacy,0,uniform,1,undefined,1,right,38,0,38,38,38,0,0,38,0,38,0,38,0,38,38,10/17/19 17:38,The main experiment item,yes,SternbergTask.osexp,C:/Users/Carolyn/Desktop,no,mono,no,18,no,white,no,yes,768,legacy,26,11,C:/Users/Carolyn/Desktop/cp_subject-3.csv,legacy,1 7 8 3 9,Kafkaesque Koffka,3.2.8,0,n,0,right,right,left,NA,right,1005,36148,16384,NA,1005,2,legacy,5,1024,2,48000,-16,experiment,3,odd,2,319571,151986,320753,322959,306813,5621,135601,321756,41770,324962,NA,320749,5616,324963,325969,Sternberg Task,26,49169,39,yes,1024
67.5,67.5,1255.5,1255.5,black,experiment,legacy,legacy,legacy,0,uniform,1,undefined,1,right,39,0,39,39,39,0,0,39,0,39,0,39,0,39,39,10/17/19 17:38,The main experiment item,yes,SternbergTask.osexp,C:/Users/Carolyn/Desktop,no,mono,no,18,no,white,no,yes,768,legacy,27,11,C:/Users/Carolyn/Desktop/cp_subject-3.csv,legacy,6 9 5,Kafkaesque Koffka,3.2.8,0,n,0,right,right,left,NA,right,1051,36148,16384,NA,1051,2,legacy,3,1024,2,48000,-16,experiment,3,odd,8,326014,151986,327195,329402,306813,5621,135601,328198,41770,331405,NA,327191,5616,331405,332458,Sternberg Task,27,50220,40,yes,1024
65.85365854,65.85365854,1245.658537,1245.658537,black,experiment,legacy,legacy,legacy,0,uniform,0,undefined,0,left,40,0,40,40,40,0,0,40,0,40,0,40,0,40,40,10/17/19 17:38,The main experiment item,yes,SternbergTask.osexp,C:/Users/Carolyn/Desktop,no,mono,no,18,no,white,no,yes,768,legacy,28,11,C:/Users/Carolyn/Desktop/cp_subject-3.csv,legacy,7 8 6 3 1,Kafkaesque Koffka,3.2.8,5,y,0,right,right,left,NA,right,852,36148,16384,NA,852,2,legacy,5,1024,2,48000,-16,experiment,3,odd,1,332505,151986,333681,335888,306813,5621,135601,334684,41770,337891,NA,333677,5616,337892,338745,Sternberg Task,27,51072,41,yes,1024
66.66666667,66.66666667,1253.928571,1253.928571,black,experiment,legacy,legacy,legacy,0,uniform,1,undefined,1,right,41,0,41,41,41,0,0,41,0,41,0,41,0,41,41,10/17/19 17:38,The main experiment item,yes,SternbergTask.osexp,C:/Users/Carolyn/Desktop,no,mono,no,18,no,white,no,yes,768,legacy,29,11,C:/Users/Carolyn/Desktop/cp_subject-3.csv,legacy,8 4 3 9,Kafkaesque Koffka,3.2.8,0,n,0,right,right,left,NA,right,1593,36148,16384,NA,1593,2,legacy,4,1024,2,48000,-16,experiment,3,odd,5,332505,151986,339973,342179,338797,5621,135601,340976,41770,344182,NA,339969,5616,344183,345777,Sternberg Task,28,52665,42,yes,1024
67.44186047,67.44186047,1243.72093,1243.72093,black,experiment,legacy,legacy,legacy,0,uniform,1,undefined,1,left,42,0,42,42,42,0,0,42,0,42,0,42,0,42,42,10/17/19 17:38,The main experiment item,yes,SternbergTask.osexp,C:/Users/Carolyn/Desktop,no,mono,no,18,no,white,no,yes,768,legacy,30,11,C:/Users/Carolyn/Desktop/cp_subject-3.csv,legacy,9 8 4,Kafkaesque Koffka,3.2.8,1,y,0,left,right,left,NA,left,815,36148,16384,NA,815,2,legacy,3,1024,2,48000,-16,experiment,3,odd,9,345821,151986,346998,349205,338797,5621,135601,348002,41770,351208,NA,346994,5616,351209,352026,Sternberg Task,29,53480,43,yes,1024
68.18181818,68.18181818,1239.204545,1239.204545,black,experiment,legacy,legacy,legacy,0,uniform,1,undefined,1,right,43,0,43,43,43,0,0,43,0,43,0,43,0,43,43,10/17/19 17:38,The main experiment item,yes,SternbergTask.osexp,C:/Users/Carolyn/Desktop,no,mono,no,18,no,white,no,yes,768,legacy,31,11,C:/Users/Carolyn/Desktop/cp_subject-3.csv,legacy,1 7 5 2,Kafkaesque Koffka,3.2.8,0,n,0,right,right,left,NA,right,1045,36148,16384,NA,1045,2,legacy,4,1024,2,48000,-16,experiment,3,odd,3,352071,151986,353248,355454,338797,5621,135601,354251,41770,357458,NA,353244,5616,357459,358505,Sternberg Task,30,54525,44,yes,1024
68.88888889,68.88888889,1243.422222,1243.422222,black,experiment,legacy,legacy,legacy,0,uniform,1,undefined,1,left,44,0,44,44,44,0,0,44,0,44,0,44,0,44,44,10/17/19 17:38,The main experiment item,yes,SternbergTask.osexp,C:/Users/Carolyn/Desktop,no,mono,no,18,no,white,no,yes,768,legacy,32,11,C:/Users/Carolyn/Desktop/cp_subject-3.csv,legacy,3 9 6 2,Kafkaesque Koffka,3.2.8,4,y,0,left,right,left,NA,left,1429,36148,16384,NA,1429,2,legacy,4,1024,2,48000,-16,experiment,3,odd,2,358555,151986,359730,361936,338797,5621,135601,360733,41770,363939,NA,359726,5616,363939,365370,Sternberg Task,31,55954,45,yes,1024
69.56521739,69.56521739,1241.456522,1241.456522,black,experiment,legacy,legacy,legacy,0,uniform,1,undefined,1,left,45,0,45,45,45,0,0,45,0,45,0,45,0,45,45,10/17/19 17:38,The main experiment item,yes,SternbergTask.osexp,C:/Users/Carolyn/Desktop,no,mono,no,18,no,white,no,yes,768,legacy,33,11,C:/Users/Carolyn/Desktop/cp_subject-3.csv,legacy,6 1 2,Kafkaesque Koffka,3.2.8,3,y,0,left,right,left,NA,left,1153,36148,16384,NA,1153,2,legacy,3,1024,2,48000,-16,experiment,3,odd,2,365413,151986,366589,368795,338797,5621,135601,367592,41770,370798,NA,366585,5616,370799,371954,Sternberg Task,32,57107,46,yes,1024
70.21276596,70.21276596,1248.425532,1248.425532,black,experiment,legacy,legacy,legacy,0,uniform,1,undefined,1,right,46,0,46,46,46,0,0,46,0,46,0,46,0,46,46,10/17/19 17:38,The main experiment item,yes,SternbergTask.osexp,C:/Users/Carolyn/Desktop,no,mono,no,18,no,white,no,yes,768,legacy,34,11,C:/Users/Carolyn/Desktop/cp_subject-3.csv,legacy,2 8 9 4 1,Kafkaesque Koffka,3.2.8,0,n,0,right,right,left,NA,right,1569,36148,16384,NA,1569,2,legacy,5,1024,2,48000,-16,experiment,3,odd,5,372004,151986,373181,375387,338797,5621,135601,374184,41770,377390,NA,373177,5616,377391,378962,Sternberg Task,33,58676,47,yes,1024
70.83333333,70.83333333,1246.041667,1246.041667,black,experiment,legacy,legacy,legacy,0,uniform,1,undefined,1,left,47,0,47,47,47,0,0,47,0,47,0,47,0,47,47,10/17/19 17:38,The main experiment item,yes,SternbergTask.osexp,C:/Users/Carolyn/Desktop,no,mono,no,18,no,white,no,yes,768,legacy,35,11,C:/Users/Carolyn/Desktop/cp_subject-3.csv,legacy,7 6,Kafkaesque Koffka,3.2.8,2,y,0,left,right,left,NA,left,1134,36148,16384,NA,1134,2,legacy,2,1024,2,48000,-16,experiment,3,odd,6,379004,151986,380183,382390,338797,5621,135601,381186,41770,384393,NA,380179,5616,384394,385530,Sternberg Task,34,59810,48,yes,1024
71.42857143,71.42857143,1248.693878,1248.693878,black,experiment,legacy,legacy,legacy,0,uniform,1,undefined,1,left,48,0,48,48,48,0,0,48,0,48,0,48,0,48,48,10/17/19 17:38,The main experiment item,yes,SternbergTask.osexp,C:/Users/Carolyn/Desktop,no,mono,no,18,no,white,no,yes,768,legacy,36,11,C:/Users/Carolyn/Desktop/cp_subject-3.csv,legacy,3 5 4 7,Kafkaesque Koffka,3.2.8,1,y,0,left,right,left,NA,left,1376,36148,16384,NA,1376,2,legacy,4,1024,2,48000,-16,experiment,3,odd,3,385580,151986,386758,388964,338797,5621,135601,387761,41770,390967,NA,386754,5616,390968,392346,Sternberg Task,35,61186,49,yes,1024
72,72,1251.42,1251.42,black,experiment,legacy,legacy,legacy,0,uniform,1,undefined,1,right,49,0,49,49,49,0,0,49,0,49,0,49,0,49,49,10/17/19 17:38,The main experiment item,yes,SternbergTask.osexp,C:/Users/Carolyn/Desktop,no,mono,no,18,no,white,no,yes,768,legacy,37,11,C:/Users/Carolyn/Desktop/cp_subject-3.csv,legacy,6 9 7 3 8 2,Kafkaesque Koffka,3.2.8,0,n,0,right,right,left,NA,right,1385,36148,16384,NA,1385,2,legacy,6,1024,2,48000,-16,experiment,3,odd,5,392396,151986,393572,395780,338797,5621,135601,394576,41770,397783,NA,393569,5616,397783,399170,Sternberg Task,36,62571,50,yes,1024
72.54901961,72.54901961,1249.568627,1249.568627,black,experiment,legacy,legacy,legacy,0,uniform,1,undefined,1,right,50,0,50,50,50,0,0,50,0,50,0,50,0,50,50,10/17/19 17:38,The main experiment item,yes,SternbergTask.osexp,C:/Users/Carolyn/Desktop,no,mono,no,18,no,white,no,yes,768,legacy,38,11,C:/Users/Carolyn/Desktop/cp_subject-3.csv,legacy,1 8 7,Kafkaesque Koffka,3.2.8,0,n,0,right,right,left,NA,right,1157,36148,16384,NA,1157,2,legacy,3,1024,2,48000,-16,experiment,3,odd,4,399254,151986,400434,402640,338797,5621,135601,401437,41770,404643,NA,400430,5616,404644,405803,Sternberg Task,37,63728,51,yes,1024
73.07692308,73.07692308,1247.480769,1247.480769,black,experiment,legacy,legacy,legacy,0,uniform,1,undefined,1,right,51,0,51,51,51,0,0,51,0,51,0,51,0,51,51,10/17/19 17:38,The main experiment item,yes,SternbergTask.osexp,C:/Users/Carolyn/Desktop,no,mono,no,18,no,white,no,yes,768,legacy,39,11,C:/Users/Carolyn/Desktop/cp_subject-3.csv,legacy,1 3 2 6 9,Kafkaesque Koffka,3.2.8,0,n,0,right,right,left,NA,right,1141,36148,16384,NA,1141,2,legacy,5,1024,2,48000,-16,experiment,3,odd,5,405847,151986,407024,409232,338797,5621,135601,408028,41770,411235,NA,407020,5616,411236,412379,Sternberg Task,38,64869,52,yes,1024
73.58490566,73.58490566,1244.415094,1244.415094,black,experiment,legacy,legacy,legacy,0,uniform,1,undefined,1,left,52,0,52,52,52,0,0,52,0,52,0,52,0,52,52,10/17/19 17:38,The main experiment item,yes,SternbergTask.osexp,C:/Users/Carolyn/Desktop,no,mono,no,18,no,white,no,yes,768,legacy,40,11,C:/Users/Carolyn/Desktop/cp_subject-3.csv,legacy,5 7 3 6 2,Kafkaesque Koffka,3.2.8,5,y,0,left,right,left,NA,left,1085,36148,16384,NA,1085,2,legacy,5,1024,2,48000,-16,experiment,3,odd,2,412422,151986,413600,415808,338797,5621,135601,414603,41770,417811,NA,413596,5616,417812,418898,Sternberg Task,39,65954,53,yes,1024
74.07407407,74.07407407,1236.092593,1236.092593,black,experiment,legacy,legacy,legacy,0,uniform,1,undefined,1,right,53,0,53,53,53,0,0,53,0,53,0,53,0,53,53,10/17/19 17:38,The main experiment item,yes,SternbergTask.osexp,C:/Users/Carolyn/Desktop,no,mono,no,18,no,white,no,yes,768,legacy,41,11,C:/Users/Carolyn/Desktop/cp_subject-3.csv,legacy,7 9,Kafkaesque Koffka,3.2.8,0,n,0,right,right,left,NA,right,795,36148,16384,NA,795,2,legacy,2,1024,2,48000,-16,experiment,3,odd,1,418938,151986,420123,422329,338797,5621,135601,421126,41770,424333,NA,420119,5616,424334,425130,Sternberg Task,40,66749,54,yes,1024
74.54545455,74.54545455,1234.981818,1234.981818,black,experiment,legacy,legacy,legacy,0,uniform,1,undefined,1,left,54,0,54,54,54,0,0,54,0,54,0,54,0,54,54,10/17/19 17:38,The main experiment item,yes,SternbergTask.osexp,C:/Users/Carolyn/Desktop,no,mono,no,18,no,white,no,yes,768,legacy,42,11,C:/Users/Carolyn/Desktop/cp_subject-3.csv,legacy,6 9 3 1,Kafkaesque Koffka,3.2.8,4,y,0,left,right,left,NA,left,1175,36148,16384,NA,1175,2,legacy,4,1024,2,48000,-16,experiment,3,odd,1,425171,151986,426351,428558,338797,5621,135601,427354,41770,430561,NA,426347,5616,430561,431738,Sternberg Task,41,67924,55,yes,1024
75,75,1235.392857,1235.392857,black,experiment,legacy,legacy,legacy,0,uniform,1,undefined,1,left,55,0,55,55,55,0,0,55,0,55,0,55,0,55,55,10/17/19 17:38,The main experiment item,yes,SternbergTask.osexp,C:/Users/Carolyn/Desktop,no,mono,no,18,no,white,no,yes,768,legacy,43,11,C:/Users/Carolyn/Desktop/cp_subject-3.csv,legacy,3 9 7 6 4,Kafkaesque Koffka,3.2.8,3,y,0,left,right,left,NA,left,1258,36148,16384,NA,1258,2,legacy,5,1024,2,48000,-16,experiment,3,odd,7,431771,151986,432949,435155,338797,5621,135601,433952,41770,437158,NA,432945,5616,437159,438419,Sternberg Task,42,69182,56,yes,1024
75.43859649,75.43859649,1233.842105,1233.842105,black,experiment,legacy,legacy,legacy,0,uniform,1,undefined,1,left,56,0,56,56,56,0,0,56,0,56,0,56,0,56,56,10/17/19 17:38,The main experiment item,yes,SternbergTask.osexp,C:/Users/Carolyn/Desktop,no,mono,no,18,no,white,no,yes,768,legacy,44,11,C:/Users/Carolyn/Desktop/cp_subject-3.csv,legacy,8 9 5 7 1 6,Kafkaesque Koffka,3.2.8,4,y,0,left,right,left,NA,left,1147,36148,16384,NA,1147,2,legacy,6,1024,2,48000,-16,experiment,3,odd,7,438463,151986,439643,441850,338797,5621,135601,440646,41770,443853,NA,439639,5616,443854,445002,Sternberg Task,43,70329,57,yes,1024
75.86206897,75.86206897,1230.137931,1230.137931,black,experiment,legacy,legacy,legacy,0,uniform,1,undefined,1,left,57,0,57,57,57,0,0,57,0,57,0,57,0,57,57,10/17/19 17:38,The main experiment item,yes,SternbergTask.osexp,C:/Users/Carolyn/Desktop,no,mono,no,18,no,white,no,yes,768,legacy,45,11,C:/Users/Carolyn/Desktop/cp_subject-3.csv,legacy,4 6 5 8,Kafkaesque Koffka,3.2.8,1,y,0,left,right,left,NA,left,1019,36148,16384,NA,1019,2,legacy,4,1024,2,48000,-16,experiment,3,odd,4,445046,151986,446227,448435,338797,5621,135601,447230,41770,450438,NA,446223,5616,450438,451459,Sternberg Task,44,71348,58,yes,1024
76.27118644,76.27118644,1228.440678,1228.440678,black,experiment,legacy,legacy,legacy,0,uniform,1,undefined,1,left,58,0,58,58,58,0,0,58,0,58,0,58,0,58,58,10/17/19 17:38,The main experiment item,yes,SternbergTask.osexp,C:/Users/Carolyn/Desktop,no,mono,no,18,no,white,no,yes,768,legacy,46,11,C:/Users/Carolyn/Desktop/cp_subject-3.csv,legacy,8 7 3,Kafkaesque Koffka,3.2.8,1,y,0,left,right,left,NA,left,1130,36148,16384,NA,1130,2,legacy,3,1024,2,48000,-16,experiment,3,odd,8,451505,151986,452685,454891,338797,5621,135601,453688,41770,456894,NA,452681,5616,456895,458027,Sternberg Task,45,72478,59,yes,1024
76.66666667,76.66666667,1241.2,1241.2,black,experiment,legacy,legacy,legacy,0,uniform,1,undefined,1,right,59,0,59,59,59,0,0,59,0,59,0,59,0,59,59,10/17/19 17:38,The main experiment item,yes,SternbergTask.osexp,C:/Users/Carolyn/Desktop,no,mono,no,18,no,white,no,yes,768,legacy,47,11,C:/Users/Carolyn/Desktop/cp_subject-3.csv,legacy,1 4 3 6 5,Kafkaesque Koffka,3.2.8,0,n,0,right,right,left,NA,right,1994,36148,16384,NA,1994,2,legacy,5,1024,2,48000,-16,experiment,3,odd,8,458063,151986,459244,461451,338797,5621,135601,460247,41770,463454,NA,459240,5616,463455,465451,Sternberg Task,46,74472,60,yes,1024
77.04918033,77.04918033,1233.819672,1233.819672,black,experiment,legacy,legacy,legacy,0,uniform,1,undefined,1,right,60,0,60,60,60,0,0,60,0,60,0,60,0,60,60,10/17/19 17:38,The main experiment item,yes,SternbergTask.osexp,C:/Users/Carolyn/Desktop,no,mono,no,18,no,white,no,yes,768,legacy,48,11,C:/Users/Carolyn/Desktop/cp_subject-3.csv,legacy,3 9 1,Kafkaesque Koffka,3.2.8,0,n,0,right,right,left,NA,right,791,36148,16384,NA,791,2,legacy,3,1024,2,48000,-16,experiment,3,odd,7,465496,151986,466672,468878,338797,5621,135601,467675,41770,470881,NA,466668,5616,470882,471675,Sternberg Task,47,75263,61,yes,1024
77.41935484,77.41935484,1227.322581,1227.322581,black,experiment,legacy,legacy,legacy,0,uniform,1,undefined,1,right,61,0,61,61,61,0,0,61,0,61,0,61,0,61,61,10/17/19 17:38,The main experiment item,yes,SternbergTask.osexp,C:/Users/Carolyn/Desktop,no,mono,no,18,no,white,no,yes,768,legacy,49,11,C:/Users/Carolyn/Desktop/cp_subject-3.csv,legacy,7 4 2 8 1 9,Kafkaesque Koffka,3.2.8,0,n,0,right,right,left,NA,right,831,36148,16384,NA,831,2,legacy,6,1024,2,48000,-16,experiment,3,odd,5,471721,151986,472903,475110,338797,5621,135601,473906,41770,477113,NA,472898,5616,477114,477947,Sternberg Task,48,76094,62,yes,1024
77.77777778,77.77777778,1235.603175,1235.603175,black,experiment,legacy,legacy,legacy,0,uniform,1,undefined,1,left,62,0,62,62,62,0,0,62,0,62,0,62,0,62,62,10/17/19 17:38,The main experiment item,yes,SternbergTask.osexp,C:/Users/Carolyn/Desktop,no,mono,no,18,no,white,no,yes,768,legacy,50,11,C:/Users/Carolyn/Desktop/cp_subject-3.csv,legacy,8 5 1 3 9,Kafkaesque Koffka,3.2.8,4,y,0,left,right,left,NA,left,1749,36148,16384,NA,1749,2,legacy,5,1024,2,48000,-16,experiment,3,odd,3,477988,151986,479175,481383,338797,5621,135601,480179,41770,483387,NA,479171,5616,483388,485139,Sternberg Task,49,77843,63,yes,1024
76.5625,76.5625,1231.421875,1231.421875,black,experiment,legacy,legacy,legacy,0,uniform,0,undefined,0,left,63,0,63,63,63,0,0,63,0,63,0,63,0,63,63,10/17/19 17:38,The main experiment item,yes,SternbergTask.osexp,C:/Users/Carolyn/Desktop,no,mono,no,18,no,white,no,yes,768,legacy,51,11,C:/Users/Carolyn/Desktop/cp_subject-3.csv,legacy,2 3 7 4,Kafkaesque Koffka,3.2.8,1,y,0,right,right,left,NA,right,968,36148,16384,NA,968,2,legacy,4,1024,2,48000,-16,experiment,3,odd,2,485187,151986,486367,488573,338797,5621,135601,487370,41770,490576,NA,486363,5616,490577,491547,Sternberg Task,49,78811,64,yes,1024
76.92307692,76.92307692,1228.984615,1228.984615,black,experiment,legacy,legacy,legacy,0,uniform,1,undefined,1,right,64,0,64,64,64,0,0,64,0,64,0,64,0,64,64,10/17/19 17:38,The main experiment item,yes,SternbergTask.osexp,C:/Users/Carolyn/Desktop,no,mono,no,18,no,white,no,yes,768,legacy,52,11,C:/Users/Carolyn/Desktop/cp_subject-3.csv,legacy,6 9 4 5 3 2,Kafkaesque Koffka,3.2.8,0,n,0,right,right,left,NA,right,1073,36148,16384,NA,1073,2,legacy,6,1024,2,48000,-16,experiment,3,odd,8,485187,151986,492758,494965,491579,5621,135601,493761,41770,496968,NA,492754,5616,496968,498043,Sternberg Task,50,79884,65,yes,1024
77.27272727,77.27272727,1230.424242,1230.424242,black,experiment,legacy,legacy,legacy,0,uniform,1,undefined,1,left,65,0,65,65,65,0,0,65,0,65,0,65,0,65,65,10/17/19 17:38,The main experiment item,yes,SternbergTask.osexp,C:/Users/Carolyn/Desktop,no,mono,no,18,no,white,no,yes,768,legacy,53,11,C:/Users/Carolyn/Desktop/cp_subject-3.csv,legacy,8 9 6 1,Kafkaesque Koffka,3.2.8,2,y,0,left,right,left,NA,left,1324,36148,16384,NA,1324,2,legacy,4,1024,2,48000,-16,experiment,3,odd,9,498088,151986,499265,501473,491579,5621,135601,500268,41770,503476,NA,499261,5616,503477,504803,Sternberg Task,51,81208,66,yes,1024
77.6119403,77.6119403,1232.626866,1232.626866,black,experiment,legacy,legacy,legacy,0,uniform,1,undefined,1,right,66,0,66,66,66,0,0,66,0,66,0,66,0,66,66,10/17/19 17:38,The main experiment item,yes,SternbergTask.osexp,C:/Users/Carolyn/Desktop,no,mono,no,18,no,white,no,yes,768,legacy,54,11,C:/Users/Carolyn/Desktop/cp_subject-3.csv,legacy,3 4 2,Kafkaesque Koffka,3.2.8,0,n,0,right,right,left,NA,right,1378,36148,16384,NA,1378,2,legacy,3,1024,2,48000,-16,experiment,3,odd,5,504863,151986,506043,508251,491579,5621,135601,507047,41770,510254,NA,506039,5616,510255,511635,Sternberg Task,52,82586,67,yes,1024
76.47058824,76.47058824,1243.911765,1243.911765,black,experiment,legacy,legacy,legacy,0,uniform,0,undefined,0,right,67,0,67,67,67,0,0,67,0,67,0,67,0,67,67,10/17/19 17:38,The main experiment item,yes,SternbergTask.osexp,C:/Users/Carolyn/Desktop,no,mono,no,18,no,white,no,yes,768,legacy,55,11,C:/Users/Carolyn/Desktop/cp_subject-3.csv,legacy,1 5 3 2 8,Kafkaesque Koffka,3.2.8,0,n,0,None,right,left,NA,None,2000,36148,16384,NA,2000,2,legacy,5,1024,2,48000,-16,experiment,3,odd,4,511679,151986,512864,515070,491579,5621,135601,513867,41770,517073,NA,512860,5616,517074,519075,Sternberg Task,52,84586,68,yes,1024
75.36231884,75.36231884,1254.869565,1254.869565,black,experiment,legacy,legacy,legacy,0,uniform,0,undefined,0,left,68,0,68,68,68,0,0,68,0,68,0,68,0,68,68,10/17/19 17:38,The main experiment item,yes,SternbergTask.osexp,C:/Users/Carolyn/Desktop,no,mono,no,18,no,white,no,yes,768,legacy,56,11,C:/Users/Carolyn/Desktop/cp_subject-3.csv,legacy,4 3 2 5 8,Kafkaesque Koffka,3.2.8,2,y,0,None,right,left,NA,None,2000,36148,16384,NA,2000,2,legacy,5,1024,2,48000,-16,experiment,3,odd,3,511679,151986,520301,522507,519121,5621,135601,521304,41770,524510,NA,520297,5616,524511,526512,Sternberg Task,52,86586,69,yes,1024
75.71428571,75.71428571,1257.457143,1257.457143,black,experiment,legacy,legacy,legacy,0,uniform,1,undefined,1,right,69,0,69,69,69,0,0,69,0,69,0,69,0,69,69,10/17/19 17:38,The main experiment item,yes,SternbergTask.osexp,C:/Users/Carolyn/Desktop,no,mono,no,18,no,white,no,yes,768,legacy,57,11,C:/Users/Carolyn/Desktop/cp_subject-3.csv,legacy,6 3 1 7 9 8,Kafkaesque Koffka,3.2.8,0,n,0,right,right,left,NA,right,1436,36148,16384,NA,1436,2,legacy,6,1024,2,48000,-16,experiment,3,odd,4,511679,151986,527732,529938,526554,5621,135601,528735,41770,531941,NA,527728,5616,531941,533379,Sternberg Task,53,88022,70,yes,1024
76.05633803,76.05633803,1259.901408,1259.901408,black,experiment,legacy,legacy,legacy,0,uniform,1,undefined,1,left,70,0,70,70,70,0,0,70,0,70,0,70,0,70,70,10/17/19 17:38,The main experiment item,yes,SternbergTask.osexp,C:/Users/Carolyn/Desktop,no,mono,no,18,no,white,no,yes,768,legacy,58,11,C:/Users/Carolyn/Desktop/cp_subject-3.csv,legacy,9 3 8 2 1 4,Kafkaesque Koffka,3.2.8,3,y,0,left,right,left,NA,left,1431,36148,16384,NA,1431,2,legacy,6,1024,2,48000,-16,experiment,3,odd,8,533462,151986,534648,536855,526554,5621,135601,535651,41770,538858,NA,534644,5616,538858,540291,Sternberg Task,54,89453,71,yes,1024
76.38888889,76.38888889,1257.777778,1257.777778,black,experiment,legacy,legacy,legacy,0,uniform,1,undefined,1,left,71,0,71,71,71,0,0,71,0,71,0,71,0,71,71,10/17/19 17:38,The main experiment item,yes,SternbergTask.osexp,C:/Users/Carolyn/Desktop,no,mono,no,18,no,white,no,yes,768,legacy,59,11,C:/Users/Carolyn/Desktop/cp_subject-3.csv,legacy,6 2,Kafkaesque Koffka,3.2.8,1,y,0,left,right,left,NA,left,1107,36148,16384,NA,1107,2,legacy,2,1024,2,48000,-16,experiment,3,odd,6,540337,151986,541515,543722,526554,5621,135601,542519,41770,545725,NA,541511,5616,545726,546835,Sternberg Task,55,90560,72,yes,1024
76.71232877,76.71232877,1250.424658,1250.424658,black,experiment,legacy,legacy,legacy,0,uniform,1,undefined,1,left,72,0,72,72,72,0,0,72,0,72,0,72,0,72,72,10/17/19 17:38,The main experiment item,yes,SternbergTask.osexp,C:/Users/Carolyn/Desktop,no,mono,no,18,no,white,no,yes,768,legacy,60,11,C:/Users/Carolyn/Desktop/cp_subject-3.csv,legacy,6 7 9 3 1 2,Kafkaesque Koffka,3.2.8,1,y,0,left,right,left,NA,left,721,36148,16384,NA,721,2,legacy,6,1024,2,48000,-16,experiment,3,odd,6,546879,151986,548059,550268,526554,5621,135601,549063,41770,552271,NA,548056,5616,552272,552995,Sternberg Task,56,91281,73,yes,1024
75.67567568,75.67567568,1260.554054,1260.554054,black,experiment,legacy,legacy,legacy,0,uniform,0,undefined,0,left,73,0,73,73,73,0,0,73,0,73,0,73,0,73,73,10/17/19 17:38,The main experiment item,yes,SternbergTask.osexp,C:/Users/Carolyn/Desktop,no,mono,no,18,no,white,no,yes,768,legacy,61,11,C:/Users/Carolyn/Desktop/cp_subject-3.csv,legacy,7 4 2 6 3 5,Kafkaesque Koffka,3.2.8,6,y,0,None,right,left,NA,None,2000,36148,16384,NA,2000,2,legacy,6,1024,2,48000,-16,experiment,3,odd,5,553046,151986,554225,556432,526554,5621,135601,555228,41770,558435,NA,554221,5616,558436,560437,Sternberg Task,56,93281,74,yes,1024
74.66666667,74.66666667,1270.413333,1270.413333,black,experiment,legacy,legacy,legacy,0,uniform,0,undefined,0,right,74,0,74,74,74,0,0,74,0,74,0,74,0,74,74,10/17/19 17:38,The main experiment item,yes,SternbergTask.osexp,C:/Users/Carolyn/Desktop,no,mono,no,18,no,white,no,yes,768,legacy,62,11,C:/Users/Carolyn/Desktop/cp_subject-3.csv,legacy,5 3 8 7 2 4,Kafkaesque Koffka,3.2.8,0,n,0,None,right,left,NA,None,2000,36148,16384,NA,2000,2,legacy,6,1024,2,48000,-16,experiment,3,odd,9,553046,151986,561693,563901,560509,5621,135601,562696,41770,565904,NA,561689,5616,565905,567906,Sternberg Task,56,95281,75,yes,1024
73.68421053,73.68421053,1280.013158,1280.013158,black,experiment,legacy,legacy,legacy,0,uniform,0,undefined,0,right,75,0,75,75,75,0,0,75,0,75,0,75,0,75,75,10/17/19 17:38,The main experiment item,yes,SternbergTask.osexp,C:/Users/Carolyn/Desktop,no,mono,no,18,no,white,no,yes,768,legacy,63,11,C:/Users/Carolyn/Desktop/cp_subject-3.csv,legacy,1 6 4,Kafkaesque Koffka,3.2.8,0,n,0,None,right,left,NA,None,2000,36148,16384,NA,2000,2,legacy,3,1024,2,48000,-16,experiment,3,odd,7,553046,151986,569135,571342,567954,5621,135601,570138,41770,573345,NA,569132,5616,573346,575347,Sternberg Task,56,97281,76,yes,1024
72.72727273,72.72727273,1274.480519,1274.480519,black,experiment,legacy,legacy,legacy,0,uniform,0,undefined,0,left,76,0,76,76,76,0,0,76,0,76,0,76,0,76,76,10/17/19 17:38,The main experiment item,yes,SternbergTask.osexp,C:/Users/Carolyn/Desktop,no,mono,no,18,no,white,no,yes,768,legacy,64,11,C:/Users/Carolyn/Desktop/cp_subject-3.csv,legacy,4 7 6 8 2 3,Kafkaesque Koffka,3.2.8,6,y,0,right,right,left,NA,right,854,36148,16384,NA,854,2,legacy,6,1024,2,48000,-16,experiment,3,odd,3,553046,151986,576593,578800,575413,5621,135601,577596,41770,580803,NA,576589,5616,580803,581659,Sternberg Task,56,98135,77,yes,1024
73.07692308,73.07692308,1272.141026,1272.141026,black,experiment,legacy,legacy,legacy,0,uniform,1,undefined,1,left,77,0,77,77,77,0,0,77,0,77,0,77,0,77,77,10/17/19 17:38,The main experiment item,yes,SternbergTask.osexp,C:/Users/Carolyn/Desktop,no,mono,no,18,no,white,no,yes,768,legacy,65,11,C:/Users/Carolyn/Desktop/cp_subject-3.csv,legacy,9 3 1 2 5,Kafkaesque Koffka,3.2.8,4,y,0,left,right,left,NA,left,1092,36148,16384,NA,1092,2,legacy,5,1024,2,48000,-16,experiment,3,odd,2,553046,151986,582881,585088,581704,5621,135601,583884,41770,587092,NA,582877,5616,587093,588187,Sternberg Task,57,99227,78,yes,1024
73.41772152,73.41772152,1269.202532,1269.202532,black,experiment,legacy,legacy,legacy,0,uniform,1,undefined,1,right,78,0,78,78,78,0,0,78,0,78,0,78,0,78,78,10/17/19 17:38,The main experiment item,yes,SternbergTask.osexp,C:/Users/Carolyn/Desktop,no,mono,no,18,no,white,no,yes,768,legacy,66,11,C:/Users/Carolyn/Desktop/cp_subject-3.csv,legacy,7 1 8 4 9 3,Kafkaesque Koffka,3.2.8,0,n,0,right,right,left,NA,right,1040,36148,16384,NA,1040,2,legacy,6,1024,2,48000,-16,experiment,3,odd,6,588228,151986,589407,591614,581704,5621,135601,590410,41770,593617,NA,589403,5616,593617,594659,Sternberg Task,58,100267,79,yes,1024
73.75,73.75,1270,1270,black,experiment,legacy,legacy,legacy,0,uniform,1,undefined,1,left,79,0,79,79,79,0,0,79,0,79,0,79,0,79,79,10/17/19 17:38,The main experiment item,yes,SternbergTask.osexp,C:/Users/Carolyn/Desktop,no,mono,no,18,no,white,no,yes,768,legacy,67,11,C:/Users/Carolyn/Desktop/cp_subject-3.csv,legacy,7,Kafkaesque Koffka,3.2.8,1,y,0,left,right,left,NA,left,1333,36148,16384,NA,1333,2,legacy,1,1024,2,48000,-16,experiment,3,odd,7,594695,151986,595873,598080,581704,5621,135601,596876,41770,600083,NA,595869,5616,600084,601419,Sternberg Task,59,101600,80,yes,1024
74.07407407,74.07407407,1268.395062,1268.395062,black,experiment,legacy,legacy,legacy,0,uniform,1,undefined,1,left,80,0,80,80,80,0,0,80,0,80,0,80,0,80,80,10/17/19 17:38,The main experiment item,yes,SternbergTask.osexp,C:/Users/Carolyn/Desktop,no,mono,no,18,no,white,no,yes,768,legacy,68,11,C:/Users/Carolyn/Desktop/cp_subject-3.csv,legacy,3 4,Kafkaesque Koffka,3.2.8,1,y,0,left,right,left,NA,left,1140,36148,16384,NA,1140,2,legacy,2,1024,2,48000,-16,experiment,3,odd,3,601461,151986,602642,604849,581704,5621,135601,603645,41770,606852,NA,602638,5616,606853,607995,Sternberg Task,60,102740,81,yes,1024
74.3902439,74.3902439,1262.670732,1262.670732,black,experiment,legacy,legacy,legacy,0,uniform,1,undefined,1,left,81,0,81,81,81,0,0,81,0,81,0,81,0,81,81,10/17/19 17:38,The main experiment item,yes,SternbergTask.osexp,C:/Users/Carolyn/Desktop,no,mono,no,18,no,white,no,yes,768,legacy,69,11,C:/Users/Carolyn/Desktop/cp_subject-3.csv,legacy,8 5 4 7 3 1,Kafkaesque Koffka,3.2.8,2,y,0,left,right,left,NA,left,799,36148,16384,NA,799,2,legacy,6,1024,2,48000,-16,experiment,3,odd,5,608028,151986,609208,611414,581704,5621,135601,610211,41770,613417,NA,609204,5616,613418,614219,Sternberg Task,61,103539,82,yes,1024
74.69879518,74.69879518,1257.373494,1257.373494,black,experiment,legacy,legacy,legacy,0,uniform,1,undefined,1,left,82,0,82,82,82,0,0,82,0,82,0,82,0,82,82,10/17/19 17:38,The main experiment item,yes,SternbergTask.osexp,C:/Users/Carolyn/Desktop,no,mono,no,18,no,white,no,yes,768,legacy,70,11,C:/Users/Carolyn/Desktop/cp_subject-3.csv,legacy,4 9 7 8 5 3,Kafkaesque Koffka,3.2.8,4,y,0,left,right,left,NA,left,823,36148,16384,NA,823,2,legacy,6,1024,2,48000,-16,experiment,3,odd,8,614262,151986,615439,617646,581704,5621,135601,616442,41770,619649,NA,615435,5616,619650,620475,Sternberg Task,62,104362,83,yes,1024
75,75,1255.035714,1255.035714,black,experiment,legacy,legacy,legacy,0,uniform,1,undefined,1,left,83,0,83,83,83,0,0,83,0,83,0,83,0,83,83,10/17/19 17:38,The main experiment item,yes,SternbergTask.osexp,C:/Users/Carolyn/Desktop,no,mono,no,18,no,white,no,yes,768,legacy,71,11,C:/Users/Carolyn/Desktop/cp_subject-3.csv,legacy,8 1 6,Kafkaesque Koffka,3.2.8,3,y,0,left,right,left,NA,left,1061,36148,16384,NA,1061,2,legacy,3,1024,2,48000,-16,experiment,3,odd,6,620520,151986,621698,623905,581704,5621,135601,622701,41770,625908,NA,621694,5616,625908,626971,Sternberg Task,63,105423,84,yes,1024
75.29411765,75.29411765,1250.352941,1250.352941,black,experiment,legacy,legacy,legacy,0,uniform,1,undefined,1,left,84,0,84,84,84,0,0,84,0,84,0,84,0,84,84,10/17/19 17:38,The main experiment item,yes,SternbergTask.osexp,C:/Users/Carolyn/Desktop,no,mono,no,18,no,white,no,yes,768,legacy,72,11,C:/Users/Carolyn/Desktop/cp_subject-3.csv,legacy,2 8 5 1,Kafkaesque Koffka,3.2.8,4,y,0,left,right,left,NA,left,857,36148,16384,NA,857,2,legacy,4,1024,2,48000,-16,experiment,3,odd,1,627012,151986,628191,630397,581704,5621,135601,629194,41770,632400,NA,628187,5616,632400,633259,Sternberg Task,64,106280,85,yes,1024
75.58139535,75.58139535,1246.848837,1246.848837,black,experiment,legacy,legacy,legacy,0,uniform,1,undefined,1,right,85,0,85,85,85,0,0,85,0,85,0,85,0,85,85,10/17/19 17:38,The main experiment item,yes,SternbergTask.osexp,C:/Users/Carolyn/Desktop,no,mono,no,18,no,white,no,yes,768,legacy,73,11,C:/Users/Carolyn/Desktop/cp_subject-3.csv,legacy,4 2 7 6 1 3,Kafkaesque Koffka,3.2.8,0,n,0,right,right,left,NA,right,949,36148,16384,NA,949,2,legacy,6,1024,2,48000,-16,experiment,3,odd,8,633303,151986,634481,636689,581704,5621,135601,635485,41770,638692,NA,634478,5616,638692,639643,Sternberg Task,65,107229,86,yes,1024
75.86206897,75.86206897,1251.16092,1251.16092,black,experiment,legacy,legacy,legacy,0,uniform,1,undefined,1,right,86,0,86,86,86,0,0,86,0,86,0,86,0,86,86,10/17/19 17:38,The main experiment item,yes,SternbergTask.osexp,C:/Users/Carolyn/Desktop,no,mono,no,18,no,white,no,yes,768,legacy,74,11,C:/Users/Carolyn/Desktop/cp_subject-3.csv,legacy,8 6 3 4 7,Kafkaesque Koffka,3.2.8,0,n,0,right,right,left,NA,right,1622,36148,16384,NA,1622,2,legacy,5,1024,2,48000,-16,experiment,3,odd,1,639686,151986,640865,643071,581704,5621,135601,641868,41770,645074,NA,640861,5616,645075,646699,Sternberg Task,66,108851,87,yes,1024
76.13636364,76.13636364,1253.738636,1253.738636,black,experiment,legacy,legacy,legacy,0,uniform,1,undefined,1,right,87,0,87,87,87,0,0,87,0,87,0,87,0,87,87,10/17/19 17:38,The main experiment item,yes,SternbergTask.osexp,C:/Users/Carolyn/Desktop,no,mono,no,18,no,white,no,yes,768,legacy,75,11,C:/Users/Carolyn/Desktop/cp_subject-3.csv,legacy,8 5 7 3 6,Kafkaesque Koffka,3.2.8,0,n,0,right,right,left,NA,right,1478,36148,16384,NA,1478,2,legacy,5,1024,2,48000,-16,experiment,3,odd,9,646744,151986,647921,650127,581704,5621,135601,648924,41770,652130,NA,647917,5616,652131,653611,Sternberg Task,67,110329,88,yes,1024
76.40449438,76.40449438,1247.292135,1247.292135,black,experiment,legacy,legacy,legacy,0,uniform,1,undefined,1,left,88,0,88,88,88,0,0,88,0,88,0,88,0,88,88,10/17/19 17:38,The main experiment item,yes,SternbergTask.osexp,C:/Users/Carolyn/Desktop,no,mono,no,18,no,white,no,yes,768,legacy,76,11,C:/Users/Carolyn/Desktop/cp_subject-3.csv,legacy,9 1 6 7 8,Kafkaesque Koffka,3.2.8,1,y,0,left,right,left,NA,left,680,36148,16384,NA,680,2,legacy,5,1024,2,48000,-16,experiment,3,odd,9,653653,151986,654831,657037,581704,5621,135601,655834,41770,659040,NA,654827,5616,659041,659723,Sternberg Task,68,111009,89,yes,1024
76.66666667,76.66666667,1240.933333,1240.933333,black,experiment,legacy,legacy,legacy,0,uniform,1,undefined,1,left,89,0,89,89,89,0,0,89,0,89,0,89,0,89,89,10/17/19 17:38,The main experiment item,yes,SternbergTask.osexp,C:/Users/Carolyn/Desktop,no,mono,no,18,no,white,no,yes,768,legacy,77,11,C:/Users/Carolyn/Desktop/cp_subject-3.csv,legacy,9 4 2,Kafkaesque Koffka,3.2.8,1,y,0,left,right,left,NA,left,675,36148,16384,NA,675,2,legacy,3,1024,2,48000,-16,experiment,3,odd,9,659770,151986,660948,663154,581704,5621,135601,661951,41770,665157,NA,660944,5616,665158,665835,Sternberg Task,69,111684,90,yes,1024
76.92307692,76.92307692,1238,1238,black,experiment,legacy,legacy,legacy,0,uniform,1,undefined,1,left,90,0,90,90,90,0,0,90,0,90,0,90,0,90,90,10/17/19 17:38,The main experiment item,yes,SternbergTask.osexp,C:/Users/Carolyn/Desktop,no,mono,no,18,no,white,no,yes,768,legacy,78,11,C:/Users/Carolyn/Desktop/cp_subject-3.csv,legacy,7 2 3,Kafkaesque Koffka,3.2.8,3,y,0,left,right,left,NA,left,974,36148,16384,NA,974,2,legacy,3,1024,2,48000,-16,experiment,3,odd,3,665878,151986,667057,669264,581704,5621,135601,668060,41770,671267,NA,667053,5616,671267,672243,Sternberg Task,70,112658,91,yes,1024
77.17391304,77.17391304,1236.695652,1236.695652,black,experiment,legacy,legacy,legacy,0,uniform,1,undefined,1,left,91,0,91,91,91,0,0,91,0,91,0,91,0,91,91,10/17/19 17:38,The main experiment item,yes,SternbergTask.osexp,C:/Users/Carolyn/Desktop,no,mono,no,18,no,white,no,yes,768,legacy,79,11,C:/Users/Carolyn/Desktop/cp_subject-3.csv,legacy,8 3,Kafkaesque Koffka,3.2.8,2,y,0,left,right,left,NA,left,1118,36148,16384,NA,1118,2,legacy,2,1024,2,48000,-16,experiment,3,odd,3,672286,151986,673464,675671,581704,5621,135601,674468,41770,677674,NA,673461,5616,677675,678795,Sternberg Task,71,113776,92,yes,1024
77.41935484,77.41935484,1241.806452,1241.806452,black,experiment,legacy,legacy,legacy,0,uniform,1,undefined,1,right,92,0,92,92,92,0,0,92,0,92,0,92,0,92,92,10/17/19 17:38,The main experiment item,yes,SternbergTask.osexp,C:/Users/Carolyn/Desktop,no,mono,no,18,no,white,no,yes,768,legacy,80,11,C:/Users/Carolyn/Desktop/cp_subject-3.csv,legacy,9 8 2 7 4,Kafkaesque Koffka,3.2.8,0,n,0,right,right,left,NA,right,1712,36148,16384,NA,1712,2,legacy,5,1024,2,48000,-16,experiment,3,odd,5,678836,151986,680023,682229,581704,5621,135601,681026,41770,684232,NA,680019,5616,684233,685947,Sternberg Task,72,115488,93,yes,1024
77.65957447,77.65957447,1240.319149,1240.319149,black,experiment,legacy,legacy,legacy,0,uniform,1,undefined,1,right,93,0,93,93,93,0,0,93,0,93,0,93,0,93,93,10/17/19 17:38,The main experiment item,yes,SternbergTask.osexp,C:/Users/Carolyn/Desktop,no,mono,no,18,no,white,no,yes,768,legacy,81,11,C:/Users/Carolyn/Desktop/cp_subject-3.csv,legacy,9 5 3 2 8 6,Kafkaesque Koffka,3.2.8,0,n,0,right,right,left,NA,right,1102,36148,16384,NA,1102,2,legacy,6,1024,2,48000,-16,experiment,3,odd,7,685994,151986,687175,689382,581704,5621,135601,688178,41770,691385,NA,687171,5616,691386,692491,Sternberg Task,73,116590,94,yes,1024
77.89473684,77.89473684,1237.578947,1237.578947,black,experiment,legacy,legacy,legacy,0,uniform,1,undefined,1,right,94,0,94,94,94,0,0,94,0,94,0,94,0,94,94,10/17/19 17:38,The main experiment item,yes,SternbergTask.osexp,C:/Users/Carolyn/Desktop,no,mono,no,18,no,white,no,yes,768,legacy,82,11,C:/Users/Carolyn/Desktop/cp_subject-3.csv,legacy,7 8 6 1,Kafkaesque Koffka,3.2.8,0,n,0,right,right,left,NA,right,980,36148,16384,NA,980,2,legacy,4,1024,2,48000,-16,experiment,3,odd,3,692535,151986,693714,695921,581704,5621,135601,694717,41770,697924,NA,693710,5616,697924,698907,Sternberg Task,74,117570,95,yes,1024
78.125,78.125,1243.135417,1243.135417,black,experiment,legacy,legacy,legacy,0,uniform,1,undefined,1,left,95,0,95,95,95,0,0,95,0,95,0,95,0,95,95,10/17/19 17:38,The main experiment item,yes,SternbergTask.osexp,C:/Users/Carolyn/Desktop,no,mono,no,18,no,white,no,yes,768,legacy,83,11,C:/Users/Carolyn/Desktop/cp_subject-3.csv,legacy,3 4 9 6 2 9,Kafkaesque Koffka,3.2.8,5,y,0,left,right,left,NA,left,1771,36148,16384,NA,1771,2,legacy,6,1024,2,48000,-16,experiment,3,odd,2,698952,151986,700131,702338,581704,5621,135601,701134,41770,704341,NA,700127,5616,704341,706115,Sternberg Task,75,119341,96,yes,1024
78.35051546,78.35051546,1240.061856,1240.061856,black,experiment,legacy,legacy,legacy,0,uniform,1,undefined,1,left,96,0,96,96,96,0,0,96,0,96,0,96,0,96,96,10/17/19 17:38,The main experiment item,yes,SternbergTask.osexp,C:/Users/Carolyn/Desktop,no,mono,no,18,no,white,no,yes,768,legacy,84,11,C:/Users/Carolyn/Desktop/cp_subject-3.csv,legacy,2 4 8 5 1 3,Kafkaesque Koffka,3.2.8,1,y,0,left,right,left,NA,left,945,36148,16384,NA,945,2,legacy,6,1024,2,48000,-16,experiment,3,odd,2,706160,151986,707341,709547,581704,5621,135601,708344,41770,711550,NA,707337,5616,711551,712499,Sternberg Task,76,120286,97,yes,1024
78.57142857,78.57142857,1237.479592,1237.479592,black,experiment,legacy,legacy,legacy,0,uniform,1,undefined,1,left,97,0,97,97,97,0,0,97,0,97,0,97,0,97,97,10/17/19 17:38,The main experiment item,yes,SternbergTask.osexp,C:/Users/Carolyn/Desktop,no,mono,no,18,no,white,no,yes,768,legacy,85,11,C:/Users/Carolyn/Desktop/cp_subject-3.csv,legacy,3 5 7 1,Kafkaesque Koffka,3.2.8,3,y,0,left,right,left,NA,left,987,36148,16384,NA,987,2,legacy,4,1024,2,48000,-16,experiment,3,odd,7,712544,151986,713722,715929,581704,5621,135601,714725,41770,717932,NA,713718,5616,717933,718923,Sternberg Task,77,121273,98,yes,1024
78.78787879,78.78787879,1234.121212,1234.121212,black,experiment,legacy,legacy,legacy,0,uniform,1,undefined,1,left,98,0,98,98,98,0,0,98,0,98,0,98,0,98,98,10/17/19 17:38,The main experiment item,yes,SternbergTask.osexp,C:/Users/Carolyn/Desktop,no,mono,no,18,no,white,no,yes,768,legacy,86,11,C:/Users/Carolyn/Desktop/cp_subject-3.csv,legacy,2 6 1 7 4,Kafkaesque Koffka,3.2.8,2,y,0,left,right,left,NA,left,905,36148,16384,NA,905,2,legacy,5,1024,2,48000,-16,experiment,3,odd,6,718968,151986,720147,722355,581704,5621,135601,721150,41770,724358,NA,720143,5616,724359,725267,Sternberg Task,78,122178,99,yes,1024
79,79,1229.1,1229.1,black,experiment,legacy,legacy,legacy,0,uniform,1,undefined,1,right,99,0,99,99,99,0,0,99,0,99,0,99,0,99,99,10/17/19 17:38,The main experiment item,yes,SternbergTask.osexp,C:/Users/Carolyn/Desktop,no,mono,no,18,no,white,no,yes,768,legacy,87,11,C:/Users/Carolyn/Desktop/cp_subject-3.csv,legacy,7 1,Kafkaesque Koffka,3.2.8,0,n,0,right,right,left,NA,right,732,36148,16384,NA,732,2,legacy,2,1024,2,48000,-16,experiment,3,odd,8,725310,151986,726491,728697,581704,5621,135601,727494,41770,730700,NA,726487,5616,730700,731435,Sternberg Task,79,122910,100,yes,1024
79.20792079,79.20792079,1227.455446,1227.455446,black,experiment,legacy,legacy,legacy,0,uniform,1,undefined,1,left,100,0,100,100,100,0,0,100,0,100,0,100,0,100,100,10/17/19 17:38,The main experiment item,yes,SternbergTask.osexp,C:/Users/Carolyn/Desktop,no,mono,no,18,no,white,no,yes,768,legacy,88,11,C:/Users/Carolyn/Desktop/cp_subject-3.csv,legacy,6 7 8 5,Kafkaesque Koffka,3.2.8,3,y,0,left,right,left,NA,left,1063,36148,16384,NA,1063,2,legacy,4,1024,2,48000,-16,experiment,3,odd,8,731477,151986,732654,734862,581704,5621,135601,733657,41770,736865,NA,732650,5616,736865,737931,Sternberg Task,80,123973,101,yes,1024
79.41176471,79.41176471,1232.647059,1232.647059,black,experiment,legacy,legacy,legacy,0,uniform,1,undefined,1,right,101,0,101,101,101,0,0,101,0,101,0,101,0,101,101,10/17/19 17:38,The main experiment item,yes,SternbergTask.osexp,C:/Users/Carolyn/Desktop,no,mono,no,18,no,white,no,yes,768,legacy,89,11,C:/Users/Carolyn/Desktop/cp_subject-3.csv,legacy,1,Kafkaesque Koffka,3.2.8,0,n,0,right,right,left,NA,right,1757,36148,16384,NA,1757,2,legacy,1,1024,2,48000,-16,experiment,3,odd,7,737976,151986,739153,741359,581704,5621,135601,740156,41770,743362,NA,739149,5616,743363,745123,Sternberg Task,81,125730,102,yes,1024
79.61165049,79.61165049,1229.475728,1229.475728,black,experiment,legacy,legacy,legacy,0,uniform,1,undefined,1,left,102,0,102,102,102,0,0,102,0,102,0,102,0,102,102,10/17/19 17:38,The main experiment item,yes,SternbergTask.osexp,C:/Users/Carolyn/Desktop,no,mono,no,18,no,white,no,yes,768,legacy,90,11,C:/Users/Carolyn/Desktop/cp_subject-3.csv,legacy,7 1 8 5 6 2,Kafkaesque Koffka,3.2.8,2,y,0,left,right,left,NA,left,906,36148,16384,NA,906,2,legacy,6,1024,2,48000,-16,experiment,3,odd,1,745168,151986,746347,748554,581704,5621,135601,747350,41770,750558,NA,746343,5616,750558,751467,Sternberg Task,82,126636,103,yes,1024
79.80769231,79.80769231,1229.826923,1229.826923,black,experiment,legacy,legacy,legacy,0,uniform,1,undefined,1,right,103,0,103,103,103,0,0,103,0,103,0,103,0,103,103,10/17/19 17:38,The main experiment item,yes,SternbergTask.osexp,C:/Users/Carolyn/Desktop,no,mono,no,18,no,white,no,yes,768,legacy,91,11,C:/Users/Carolyn/Desktop/cp_subject-3.csv,legacy,8 5 4 2 9 6,Kafkaesque Koffka,3.2.8,0,n,0,right,right,left,NA,right,1266,36148,16384,NA,1266,2,legacy,6,1024,2,48000,-16,experiment,3,odd,3,751510,151986,752691,754898,581704,5621,135601,753694,41770,756901,NA,752687,5616,756902,758171,Sternberg Task,83,127902,104,yes,1024
80,80,1227.238095,1227.238095,black,experiment,legacy,legacy,legacy,0,uniform,1,undefined,1,left,104,0,104,104,104,0,0,104,0,104,0,104,0,104,104,10/17/19 17:38,The main experiment item,yes,SternbergTask.osexp,C:/Users/Carolyn/Desktop,no,mono,no,18,no,white,no,yes,768,legacy,92,11,C:/Users/Carolyn/Desktop/cp_subject-3.csv,legacy,5 2 6,Kafkaesque Koffka,3.2.8,2,y,0,left,right,left,NA,left,958,36148,16384,NA,958,2,legacy,3,1024,2,48000,-16,experiment,3,odd,2,758210,151986,759390,761598,581704,5621,135601,760394,41770,763601,NA,759387,5616,763602,764563,Sternberg Task,84,128860,105,yes,1024
80.18867925,80.18867925,1225.933962,1225.933962,black,experiment,legacy,legacy,legacy,0,uniform,1,undefined,1,right,105,0,105,105,105,0,0,105,0,105,0,105,0,105,105,10/17/19 17:38,The main experiment item,yes,SternbergTask.osexp,C:/Users/Carolyn/Desktop,no,mono,no,18,no,white,no,yes,768,legacy,93,11,C:/Users/Carolyn/Desktop/cp_subject-3.csv,legacy,2 5 1 4,Kafkaesque Koffka,3.2.8,0,n,0,right,right,left,NA,right,1089,36148,16384,NA,1089,2,legacy,4,1024,2,48000,-16,experiment,3,odd,6,764601,151986,765779,767987,581704,5621,135601,766782,41770,769990,NA,765775,5616,769991,771083,Sternberg Task,85,129949,106,yes,1024
80.37383178,80.37383178,1226.990654,1226.990654,black,experiment,legacy,legacy,legacy,0,uniform,1,undefined,1,right,106,0,106,106,106,0,0,106,0,106,0,106,0,106,106,10/17/19 17:38,The main experiment item,yes,SternbergTask.osexp,C:/Users/Carolyn/Desktop,no,mono,no,18,no,white,no,yes,768,legacy,94,11,C:/Users/Carolyn/Desktop/cp_subject-3.csv,legacy,7 6 4 8 1 2,Kafkaesque Koffka,3.2.8,0,n,0,right,right,left,NA,right,1339,36148,16384,NA,1339,2,legacy,6,1024,2,48000,-16,experiment,3,odd,9,771126,151986,772304,774513,581704,5621,135601,773308,41770,776516,NA,772301,5616,776517,777859,Sternberg Task,86,131288,107,yes,1024
80.55555556,80.55555556,1225.296296,1225.296296,black,experiment,legacy,legacy,legacy,0,uniform,1,undefined,1,right,107,0,107,107,107,0,0,107,0,107,0,107,0,107,107,10/17/19 17:38,The main experiment item,yes,SternbergTask.osexp,C:/Users/Carolyn/Desktop,no,mono,no,18,no,white,no,yes,768,legacy,95,11,C:/Users/Carolyn/Desktop/cp_subject-3.csv,legacy,1 7 5 2 9,Kafkaesque Koffka,3.2.8,0,n,0,right,right,left,NA,right,1044,36148,16384,NA,1044,2,legacy,5,1024,2,48000,-16,experiment,3,odd,3,777901,151986,779090,781296,581704,5621,135601,780093,41770,783300,NA,779086,5616,783300,784347,Sternberg Task,87,132332,108,yes,1024
80.73394495,80.73394495,1223.981651,1223.981651,black,experiment,legacy,legacy,legacy,0,uniform,1,undefined,1,left,108,0,108,108,108,0,0,108,0,108,0,108,0,108,108,10/17/19 17:38,The main experiment item,yes,SternbergTask.osexp,C:/Users/Carolyn/Desktop,no,mono,no,18,no,white,no,yes,768,legacy,96,11,C:/Users/Carolyn/Desktop/cp_subject-3.csv,legacy,4 6 2 5 1,Kafkaesque Koffka,3.2.8,5,y,0,left,right,left,NA,left,1082,36148,16384,NA,1082,2,legacy,5,1024,2,48000,-16,experiment,3,odd,1,784392,151986,785573,787779,581704,5621,135601,786576,41770,789782,NA,785569,5616,789782,790867,Sternberg Task,88,133414,109,yes,1024
80.90909091,80.90909091,1220.681818,1220.681818,black,experiment,legacy,legacy,legacy,0,uniform,1,undefined,1,left,109,0,109,109,109,0,0,109,0,109,0,109,0,109,109,10/17/19 17:38,The main experiment item,yes,SternbergTask.osexp,C:/Users/Carolyn/Desktop,no,mono,no,18,no,white,no,yes,768,legacy,97,11,C:/Users/Carolyn/Desktop/cp_subject-3.csv,legacy,4,Kafkaesque Koffka,3.2.8,1,y,0,left,right,left,NA,left,861,36148,16384,NA,861,2,legacy,1,1024,2,48000,-16,experiment,3,odd,4,790909,151986,792087,794295,581704,5621,135601,793091,41770,796298,NA,792083,5616,796299,797163,Sternberg Task,89,134275,110,yes,1024
81.08108108,81.08108108,1215.747748,1215.747748,black,experiment,legacy,legacy,legacy,0,uniform,1,undefined,1,left,110,0,110,110,110,0,0,110,0,110,0,110,0,110,110,10/17/19 17:38,The main experiment item,yes,SternbergTask.osexp,C:/Users/Carolyn/Desktop,no,mono,no,18,no,white,no,yes,768,legacy,98,11,C:/Users/Carolyn/Desktop/cp_subject-3.csv,legacy,6 8 9 3 4 9,Kafkaesque Koffka,3.2.8,5,y,0,left,right,left,NA,left,673,36148,16384,NA,673,2,legacy,6,1024,2,48000,-16,experiment,3,odd,4,797210,151986,798389,800595,581704,5621,135601,799392,41770,802598,NA,798385,5616,802599,803275,Sternberg Task,90,134948,111,yes,1024
81.25,81.25,1215.294643,1215.294643,black,experiment,legacy,legacy,legacy,0,uniform,1,undefined,1,right,111,0,111,111,111,0,0,111,0,111,0,111,0,111,111,10/17/19 17:38,The main experiment item,yes,SternbergTask.osexp,C:/Users/Carolyn/Desktop,no,mono,no,18,no,white,no,yes,768,legacy,99,11,C:/Users/Carolyn/Desktop/cp_subject-3.csv,legacy,7 3 2 8,Kafkaesque Koffka,3.2.8,0,n,0,right,right,left,NA,right,1165,36148,16384,NA,1165,2,legacy,4,1024,2,48000,-16,experiment,3,odd,4,803318,151986,804496,806704,581704,5621,135601,805499,41770,808707,NA,804492,5616,808707,809875,Sternberg Task,91,136113,112,yes,1024
81.4159292,81.4159292,1215.610619,1215.610619,black,experiment,legacy,legacy,legacy,0,uniform,1,undefined,1,left,112,0,112,112,112,0,0,112,0,112,0,112,0,112,112,10/17/19 17:38,The main experiment item,yes,SternbergTask.osexp,C:/Users/Carolyn/Desktop,no,mono,no,18,no,white,no,yes,768,legacy,100,11,C:/Users/Carolyn/Desktop/cp_subject-3.csv,legacy,8 9 5 6 7,Kafkaesque Koffka,3.2.8,1,y,0,left,right,left,NA,left,1251,36148,16384,NA,1251,2,legacy,5,1024,2,48000,-16,experiment,3,odd,8,809918,151986,811100,813306,581704,5621,135601,812103,41770,815309,NA,811096,5616,815309,816563,Sternberg Task,92,137364,113,yes,1024
81.57894737,81.57894737,1216.815789,1216.815789,black,experiment,legacy,legacy,legacy,0,uniform,1,undefined,1,right,113,0,113,113,113,0,0,113,0,113,0,113,0,113,113,10/17/19 17:38,The main experiment item,yes,SternbergTask.osexp,C:/Users/Carolyn/Desktop,no,mono,no,18,no,white,no,yes,768,legacy,101,11,C:/Users/Carolyn/Desktop/cp_subject-3.csv,legacy,5 2,Kafkaesque Koffka,3.2.8,0,n,0,right,right,left,NA,right,1353,36148,16384,NA,1353,2,legacy,2,1024,2,48000,-16,experiment,3,odd,7,816609,151986,817789,819995,581704,5621,135601,818792,41770,821998,NA,817785,5616,821999,823355,Sternberg Task,93,138717,114,yes,1024
81.73913043,81.73913043,1214.878261,1214.878261,black,experiment,legacy,legacy,legacy,0,uniform,1,undefined,1,right,114,0,114,114,114,0,0,114,0,114,0,114,0,114,114,10/17/19 17:38,The main experiment item,yes,SternbergTask.osexp,C:/Users/Carolyn/Desktop,no,mono,no,18,no,white,no,yes,768,legacy,102,11,C:/Users/Carolyn/Desktop/cp_subject-3.csv,legacy,2 7 5,Kafkaesque Koffka,3.2.8,0,n,0,right,right,left,NA,right,994,36148,16384,NA,994,2,legacy,3,1024,2,48000,-16,experiment,3,odd,8,823392,151986,824570,826778,581704,5621,135601,825574,41770,828781,NA,824566,5616,828782,829779,Sternberg Task,94,139711,115,yes,1024
81.89655172,81.89655172,1215.931034,1215.931034,black,experiment,legacy,legacy,legacy,0,uniform,1,undefined,1,left,115,0,115,115,115,0,0,115,0,115,0,115,0,115,115,10/17/19 17:38,The main experiment item,yes,SternbergTask.osexp,C:/Users/Carolyn/Desktop,no,mono,no,18,no,white,no,yes,768,legacy,103,11,C:/Users/Carolyn/Desktop/cp_subject-3.csv,legacy,2 5 4 8 7,Kafkaesque Koffka,3.2.8,3,y,0,left,right,left,NA,left,1337,36148,16384,NA,1337,2,legacy,5,1024,2,48000,-16,experiment,3,odd,4,829818,151986,830995,833203,581704,5621,135601,831998,41770,835206,NA,830991,5616,835207,836547,Sternberg Task,95,141048,116,yes,1024
82.05128205,82.05128205,1214.102564,1214.102564,black,experiment,legacy,legacy,legacy,0,uniform,1,undefined,1,left,116,0,116,116,116,0,0,116,0,116,0,116,0,116,116,10/17/19 17:38,The main experiment item,yes,SternbergTask.osexp,C:/Users/Carolyn/Desktop,no,mono,no,18,no,white,no,yes,768,legacy,104,11,C:/Users/Carolyn/Desktop/cp_subject-3.csv,legacy,6 5,Kafkaesque Koffka,3.2.8,2,y,0,left,right,left,NA,left,1002,36148,16384,NA,1002,2,legacy,2,1024,2,48000,-16,experiment,3,odd,5,836592,151986,837770,839978,581704,5621,135601,838774,41770,841981,NA,837766,5616,841982,842987,Sternberg Task,96,142050,117,yes,1024
82.20338983,82.20338983,1216.677966,1216.677966,black,experiment,legacy,legacy,legacy,0,uniform,1,undefined,1,right,117,0,117,117,117,0,0,117,0,117,0,117,0,117,117,10/17/19 17:38,The main experiment item,yes,SternbergTask.osexp,C:/Users/Carolyn/Desktop,no,mono,no,18,no,white,no,yes,768,legacy,105,11,C:/Users/Carolyn/Desktop/cp_subject-3.csv,legacy,8 9,Kafkaesque Koffka,3.2.8,0,n,0,right,right,left,NA,right,1518,36148,16384,NA,1518,2,legacy,2,1024,2,48000,-16,experiment,3,odd,5,843025,151986,844206,846414,581704,5621,135601,845209,41770,848417,NA,844202,5616,848418,849939,Sternberg Task,97,143568,118,yes,1024
82.35294118,82.35294118,1216.109244,1216.109244,black,experiment,legacy,legacy,legacy,0,uniform,1,undefined,1,left,118,0,118,118,118,0,0,118,0,118,0,118,0,118,118,10/17/19 17:38,The main experiment item,yes,SternbergTask.osexp,C:/Users/Carolyn/Desktop,no,mono,no,18,no,white,no,yes,768,legacy,106,11,C:/Users/Carolyn/Desktop/cp_subject-3.csv,legacy,5 2 9 6 1 7,Kafkaesque Koffka,3.2.8,3,y,0,left,right,left,NA,left,1149,36148,16384,NA,1149,2,legacy,6,1024,2,48000,-16,experiment,3,odd,9,849976,151986,851159,853367,581704,5621,135601,852162,41770,855370,NA,851155,5616,855371,856523,Sternberg Task,98,144717,119,yes,1024
82.5,82.5,1213.216667,1213.216667,black,experiment,legacy,legacy,legacy,0,uniform,1,undefined,1,left,119,0,119,119,119,0,0,119,0,119,0,119,0,119,119,10/17/19 17:38,The main experiment item,yes,SternbergTask.osexp,C:/Users/Carolyn/Desktop,no,mono,no,18,no,white,no,yes,768,legacy,107,11,C:/Users/Carolyn/Desktop/cp_subject-3.csv,legacy,7 8 4 6 9 5,Kafkaesque Koffka,3.2.8,4,y,0,left,right,left,NA,left,869,36148,16384,NA,869,2,legacy,6,1024,2,48000,-16,experiment,3,odd,6,856567,151986,857745,859952,581704,5621,135601,858748,41770,861955,NA,857741,5616,861955,862827,Sternberg Task,99,145586,120,yes,1024
82.6446281,82.6446281,1209.07438,1209.07438,black,experiment,legacy,legacy,legacy,0,uniform,1,undefined,1,right,120,0,120,120,120,0,0,120,0,120,0,120,0,120,120,10/17/19 17:38,The main experiment item,yes,SternbergTask.osexp,C:/Users/Carolyn/Desktop,no,mono,no,18,no,white,no,yes,768,legacy,108,11,C:/Users/Carolyn/Desktop/cp_subject-3.csv,legacy,6 8,Kafkaesque Koffka,3.2.8,0,n,0,right,right,left,NA,right,712,36148,16384,NA,712,2,legacy,2,1024,2,48000,-16,experiment,3,odd,9,862859,151986,864037,866244,581704,5621,135601,865040,41770,868247,NA,864033,5616,868248,868963,Sternberg Task,100,146298,121,yes,1024
82.78688525,82.78688525,1206.04918,1206.04918,black,experiment,legacy,legacy,legacy,0,uniform,1,undefined,1,right,121,0,121,121,121,0,0,121,0,121,0,121,0,121,121,10/17/19 17:38,The main experiment item,yes,SternbergTask.osexp,C:/Users/Carolyn/Desktop,no,mono,no,18,no,white,no,yes,768,legacy,109,11,C:/Users/Carolyn/Desktop/cp_subject-3.csv,legacy,3 9 8 1 6 4,Kafkaesque Koffka,3.2.8,0,n,0,right,right,left,NA,right,840,36148,16384,NA,840,2,legacy,6,1024,2,48000,-16,experiment,3,odd,7,869008,151986,870188,872396,581704,5621,135601,871191,41770,874399,NA,870184,5616,874400,875243,Sternberg Task,101,147138,122,yes,1024
82.92682927,82.92682927,1205.634146,1205.634146,black,experiment,legacy,legacy,legacy,0,uniform,1,undefined,1,right,122,0,122,122,122,0,0,122,0,122,0,122,0,122,122,10/17/19 17:38,The main experiment item,yes,SternbergTask.osexp,C:/Users/Carolyn/Desktop,no,mono,no,18,no,white,no,yes,768,legacy,110,11,C:/Users/Carolyn/Desktop/cp_subject-3.csv,legacy,6 9 4 5 2,Kafkaesque Koffka,3.2.8,0,n,0,right,right,left,NA,right,1155,36148,16384,NA,1155,2,legacy,5,1024,2,48000,-16,experiment,3,odd,1,875284,151986,876467,878673,581704,5621,135601,877470,41770,880677,NA,876463,5616,880677,881835,Sternberg Task,102,148293,123,yes,1024
83.06451613,83.06451613,1208.475806,1208.475806,black,experiment,legacy,legacy,legacy,0,uniform,1,undefined,1,right,123,0,123,123,123,0,0,123,0,123,0,123,0,123,123,10/17/19 17:38,The main experiment item,yes,SternbergTask.osexp,C:/Users/Carolyn/Desktop,no,mono,no,18,no,white,no,yes,768,legacy,111,11,C:/Users/Carolyn/Desktop/cp_subject-3.csv,legacy,2 8 7 9 5 3,Kafkaesque Koffka,3.2.8,0,n,0,right,right,left,NA,right,1558,36148,16384,NA,1558,2,legacy,6,1024,2,48000,-16,experiment,3,odd,6,881875,151986,883056,885262,581704,5621,135601,884059,41770,887265,NA,883052,5616,887266,888827,Sternberg Task,103,149851,124,yes,1024
83.2,83.2,1210.888,1210.888,black,experiment,legacy,legacy,legacy,0,uniform,1,undefined,1,right,124,0,124,124,124,0,0,124,0,124,0,124,0,124,124,10/17/19 17:38,The main experiment item,yes,SternbergTask.osexp,C:/Users/Carolyn/Desktop,no,mono,no,18,no,white,no,yes,768,legacy,112,11,C:/Users/Carolyn/Desktop/cp_subject-3.csv,legacy,6 7 5 9,Kafkaesque Koffka,3.2.8,0,n,0,right,right,left,NA,right,1510,36148,16384,NA,1510,2,legacy,4,1024,2,48000,-16,experiment,3,odd,2,888917,151986,890096,892302,581704,5621,135601,891099,41770,894305,NA,890092,5616,894306,895819,Sternberg Task,104,151361,125,yes,1024
83.33333333,83.33333333,1212.119048,1212.119048,black,experiment,legacy,legacy,legacy,0,uniform,1,undefined,1,right,125,0,125,125,125,0,0,125,0,125,0,125,0,125,125,10/17/19 17:38,The main experiment item,yes,SternbergTask.osexp,C:/Users/Carolyn/Desktop,no,mono,no,18,no,white,no,yes,768,legacy,113,11,C:/Users/Carolyn/Desktop/cp_subject-3.csv,legacy,1 4 9 3,Kafkaesque Koffka,3.2.8,0,n,0,right,right,left,NA,right,1366,36148,16384,NA,1366,2,legacy,4,1024,2,48000,-16,experiment,3,odd,5,895859,151986,897040,899246,581704,5621,135601,898043,41770,901249,NA,897036,5616,901250,902619,Sternberg Task,105,152727,126,yes,1024
83.46456693,83.46456693,1212.850394,1212.850394,black,experiment,legacy,legacy,legacy,0,uniform,1,undefined,1,right,126,0,126,126,126,0,0,126,0,126,0,126,0,126,126,10/17/19 17:38,The main experiment item,yes,SternbergTask.osexp,C:/Users/Carolyn/Desktop,no,mono,no,18,no,white,no,yes,768,legacy,114,11,C:/Users/Carolyn/Desktop/cp_subject-3.csv,legacy,9 7 4 5 8,Kafkaesque Koffka,3.2.8,0,n,0,right,right,left,NA,right,1305,36148,16384,NA,1305,2,legacy,5,1024,2,48000,-16,experiment,3,odd,6,902658,151986,903836,906043,581704,5621,135601,904839,41770,908046,NA,903832,5616,908047,909355,Sternberg Task,106,154032,127,yes,1024
83.59375,83.59375,1210.539063,1210.539063,black,experiment,legacy,legacy,legacy,0,uniform,1,undefined,1,left,127,0,127,127,127,0,0,127,0,127,0,127,0,127,127,10/17/19 17:38,The main experiment item,yes,SternbergTask.osexp,C:/Users/Carolyn/Desktop,no,mono,no,18,no,white,no,yes,768,legacy,115,11,C:/Users/Carolyn/Desktop/cp_subject-3.csv,legacy,9 6 2 4 1,Kafkaesque Koffka,3.2.8,4,y,0,left,right,left,NA,left,917,36148,16384,NA,917,2,legacy,5,1024,2,48000,-16,experiment,3,odd,4,909450,151986,910631,912839,581704,5621,135601,911635,41770,914842,NA,910627,5616,914843,915763,Sternberg Task,107,154949,128,yes,1024
82.94573643,82.94573643,1212.891473,1212.891473,black,experiment,legacy,legacy,legacy,0,uniform,0,undefined,0,left,128,0,128,128,128,0,0,128,0,128,0,128,0,128,128,10/17/19 17:38,The main experiment item,yes,SternbergTask.osexp,C:/Users/Carolyn/Desktop,no,mono,no,18,no,white,no,yes,768,legacy,116,11,C:/Users/Carolyn/Desktop/cp_subject-3.csv,legacy,9 1 7 2,Kafkaesque Koffka,3.2.8,2,y,0,right,right,left,NA,right,1514,36148,16384,NA,1514,2,legacy,4,1024,2,48000,-16,experiment,3,odd,1,915800,151986,916980,919186,581704,5621,135601,917983,41770,921189,NA,916976,5616,921190,922707,Sternberg Task,107,156463,129,yes,1024
83.07692308,83.07692308,1211.984615,1211.984615,black,experiment,legacy,legacy,legacy,0,uniform,1,undefined,1,left,129,0,129,129,129,0,0,129,0,129,0,129,0,129,129,10/17/19 17:38,The main experiment item,yes,SternbergTask.osexp,C:/Users/Carolyn/Desktop,no,mono,no,18,no,white,no,yes,768,legacy,117,11,C:/Users/Carolyn/Desktop/cp_subject-3.csv,legacy,1 4 9 3 2 5,Kafkaesque Koffka,3.2.8,3,y,0,left,right,left,NA,left,1095,36148,16384,NA,1095,2,legacy,6,1024,2,48000,-16,experiment,3,odd,9,915800,151986,923919,926126,922741,5621,135601,924922,41770,928129,NA,923915,5616,928129,929227,Sternberg Task,108,157558,130,yes,1024
82.44274809,82.44274809,1218.007634,1218.007634,black,experiment,legacy,legacy,legacy,0,uniform,0,undefined,0,left,130,0,130,130,130,0,0,130,0,130,0,130,0,130,130,10/17/19 17:38,The main experiment item,yes,SternbergTask.osexp,C:/Users/Carolyn/Desktop,no,mono,no,18,no,white,no,yes,768,legacy,118,11,C:/Users/Carolyn/Desktop/cp_subject-3.csv,legacy,5 7 8 2 3 8,Kafkaesque Koffka,3.2.8,5,y,0,None,right,left,NA,None,2001,36148,16384,NA,2001,2,legacy,6,1024,2,48000,-16,experiment,3,odd,3,929267,151986,930445,932653,922741,5621,135601,931449,41770,934656,NA,930441,5616,934656,936659,Sternberg Task,108,159559,131,yes,1024
81.81818182,81.81818182,1215.818182,1215.818182,black,experiment,legacy,legacy,legacy,0,uniform,0,undefined,0,right,131,0,131,131,131,0,0,131,0,131,0,131,0,131,131,10/17/19 17:38,The main experiment item,yes,SternbergTask.osexp,C:/Users/Carolyn/Desktop,no,mono,no,18,no,white,no,yes,768,legacy,119,11,C:/Users/Carolyn/Desktop/cp_subject-3.csv,legacy,1 6 4 3 9 7,Kafkaesque Koffka,3.2.8,0,n,0,left,right,left,NA,left,929,36148,16384,NA,929,2,legacy,6,1024,2,48000,-16,experiment,3,odd,8,929267,151986,937877,940083,936700,5621,135601,938880,41770,942086,NA,937873,5616,942087,943020,Sternberg Task,108,160488,132,yes,1024
81.95488722,81.95488722,1215.142857,1215.142857,black,experiment,legacy,legacy,legacy,0,uniform,1,undefined,1,right,132,0,132,132,132,0,0,132,0,132,0,132,0,132,132,10/17/19 17:38,The main experiment item,yes,SternbergTask.osexp,C:/Users/Carolyn/Desktop,no,mono,no,18,no,white,no,yes,768,legacy,120,11,C:/Users/Carolyn/Desktop/cp_subject-3.csv,legacy,1 4 9 2 5,Kafkaesque Koffka,3.2.8,0,n,0,right,right,left,NA,right,1126,36148,16384,NA,1126,2,legacy,5,1024,2,48000,-16,experiment,3,odd,7,929267,151986,944232,946438,943049,5621,135601,945235,41770,948441,NA,944228,5616,948442,949572,Sternberg Task,109,161614,133,yes,1024
82.08955224,82.08955224,1215.268657,1215.268657,black,experiment,legacy,legacy,legacy,0,uniform,1,undefined,1,right,133,0,133,133,133,0,0,133,0,133,0,133,0,133,133,10/17/19 17:38,The main experiment item,yes,SternbergTask.osexp,C:/Users/Carolyn/Desktop,no,mono,no,18,no,white,no,yes,768,legacy,121,11,C:/Users/Carolyn/Desktop/cp_subject-3.csv,legacy,7 1 5 6 3,Kafkaesque Koffka,3.2.8,0,n,0,right,right,left,NA,right,1232,36148,16384,NA,1232,2,legacy,5,1024,2,48000,-16,experiment,3,odd,8,949617,151986,950797,953004,943049,5621,135601,951800,41770,955007,NA,950793,5616,955008,956244,Sternberg Task,110,162846,134,yes,1024
82.22222222,82.22222222,1216.62963,1216.62963,black,experiment,legacy,legacy,legacy,0,uniform,1,undefined,1,left,134,0,134,134,134,0,0,134,0,134,0,134,0,134,134,10/17/19 17:38,The main experiment item,yes,SternbergTask.osexp,C:/Users/Carolyn/Desktop,no,mono,no,18,no,white,no,yes,768,legacy,122,11,C:/Users/Carolyn/Desktop/cp_subject-3.csv,legacy,3 5 9 6 2 4,Kafkaesque Koffka,3.2.8,1,y,0,left,right,left,NA,left,1399,36148,16384,NA,1399,2,legacy,6,1024,2,48000,-16,experiment,3,odd,3,956283,151986,957462,959669,943049,5621,135601,958465,41770,961672,NA,957458,5616,961673,963075,Sternberg Task,111,164245,135,yes,1024
82.35294118,82.35294118,1214.639706,1214.639706,black,experiment,legacy,legacy,legacy,0,uniform,1,undefined,1,left,135,0,135,135,135,0,0,135,0,135,0,135,0,135,135,10/17/19 17:38,The main experiment item,yes,SternbergTask.osexp,C:/Users/Carolyn/Desktop,no,mono,no,18,no,white,no,yes,768,legacy,123,11,C:/Users/Carolyn/Desktop/cp_subject-3.csv,legacy,8,Kafkaesque Koffka,3.2.8,1,y,0,left,right,left,NA,left,946,36148,16384,NA,946,2,legacy,1,1024,2,48000,-16,experiment,3,odd,8,963116,151986,964292,966498,943049,5621,135601,965295,41770,968501,NA,964288,5616,968502,969451,Sternberg Task,112,165191,136,yes,1024
82.48175182,82.48175182,1215.233577,1215.233577,black,experiment,legacy,legacy,legacy,0,uniform,1,undefined,1,right,136,0,136,136,136,0,0,136,0,136,0,136,0,136,136,10/17/19 17:38,The main experiment item,yes,SternbergTask.osexp,C:/Users/Carolyn/Desktop,no,mono,no,18,no,white,no,yes,768,legacy,124,11,C:/Users/Carolyn/Desktop/cp_subject-3.csv,legacy,3 4 9 6 7 8,Kafkaesque Koffka,3.2.8,0,n,0,right,right,left,NA,right,1296,36148,16384,NA,1296,2,legacy,6,1024,2,48000,-16,experiment,3,odd,2,969491,151986,970677,972884,943049,5621,135601,971680,41770,974887,NA,970673,5616,974888,976187,Sternberg Task,113,166487,137,yes,1024
82.60869565,82.60869565,1216.826087,1216.826087,black,experiment,legacy,legacy,legacy,0,uniform,1,undefined,1,right,137,0,137,137,137,0,0,137,0,137,0,137,0,137,137,10/17/19 17:38,The main experiment item,yes,SternbergTask.osexp,C:/Users/Carolyn/Desktop,no,mono,no,18,no,white,no,yes,768,legacy,125,11,C:/Users/Carolyn/Desktop/cp_subject-3.csv,legacy,5 7 3,Kafkaesque Koffka,3.2.8,0,n,0,right,right,left,NA,right,1435,36148,16384,NA,1435,2,legacy,3,1024,2,48000,-16,experiment,3,odd,9,976233,151986,977411,979617,943049,5621,135601,978414,41770,981620,NA,977407,5616,981621,983059,Sternberg Task,114,167922,138,yes,1024