acc,accuracy,average_response_time,avg_rt,background,block,canvas_backend,clock_backend,color_backend,compensation,coordinates,correct,correct_Keyboard_response,correct_instruction1,correct_response,count_ISI,count_Keyboard_response,count_PracticeLoop,count_correctFeedback,count_exp_sequence,count_experiment,count_experimentLoop,count_fixation,count_incorrectFeedback,count_instruction1,count_instructions2,count_logger,count_memorySet,count_probe,count_thankYou,datetime,description,disable_garbage_collection,experiment_file,experiment_path,font_bold,font_family,font_italic,font_size,font_underline,foreground,form_clicks,fullscreen,height,keyboard_backend,live_row,live_row_PracticeLoop,logfile,mouse_backend,numberSet,opensesame_codename,opensesame_version,posInSet,present,repeat_cycle,response,response_Keyboard_response,response_instruction1,response_instructions2,response_thankYou,response_time,response_time_Keyboard_response,response_time_instruction1,response_time_instructions2,response_time_thankYou,round_decimals,sampler_backend,setSize,sound_buf_size,sound_channels,sound_freq,sound_sample_size,start,subject_nr,subject_parity,target,time_ISI,time_Keyboard_response,time_PracticeLoop,time_correctFeedback,time_exp_sequence,time_experiment,time_experimentLoop,time_fixation,time_incorrectFeedback,time_instruction1,time_instructions2,time_logger,time_memorySet,time_probe,time_thankYou,title,total_correct,total_response_time,total_responses,uniform_coordinates,width
0,0,1300,1300,black,practice,legacy,legacy,legacy,0,uniform,0,0,undefined,left,0,0,0,0,0,0,0,0,0,0,0,0,0,0,0,10/20/19 18:47,The main experiment item,yes,SternbergTask.osexp,C:\Users\hosan\Desktop,no,mono,no,18,no,white,no,yes,768,legacy,0,0,C:/Users/hosan/Desktop/TB-subject-1.csv,legacy,1 7 9 8 5,Kafkaesque Koffka,3.2.8,4,y,0,right,right,left,NA,NA,1300,1300,19308,NA,NA,2,legacy,5,1024,2,48000,-16,experiment,1,odd,8,32693,34698,27520,NA,30480,8199,NA,30483,NA,8211,NA,35998,31488,34698,NA,Sternberg Task,0,1300,1,yes,1024
50,50,1394.5,1394.5,black,practice,legacy,legacy,legacy,0,uniform,1,1,undefined,right,1,1,0,1,1,0,0,1,1,0,0,1,1,1,0,10/20/19 18:47,The main experiment item,yes,SternbergTask.osexp,C:\Users\hosan\Desktop,no,mono,no,18,no,white,no,yes,768,legacy,1,1,C:/Users/hosan/Desktop/TB-subject-1.csv,legacy,3 1 9 4,Kafkaesque Koffka,3.2.8,0,n,0,right,right,left,NA,NA,1489,1489,19308,NA,NA,2,legacy,4,1024,2,48000,-16,experiment,1,odd,6,39588,41595,27520,NA,37374,8199,NA,37377,36203,8211,NA,43084,38383,41594,NA,Sternberg Task,1,2789,2,yes,1024
66.66666667,66.66666667,1217,1217,black,practice,legacy,legacy,legacy,0,uniform,1,1,undefined,left,2,2,0,2,2,0,0,2,2,0,0,2,2,2,0,10/20/19 18:47,The main experiment item,yes,SternbergTask.osexp,C:\Users\hosan\Desktop,no,mono,no,18,no,white,no,yes,768,legacy,2,2,C:/Users/hosan/Desktop/TB-subject-1.csv,legacy,4 8,Kafkaesque Koffka,3.2.8,1,y,0,left,left,left,NA,NA,862,862,19308,NA,NA,2,legacy,2,1024,2,48000,-16,experiment,1,odd,4,46479,48485,27520,43134,44265,8199,NA,44267,36203,8211,NA,49348,45273,48484,NA,Sternberg Task,2,3651,3,yes,1024
75,75,1155.5,1155.5,black,practice,legacy,legacy,legacy,0,uniform,1,1,undefined,right,3,3,0,3,3,0,0,3,3,0,0,3,3,3,0,10/20/19 18:47,The main experiment item,yes,SternbergTask.osexp,C:\Users\hosan\Desktop,no,mono,no,18,no,white,no,yes,768,legacy,3,3,C:/Users/hosan/Desktop/TB-subject-1.csv,legacy,5,Kafkaesque Koffka,3.2.8,0,n,0,right,right,left,NA,NA,971,971,19308,NA,NA,2,legacy,1,1024,2,48000,-16,experiment,1,odd,3,52748,54753,27520,49409,50535,8199,NA,50538,36203,8211,NA,55724,51543,54753,NA,Sternberg Task,3,4622,4,yes,1024
80,80,1101.2,1101.2,black,practice,legacy,legacy,legacy,0,uniform,1,1,undefined,right,4,4,0,4,4,0,0,4,4,0,0,4,4,4,0,10/20/19 18:47,The main experiment item,yes,SternbergTask.osexp,C:\Users\hosan\Desktop,no,mono,no,18,no,white,no,yes,768,legacy,4,4,C:/Users/hosan/Desktop/TB-subject-1.csv,legacy,2 1,Kafkaesque Koffka,3.2.8,0,n,0,right,right,left,NA,NA,884,884,19308,NA,NA,2,legacy,2,1024,2,48000,-16,experiment,1,odd,5,59114,61121,27520,55771,56901,8199,NA,56904,36203,8211,NA,62006,57909,61120,NA,Sternberg Task,4,5506,5,yes,1024
83.33333333,83.33333333,1079.833333,1079.833333,black,practice,legacy,legacy,legacy,0,uniform,1,1,undefined,right,5,5,0,5,5,0,0,5,5,0,0,5,5,5,0,10/20/19 18:47,The main experiment item,yes,SternbergTask.osexp,C:\Users\hosan\Desktop,no,mono,no,18,no,white,no,yes,768,legacy,5,5,C:/Users/hosan/Desktop/TB-subject-1.csv,legacy,5 7 8 4 1 2,Kafkaesque Koffka,3.2.8,0,n,0,right,right,left,NA,NA,973,973,19308,NA,NA,2,legacy,6,1024,2,48000,-16,experiment,1,odd,6,65370,67374,27520,62038,63155,8199,NA,63157,36203,8211,NA,68347,64163,67374,NA,Sternberg Task,5,6479,6,yes,1024
85.71428571,85.71428571,1044.571429,1044.571429,black,practice,legacy,legacy,legacy,0,uniform,1,1,undefined,right,6,6,0,6,6,0,0,6,6,0,0,6,6,6,0,10/20/19 18:47,The main experiment item,yes,SternbergTask.osexp,C:\Users\hosan\Desktop,no,mono,no,18,no,white,no,yes,768,legacy,6,6,C:/Users/hosan/Desktop/TB-subject-1.csv,legacy,9 6 7 4 5,Kafkaesque Koffka,3.2.8,0,n,0,right,right,left,NA,NA,833,833,19308,NA,NA,2,legacy,5,1024,2,48000,-16,experiment,1,odd,3,71739,73745,27520,68393,69525,8199,NA,69528,36203,8211,NA,74578,70533,73744,NA,Sternberg Task,6,7312,7,yes,1024
87.5,87.5,995.625,995.625,black,practice,legacy,legacy,legacy,0,uniform,1,1,undefined,right,7,7,0,7,7,0,0,7,7,0,0,7,7,7,0,10/20/19 18:47,The main experiment item,yes,SternbergTask.osexp,C:\Users\hosan\Desktop,no,mono,no,18,no,white,no,yes,768,legacy,7,7,C:/Users/hosan/Desktop/TB-subject-1.csv,legacy,4 1 5,Kafkaesque Koffka,3.2.8,0,n,0,right,right,left,NA,NA,653,653,19308,NA,NA,2,legacy,3,1024,2,48000,-16,experiment,1,odd,2,77979,79981,27520,74639,75766,8199,NA,75768,36203,8211,NA,80634,76773,79981,NA,Sternberg Task,7,7965,8,yes,1024
88.88888889,88.88888889,1067.222222,1067.222222,black,practice,legacy,legacy,legacy,0,uniform,1,1,undefined,left,8,8,0,8,8,0,0,8,8,0,0,8,8,8,0,10/20/19 18:47,The main experiment item,yes,SternbergTask.osexp,C:\Users\hosan\Desktop,no,mono,no,18,no,white,no,yes,768,legacy,8,8,C:/Users/hosan/Desktop/TB-subject-1.csv,legacy,4 3 1 7 9 8,Kafkaesque Koffka,3.2.8,1,y,0,left,left,left,NA,NA,1640,1640,19308,NA,NA,2,legacy,6,1024,2,48000,-16,experiment,1,odd,4,84072,86078,27520,80669,81863,8199,NA,81865,36203,8211,NA,87718,82866,86077,NA,Sternberg Task,8,9605,9,yes,1024
90,90,1042.5,1042.5,black,practice,legacy,legacy,legacy,0,uniform,1,1,undefined,left,9,9,0,9,9,0,0,9,9,0,0,9,9,9,0,10/20/19 18:47,The main experiment item,yes,SternbergTask.osexp,C:\Users\hosan\Desktop,no,mono,no,18,no,white,no,yes,768,legacy,9,9,C:/Users/hosan/Desktop/TB-subject-1.csv,legacy,2 9 4,Kafkaesque Koffka,3.2.8,3,y,0,left,left,left,NA,NA,820,820,19308,NA,NA,2,legacy,3,1024,2,48000,-16,experiment,1,odd,4,91145,93151,27520,87789,88931,8199,NA,88934,36203,8211,NA,93971,89939,93150,NA,Sternberg Task,9,10425,10,yes,1024
90.90909091,90.90909091,1013.727273,1013.727273,black,practice,legacy,legacy,legacy,0,uniform,1,1,undefined,left,10,10,0,10,10,0,0,10,10,0,0,10,10,10,0,10/20/19 18:47,The main experiment item,yes,SternbergTask.osexp,C:\Users\hosan\Desktop,no,mono,no,18,no,white,no,yes,768,legacy,10,10,C:/Users/hosan/Desktop/TB-subject-1.csv,legacy,6,Kafkaesque Koffka,3.2.8,1,y,0,left,left,left,NA,NA,726,726,19308,NA,NA,2,legacy,1,1024,2,48000,-16,experiment,1,odd,6,97356,99362,27520,94009,95142,8199,NA,95145,36203,8211,NA,100088,96151,99362,NA,Sternberg Task,10,11151,11,yes,1024
91.66666667,91.66666667,1065.666667,1065.666667,black,practice,legacy,legacy,legacy,0,uniform,1,1,undefined,left,11,11,0,11,11,0,0,11,11,0,0,11,11,11,0,10/20/19 18:47,The main experiment item,yes,SternbergTask.osexp,C:\Users\hosan\Desktop,no,mono,no,18,no,white,no,yes,768,legacy,11,11,C:/Users/hosan/Desktop/TB-subject-1.csv,legacy,1 5 2 9,Kafkaesque Koffka,3.2.8,2,y,0,left,left,left,NA,NA,1637,1637,19308,NA,NA,2,legacy,4,1024,2,48000,-16,experiment,1,odd,5,103477,105479,27520,100131,101265,8199,NA,101268,36203,8211,NA,107118,102273,105479,NA,Sternberg Task,11,12788,12,yes,1024
92.30769231,92.30769231,1036,1036,black,experiment,legacy,legacy,legacy,0,uniform,1,1,undefined,right,12,12,0,12,12,0,0,12,12,0,0,12,12,12,0,10/20/19 18:47,The main experiment item,yes,SternbergTask.osexp,C:\Users\hosan\Desktop,no,mono,no,18,no,white,no,yes,768,legacy,0,11,C:/Users/hosan/Desktop/TB-subject-1.csv,legacy,3 4 9 6 7 8,Kafkaesque Koffka,3.2.8,0,n,0,right,right,left,right,NA,680,680,19308,17557,NA,2,legacy,6,1024,2,48000,-16,experiment,1,odd,2,128258,130261,27520,107213,126051,8199,125801,126054,36203,8211,108243,130942,127056,130260,NA,Sternberg Task,12,13468,13,yes,1024
85.71428571,85.71428571,1044.428571,1044.428571,black,experiment,legacy,legacy,legacy,0,uniform,0,0,undefined,right,13,13,0,13,13,0,0,13,13,0,0,13,13,13,0,10/20/19 18:47,The main experiment item,yes,SternbergTask.osexp,C:\Users\hosan\Desktop,no,mono,no,18,no,white,no,yes,768,legacy,1,11,C:/Users/hosan/Desktop/TB-subject-1.csv,legacy,5 2,Kafkaesque Koffka,3.2.8,0,n,0,left,left,left,right,NA,1154,1154,19308,17557,NA,2,legacy,2,1024,2,48000,-16,experiment,1,odd,7,134349,136351,27520,130983,132141,8199,125801,132145,36203,8211,108243,137506,133147,136351,NA,Sternberg Task,12,14622,14,yes,1024
86.66666667,86.66666667,1051.866667,1051.866667,black,experiment,legacy,legacy,legacy,0,uniform,1,1,undefined,right,14,14,0,14,14,0,0,14,14,0,0,14,14,14,0,10/20/19 18:47,The main experiment item,yes,SternbergTask.osexp,C:\Users\hosan\Desktop,no,mono,no,18,no,white,no,yes,768,legacy,2,11,C:/Users/hosan/Desktop/TB-subject-1.csv,legacy,7 9 1 6,Kafkaesque Koffka,3.2.8,0,n,0,right,right,left,right,NA,1156,1156,19308,17557,NA,2,legacy,4,1024,2,48000,-16,experiment,1,odd,4,140978,142981,27520,130983,138770,8199,125801,138773,137569,8211,108243,144138,139775,142980,NA,Sternberg Task,13,15778,15,yes,1024
87.5,87.5,1023.5625,1023.5625,black,experiment,legacy,legacy,legacy,0,uniform,1,1,undefined,right,15,15,0,15,15,0,0,15,15,0,0,15,15,15,0,10/20/19 18:47,The main experiment item,yes,SternbergTask.osexp,C:\Users\hosan\Desktop,no,mono,no,18,no,white,no,yes,768,legacy,3,11,C:/Users/hosan/Desktop/TB-subject-1.csv,legacy,1 3 2 6 9,Kafkaesque Koffka,3.2.8,0,n,0,right,right,left,right,NA,599,599,19308,17557,NA,2,legacy,5,1024,2,48000,-16,experiment,1,odd,5,147542,149545,27520,144168,145334,8199,125801,145337,137569,8211,108243,150145,146339,149545,NA,Sternberg Task,14,16377,16,yes,1024
88.23529412,88.23529412,1012.235294,1012.235294,black,experiment,legacy,legacy,legacy,0,uniform,1,1,undefined,right,16,16,0,16,16,0,0,16,16,0,0,16,16,16,0,10/20/19 18:47,The main experiment item,yes,SternbergTask.osexp,C:\Users\hosan\Desktop,no,mono,no,18,no,white,no,yes,768,legacy,4,11,C:/Users/hosan/Desktop/TB-subject-1.csv,legacy,1 4 9 3,Kafkaesque Koffka,3.2.8,0,n,0,right,right,left,right,NA,831,831,19308,17557,NA,2,legacy,4,1024,2,48000,-16,experiment,1,odd,5,153500,155504,27520,150168,151294,8199,125801,151296,137569,8211,108243,156336,152298,155504,NA,Sternberg Task,15,17208,17,yes,1024
83.33333333,83.33333333,994.2222222,994.2222222,black,experiment,legacy,legacy,legacy,0,uniform,0,0,undefined,left,17,17,0,17,17,0,0,17,17,0,0,17,17,17,0,10/20/19 18:47,The main experiment item,yes,SternbergTask.osexp,C:\Users\hosan\Desktop,no,mono,no,18,no,white,no,yes,768,legacy,5,11,C:/Users/hosan/Desktop/TB-subject-1.csv,legacy,6 9 7 4 5 1,Kafkaesque Koffka,3.2.8,2,y,0,right,right,left,right,NA,688,688,19308,17557,NA,2,legacy,6,1024,2,48000,-16,experiment,1,odd,9,159972,161976,27520,156595,157764,8199,125801,157767,137569,8211,108243,162665,158770,161976,NA,Sternberg Task,15,17896,18,yes,1024
78.94736842,78.94736842,977.5263158,977.5263158,black,experiment,legacy,legacy,legacy,0,uniform,0,0,undefined,left,18,18,0,18,18,0,0,18,18,0,0,18,18,18,0,10/20/19 18:47,The main experiment item,yes,SternbergTask.osexp,C:\Users\hosan\Desktop,no,mono,no,18,no,white,no,yes,768,legacy,6,11,C:/Users/hosan/Desktop/TB-subject-1.csv,legacy,8 1 6,Kafkaesque Koffka,3.2.8,3,y,0,right,right,left,right,NA,677,677,19308,17557,NA,2,legacy,3,1024,2,48000,-16,experiment,1,odd,6,166088,168092,27520,156595,163875,8199,125801,163878,162699,8211,108243,168770,164883,168091,NA,Sternberg Task,15,18573,19,yes,1024
75,75,965.5,965.5,black,experiment,legacy,legacy,legacy,0,uniform,0,0,undefined,right,19,19,0,19,19,0,0,19,19,0,0,19,19,19,0,10/20/19 18:47,The main experiment item,yes,SternbergTask.osexp,C:\Users\hosan\Desktop,no,mono,no,18,no,white,no,yes,768,legacy,7,11,C:/Users/hosan/Desktop/TB-subject-1.csv,legacy,7 1,Kafkaesque Koffka,3.2.8,0,n,0,left,left,left,right,NA,737,737,19308,17557,NA,2,legacy,2,1024,2,48000,-16,experiment,1,odd,8,172235,174242,27520,156595,170022,8199,125801,170024,168880,8211,108243,174980,171031,174241,NA,Sternberg Task,15,19310,20,yes,1024
76.19047619,76.19047619,991.3809524,991.3809524,black,experiment,legacy,legacy,legacy,0,uniform,1,1,undefined,right,20,20,0,20,20,0,0,20,20,0,0,20,20,20,0,10/20/19 18:47,The main experiment item,yes,SternbergTask.osexp,C:\Users\hosan\Desktop,no,mono,no,18,no,white,no,yes,768,legacy,8,11,C:/Users/hosan/Desktop/TB-subject-1.csv,legacy,7 1 5 6 3,Kafkaesque Koffka,3.2.8,0,n,0,right,right,left,right,NA,1509,1509,19308,17557,NA,2,legacy,5,1024,2,48000,-16,experiment,1,odd,8,178328,180333,27520,156595,176119,8199,125801,176122,175010,8211,108243,181843,177124,180333,NA,Sternberg Task,16,20819,21,yes,1024
77.27272727,77.27272727,975.2727273,975.2727273,black,experiment,legacy,legacy,legacy,0,uniform,1,1,undefined,left,21,21,0,21,21,0,0,21,21,0,0,21,21,21,0,10/20/19 18:47,The main experiment item,yes,SternbergTask.osexp,C:\Users\hosan\Desktop,no,mono,no,18,no,white,no,yes,768,legacy,9,11,C:/Users/hosan/Desktop/TB-subject-1.csv,legacy,2 3 7 4,Kafkaesque Koffka,3.2.8,1,y,0,left,left,left,right,NA,637,637,19308,17557,NA,2,legacy,4,1024,2,48000,-16,experiment,1,odd,2,185367,187371,27520,181976,183153,8199,125801,183156,175010,8211,108243,188009,184161,187371,NA,Sternberg Task,17,21456,22,yes,1024
78.26086957,78.26086957,969.5652174,969.5652174,black,experiment,legacy,legacy,legacy,0,uniform,1,1,undefined,left,22,22,0,22,22,0,0,22,22,0,0,22,22,22,0,10/20/19 18:47,The main experiment item,yes,SternbergTask.osexp,C:\Users\hosan\Desktop,no,mono,no,18,no,white,no,yes,768,legacy,10,11,C:/Users/hosan/Desktop/TB-subject-1.csv,legacy,9 6 2 4 1,Kafkaesque Koffka,3.2.8,4,y,0,left,left,left,right,NA,844,844,19308,17557,NA,2,legacy,5,1024,2,48000,-16,experiment,1,odd,4,191438,193441,27520,188096,189228,8199,125801,189230,175010,8211,108243,194285,190233,193441,NA,Sternberg Task,18,22300,23,yes,1024
79.16666667,79.16666667,961.5416667,961.5416667,black,experiment,legacy,legacy,legacy,0,uniform,1,1,undefined,left,23,23,0,23,23,0,0,23,23,0,0,23,23,23,0,10/20/19 18:47,The main experiment item,yes,SternbergTask.osexp,C:\Users\hosan\Desktop,no,mono,no,18,no,white,no,yes,768,legacy,11,11,C:/Users/hosan/Desktop/TB-subject-1.csv,legacy,8 9 5 6 7,Kafkaesque Koffka,3.2.8,1,y,0,left,left,left,right,NA,777,777,19308,17557,NA,2,legacy,5,1024,2,48000,-16,experiment,1,odd,8,197770,199776,27520,194429,195557,8199,125801,195560,175010,8211,108243,200553,196566,199775,NA,Sternberg Task,19,23077,24,yes,1024
80,80,954.4,954.4,black,experiment,legacy,legacy,legacy,0,uniform,1,1,undefined,left,24,24,0,24,24,0,0,24,24,0,0,24,24,24,0,10/20/19 18:47,The main experiment item,yes,SternbergTask.osexp,C:\Users\hosan\Desktop,no,mono,no,18,no,white,no,yes,768,legacy,12,11,C:/Users/hosan/Desktop/TB-subject-1.csv,legacy,8 9 6 1,Kafkaesque Koffka,3.2.8,2,y,0,left,left,left,right,NA,783,783,19308,17557,NA,2,legacy,4,1024,2,48000,-16,experiment,1,odd,9,203957,205963,27520,200638,201750,8199,125801,201752,175010,8211,108243,206747,202754,205963,NA,Sternberg Task,20,23860,25,yes,1024
80.76923077,80.76923077,964,964,black,experiment,legacy,legacy,legacy,0,uniform,1,1,undefined,left,25,25,0,25,25,0,0,25,25,0,0,25,25,25,0,10/20/19 18:47,The main experiment item,yes,SternbergTask.osexp,C:\Users\hosan\Desktop,no,mono,no,18,no,white,no,yes,768,legacy,13,11,C:/Users/hosan/Desktop/TB-subject-1.csv,legacy,6 2,Kafkaesque Koffka,3.2.8,1,y,0,left,left,left,right,NA,1204,1204,19308,17557,NA,2,legacy,2,1024,2,48000,-16,experiment,1,odd,6,210218,212221,27520,206853,208008,8199,125801,208011,175010,8211,108243,213426,209016,212220,NA,Sternberg Task,21,25064,26,yes,1024
81.48148148,81.48148148,954,954,black,experiment,legacy,legacy,legacy,0,uniform,1,1,undefined,right,26,26,0,26,26,0,0,26,26,0,0,26,26,26,0,10/20/19 18:47,The main experiment item,yes,SternbergTask.osexp,C:\Users\hosan\Desktop,no,mono,no,18,no,white,no,yes,768,legacy,14,11,C:/Users/hosan/Desktop/TB-subject-1.csv,legacy,8 2 1 4 5 9,Kafkaesque Koffka,3.2.8,0,n,0,right,right,left,right,NA,694,694,19308,17557,NA,2,legacy,6,1024,2,48000,-16,experiment,1,odd,7,216907,218911,27520,213502,214694,8199,125801,214697,175010,8211,108243,219606,215702,218910,NA,Sternberg Task,22,25758,27,yes,1024
82.14285714,82.14285714,962.7142857,962.7142857,black,experiment,legacy,legacy,legacy,0,uniform,1,1,undefined,right,27,27,0,27,27,0,0,27,27,0,0,27,27,27,0,10/20/19 18:47,The main experiment item,yes,SternbergTask.osexp,C:\Users\hosan\Desktop,no,mono,no,18,no,white,no,yes,768,legacy,15,11,C:/Users/hosan/Desktop/TB-subject-1.csv,legacy,7 6 4 8 1 2,Kafkaesque Koffka,3.2.8,0,n,0,right,right,left,right,NA,1198,1198,19308,17557,NA,2,legacy,6,1024,2,48000,-16,experiment,1,odd,9,222995,224999,27520,219634,220781,8199,125801,220784,175010,8211,108243,226198,221787,224999,NA,Sternberg Task,23,26956,28,yes,1024
82.75862069,82.75862069,985.7241379,985.7241379,black,experiment,legacy,legacy,legacy,0,uniform,1,1,undefined,right,28,28,0,28,28,0,0,28,28,0,0,28,28,28,0,10/20/19 18:47,The main experiment item,yes,SternbergTask.osexp,C:\Users\hosan\Desktop,no,mono,no,18,no,white,no,yes,768,legacy,16,11,C:/Users/hosan/Desktop/TB-subject-1.csv,legacy,6 9 5,Kafkaesque Koffka,3.2.8,0,n,0,right,right,left,right,NA,1630,1630,19308,17557,NA,2,legacy,3,1024,2,48000,-16,experiment,1,odd,8,229746,231752,27520,226335,227539,8199,125801,227542,175010,8211,108243,233383,228544,231751,NA,Sternberg Task,24,28586,29,yes,1024
83.33333333,83.33333333,975.6,975.6,black,experiment,legacy,legacy,legacy,0,uniform,1,1,undefined,right,29,29,0,29,29,0,0,29,29,0,0,29,29,29,0,10/20/19 18:47,The main experiment item,yes,SternbergTask.osexp,C:\Users\hosan\Desktop,no,mono,no,18,no,white,no,yes,768,legacy,17,11,C:/Users/hosan/Desktop/TB-subject-1.csv,legacy,5 7 3,Kafkaesque Koffka,3.2.8,0,n,0,right,right,left,right,NA,682,682,19308,17557,NA,2,legacy,3,1024,2,48000,-16,experiment,1,odd,9,237252,239256,27520,233872,235036,8199,125801,235039,175010,8211,108243,239938,236045,239256,NA,Sternberg Task,25,29268,30,yes,1024
83.87096774,83.87096774,973.3870968,973.3870968,black,experiment,legacy,legacy,legacy,0,uniform,1,1,undefined,right,30,30,0,30,30,0,0,30,30,0,0,30,30,30,0,10/20/19 18:47,The main experiment item,yes,SternbergTask.osexp,C:\Users\hosan\Desktop,no,mono,no,18,no,white,no,yes,768,legacy,18,11,C:/Users/hosan/Desktop/TB-subject-1.csv,legacy,2 5 1 4,Kafkaesque Koffka,3.2.8,0,n,0,right,right,left,right,NA,907,907,19308,17557,NA,2,legacy,4,1024,2,48000,-16,experiment,1,odd,6,243411,245416,27520,240052,241203,8199,125801,241206,175010,8211,108243,246323,242209,245416,NA,Sternberg Task,26,30175,31,yes,1024
84.375,84.375,961.65625,961.65625,black,experiment,legacy,legacy,legacy,0,uniform,1,1,undefined,right,31,31,0,31,31,0,0,31,31,0,0,31,31,31,0,10/20/19 18:47,The main experiment item,yes,SternbergTask.osexp,C:\Users\hosan\Desktop,no,mono,no,18,no,white,no,yes,768,legacy,19,11,C:/Users/hosan/Desktop/TB-subject-1.csv,legacy,1 6 4,Kafkaesque Koffka,3.2.8,0,n,0,right,right,left,right,NA,598,598,19308,17557,NA,2,legacy,3,1024,2,48000,-16,experiment,1,odd,7,249787,251789,27520,246427,247575,8199,125801,247577,175010,8211,108243,252388,248583,251789,NA,Sternberg Task,27,30773,32,yes,1024
84.84848485,84.84848485,960.0606061,960.0606061,black,experiment,legacy,legacy,legacy,0,uniform,1,1,undefined,left,32,32,0,32,32,0,0,32,32,0,0,32,32,32,0,10/20/19 18:47,The main experiment item,yes,SternbergTask.osexp,C:\Users\hosan\Desktop,no,mono,no,18,no,white,no,yes,768,legacy,20,11,C:/Users/hosan/Desktop/TB-subject-1.csv,legacy,4 6 2 5 1,Kafkaesque Koffka,3.2.8,5,y,0,left,left,left,right,NA,909,909,19308,17557,NA,2,legacy,5,1024,2,48000,-16,experiment,1,odd,1,255810,257813,27520,252449,253602,8199,125801,253605,175010,8211,108243,258722,254608,257812,NA,Sternberg Task,28,31682,33,yes,1024
85.29411765,85.29411765,953.3235294,953.3235294,black,experiment,legacy,legacy,legacy,0,uniform,1,1,undefined,right,33,33,0,33,33,0,0,33,33,0,0,33,33,33,0,10/20/19 18:47,The main experiment item,yes,SternbergTask.osexp,C:\Users\hosan\Desktop,no,mono,no,18,no,white,no,yes,768,legacy,21,11,C:/Users/hosan/Desktop/TB-subject-1.csv,legacy,1 7 8 3 9,Kafkaesque Koffka,3.2.8,0,n,0,right,right,left,right,NA,731,731,19308,17557,NA,2,legacy,5,1024,2,48000,-16,experiment,1,odd,2,262226,264228,27520,258821,260016,8199,125801,260019,175010,8211,108243,264961,261024,264227,NA,Sternberg Task,29,32413,34,yes,1024
85.71428571,85.71428571,969.4857143,969.4857143,black,experiment,legacy,legacy,legacy,0,uniform,1,1,undefined,right,34,34,0,34,34,0,0,34,34,0,0,34,34,34,0,10/20/19 18:47,The main experiment item,yes,SternbergTask.osexp,C:\Users\hosan\Desktop,no,mono,no,18,no,white,no,yes,768,legacy,22,11,C:/Users/hosan/Desktop/TB-subject-1.csv,legacy,6 2 9 3 8 4,Kafkaesque Koffka,3.2.8,0,n,0,right,right,left,right,NA,1519,1519,19308,17557,NA,2,legacy,6,1024,2,48000,-16,experiment,1,odd,1,268377,270380,27520,264999,266163,8199,125801,266165,175010,8211,108243,271900,267172,270380,NA,Sternberg Task,30,33932,35,yes,1024
86.11111111,86.11111111,976.0833333,976.0833333,black,experiment,legacy,legacy,legacy,0,uniform,1,1,undefined,left,35,35,0,35,35,0,0,35,35,0,0,35,35,35,0,10/20/19 18:47,The main experiment item,yes,SternbergTask.osexp,C:\Users\hosan\Desktop,no,mono,no,18,no,white,no,yes,768,legacy,23,11,C:/Users/hosan/Desktop/TB-subject-1.csv,legacy,8,Kafkaesque Koffka,3.2.8,1,y,0,left,left,left,right,NA,1207,1207,19308,17557,NA,2,legacy,1,1024,2,48000,-16,experiment,1,odd,8,275411,277414,27520,272019,273199,8199,125801,273202,175010,8211,108243,278623,274204,277414,NA,Sternberg Task,31,35139,36,yes,1024
86.48648649,86.48648649,971.1081081,971.1081081,black,experiment,legacy,legacy,legacy,0,uniform,1,1,undefined,right,36,36,0,36,36,0,0,36,36,0,0,36,36,36,0,10/20/19 18:47,The main experiment item,yes,SternbergTask.osexp,C:\Users\hosan\Desktop,no,mono,no,18,no,white,no,yes,768,legacy,24,11,C:/Users/hosan/Desktop/TB-subject-1.csv,legacy,5 3 8 7 2 4,Kafkaesque Koffka,3.2.8,0,n,0,right,right,left,right,NA,792,792,19308,17557,NA,2,legacy,6,1024,2,48000,-16,experiment,1,odd,9,282029,284032,27520,278649,279821,8199,125801,279825,175010,8211,108243,284826,280827,284031,NA,Sternberg Task,32,35931,37,yes,1024
86.84210526,86.84210526,964.5526316,964.5526316,black,experiment,legacy,legacy,legacy,0,uniform,1,1,undefined,right,37,37,0,37,37,0,0,37,37,0,0,37,37,37,0,10/20/19 18:47,The main experiment item,yes,SternbergTask.osexp,C:\Users\hosan\Desktop,no,mono,no,18,no,white,no,yes,768,legacy,25,11,C:/Users/hosan/Desktop/TB-subject-1.csv,legacy,1,Kafkaesque Koffka,3.2.8,0,n,0,right,right,left,right,NA,722,722,19308,17557,NA,2,legacy,1,1024,2,48000,-16,experiment,1,odd,7,288422,290425,27520,285049,286215,8199,125801,286217,175010,8211,108243,291149,287219,290425,NA,Sternberg Task,33,36653,38,yes,1024
87.17948718,87.17948718,975.3076923,975.3076923,black,experiment,legacy,legacy,legacy,0,uniform,1,1,undefined,left,38,38,0,38,38,0,0,38,38,0,0,38,38,38,0,10/20/19 18:47,The main experiment item,yes,SternbergTask.osexp,C:\Users\hosan\Desktop,no,mono,no,18,no,white,no,yes,768,legacy,26,11,C:/Users/hosan/Desktop/TB-subject-1.csv,legacy,7 8 4 6 9 5,Kafkaesque Koffka,3.2.8,4,y,0,left,left,left,right,NA,1384,1384,19308,17557,NA,2,legacy,6,1024,2,48000,-16,experiment,1,odd,6,294600,296605,27520,291281,292390,8199,125801,292392,175010,8211,108243,297991,293395,296605,NA,Sternberg Task,34,38037,39,yes,1024
87.5,87.5,981.15,981.15,black,experiment,legacy,legacy,legacy,0,uniform,1,1,undefined,left,39,39,0,39,39,0,0,39,39,0,0,39,39,39,0,10/20/19 18:47,The main experiment item,yes,SternbergTask.osexp,C:\Users\hosan\Desktop,no,mono,no,18,no,white,no,yes,768,legacy,27,11,C:/Users/hosan/Desktop/TB-subject-1.csv,legacy,1 4 9 3 2 5,Kafkaesque Koffka,3.2.8,3,y,0,left,left,left,right,NA,1209,1209,19308,17557,NA,2,legacy,6,1024,2,48000,-16,experiment,1,odd,9,301454,303457,27520,298098,299242,8199,125801,299245,175010,8211,108243,304667,300251,303457,NA,Sternberg Task,35,39246,40,yes,1024
87.80487805,87.80487805,977.6585366,977.6585366,black,experiment,legacy,legacy,legacy,0,uniform,1,1,undefined,right,40,40,0,40,40,0,0,40,40,0,0,40,40,40,0,10/20/19 18:47,The main experiment item,yes,SternbergTask.osexp,C:\Users\hosan\Desktop,no,mono,no,18,no,white,no,yes,768,legacy,28,11,C:/Users/hosan/Desktop/TB-subject-1.csv,legacy,9 8 2 7 4,Kafkaesque Koffka,3.2.8,0,n,0,right,right,left,right,NA,838,838,19308,17557,NA,2,legacy,5,1024,2,48000,-16,experiment,1,odd,5,308307,310312,27520,304956,306093,8199,125801,306096,175010,8211,108243,311151,307102,310312,NA,Sternberg Task,36,40084,41,yes,1024
88.0952381,88.0952381,968.7142857,968.7142857,black,experiment,legacy,legacy,legacy,0,uniform,1,1,undefined,right,41,41,0,41,41,0,0,41,41,0,0,41,41,41,0,10/20/19 18:47,The main experiment item,yes,SternbergTask.osexp,C:\Users\hosan\Desktop,no,mono,no,18,no,white,no,yes,768,legacy,29,11,C:/Users/hosan/Desktop/TB-subject-1.csv,legacy,8 6 3 4 7,Kafkaesque Koffka,3.2.8,0,n,0,right,right,left,right,NA,602,602,19308,17557,NA,2,legacy,5,1024,2,48000,-16,experiment,1,odd,1,314881,316889,27520,311494,312672,8199,125801,312674,175010,8211,108243,317492,313678,316889,NA,Sternberg Task,37,40686,42,yes,1024
88.37209302,88.37209302,958.8139535,958.8139535,black,experiment,legacy,legacy,legacy,0,uniform,1,1,undefined,right,42,42,0,42,42,0,0,42,42,0,0,42,42,42,0,10/20/19 18:47,The main experiment item,yes,SternbergTask.osexp,C:\Users\hosan\Desktop,no,mono,no,18,no,white,no,yes,768,legacy,30,11,C:/Users/hosan/Desktop/TB-subject-1.csv,legacy,9,Kafkaesque Koffka,3.2.8,0,n,0,right,right,left,right,NA,543,543,19308,17557,NA,2,legacy,1,1024,2,48000,-16,experiment,1,odd,6,320902,322904,27520,317524,318691,8199,125801,318694,175010,8211,108243,323448,319696,322904,NA,Sternberg Task,38,41229,43,yes,1024
86.36363636,86.36363636,960.4090909,960.4090909,black,experiment,legacy,legacy,legacy,0,uniform,0,0,undefined,right,43,43,0,43,43,0,0,43,43,0,0,43,43,43,0,10/20/19 18:47,The main experiment item,yes,SternbergTask.osexp,C:\Users\hosan\Desktop,no,mono,no,18,no,white,no,yes,768,legacy,31,11,C:/Users/hosan/Desktop/TB-subject-1.csv,legacy,1 4 9 2 5,Kafkaesque Koffka,3.2.8,0,n,0,left,left,left,right,NA,1029,1029,19308,17557,NA,2,legacy,5,1024,2,48000,-16,experiment,1,odd,7,327090,329092,27520,323665,324877,8199,125801,324880,175010,8211,108243,330122,325884,329092,NA,Sternberg Task,38,42258,44,yes,1024
84.44444444,84.44444444,971.4,971.4,black,experiment,legacy,legacy,legacy,0,uniform,0,0,undefined,right,44,44,0,44,44,0,0,44,44,0,0,44,44,44,0,10/20/19 18:47,The main experiment item,yes,SternbergTask.osexp,C:\Users\hosan\Desktop,no,mono,no,18,no,white,no,yes,768,legacy,32,11,C:/Users/hosan/Desktop/TB-subject-1.csv,legacy,2 8 9 4 1,Kafkaesque Koffka,3.2.8,0,n,0,left,left,left,right,NA,1455,1455,19308,17557,NA,2,legacy,5,1024,2,48000,-16,experiment,1,odd,5,333604,335609,27520,323665,331394,8199,125801,331397,330280,8211,108243,337065,332399,335608,NA,Sternberg Task,38,43713,45,yes,1024
84.7826087,84.7826087,991.0869565,991.0869565,black,experiment,legacy,legacy,legacy,0,uniform,1,1,undefined,left,45,45,0,45,45,0,0,45,45,0,0,45,45,45,0,10/20/19 18:47,The main experiment item,yes,SternbergTask.osexp,C:\Users\hosan\Desktop,no,mono,no,18,no,white,no,yes,768,legacy,33,11,C:/Users/hosan/Desktop/TB-subject-1.csv,legacy,4 9 7 8 5 3,Kafkaesque Koffka,3.2.8,4,y,0,left,left,left,right,NA,1877,1877,19308,17557,NA,2,legacy,6,1024,2,48000,-16,experiment,1,odd,8,340458,342460,27520,323665,338250,8199,125801,338253,337136,8211,108243,344339,339256,342460,NA,Sternberg Task,39,45590,46,yes,1024
85.10638298,85.10638298,1007.191489,1007.191489,black,experiment,legacy,legacy,legacy,0,uniform,1,1,undefined,right,46,46,0,46,46,0,0,46,46,0,0,46,46,46,0,10/20/19 18:47,The main experiment item,yes,SternbergTask.osexp,C:\Users\hosan\Desktop,no,mono,no,18,no,white,no,yes,768,legacy,34,11,C:/Users/hosan/Desktop/TB-subject-1.csv,legacy,5 9 2 3,Kafkaesque Koffka,3.2.8,0,n,0,right,right,left,right,NA,1748,1748,19308,17557,NA,2,legacy,4,1024,2,48000,-16,experiment,1,odd,8,347866,349882,27520,344477,345654,8199,125801,345657,337136,8211,108243,351632,346663,349881,NA,Sternberg Task,40,47338,47,yes,1024
85.41666667,85.41666667,998.9166667,998.9166667,black,experiment,legacy,legacy,legacy,0,uniform,1,1,undefined,right,47,47,0,47,47,0,0,47,47,0,0,47,47,47,0,10/20/19 18:47,The main experiment item,yes,SternbergTask.osexp,C:\Users\hosan\Desktop,no,mono,no,18,no,white,no,yes,768,legacy,35,11,C:/Users/hosan/Desktop/TB-subject-1.csv,legacy,4 2 6 9,Kafkaesque Koffka,3.2.8,0,n,0,right,right,left,right,NA,610,610,19308,17557,NA,2,legacy,4,1024,2,48000,-16,experiment,1,odd,7,355022,357026,27520,351667,352811,8199,125801,352814,337136,8211,108243,357637,353819,357025,NA,Sternberg Task,41,47948,48,yes,1024
85.71428571,85.71428571,1004.265306,1004.265306,black,experiment,legacy,legacy,legacy,0,uniform,1,1,undefined,left,48,48,0,48,48,0,0,48,48,0,0,48,48,48,0,10/20/19 18:47,The main experiment item,yes,SternbergTask.osexp,C:\Users\hosan\Desktop,no,mono,no,18,no,white,no,yes,768,legacy,36,11,C:/Users/hosan/Desktop/TB-subject-1.csv,legacy,2 8 5 1,Kafkaesque Koffka,3.2.8,4,y,0,left,left,left,right,NA,1261,1261,19308,17557,NA,2,legacy,4,1024,2,48000,-16,experiment,1,odd,1,361034,363039,27520,357678,358821,8199,125801,358824,337136,8211,108243,364301,359829,363039,NA,Sternberg Task,42,49209,49,yes,1024
86,86,996.68,996.68,black,experiment,legacy,legacy,legacy,0,uniform,1,1,undefined,right,49,49,0,49,49,0,0,49,49,0,0,49,49,49,0,10/20/19 18:47,The main experiment item,yes,SternbergTask.osexp,C:\Users\hosan\Desktop,no,mono,no,18,no,white,no,yes,768,legacy,37,11,C:/Users/hosan/Desktop/TB-subject-1.csv,legacy,3 9 8 1 6 4,Kafkaesque Koffka,3.2.8,0,n,0,right,right,left,right,NA,625,625,19308,17557,NA,2,legacy,6,1024,2,48000,-16,experiment,1,odd,7,367793,369798,27520,364418,365579,8199,125801,365582,337136,8211,108243,370425,366586,369798,NA,Sternberg Task,43,49834,50,yes,1024
86.2745098,86.2745098,992.0196078,992.0196078,black,experiment,legacy,legacy,legacy,0,uniform,1,1,undefined,right,50,50,0,50,50,0,0,50,50,0,0,50,50,50,0,10/20/19 18:47,The main experiment item,yes,SternbergTask.osexp,C:\Users\hosan\Desktop,no,mono,no,18,no,white,no,yes,768,legacy,38,11,C:/Users/hosan/Desktop/TB-subject-1.csv,legacy,7 4 2 8 1 9,Kafkaesque Koffka,3.2.8,0,n,0,right,right,left,right,NA,759,759,19308,17557,NA,2,legacy,6,1024,2,48000,-16,experiment,1,odd,5,373807,375812,27520,370452,371595,8199,125801,371598,337136,8211,108243,376572,372603,375812,NA,Sternberg Task,44,50593,51,yes,1024
86.53846154,86.53846154,988.25,988.25,black,experiment,legacy,legacy,legacy,0,uniform,1,1,undefined,right,51,51,0,51,51,0,0,51,51,0,0,51,51,51,0,10/20/19 18:47,The main experiment item,yes,SternbergTask.osexp,C:\Users\hosan\Desktop,no,mono,no,18,no,white,no,yes,768,legacy,39,11,C:/Users/hosan/Desktop/TB-subject-1.csv,legacy,6 9 4 5 3 2,Kafkaesque Koffka,3.2.8,0,n,0,right,right,left,right,NA,796,796,19308,17557,NA,2,legacy,6,1024,2,48000,-16,experiment,1,odd,8,379981,381987,27520,376592,377767,8199,125801,377770,337136,8211,108243,382784,378774,381987,NA,Sternberg Task,45,51389,52,yes,1024
86.79245283,86.79245283,985.5849057,985.5849057,black,experiment,legacy,legacy,legacy,0,uniform,1,1,undefined,right,52,52,0,52,52,0,0,52,52,0,0,52,52,52,0,10/20/19 18:47,The main experiment item,yes,SternbergTask.osexp,C:\Users\hosan\Desktop,no,mono,no,18,no,white,no,yes,768,legacy,40,11,C:/Users/hosan/Desktop/TB-subject-1.csv,legacy,1 7 5 2,Kafkaesque Koffka,3.2.8,0,n,0,right,right,left,right,NA,847,847,19308,17557,NA,2,legacy,4,1024,2,48000,-16,experiment,1,odd,3,386285,388291,27520,382910,384072,8199,125801,384075,337136,8211,108243,389139,385082,388290,NA,Sternberg Task,46,52236,53,yes,1024
87.03703704,87.03703704,1000.240741,1000.240741,black,experiment,legacy,legacy,legacy,0,uniform,1,1,undefined,right,53,53,0,53,53,0,0,53,53,0,0,53,53,53,0,10/20/19 18:47,The main experiment item,yes,SternbergTask.osexp,C:\Users\hosan\Desktop,no,mono,no,18,no,white,no,yes,768,legacy,41,11,C:/Users/hosan/Desktop/TB-subject-1.csv,legacy,3 4 2,Kafkaesque Koffka,3.2.8,0,n,0,right,right,left,right,NA,1777,1777,19308,17557,NA,2,legacy,3,1024,2,48000,-16,experiment,1,odd,5,392524,394527,27520,389171,390311,8199,125801,390315,337136,8211,108243,396305,391321,394526,NA,Sternberg Task,47,54013,54,yes,1024
87.27272727,87.27272727,999.9636364,999.9636364,black,experiment,legacy,legacy,legacy,0,uniform,1,1,undefined,left,54,54,0,54,54,0,0,54,54,0,0,54,54,54,0,10/20/19 18:47,The main experiment item,yes,SternbergTask.osexp,C:\Users\hosan\Desktop,no,mono,no,18,no,white,no,yes,768,legacy,42,11,C:/Users/hosan/Desktop/TB-subject-1.csv,legacy,8 9 5 7 1 6,Kafkaesque Koffka,3.2.8,4,y,0,left,left,left,right,NA,985,985,19308,17557,NA,2,legacy,6,1024,2,48000,-16,experiment,1,odd,7,399855,401857,27520,396464,397642,8199,125801,397645,337136,8211,108243,402843,398650,401857,NA,Sternberg Task,48,54998,55,yes,1024
87.5,87.5,996.8928571,996.8928571,black,experiment,legacy,legacy,legacy,0,uniform,1,1,undefined,left,55,55,0,55,55,0,0,55,55,0,0,55,55,55,0,10/20/19 18:47,The main experiment item,yes,SternbergTask.osexp,C:\Users\hosan\Desktop,no,mono,no,18,no,white,no,yes,768,legacy,43,11,C:/Users/hosan/Desktop/TB-subject-1.csv,legacy,3 5 9 6 2 4,Kafkaesque Koffka,3.2.8,1,y,0,left,left,left,right,NA,828,828,19308,17557,NA,2,legacy,6,1024,2,48000,-16,experiment,1,odd,3,406303,408308,27520,402931,404095,8199,125801,404098,337136,8211,108243,409137,405100,408307,NA,Sternberg Task,49,55826,56,yes,1024
87.71929825,87.71929825,1004,1004,black,experiment,legacy,legacy,legacy,0,uniform,1,1,undefined,right,56,56,0,56,56,0,0,56,56,0,0,56,56,56,0,10/20/19 18:47,The main experiment item,yes,SternbergTask.osexp,C:\Users\hosan\Desktop,no,mono,no,18,no,white,no,yes,768,legacy,44,11,C:/Users/hosan/Desktop/TB-subject-1.csv,legacy,1 4 3 6 5,Kafkaesque Koffka,3.2.8,0,n,0,right,right,left,right,NA,1402,1402,19308,17557,NA,2,legacy,5,1024,2,48000,-16,experiment,1,odd,8,412529,414532,27520,409198,410318,8199,125801,410321,337136,8211,108243,415936,411326,414531,NA,Sternberg Task,50,57228,57,yes,1024
87.93103448,87.93103448,998,998,black,experiment,legacy,legacy,legacy,0,uniform,1,1,undefined,left,57,57,0,57,57,0,0,57,57,0,0,57,57,57,0,10/20/19 18:47,The main experiment item,yes,SternbergTask.osexp,C:\Users\hosan\Desktop,no,mono,no,18,no,white,no,yes,768,legacy,45,11,C:/Users/hosan/Desktop/TB-subject-1.csv,legacy,6 9 3 1,Kafkaesque Koffka,3.2.8,4,y,0,left,left,left,right,NA,656,656,19308,17557,NA,2,legacy,4,1024,2,48000,-16,experiment,1,odd,1,419405,421412,27520,416029,417191,8199,125801,417194,337136,8211,108243,422070,418200,421411,NA,Sternberg Task,51,57884,58,yes,1024
88.13559322,88.13559322,997.7966102,997.7966102,black,experiment,legacy,legacy,legacy,0,uniform,1,1,undefined,right,58,58,0,58,58,0,0,58,58,0,0,58,58,58,0,10/20/19 18:47,The main experiment item,yes,SternbergTask.osexp,C:\Users\hosan\Desktop,no,mono,no,18,no,white,no,yes,768,legacy,46,11,C:/Users/hosan/Desktop/TB-subject-1.csv,legacy,2 7 5,Kafkaesque Koffka,3.2.8,0,n,0,right,right,left,right,NA,986,986,19308,17557,NA,2,legacy,3,1024,2,48000,-16,experiment,1,odd,8,425478,427481,27520,422131,423265,8199,125801,423268,337136,8211,108243,428467,424270,427481,NA,Sternberg Task,52,58870,59,yes,1024
88.33333333,88.33333333,992.85,992.85,black,experiment,legacy,legacy,legacy,0,uniform,1,1,undefined,left,59,59,0,59,59,0,0,59,59,0,0,59,59,59,0,10/20/19 18:47,The main experiment item,yes,SternbergTask.osexp,C:\Users\hosan\Desktop,no,mono,no,18,no,white,no,yes,768,legacy,47,11,C:/Users/hosan/Desktop/TB-subject-1.csv,legacy,6 1 2,Kafkaesque Koffka,3.2.8,3,y,0,left,left,left,right,NA,701,701,19308,17557,NA,2,legacy,3,1024,2,48000,-16,experiment,1,odd,2,431888,433894,27520,428500,429679,8199,125801,429681,337136,8211,108243,434596,430683,433894,NA,Sternberg Task,53,59571,60,yes,1024
88.52459016,88.52459016,991.1147541,991.1147541,black,experiment,legacy,legacy,legacy,0,uniform,1,1,undefined,right,60,60,0,60,60,0,0,60,60,0,0,60,60,60,0,10/20/19 18:47,The main experiment item,yes,SternbergTask.osexp,C:\Users\hosan\Desktop,no,mono,no,18,no,white,no,yes,768,legacy,48,11,C:/Users/hosan/Desktop/TB-subject-1.csv,legacy,7 9,Kafkaesque Koffka,3.2.8,0,n,0,right,right,left,right,NA,887,887,19308,17557,NA,2,legacy,2,1024,2,48000,-16,experiment,1,odd,1,438072,440077,27520,434661,435858,8199,125801,435860,337136,8211,108243,440965,436866,440077,NA,Sternberg Task,54,60458,61,yes,1024
88.70967742,88.70967742,988.6612903,988.6612903,black,experiment,legacy,legacy,legacy,0,uniform,1,1,undefined,left,61,61,0,61,61,0,0,61,61,0,0,61,61,61,0,10/20/19 18:47,The main experiment item,yes,SternbergTask.osexp,C:\Users\hosan\Desktop,no,mono,no,18,no,white,no,yes,768,legacy,49,11,C:/Users/hosan/Desktop/TB-subject-1.csv,legacy,2 3,Kafkaesque Koffka,3.2.8,1,y,0,left,left,left,right,NA,839,839,19308,17557,NA,2,legacy,2,1024,2,48000,-16,experiment,1,odd,2,444434,446436,27520,441083,442224,8199,125801,442227,337136,8211,108243,447277,443229,446436,NA,Sternberg Task,55,61297,62,yes,1024
88.88888889,88.88888889,987.5079365,987.5079365,black,experiment,legacy,legacy,legacy,0,uniform,1,1,undefined,right,62,62,0,62,62,0,0,62,62,0,0,62,62,62,0,10/20/19 18:47,The main experiment item,yes,SternbergTask.osexp,C:\Users\hosan\Desktop,no,mono,no,18,no,white,no,yes,768,legacy,50,11,C:/Users/hosan/Desktop/TB-subject-1.csv,legacy,2 8 9,Kafkaesque Koffka,3.2.8,0,n,0,right,right,left,right,NA,916,916,19308,17557,NA,2,legacy,3,1024,2,48000,-16,experiment,1,odd,6,450656,452658,27520,447296,448445,8199,125801,448448,337136,8211,108243,453576,449454,452658,NA,Sternberg Task,56,62213,63,yes,1024
89.0625,89.0625,995.015625,995.015625,black,experiment,legacy,legacy,legacy,0,uniform,1,1,undefined,left,63,63,0,63,63,0,0,63,63,0,0,63,63,63,0,10/20/19 18:47,The main experiment item,yes,SternbergTask.osexp,C:\Users\hosan\Desktop,no,mono,no,18,no,white,no,yes,768,legacy,51,11,C:/Users/hosan/Desktop/TB-subject-1.csv,legacy,3 4 9 6 2 9,Kafkaesque Koffka,3.2.8,5,y,0,left,left,left,right,NA,1468,1468,19308,17557,NA,2,legacy,6,1024,2,48000,-16,experiment,1,odd,2,457012,459018,27520,453647,454803,8199,125801,454806,337136,8211,108243,460487,455808,459018,NA,Sternberg Task,57,63681,64,yes,1024
89.23076923,89.23076923,993.9384615,993.9384615,black,experiment,legacy,legacy,legacy,0,uniform,1,1,undefined,right,64,64,0,64,64,0,0,64,64,0,0,64,64,64,0,10/20/19 18:47,The main experiment item,yes,SternbergTask.osexp,C:\Users\hosan\Desktop,no,mono,no,18,no,white,no,yes,768,legacy,52,11,C:/Users/hosan/Desktop/TB-subject-1.csv,legacy,1 6 4 3 9 7,Kafkaesque Koffka,3.2.8,0,n,0,right,right,left,right,NA,925,925,19308,17557,NA,2,legacy,6,1024,2,48000,-16,experiment,1,odd,8,466118,468124,27520,462726,463910,8199,125801,463913,337136,8211,108243,469050,464916,468124,NA,Sternberg Task,58,64606,65,yes,1024
89.39393939,89.39393939,991.2424242,991.2424242,black,experiment,legacy,legacy,legacy,0,uniform,1,1,undefined,left,65,65,0,65,65,0,0,65,65,0,0,65,65,65,0,10/20/19 18:47,The main experiment item,yes,SternbergTask.osexp,C:\Users\hosan\Desktop,no,mono,no,18,no,white,no,yes,768,legacy,53,11,C:/Users/hosan/Desktop/TB-subject-1.csv,legacy,4 6 5 8,Kafkaesque Koffka,3.2.8,1,y,0,left,left,left,right,NA,816,816,19308,17557,NA,2,legacy,4,1024,2,48000,-16,experiment,1,odd,4,472470,474473,27520,469112,470256,8199,125801,470258,337136,8211,108243,475290,471263,474473,NA,Sternberg Task,59,65422,66,yes,1024
89.55223881,89.55223881,992.0746269,992.0746269,black,experiment,legacy,legacy,legacy,0,uniform,1,1,undefined,left,66,66,0,66,66,0,0,66,66,0,0,66,66,66,0,10/20/19 18:47,The main experiment item,yes,SternbergTask.osexp,C:\Users\hosan\Desktop,no,mono,no,18,no,white,no,yes,768,legacy,54,11,C:/Users/hosan/Desktop/TB-subject-1.csv,legacy,5 7 8 2 3 8,Kafkaesque Koffka,3.2.8,5,y,0,left,left,left,right,NA,1047,1047,19308,17557,NA,2,legacy,6,1024,2,48000,-16,experiment,1,odd,3,478731,480736,27520,475356,476517,8199,125801,476520,337136,8211,108243,481784,477525,480736,NA,Sternberg Task,60,66469,67,yes,1024
89.70588235,89.70588235,988.2352941,988.2352941,black,experiment,legacy,legacy,legacy,0,uniform,1,1,undefined,left,67,67,0,67,67,0,0,67,67,0,0,67,67,67,0,10/20/19 18:47,The main experiment item,yes,SternbergTask.osexp,C:\Users\hosan\Desktop,no,mono,no,18,no,white,no,yes,768,legacy,55,11,C:/Users/hosan/Desktop/TB-subject-1.csv,legacy,6 8 9 3 4 9,Kafkaesque Koffka,3.2.8,5,y,0,left,left,left,right,NA,731,731,19308,17557,NA,2,legacy,6,1024,2,48000,-16,experiment,1,odd,4,485198,487204,27520,481851,482985,8199,125801,482987,337136,8211,108243,487936,483993,487203,NA,Sternberg Task,61,67200,68,yes,1024
88.4057971,88.4057971,984.6956522,984.6956522,black,experiment,legacy,legacy,legacy,0,uniform,0,0,undefined,left,68,68,0,68,68,0,0,68,68,0,0,68,68,68,0,10/20/19 18:47,The main experiment item,yes,SternbergTask.osexp,C:\Users\hosan\Desktop,no,mono,no,18,no,white,no,yes,768,legacy,56,11,C:/Users/hosan/Desktop/TB-subject-1.csv,legacy,7 4 2 6 3 5,Kafkaesque Koffka,3.2.8,6,y,0,right,right,left,right,NA,744,744,19308,17557,NA,2,legacy,6,1024,2,48000,-16,experiment,1,odd,5,491360,493366,27520,488006,489147,8199,125801,489150,337136,8211,108243,494111,490155,493365,NA,Sternberg Task,61,67944,69,yes,1024
88.57142857,88.57142857,976.5714286,976.5714286,black,experiment,legacy,legacy,legacy,0,uniform,1,1,undefined,left,69,69,0,69,69,0,0,69,69,0,0,69,69,69,0,10/20/19 18:47,The main experiment item,yes,SternbergTask.osexp,C:\Users\hosan\Desktop,no,mono,no,18,no,white,no,yes,768,legacy,57,11,C:/Users/hosan/Desktop/TB-subject-1.csv,legacy,9 5 8 1,Kafkaesque Koffka,3.2.8,2,y,0,left,left,left,right,NA,416,416,19308,17557,NA,2,legacy,4,1024,2,48000,-16,experiment,1,odd,5,497522,499528,27520,488006,495310,8199,125801,495312,494175,8211,108243,499945,496317,499528,NA,Sternberg Task,62,68360,70,yes,1024
88.73239437,88.73239437,970.7183099,970.7183099,black,experiment,legacy,legacy,legacy,0,uniform,1,1,undefined,left,70,70,0,70,70,0,0,70,70,0,0,70,70,70,0,10/20/19 18:47,The main experiment item,yes,SternbergTask.osexp,C:\Users\hosan\Desktop,no,mono,no,18,no,white,no,yes,768,legacy,58,11,C:/Users/hosan/Desktop/TB-subject-1.csv,legacy,3 5 4 7,Kafkaesque Koffka,3.2.8,1,y,0,left,left,left,right,NA,561,561,19308,17557,NA,2,legacy,4,1024,2,48000,-16,experiment,1,odd,3,503350,505355,27520,500006,501136,8199,125801,501139,494175,8211,108243,505917,502145,505355,NA,Sternberg Task,63,68921,71,yes,1024
87.5,87.5,968.6666667,968.6666667,black,experiment,legacy,legacy,legacy,0,uniform,0,0,undefined,right,71,71,0,71,71,0,0,71,71,0,0,71,71,71,0,10/20/19 18:47,The main experiment item,yes,SternbergTask.osexp,C:\Users\hosan\Desktop,no,mono,no,18,no,white,no,yes,768,legacy,59,11,C:/Users/hosan/Desktop/TB-subject-1.csv,legacy,1 7 5 2 9,Kafkaesque Koffka,3.2.8,0,n,0,left,left,left,right,NA,823,823,19308,17557,NA,2,legacy,5,1024,2,48000,-16,experiment,1,odd,3,509335,511340,27520,505976,507120,8199,125801,507125,494175,8211,108243,512164,508130,511340,NA,Sternberg Task,63,69744,72,yes,1024
87.67123288,87.67123288,972.9315068,972.9315068,black,experiment,legacy,legacy,legacy,0,uniform,1,1,undefined,left,72,72,0,72,72,0,0,72,72,0,0,72,72,72,0,10/20/19 18:47,The main experiment item,yes,SternbergTask.osexp,C:\Users\hosan\Desktop,no,mono,no,18,no,white,no,yes,768,legacy,60,11,C:/Users/hosan/Desktop/TB-subject-1.csv,legacy,7 8 6 3 1,Kafkaesque Koffka,3.2.8,5,y,0,left,left,left,right,NA,1280,1280,19308,17557,NA,2,legacy,5,1024,2,48000,-16,experiment,1,odd,1,515581,517587,27520,505976,513368,8199,125801,513370,512226,8211,108243,518868,514376,517586,NA,Sternberg Task,64,71024,73,yes,1024
87.83783784,87.83783784,968.3783784,968.3783784,black,experiment,legacy,legacy,legacy,0,uniform,1,1,undefined,left,73,73,0,73,73,0,0,73,73,0,0,73,73,73,0,10/20/19 18:47,The main experiment item,yes,SternbergTask.osexp,C:\Users\hosan\Desktop,no,mono,no,18,no,white,no,yes,768,legacy,61,11,C:/Users/hosan/Desktop/TB-subject-1.csv,legacy,8 5 1 3 9,Kafkaesque Koffka,3.2.8,4,y,0,left,left,left,right,NA,636,636,19308,17557,NA,2,legacy,5,1024,2,48000,-16,experiment,1,odd,3,522275,524280,27520,518924,520062,8199,125801,520064,512226,8211,108243,524917,521070,524280,NA,Sternberg Task,65,71660,74,yes,1024
88,88,965.96,965.96,black,experiment,legacy,legacy,legacy,0,uniform,1,1,undefined,right,74,74,0,74,74,0,0,74,74,0,0,74,74,74,0,10/20/19 18:47,The main experiment item,yes,SternbergTask.osexp,C:\Users\hosan\Desktop,no,mono,no,18,no,white,no,yes,768,legacy,62,11,C:/Users/hosan/Desktop/TB-subject-1.csv,legacy,9 5 3 2 8 6,Kafkaesque Koffka,3.2.8,0,n,0,right,right,left,right,NA,787,787,19308,17557,NA,2,legacy,6,1024,2,48000,-16,experiment,1,odd,7,528330,530332,27520,524980,526119,8199,125801,526121,512226,8211,108243,531121,527123,530332,NA,Sternberg Task,66,72447,75,yes,1024
88.15789474,88.15789474,966.4605263,966.4605263,black,experiment,legacy,legacy,legacy,0,uniform,1,1,undefined,left,75,75,0,75,75,0,0,75,75,0,0,75,75,75,0,10/20/19 18:47,The main experiment item,yes,SternbergTask.osexp,C:\Users\hosan\Desktop,no,mono,no,18,no,white,no,yes,768,legacy,63,11,C:/Users/hosan/Desktop/TB-subject-1.csv,legacy,9 4 2,Kafkaesque Koffka,3.2.8,1,y,0,left,left,left,right,NA,1004,1004,19308,17557,NA,2,legacy,3,1024,2,48000,-16,experiment,1,odd,9,534488,536494,27520,531146,532275,8199,125801,532277,512226,8211,108243,537499,533282,536494,NA,Sternberg Task,67,73451,76,yes,1024
88.31168831,88.31168831,963.6103896,963.6103896,black,experiment,legacy,legacy,legacy,0,uniform,1,1,undefined,right,76,76,0,76,76,0,0,76,76,0,0,76,76,76,0,10/20/19 18:47,The main experiment item,yes,SternbergTask.osexp,C:\Users\hosan\Desktop,no,mono,no,18,no,white,no,yes,768,legacy,64,11,C:/Users/hosan/Desktop/TB-subject-1.csv,legacy,4 2 7 6 1 3,Kafkaesque Koffka,3.2.8,0,n,0,right,right,left,right,NA,747,747,19308,17557,NA,2,legacy,6,1024,2,48000,-16,experiment,1,odd,8,540891,542898,27520,537518,538679,8199,125801,538681,512226,8211,108243,543646,539686,542897,NA,Sternberg Task,68,74198,77,yes,1024
88.46153846,88.46153846,962.8974359,962.8974359,black,experiment,legacy,legacy,legacy,0,uniform,1,1,undefined,left,77,77,0,77,77,0,0,77,77,0,0,77,77,77,0,10/20/19 18:47,The main experiment item,yes,SternbergTask.osexp,C:\Users\hosan\Desktop,no,mono,no,18,no,white,no,yes,768,legacy,65,11,C:/Users/hosan/Desktop/TB-subject-1.csv,legacy,7 2 3,Kafkaesque Koffka,3.2.8,3,y,0,left,left,left,right,NA,908,908,19308,17557,NA,2,legacy,3,1024,2,48000,-16,experiment,1,odd,3,547055,549062,27520,543711,544843,8199,125801,544845,512226,8211,108243,549972,545850,549062,NA,Sternberg Task,69,75106,78,yes,1024
88.60759494,88.60759494,959.9873418,959.9873418,black,experiment,legacy,legacy,legacy,0,uniform,1,1,undefined,left,78,78,0,78,78,0,0,78,78,0,0,78,78,78,0,10/20/19 18:47,The main experiment item,yes,SternbergTask.osexp,C:\Users\hosan\Desktop,no,mono,no,18,no,white,no,yes,768,legacy,66,11,C:/Users/hosan/Desktop/TB-subject-1.csv,legacy,9 5 3 8 4,Kafkaesque Koffka,3.2.8,1,y,0,left,left,left,right,NA,733,733,19308,17557,NA,2,legacy,5,1024,2,48000,-16,experiment,1,odd,9,553384,555389,27520,550032,551172,8199,125801,551174,512226,8211,108243,556123,552179,555389,NA,Sternberg Task,70,75839,79,yes,1024
88.75,88.75,957.375,957.375,black,experiment,legacy,legacy,legacy,0,uniform,1,1,undefined,right,79,79,0,79,79,0,0,79,79,0,0,79,79,79,0,10/20/19 18:47,The main experiment item,yes,SternbergTask.osexp,C:\Users\hosan\Desktop,no,mono,no,18,no,white,no,yes,768,legacy,67,11,C:/Users/hosan/Desktop/TB-subject-1.csv,legacy,5 3 2 6 9 8,Kafkaesque Koffka,3.2.8,0,n,0,right,right,left,right,NA,751,751,19308,17557,NA,2,legacy,6,1024,2,48000,-16,experiment,1,odd,4,559596,561601,27520,556233,557384,8199,125801,557386,512226,8211,108243,562353,558391,561601,NA,Sternberg Task,71,76590,80,yes,1024
88.88888889,88.88888889,955.8518519,955.8518519,black,experiment,legacy,legacy,legacy,0,uniform,1,1,undefined,right,80,80,0,80,80,0,0,80,80,0,0,80,80,80,0,10/20/19 18:47,The main experiment item,yes,SternbergTask.osexp,C:\Users\hosan\Desktop,no,mono,no,18,no,white,no,yes,768,legacy,68,11,C:/Users/hosan/Desktop/TB-subject-1.csv,legacy,7 8 6 1,Kafkaesque Koffka,3.2.8,0,n,0,right,right,left,right,NA,834,834,19308,17557,NA,2,legacy,4,1024,2,48000,-16,experiment,1,odd,3,565766,567771,27520,562412,563551,8199,125801,563555,512226,8211,108243,568606,564560,567771,NA,Sternberg Task,72,77424,81,yes,1024
89.02439024,89.02439024,954.5365854,954.5365854,black,experiment,legacy,legacy,legacy,0,uniform,1,1,undefined,left,81,81,0,81,81,0,0,81,81,0,0,81,81,81,0,10/20/19 18:47,The main experiment item,yes,SternbergTask.osexp,C:\Users\hosan\Desktop,no,mono,no,18,no,white,no,yes,768,legacy,69,11,C:/Users/hosan/Desktop/TB-subject-1.csv,legacy,9 1 6 7 8,Kafkaesque Koffka,3.2.8,1,y,0,left,left,left,right,NA,848,848,19308,17557,NA,2,legacy,5,1024,2,48000,-16,experiment,1,odd,9,572071,574078,27520,568711,569857,8199,125801,569860,512226,8211,108243,574927,570866,574078,NA,Sternberg Task,73,78272,82,yes,1024
89.15662651,89.15662651,951.7831325,951.7831325,black,experiment,legacy,legacy,legacy,0,uniform,1,1,undefined,right,82,82,0,82,82,0,0,82,82,0,0,82,82,82,0,10/20/19 18:47,The main experiment item,yes,SternbergTask.osexp,C:\Users\hosan\Desktop,no,mono,no,18,no,white,no,yes,768,legacy,70,11,C:/Users/hosan/Desktop/TB-subject-1.csv,legacy,6 9 7 3 8 2,Kafkaesque Koffka,3.2.8,0,n,0,right,right,left,right,NA,726,726,19308,17557,NA,2,legacy,6,1024,2,48000,-16,experiment,1,odd,5,578346,580352,27520,574995,576132,8199,125801,576135,512226,8211,108243,581080,577140,580352,NA,Sternberg Task,74,78998,83,yes,1024
88.0952381,88.0952381,960.7619048,960.7619048,black,experiment,legacy,legacy,legacy,0,uniform,0,0,undefined,left,83,83,0,83,83,0,0,83,83,0,0,83,83,83,0,10/20/19 18:47,The main experiment item,yes,SternbergTask.osexp,C:\Users\hosan\Desktop,no,mono,no,18,no,white,no,yes,768,legacy,71,11,C:/Users/hosan/Desktop/TB-subject-1.csv,legacy,9 3 1 2 5,Kafkaesque Koffka,3.2.8,4,y,0,right,right,left,right,NA,1706,1706,19308,17557,NA,2,legacy,5,1024,2,48000,-16,experiment,1,odd,2,584462,586467,27520,581103,582250,8199,125801,582252,512226,8211,108243,588175,583257,586467,NA,Sternberg Task,74,80704,84,yes,1024
88.23529412,88.23529412,964.3764706,964.3764706,black,experiment,legacy,legacy,legacy,0,uniform,1,1,undefined,right,84,84,0,84,84,0,0,84,84,0,0,84,84,84,0,10/20/19 18:47,The main experiment item,yes,SternbergTask.osexp,C:\Users\hosan\Desktop,no,mono,no,18,no,white,no,yes,768,legacy,72,11,C:/Users/hosan/Desktop/TB-subject-1.csv,legacy,5,Kafkaesque Koffka,3.2.8,0,n,0,right,right,left,right,NA,1268,1268,19308,17557,NA,2,legacy,1,1024,2,48000,-16,experiment,1,odd,8,591601,593608,27520,581103,589388,8199,125801,589391,588250,8211,108243,594877,590396,593608,NA,Sternberg Task,75,81972,85,yes,1024
88.37209302,88.37209302,963.0930233,963.0930233,black,experiment,legacy,legacy,legacy,0,uniform,1,1,undefined,left,85,85,0,85,85,0,0,85,85,0,0,85,85,85,0,10/20/19 18:47,The main experiment item,yes,SternbergTask.osexp,C:\Users\hosan\Desktop,no,mono,no,18,no,white,no,yes,768,legacy,73,11,C:/Users/hosan/Desktop/TB-subject-1.csv,legacy,6 7 9 3 1 2,Kafkaesque Koffka,3.2.8,1,y,0,left,left,left,right,NA,854,854,19308,17557,NA,2,legacy,6,1024,2,48000,-16,experiment,1,odd,6,598288,600293,27520,594931,596075,8199,125801,596078,588250,8211,108243,601149,597083,600293,NA,Sternberg Task,76,82826,86,yes,1024
88.50574713,88.50574713,961.2528736,961.2528736,black,experiment,legacy,legacy,legacy,0,uniform,1,1,undefined,left,86,86,0,86,86,0,0,86,86,0,0,86,86,86,0,10/20/19 18:47,The main experiment item,yes,SternbergTask.osexp,C:\Users\hosan\Desktop,no,mono,no,18,no,white,no,yes,768,legacy,74,11,C:/Users/hosan/Desktop/TB-subject-1.csv,legacy,9 8 4,Kafkaesque Koffka,3.2.8,1,y,0,left,left,left,right,NA,803,803,19308,17557,NA,2,legacy,3,1024,2,48000,-16,experiment,1,odd,9,604565,606572,27520,601221,602353,8199,125801,602355,588250,8211,108243,607376,603360,606570,NA,Sternberg Task,77,83629,87,yes,1024
88.63636364,88.63636364,970.2045455,970.2045455,black,experiment,legacy,legacy,legacy,0,uniform,1,1,undefined,left,87,87,0,87,87,0,0,87,87,0,0,87,87,87,0,10/20/19 18:47,The main experiment item,yes,SternbergTask.osexp,C:\Users\hosan\Desktop,no,mono,no,18,no,white,no,yes,768,legacy,75,11,C:/Users/hosan/Desktop/TB-subject-1.csv,legacy,2 4 6 9,Kafkaesque Koffka,3.2.8,3,y,0,left,left,left,right,NA,1749,1749,19308,17557,NA,2,legacy,4,1024,2,48000,-16,experiment,1,odd,6,610797,612802,27520,607439,608584,8199,125801,608587,588250,8211,108243,614552,609592,612802,NA,Sternberg Task,78,85378,88,yes,1024
88.76404494,88.76404494,973.2696629,973.2696629,black,experiment,legacy,legacy,legacy,0,uniform,1,1,undefined,left,88,88,0,88,88,0,0,88,88,0,0,88,88,88,0,10/20/19 18:47,The main experiment item,yes,SternbergTask.osexp,C:\Users\hosan\Desktop,no,mono,no,18,no,white,no,yes,768,legacy,76,11,C:/Users/hosan/Desktop/TB-subject-1.csv,legacy,6 7 8 5,Kafkaesque Koffka,3.2.8,3,y,0,left,left,left,right,NA,1243,1243,19308,17557,NA,2,legacy,4,1024,2,48000,-16,experiment,1,odd,8,617938,619945,27520,614571,615725,8199,125801,615727,588250,8211,108243,621189,616732,619945,NA,Sternberg Task,79,86621,89,yes,1024
88.88888889,88.88888889,969.4,969.4,black,experiment,legacy,legacy,legacy,0,uniform,1,1,undefined,left,89,89,0,89,89,0,0,89,89,0,0,89,89,89,0,10/20/19 18:47,The main experiment item,yes,SternbergTask.osexp,C:\Users\hosan\Desktop,no,mono,no,18,no,white,no,yes,768,legacy,77,11,C:/Users/hosan/Desktop/TB-subject-1.csv,legacy,8 7 3,Kafkaesque Koffka,3.2.8,1,y,0,left,left,left,right,NA,625,625,19308,17557,NA,2,legacy,3,1024,2,48000,-16,experiment,1,odd,8,624602,626609,27520,621249,622389,8199,125801,622392,588250,8211,108243,627236,623397,626608,NA,Sternberg Task,80,87246,90,yes,1024
89.01098901,89.01098901,963.3076923,963.3076923,black,experiment,legacy,legacy,legacy,0,uniform,1,1,undefined,left,90,90,0,90,90,0,0,90,90,0,0,90,90,90,0,10/20/19 18:47,The main experiment item,yes,SternbergTask.osexp,C:\Users\hosan\Desktop,no,mono,no,18,no,white,no,yes,768,legacy,78,11,C:/Users/hosan/Desktop/TB-subject-1.csv,legacy,7 1 3,Kafkaesque Koffka,3.2.8,2,y,0,left,left,left,right,NA,415,415,19308,17557,NA,2,legacy,3,1024,2,48000,-16,experiment,1,odd,1,630643,632648,27520,627299,628430,8199,125801,628432,588250,8211,108243,633064,629438,632648,NA,Sternberg Task,81,87661,91,yes,1024
88.04347826,88.04347826,964.1413043,964.1413043,black,experiment,legacy,legacy,legacy,0,uniform,0,0,undefined,right,91,91,0,91,91,0,0,91,91,0,0,91,91,91,0,10/20/19 18:47,The main experiment item,yes,SternbergTask.osexp,C:\Users\hosan\Desktop,no,mono,no,18,no,white,no,yes,768,legacy,79,11,C:/Users/hosan/Desktop/TB-subject-1.csv,legacy,3 9 1,Kafkaesque Koffka,3.2.8,0,n,0,left,left,left,right,NA,1040,1040,19308,17557,NA,2,legacy,3,1024,2,48000,-16,experiment,1,odd,7,636451,638457,27520,633085,634237,8199,125801,634240,588250,8211,108243,639498,635245,638456,NA,Sternberg Task,81,88701,92,yes,1024
88.17204301,88.17204301,963.7956989,963.7956989,black,experiment,legacy,legacy,legacy,0,uniform,1,1,undefined,left,92,92,0,92,92,0,0,92,92,0,0,92,92,92,0,10/20/19 18:47,The main experiment item,yes,SternbergTask.osexp,C:\Users\hosan\Desktop,no,mono,no,18,no,white,no,yes,768,legacy,80,11,C:/Users/hosan/Desktop/TB-subject-1.csv,legacy,5 2 9 6 1 7,Kafkaesque Koffka,3.2.8,3,y,0,left,left,left,right,NA,932,932,19308,17557,NA,2,legacy,6,1024,2,48000,-16,experiment,1,odd,9,642908,644915,27520,633085,640694,8199,125801,640696,639565,8211,108243,645848,641702,644915,NA,Sternberg Task,82,89633,93,yes,1024
88.29787234,88.29787234,961.7340426,961.7340426,black,experiment,legacy,legacy,legacy,0,uniform,1,1,undefined,right,93,93,0,93,93,0,0,93,93,0,0,93,93,93,0,10/20/19 18:47,The main experiment item,yes,SternbergTask.osexp,C:\Users\hosan\Desktop,no,mono,no,18,no,white,no,yes,768,legacy,81,11,C:/Users/hosan/Desktop/TB-subject-1.csv,legacy,6 8,Kafkaesque Koffka,3.2.8,0,n,0,right,right,left,right,NA,770,770,19308,17557,NA,2,legacy,2,1024,2,48000,-16,experiment,1,odd,9,649230,651235,27520,645877,647017,8199,125801,647020,639565,8211,108243,652006,648025,651235,NA,Sternberg Task,83,90403,94,yes,1024
88.42105263,88.42105263,959.7684211,959.7684211,black,experiment,legacy,legacy,legacy,0,uniform,1,1,undefined,left,94,94,0,94,94,0,0,94,94,0,0,94,94,94,0,10/20/19 18:47,The main experiment item,yes,SternbergTask.osexp,C:\Users\hosan\Desktop,no,mono,no,18,no,white,no,yes,768,legacy,82,11,C:/Users/hosan/Desktop/TB-subject-1.csv,legacy,3 2 1 4 7,Kafkaesque Koffka,3.2.8,2,y,0,left,left,left,right,NA,775,775,19308,17557,NA,2,legacy,5,1024,2,48000,-16,experiment,1,odd,2,655427,657433,27520,652063,653212,8199,125801,653217,639565,8211,108243,658210,654222,657432,NA,Sternberg Task,84,91178,95,yes,1024
88.54166667,88.54166667,954.9166667,954.9166667,black,experiment,legacy,legacy,legacy,0,uniform,1,1,undefined,left,95,95,0,95,95,0,0,95,95,0,0,95,95,95,0,10/20/19 18:47,The main experiment item,yes,SternbergTask.osexp,C:\Users\hosan\Desktop,no,mono,no,18,no,white,no,yes,768,legacy,83,11,C:/Users/hosan/Desktop/TB-subject-1.csv,legacy,3 4,Kafkaesque Koffka,3.2.8,1,y,0,left,left,left,right,NA,494,494,19308,17557,NA,2,legacy,2,1024,2,48000,-16,experiment,1,odd,3,661597,663603,27520,658259,659384,8199,125801,659386,639565,8211,108243,664099,660391,663602,NA,Sternberg Task,85,91672,96,yes,1024
87.62886598,87.62886598,956.4123711,956.4123711,black,experiment,legacy,legacy,legacy,0,uniform,0,0,undefined,left,96,96,0,96,96,0,0,96,96,0,0,96,96,96,0,10/20/19 18:47,The main experiment item,yes,SternbergTask.osexp,C:\Users\hosan\Desktop,no,mono,no,18,no,white,no,yes,768,legacy,84,11,C:/Users/hosan/Desktop/TB-subject-1.csv,legacy,3 9 7 6 4,Kafkaesque Koffka,3.2.8,3,y,0,right,right,left,right,NA,1100,1100,19308,17557,NA,2,legacy,5,1024,2,48000,-16,experiment,1,odd,7,667526,669531,27520,664164,665313,8199,125801,665315,639565,8211,108243,670632,666321,669531,NA,Sternberg Task,85,92772,97,yes,1024
87.75510204,87.75510204,953.4387755,953.4387755,black,experiment,legacy,legacy,legacy,0,uniform,1,1,undefined,right,97,97,0,97,97,0,0,97,97,0,0,97,97,97,0,10/20/19 18:47,The main experiment item,yes,SternbergTask.osexp,C:\Users\hosan\Desktop,no,mono,no,18,no,white,no,yes,768,legacy,85,11,C:/Users/hosan/Desktop/TB-subject-1.csv,legacy,2 3 8 5 6 7,Kafkaesque Koffka,3.2.8,0,n,0,right,right,left,right,NA,665,665,19308,17557,NA,2,legacy,6,1024,2,48000,-16,experiment,1,odd,1,674041,676046,27520,664164,671828,8199,125801,671830,670688,8211,108243,676713,672835,676046,NA,Sternberg Task,86,93437,98,yes,1024
86.86868687,86.86868687,949.6969697,949.6969697,black,experiment,legacy,legacy,legacy,0,uniform,0,0,undefined,left,98,98,0,98,98,0,0,98,98,0,0,98,98,98,0,10/20/19 18:47,The main experiment item,yes,SternbergTask.osexp,C:\Users\hosan\Desktop,no,mono,no,18,no,white,no,yes,768,legacy,86,11,C:/Users/hosan/Desktop/TB-subject-1.csv,legacy,4 1 8 7 5,Kafkaesque Koffka,3.2.8,3,y,0,right,right,left,right,NA,583,583,19308,17557,NA,2,legacy,5,1024,2,48000,-16,experiment,1,odd,8,680111,682118,27520,676772,677898,8199,125801,677900,670688,8211,108243,682703,678905,682117,NA,Sternberg Task,86,94020,99,yes,1024
87,87,945.44,945.44,black,experiment,legacy,legacy,legacy,0,uniform,1,1,undefined,left,99,99,0,99,99,0,0,99,99,0,0,99,99,99,0,10/20/19 18:47,The main experiment item,yes,SternbergTask.osexp,C:\Users\hosan\Desktop,no,mono,no,18,no,white,no,yes,768,legacy,87,11,C:/Users/hosan/Desktop/TB-subject-1.csv,legacy,2 4 8 5 1 3,Kafkaesque Koffka,3.2.8,1,y,0,left,left,left,right,NA,524,524,19308,17557,NA,2,legacy,6,1024,2,48000,-16,experiment,1,odd,2,686130,688136,27520,676772,683917,8199,125801,683919,682773,8211,108243,688661,684925,688136,NA,Sternberg Task,87,94544,100,yes,1024
87.12871287,87.12871287,944.3267327,944.3267327,black,experiment,legacy,legacy,legacy,0,uniform,1,1,undefined,right,100,100,0,100,100,0,0,100,100,0,0,100,100,100,0,10/20/19 18:47,The main experiment item,yes,SternbergTask.osexp,C:\Users\hosan\Desktop,no,mono,no,18,no,white,no,yes,768,legacy,88,11,C:/Users/hosan/Desktop/TB-subject-1.csv,legacy,1 8 7,Kafkaesque Koffka,3.2.8,0,n,0,right,right,left,right,NA,833,833,19308,17557,NA,2,legacy,3,1024,2,48000,-16,experiment,1,odd,4,692076,694081,27520,688727,689863,8199,125801,689866,682773,8211,108243,694915,690871,694081,NA,Sternberg Task,88,95377,101,yes,1024
87.25490196,87.25490196,944.2156863,944.2156863,black,experiment,legacy,legacy,legacy,0,uniform,1,1,undefined,left,101,101,0,101,101,0,0,101,101,0,0,101,101,101,0,10/20/19 18:47,The main experiment item,yes,SternbergTask.osexp,C:\Users\hosan\Desktop,no,mono,no,18,no,white,no,yes,768,legacy,89,11,C:/Users/hosan/Desktop/TB-subject-1.csv,legacy,7 1 8 5 6 2,Kafkaesque Koffka,3.2.8,2,y,0,left,left,left,right,NA,933,933,19308,17557,NA,2,legacy,6,1024,2,48000,-16,experiment,1,odd,1,698358,700363,27520,694998,696146,8199,125801,696148,682773,8211,108243,701297,697153,700363,NA,Sternberg Task,89,96310,102,yes,1024
87.37864078,87.37864078,941.5728155,941.5728155,black,experiment,legacy,legacy,legacy,0,uniform,1,1,undefined,right,102,102,0,102,102,0,0,102,102,0,0,102,102,102,0,10/20/19 18:47,The main experiment item,yes,SternbergTask.osexp,C:\Users\hosan\Desktop,no,mono,no,18,no,white,no,yes,768,legacy,90,11,C:/Users/hosan/Desktop/TB-subject-1.csv,legacy,2 8 7 9 5 3,Kafkaesque Koffka,3.2.8,0,n,0,right,right,left,right,NA,672,672,19308,17557,NA,2,legacy,6,1024,2,48000,-16,experiment,1,odd,6,704746,706751,27520,701360,702534,8199,125801,702536,682773,8211,108243,707425,703541,706751,NA,Sternberg Task,90,96982,103,yes,1024
87.5,87.5,940.9326923,940.9326923,black,experiment,legacy,legacy,legacy,0,uniform,1,1,undefined,left,103,103,0,103,103,0,0,103,103,0,0,103,103,103,0,10/20/19 18:47,The main experiment item,yes,SternbergTask.osexp,C:\Users\hosan\Desktop,no,mono,no,18,no,white,no,yes,768,legacy,91,11,C:/Users/hosan/Desktop/TB-subject-1.csv,legacy,2 5 4 8 7,Kafkaesque Koffka,3.2.8,3,y,0,left,left,left,right,NA,875,875,19308,17557,NA,2,legacy,5,1024,2,48000,-16,experiment,1,odd,4,710823,712828,27520,707479,708611,8199,125801,708613,682773,8211,108243,713704,709618,712828,NA,Sternberg Task,91,97857,104,yes,1024
87.61904762,87.61904762,941.152381,941.152381,black,experiment,legacy,legacy,legacy,0,uniform,1,1,undefined,right,104,104,0,104,104,0,0,104,104,0,0,104,104,104,0,10/20/19 18:47,The main experiment item,yes,SternbergTask.osexp,C:\Users\hosan\Desktop,no,mono,no,18,no,white,no,yes,768,legacy,92,11,C:/Users/hosan/Desktop/TB-subject-1.csv,legacy,1 5 3 2 8,Kafkaesque Koffka,3.2.8,0,n,0,right,right,left,right,NA,964,964,19308,17557,NA,2,legacy,5,1024,2,48000,-16,experiment,1,odd,4,717097,719102,27520,713758,714885,8199,125801,714887,682773,8211,108243,720067,715892,719102,NA,Sternberg Task,92,98821,105,yes,1024
87.73584906,87.73584906,940.2641509,940.2641509,black,experiment,legacy,legacy,legacy,0,uniform,1,1,undefined,right,105,105,0,105,105,0,0,105,105,0,0,105,105,105,0,10/20/19 18:47,The main experiment item,yes,SternbergTask.osexp,C:\Users\hosan\Desktop,no,mono,no,18,no,white,no,yes,768,legacy,93,11,C:/Users/hosan/Desktop/TB-subject-1.csv,legacy,8 5 4 2 9 6,Kafkaesque Koffka,3.2.8,0,n,0,right,right,left,right,NA,847,847,19308,17557,NA,2,legacy,6,1024,2,48000,-16,experiment,1,odd,3,723482,725487,27520,720127,721269,8199,125801,721272,682773,8211,108243,726335,722277,725487,NA,Sternberg Task,93,99668,106,yes,1024
87.85046729,87.85046729,946.2336449,946.2336449,black,experiment,legacy,legacy,legacy,0,uniform,1,1,undefined,left,106,106,0,106,106,0,0,106,106,0,0,106,106,106,0,10/20/19 18:47,The main experiment item,yes,SternbergTask.osexp,C:\Users\hosan\Desktop,no,mono,no,18,no,white,no,yes,768,legacy,94,11,C:/Users/hosan/Desktop/TB-subject-1.csv,legacy,3 5 7 1,Kafkaesque Koffka,3.2.8,3,y,0,left,left,left,right,NA,1579,1579,19308,17557,NA,2,legacy,4,1024,2,48000,-16,experiment,1,odd,7,729725,731731,27520,726387,727515,8199,125801,727518,682773,8211,108243,733312,728523,731730,NA,Sternberg Task,94,101247,107,yes,1024
87.96296296,87.96296296,944.8888889,944.8888889,black,experiment,legacy,legacy,legacy,0,uniform,1,1,undefined,right,107,107,0,107,107,0,0,107,107,0,0,107,107,107,0,10/20/19 18:47,The main experiment item,yes,SternbergTask.osexp,C:\Users\hosan\Desktop,no,mono,no,18,no,white,no,yes,768,legacy,95,11,C:/Users/hosan/Desktop/TB-subject-1.csv,legacy,6 3 1 7 9 8,Kafkaesque Koffka,3.2.8,0,n,0,right,right,left,right,NA,801,801,19308,17557,NA,2,legacy,6,1024,2,48000,-16,experiment,1,odd,4,736716,738721,27520,733375,734504,8199,125801,734506,682773,8211,108243,739523,735511,738721,NA,Sternberg Task,95,102048,108,yes,1024
88.0733945,88.0733945,945.3302752,945.3302752,black,experiment,legacy,legacy,legacy,0,uniform,1,1,undefined,left,108,108,0,108,108,0,0,108,108,0,0,108,108,108,0,10/20/19 18:47,The main experiment item,yes,SternbergTask.osexp,C:\Users\hosan\Desktop,no,mono,no,18,no,white,no,yes,768,legacy,96,11,C:/Users/hosan/Desktop/TB-subject-1.csv,legacy,7,Kafkaesque Koffka,3.2.8,1,y,0,left,left,left,right,NA,993,993,19308,17557,NA,2,legacy,1,1024,2,48000,-16,experiment,1,odd,7,742928,744933,27520,739585,740716,8199,125801,740718,682773,8211,108243,745928,741723,744933,NA,Sternberg Task,96,103041,109,yes,1024
88.18181818,88.18181818,946.0818182,946.0818182,black,experiment,legacy,legacy,legacy,0,uniform,1,1,undefined,left,109,109,0,109,109,0,0,109,109,0,0,109,109,109,0,10/20/19 18:47,The main experiment item,yes,SternbergTask.osexp,C:\Users\hosan\Desktop,no,mono,no,18,no,white,no,yes,768,legacy,97,11,C:/Users/hosan/Desktop/TB-subject-1.csv,legacy,7 6,Kafkaesque Koffka,3.2.8,2,y,0,left,left,left,right,NA,1028,1028,19308,17557,NA,2,legacy,2,1024,2,48000,-16,experiment,1,odd,6,749317,751323,27520,745973,747104,8199,125801,747106,682773,8211,108243,752353,748111,751322,NA,Sternberg Task,97,104069,110,yes,1024
88.28828829,88.28828829,943.1351351,943.1351351,black,experiment,legacy,legacy,legacy,0,uniform,1,1,undefined,right,110,110,0,110,110,0,0,110,110,0,0,110,110,110,0,10/20/19 18:47,The main experiment item,yes,SternbergTask.osexp,C:\Users\hosan\Desktop,no,mono,no,18,no,white,no,yes,768,legacy,98,11,C:/Users/hosan/Desktop/TB-subject-1.csv,legacy,9 7 4 5 8,Kafkaesque Koffka,3.2.8,0,n,0,right,right,left,right,NA,619,619,19308,17557,NA,2,legacy,5,1024,2,48000,-16,experiment,1,odd,6,755761,757766,27520,752400,753547,8199,125801,753549,682773,8211,108243,758386,754555,757766,NA,Sternberg Task,98,104688,111,yes,1024
88.39285714,88.39285714,946.0089286,946.0089286,black,experiment,legacy,legacy,legacy,0,uniform,1,1,undefined,left,111,111,0,111,111,0,0,111,111,0,0,111,111,111,0,10/20/19 18:47,The main experiment item,yes,SternbergTask.osexp,C:\Users\hosan\Desktop,no,mono,no,18,no,white,no,yes,768,legacy,99,11,C:/Users/hosan/Desktop/TB-subject-1.csv,legacy,5 7 3 6 2,Kafkaesque Koffka,3.2.8,5,y,0,left,left,left,right,NA,1265,1265,19308,17557,NA,2,legacy,5,1024,2,48000,-16,experiment,1,odd,2,761743,763750,27520,758406,759530,8199,125801,759533,682773,8211,108243,765016,760538,763750,NA,Sternberg Task,99,105953,112,yes,1024
88.49557522,88.49557522,945,945,black,experiment,legacy,legacy,legacy,0,uniform,1,1,undefined,left,112,112,0,112,112,0,0,112,112,0,0,112,112,112,0,10/20/19 18:47,The main experiment item,yes,SternbergTask.osexp,C:\Users\hosan\Desktop,no,mono,no,18,no,white,no,yes,768,legacy,100,11,C:/Users/hosan/Desktop/TB-subject-1.csv,legacy,4 1 5,Kafkaesque Koffka,3.2.8,2,y,0,left,left,left,right,NA,832,832,19308,17557,NA,2,legacy,3,1024,2,48000,-16,experiment,1,odd,1,768421,770427,27520,765073,766209,8199,125801,766211,682773,8211,108243,771260,767217,770427,NA,Sternberg Task,100,106785,113,yes,1024
88.59649123,88.59649123,943.4122807,943.4122807,black,experiment,legacy,legacy,legacy,0,uniform,1,1,undefined,left,113,113,0,113,113,0,0,113,113,0,0,113,113,113,0,10/20/19 18:47,The main experiment item,yes,SternbergTask.osexp,C:\Users\hosan\Desktop,no,mono,no,18,no,white,no,yes,768,legacy,101,11,C:/Users/hosan/Desktop/TB-subject-1.csv,legacy,6 5,Kafkaesque Koffka,3.2.8,2,y,0,left,left,left,right,NA,764,764,19308,17557,NA,2,legacy,2,1024,2,48000,-16,experiment,1,odd,5,774677,776683,27520,771312,772464,8199,125801,772466,682773,8211,108243,777449,773471,776683,NA,Sternberg Task,101,107549,114,yes,1024
88.69565217,88.69565217,940.7826087,940.7826087,black,experiment,legacy,legacy,legacy,0,uniform,1,1,undefined,left,114,114,0,114,114,0,0,114,114,0,0,114,114,114,0,10/20/19 18:47,The main experiment item,yes,SternbergTask.osexp,C:\Users\hosan\Desktop,no,mono,no,18,no,white,no,yes,768,legacy,102,11,C:/Users/hosan/Desktop/TB-subject-1.csv,legacy,4,Kafkaesque Koffka,3.2.8,1,y,0,left,left,left,right,NA,641,641,19308,17557,NA,2,legacy,1,1024,2,48000,-16,experiment,1,odd,4,780845,782851,27520,777500,778633,8199,125801,778635,682773,8211,108243,783493,779640,782851,NA,Sternberg Task,102,108190,115,yes,1024
88.79310345,88.79310345,939.9310345,939.9310345,black,experiment,legacy,legacy,legacy,0,uniform,1,1,undefined,left,115,115,0,115,115,0,0,115,115,0,0,115,115,115,0,10/20/19 18:47,The main experiment item,yes,SternbergTask.osexp,C:\Users\hosan\Desktop,no,mono,no,18,no,white,no,yes,768,legacy,103,11,C:/Users/hosan/Desktop/TB-subject-1.csv,legacy,9 3 8 2 1 4,Kafkaesque Koffka,3.2.8,3,y,0,left,left,left,right,NA,842,842,19308,17557,NA,2,legacy,6,1024,2,48000,-16,experiment,1,odd,8,786906,788912,27520,783556,784692,8199,125801,784695,682773,8211,108243,789755,785700,788911,NA,Sternberg Task,103,109032,116,yes,1024
88.88888889,88.88888889,937.9401709,937.9401709,black,experiment,legacy,legacy,legacy,0,uniform,1,1,undefined,left,116,116,0,116,116,0,0,116,116,0,0,116,116,116,0,10/20/19 18:47,The main experiment item,yes,SternbergTask.osexp,C:\Users\hosan\Desktop,no,mono,no,18,no,white,no,yes,768,legacy,104,11,C:/Users/hosan/Desktop/TB-subject-1.csv,legacy,5 2 6,Kafkaesque Koffka,3.2.8,2,y,0,left,left,left,right,NA,707,707,19308,17557,NA,2,legacy,3,1024,2,48000,-16,experiment,1,odd,2,793172,795178,27520,789820,790959,8199,125801,790962,682773,8211,108243,795887,791967,795178,NA,Sternberg Task,104,109739,117,yes,1024
88.98305085,88.98305085,937.6016949,937.6016949,black,experiment,legacy,legacy,legacy,0,uniform,1,1,undefined,left,117,117,0,117,117,0,0,117,117,0,0,117,117,117,0,10/20/19 18:47,The main experiment item,yes,SternbergTask.osexp,C:\Users\hosan\Desktop,no,mono,no,18,no,white,no,yes,768,legacy,105,11,C:/Users/hosan/Desktop/TB-subject-1.csv,legacy,3 9 6 2,Kafkaesque Koffka,3.2.8,4,y,0,left,left,left,right,NA,898,898,19308,17557,NA,2,legacy,4,1024,2,48000,-16,experiment,1,odd,2,799294,801301,27520,795943,797080,8199,125801,797083,682773,8211,108243,802200,798088,801300,NA,Sternberg Task,105,110637,118,yes,1024
89.07563025,89.07563025,936.0252101,936.0252101,black,experiment,legacy,legacy,legacy,0,uniform,1,1,undefined,left,118,118,0,118,118,0,0,118,118,0,0,118,118,118,0,10/20/19 18:47,The main experiment item,yes,SternbergTask.osexp,C:\Users\hosan\Desktop,no,mono,no,18,no,white,no,yes,768,legacy,106,11,C:/Users/hosan/Desktop/TB-subject-1.csv,legacy,4 3 2 5 8,Kafkaesque Koffka,3.2.8,2,y,0,left,left,left,right,NA,750,750,19308,17557,NA,2,legacy,5,1024,2,48000,-16,experiment,1,odd,3,805621,807627,27520,802264,803408,8199,125801,803411,682773,8211,108243,808379,804416,807626,NA,Sternberg Task,106,111387,119,yes,1024
89.16666667,89.16666667,938.1166667,938.1166667,black,experiment,legacy,legacy,legacy,0,uniform,1,1,undefined,right,119,119,0,119,119,0,0,119,119,0,0,119,119,119,0,10/20/19 18:47,The main experiment item,yes,SternbergTask.osexp,C:\Users\hosan\Desktop,no,mono,no,18,no,white,no,yes,768,legacy,107,11,C:/Users/hosan/Desktop/TB-subject-1.csv,legacy,7 3 2 8,Kafkaesque Koffka,3.2.8,0,n,0,right,right,left,right,NA,1187,1187,19308,17557,NA,2,legacy,4,1024,2,48000,-16,experiment,1,odd,4,811776,813781,27520,808430,809563,8199,125801,809566,682773,8211,108243,814970,810571,813781,NA,Sternberg Task,107,112574,120,yes,1024
89.25619835,89.25619835,936.0578512,936.0578512,black,experiment,legacy,legacy,legacy,0,uniform,1,1,undefined,right,120,120,0,120,120,0,0,120,120,0,0,120,120,120,0,10/20/19 18:47,The main experiment item,yes,SternbergTask.osexp,C:\Users\hosan\Desktop,no,mono,no,18,no,white,no,yes,768,legacy,108,11,C:/Users/hosan/Desktop/TB-subject-1.csv,legacy,4 8 1 2,Kafkaesque Koffka,3.2.8,0,n,0,right,right,left,right,NA,689,689,19308,17557,NA,2,legacy,4,1024,2,48000,-16,experiment,1,odd,7,818372,820377,27520,815022,816159,8199,125801,816161,682773,8211,108243,821068,817166,820377,NA,Sternberg Task,108,113263,121,yes,1024
88.52459016,88.52459016,934.3114754,934.3114754,black,experiment,legacy,legacy,legacy,0,uniform,0,0,undefined,right,121,121,0,121,121,0,0,121,121,0,0,121,121,121,0,10/20/19 18:47,The main experiment item,yes,SternbergTask.osexp,C:\Users\hosan\Desktop,no,mono,no,18,no,white,no,yes,768,legacy,109,11,C:/Users/hosan/Desktop/TB-subject-1.csv,legacy,8 4 3 5,Kafkaesque Koffka,3.2.8,0,n,0,left,left,left,right,NA,723,723,19308,17557,NA,2,legacy,4,1024,2,48000,-16,experiment,1,odd,6,824455,826461,27520,821085,822241,8199,125801,822243,682773,8211,108243,827186,823249,826460,NA,Sternberg Task,108,113986,122,yes,1024
88.61788618,88.61788618,934.0081301,934.0081301,black,experiment,legacy,legacy,legacy,0,uniform,1,1,undefined,left,122,122,0,122,122,0,0,122,122,0,0,122,122,122,0,10/20/19 18:47,The main experiment item,yes,SternbergTask.osexp,C:\Users\hosan\Desktop,no,mono,no,18,no,white,no,yes,768,legacy,110,11,C:/Users/hosan/Desktop/TB-subject-1.csv,legacy,4 7 6 8 2 3,Kafkaesque Koffka,3.2.8,6,y,0,left,left,left,right,NA,897,897,19308,17557,NA,2,legacy,6,1024,2,48000,-16,experiment,1,odd,3,830595,832601,27520,821085,828382,8199,125801,828385,827238,8211,108243,833500,829390,832600,NA,Sternberg Task,109,114883,123,yes,1024
88.70967742,88.70967742,931.1854839,931.1854839,black,experiment,legacy,legacy,legacy,0,uniform,1,1,undefined,left,123,123,0,123,123,0,0,123,123,0,0,123,123,123,0,10/20/19 18:47,The main experiment item,yes,SternbergTask.osexp,C:\Users\hosan\Desktop,no,mono,no,18,no,white,no,yes,768,legacy,111,11,C:/Users/hosan/Desktop/TB-subject-1.csv,legacy,2 6 1 7 4,Kafkaesque Koffka,3.2.8,2,y,0,left,left,left,right,NA,584,584,19308,17557,NA,2,legacy,5,1024,2,48000,-16,experiment,1,odd,6,836911,838915,27520,833559,834698,8199,125801,834700,827238,8211,108243,839501,835705,838915,NA,Sternberg Task,110,115467,124,yes,1024
88.8,88.8,927.52,927.52,black,experiment,legacy,legacy,legacy,0,uniform,1,1,undefined,left,124,124,0,124,124,0,0,124,124,0,0,124,124,124,0,10/20/19 18:47,The main experiment item,yes,SternbergTask.osexp,C:\Users\hosan\Desktop,no,mono,no,18,no,white,no,yes,768,legacy,112,11,C:/Users/hosan/Desktop/TB-subject-1.csv,legacy,8 5 3 7 4 6,Kafkaesque Koffka,3.2.8,6,y,0,left,left,left,right,NA,473,473,19308,17557,NA,2,legacy,6,1024,2,48000,-16,experiment,1,odd,6,842910,844916,27520,839559,840698,8199,125801,840700,827238,8211,108243,845390,841705,844916,NA,Sternberg Task,111,115940,125,yes,1024
88.88888889,88.88888889,927.531746,927.531746,black,experiment,legacy,legacy,legacy,0,uniform,1,1,undefined,left,125,125,0,125,125,0,0,125,125,0,0,125,125,125,0,10/20/19 18:47,The main experiment item,yes,SternbergTask.osexp,C:\Users\hosan\Desktop,no,mono,no,18,no,white,no,yes,768,legacy,113,11,C:/Users/hosan/Desktop/TB-subject-1.csv,legacy,9 1 7 2,Kafkaesque Koffka,3.2.8,2,y,0,left,left,left,right,NA,929,929,19308,17557,NA,2,legacy,4,1024,2,48000,-16,experiment,1,odd,1,848795,850801,27520,845442,846582,8199,125801,846584,827238,8211,108243,851732,847589,850801,NA,Sternberg Task,112,116869,126,yes,1024
88.97637795,88.97637795,926.4173228,926.4173228,black,experiment,legacy,legacy,legacy,0,uniform,1,1,undefined,right,126,126,0,126,126,0,0,126,126,0,0,126,126,126,0,10/20/19 18:47,The main experiment item,yes,SternbergTask.osexp,C:\Users\hosan\Desktop,no,mono,no,18,no,white,no,yes,768,legacy,114,11,C:/Users/hosan/Desktop/TB-subject-1.csv,legacy,8 9,Kafkaesque Koffka,3.2.8,0,n,0,right,right,left,right,NA,786,786,19308,17557,NA,2,legacy,2,1024,2,48000,-16,experiment,1,odd,5,855149,857155,27520,851792,852936,8199,125801,852939,827238,8211,108243,857943,853944,857155,NA,Sternberg Task,113,117655,127,yes,1024
89.0625,89.0625,925.8359375,925.8359375,black,experiment,legacy,legacy,legacy,0,uniform,1,1,undefined,right,127,127,0,127,127,0,0,127,127,0,0,127,127,127,0,10/20/19 18:47,The main experiment item,yes,SternbergTask.osexp,C:\Users\hosan\Desktop,no,mono,no,18,no,white,no,yes,768,legacy,115,11,C:/Users/hosan/Desktop/TB-subject-1.csv,legacy,6 7 5 9,Kafkaesque Koffka,3.2.8,0,n,0,right,right,left,right,NA,852,852,19308,17557,NA,2,legacy,4,1024,2,48000,-16,experiment,1,odd,2,861360,863365,27520,858003,859147,8199,125801,859149,827238,8211,108243,864218,860154,863365,NA,Sternberg Task,114,118507,128,yes,1024
89.14728682,89.14728682,928.4573643,928.4573643,black,experiment,legacy,legacy,legacy,0,uniform,1,1,undefined,right,128,128,0,128,128,0,0,128,128,0,0,128,128,128,0,10/20/19 18:47,The main experiment item,yes,SternbergTask.osexp,C:\Users\hosan\Desktop,no,mono,no,18,no,white,no,yes,768,legacy,116,11,C:/Users/hosan/Desktop/TB-subject-1.csv,legacy,4 1,Kafkaesque Koffka,3.2.8,0,n,0,right,right,left,right,NA,1264,1264,19308,17557,NA,2,legacy,2,1024,2,48000,-16,experiment,1,odd,6,867657,869664,27520,864278,865440,8199,125801,865443,827238,8211,108243,870930,866451,869664,NA,Sternberg Task,115,119771,129,yes,1024
89.23076923,89.23076923,928.8384615,928.8384615,black,experiment,legacy,legacy,legacy,0,uniform,1,1,undefined,right,129,129,0,129,129,0,0,129,129,0,0,129,129,129,0,10/20/19 18:47,The main experiment item,yes,SternbergTask.osexp,C:\Users\hosan\Desktop,no,mono,no,18,no,white,no,yes,768,legacy,117,11,C:/Users/hosan/Desktop/TB-subject-1.csv,legacy,7 1 8 4 9 3,Kafkaesque Koffka,3.2.8,0,n,0,right,right,left,right,NA,978,978,19308,17557,NA,2,legacy,6,1024,2,48000,-16,experiment,1,odd,6,874343,876348,27520,870988,872130,8199,125801,872132,827238,8211,108243,877328,873137,876348,NA,Sternberg Task,116,120749,130,yes,1024
89.3129771,89.3129771,927.1679389,927.1679389,black,experiment,legacy,legacy,legacy,0,uniform,1,1,undefined,right,130,130,0,130,130,0,0,130,130,0,0,130,130,130,0,10/20/19 18:47,The main experiment item,yes,SternbergTask.osexp,C:\Users\hosan\Desktop,no,mono,no,18,no,white,no,yes,768,legacy,118,11,C:/Users/hosan/Desktop/TB-subject-1.csv,legacy,2 6 4 3 9,Kafkaesque Koffka,3.2.8,0,n,0,right,right,left,right,NA,710,710,19308,17557,NA,2,legacy,5,1024,2,48000,-16,experiment,1,odd,1,880721,882727,27520,877377,878507,8199,125801,878510,827238,8211,108243,883439,879515,882727,NA,Sternberg Task,117,121459,131,yes,1024
89.39393939,89.39393939,932.1060606,932.1060606,black,experiment,legacy,legacy,legacy,0,uniform,1,1,undefined,right,131,131,0,131,131,0,0,131,131,0,0,131,131,131,0,10/20/19 18:47,The main experiment item,yes,SternbergTask.osexp,C:\Users\hosan\Desktop,no,mono,no,18,no,white,no,yes,768,legacy,119,11,C:/Users/hosan/Desktop/TB-subject-1.csv,legacy,8 5 7 3 6,Kafkaesque Koffka,3.2.8,0,n,0,right,right,left,right,NA,1579,1579,19308,17557,NA,2,legacy,5,1024,2,48000,-16,experiment,1,odd,9,886861,888866,27520,883509,884648,8199,125801,884651,827238,8211,108243,890447,885656,888866,NA,Sternberg Task,118,123038,132,yes,1024
88.72180451,88.72180451,935.0827068,935.0827068,black,experiment,legacy,legacy,legacy,0,uniform,0,0,undefined,left,132,132,0,132,132,0,0,132,132,0,0,132,132,132,0,10/20/19 18:47,The main experiment item,yes,SternbergTask.osexp,C:\Users\hosan\Desktop,no,mono,no,18,no,white,no,yes,768,legacy,120,11,C:/Users/hosan/Desktop/TB-subject-1.csv,legacy,8 3,Kafkaesque Koffka,3.2.8,2,y,0,right,right,left,right,NA,1328,1328,19308,17557,NA,2,legacy,2,1024,2,48000,-16,experiment,1,odd,3,893854,895860,27520,890505,891640,8199,125801,891643,827238,8211,108243,897190,892648,895859,NA,Sternberg Task,118,124366,133,yes,1024
88.80597015,88.80597015,935.9850746,935.9850746,black,experiment,legacy,legacy,legacy,0,uniform,1,1,undefined,right,133,133,0,133,133,0,0,133,133,0,0,133,133,133,0,10/20/19 18:47,The main experiment item,yes,SternbergTask.osexp,C:\Users\hosan\Desktop,no,mono,no,18,no,white,no,yes,768,legacy,121,11,C:/Users/hosan/Desktop/TB-subject-1.csv,legacy,6 9 4 5 2,Kafkaesque Koffka,3.2.8,0,n,0,right,right,left,right,NA,1056,1056,19308,17557,NA,2,legacy,5,1024,2,48000,-16,experiment,1,odd,1,900645,902651,27520,890505,898431,8199,125801,898434,897280,8211,108243,903709,899440,902651,NA,Sternberg Task,119,125422,134,yes,1024
88.88888889,88.88888889,936.8962963,936.8962963,black,experiment,legacy,legacy,legacy,0,uniform,1,1,undefined,right,134,134,0,134,134,0,0,134,134,0,0,134,134,134,0,10/20/19 18:47,The main experiment item,yes,SternbergTask.osexp,C:\Users\hosan\Desktop,no,mono,no,18,no,white,no,yes,768,legacy,122,11,C:/Users/hosan/Desktop/TB-subject-1.csv,legacy,2 8 6 3 1,Kafkaesque Koffka,3.2.8,0,n,0,right,right,left,right,NA,1059,1059,19308,17557,NA,2,legacy,5,1024,2,48000,-16,experiment,1,odd,7,907116,909122,27520,903768,904903,8199,125801,904905,897280,8211,108243,910183,905910,909122,NA,Sternberg Task,120,126481,135,yes,1024
88.97058824,88.97058824,938.625,938.625,black,experiment,legacy,legacy,legacy,0,uniform,1,1,undefined,left,135,135,0,135,135,0,0,135,135,0,0,135,135,135,0,10/20/19 18:47,The main experiment item,yes,SternbergTask.osexp,C:\Users\hosan\Desktop,no,mono,no,18,no,white,no,yes,768,legacy,123,11,C:/Users/hosan/Desktop/TB-subject-1.csv,legacy,8 5 4 7 3 1,Kafkaesque Koffka,3.2.8,2,y,0,left,left,left,right,NA,1172,1172,19308,17557,NA,2,legacy,6,1024,2,48000,-16,experiment,1,odd,5,913590,915595,27520,910242,911378,8199,125801,911380,897280,8211,108243,916769,912385,915595,NA,Sternberg Task,121,127653,136,yes,1024
89.05109489,89.05109489,936.459854,936.459854,black,experiment,legacy,legacy,legacy,0,uniform,1,1,undefined,right,136,136,0,136,136,0,0,136,136,0,0,136,136,136,0,10/20/19 18:47,The main experiment item,yes,SternbergTask.osexp,C:\Users\hosan\Desktop,no,mono,no,18,no,white,no,yes,768,legacy,124,11,C:/Users/hosan/Desktop/TB-subject-1.csv,legacy,6 8 4,Kafkaesque Koffka,3.2.8,0,n,0,right,right,left,right,NA,642,642,19308,17557,NA,2,legacy,3,1024,2,48000,-16,experiment,1,odd,1,920168,922174,27520,916829,917957,8199,125801,917959,897280,8211,108243,922817,918963,922173,NA,Sternberg Task,122,128295,137,yes,1024
89.13043478,89.13043478,937.8043478,937.8043478,black,experiment,legacy,legacy,legacy,0,uniform,1,1,undefined,right,137,137,0,137,137,0,0,137,137,0,0,137,137,137,0,10/20/19 18:47,The main experiment item,yes,SternbergTask.osexp,C:\Users\hosan\Desktop,no,mono,no,18,no,white,no,yes,768,legacy,125,11,C:/Users/hosan/Desktop/TB-subject-1.csv,legacy,8 4 3 9,Kafkaesque Koffka,3.2.8,0,n,0,right,right,left,right,NA,1122,1122,19308,17557,NA,2,legacy,4,1024,2,48000,-16,experiment,1,odd,5,926229,928235,27520,922884,924015,8199,125801,924017,897280,8211,108243,929359,925023,928234,NA,Sternberg Task,123,129417,138,yes,1024