acc,accuracy,average_response_time,avg_rt,background,block,canvas_backend,clock_backend,color_backend,compensation,coordinates,correct,correct_instructions1,correct_new_keyboard_response,correct_response,count_ISI,count_correctFeedback,count_expSequence,count_experiment,count_experimentLoop,count_fixation,count_incorrectFeedback,count_instructions1,count_instructions2,count_logger,count_memorySet,count_new_keyboard_response,count_practiceLoop,count_probe,count_thankYou,datetime,description,disable_garbage_collection,experiment_file,experiment_path,font_bold,font_family,font_italic,font_size,font_underline,foreground,form_clicks,fullscreen,height,keyboard_backend,live_row,live_row_practiceLoop,logfile,mouse_backend,numberSet,opensesame_codename,opensesame_version,posInSet,present,repeat_cycle,response,response_instructions1,response_instructions2,response_new_keyboard_response,response_thankYou,response_time,response_time_instructions1,response_time_instructions2,response_time_new_keyboard_response,response_time_thankYou,round_decimals,sampler_backend,setSize,sound_buf_size,sound_channels,sound_freq,sound_sample_size,start,subject_nr,subject_parity,target,time_ISI,time_correctFeedback,time_expSequence,time_experiment,time_experimentLoop,time_fixation,time_incorrectFeedback,time_instructions1,time_instructions2,time_logger,time_memorySet,time_new_keyboard_response,time_practiceLoop,time_probe,time_thankYou,title,total_correct,total_response_time,total_responses,uniform_coordinates,width
0,0,1080,1080,black,practice,legacy,legacy,legacy,0,uniform,0,undefined,0,left,0,0,0,0,0,0,0,0,0,0,0,0,0,0,0,10/14/19 13:24,The main experiment item,yes,Sternbergtask.osexp,C:/Users/Breena Riley/Desktop/2019 Fall/MultQuant/lab 3.1,no,mono,no,18,no,white,no,yes,768,legacy,0,0,C:/Users/Breena Riley/Desktop/2019 Fall/MultQuant/lab 3.1/BR-subject-1.csv,legacy,2 9 4,Kafkaesque Koffka,3.2.8,3,y,0,right,right,NA,right,NA,1080,24703,NA,1080,NA,2,legacy,3,1024,2,48000,-16,experiment,1,odd,4,30155,NA,27950,2758,NA,27953,NA,2765,NA,33236,28954,32156,27468,32156,NA,Sternberg task,0,1080,1,yes,1024
50,50,846,846,black,practice,legacy,legacy,legacy,0,uniform,1,undefined,1,left,1,1,1,0,0,1,1,0,0,1,1,1,0,1,0,10/14/19 13:24,The main experiment item,yes,Sternbergtask.osexp,C:/Users/Breena Riley/Desktop/2019 Fall/MultQuant/lab 3.1,no,mono,no,18,no,white,no,yes,768,legacy,1,1,C:/Users/Breena Riley/Desktop/2019 Fall/MultQuant/lab 3.1/BR-subject-1.csv,legacy,4 3 1 7 9 8,Kafkaesque Koffka,3.2.8,1,y,0,left,right,NA,left,NA,612,24703,NA,612,NA,2,legacy,6,1024,2,48000,-16,experiment,1,odd,4,36587,NA,34383,2758,NA,34385,33308,2765,NA,39201,35386,38588,27468,38588,NA,Sternberg task,1,1692,2,yes,1024
66.66666667,66.66666667,795.3333333,795.3333333,black,practice,legacy,legacy,legacy,0,uniform,1,undefined,1,left,2,2,2,0,0,2,2,0,0,2,2,2,0,2,0,10/14/19 13:24,The main experiment item,yes,Sternbergtask.osexp,C:/Users/Breena Riley/Desktop/2019 Fall/MultQuant/lab 3.1,no,mono,no,18,no,white,no,yes,768,legacy,2,2,C:/Users/Breena Riley/Desktop/2019 Fall/MultQuant/lab 3.1/BR-subject-1.csv,legacy,1 5 2 9,Kafkaesque Koffka,3.2.8,2,y,0,left,right,NA,left,NA,694,24703,NA,694,NA,2,legacy,4,1024,2,48000,-16,experiment,1,odd,5,42484,39208,40279,2758,NA,40281,33308,2765,NA,45180,41282,44485,27468,44485,NA,Sternberg task,2,2386,3,yes,1024
50,50,851.25,851.25,black,practice,legacy,legacy,legacy,0,uniform,0,undefined,0,left,3,3,3,0,0,3,3,0,0,3,3,3,0,3,0,10/14/19 13:24,The main experiment item,yes,Sternbergtask.osexp,C:/Users/Breena Riley/Desktop/2019 Fall/MultQuant/lab 3.1,no,mono,no,18,no,white,no,yes,768,legacy,3,3,C:/Users/Breena Riley/Desktop/2019 Fall/MultQuant/lab 3.1/BR-subject-1.csv,legacy,1 7 9 8 5,Kafkaesque Koffka,3.2.8,4,y,0,right,right,NA,right,NA,1019,24703,NA,1019,NA,2,legacy,5,1024,2,48000,-16,experiment,1,odd,8,48463,45187,46259,2758,NA,46261,33308,2765,NA,51484,47262,50464,27468,50464,NA,Sternberg task,2,3405,4,yes,1024
60,60,795.4,795.4,black,practice,legacy,legacy,legacy,0,uniform,1,undefined,1,left,4,4,4,0,0,4,4,0,0,4,4,4,0,4,0,10/14/19 13:24,The main experiment item,yes,Sternbergtask.osexp,C:/Users/Breena Riley/Desktop/2019 Fall/MultQuant/lab 3.1,no,mono,no,18,no,white,no,yes,768,legacy,4,4,C:/Users/Breena Riley/Desktop/2019 Fall/MultQuant/lab 3.1/BR-subject-1.csv,legacy,4 8,Kafkaesque Koffka,3.2.8,1,y,0,left,right,NA,left,NA,572,24703,NA,572,NA,2,legacy,2,1024,2,48000,-16,experiment,1,odd,4,54769,45187,52565,2758,NA,52567,51490,2765,NA,57343,53568,56770,27468,56770,NA,Sternberg task,3,3977,5,yes,1024
66.66666667,66.66666667,759.3333333,759.3333333,black,practice,legacy,legacy,legacy,0,uniform,1,undefined,1,right,5,5,5,0,0,5,5,0,0,5,5,5,0,5,0,10/14/19 13:24,The main experiment item,yes,Sternbergtask.osexp,C:/Users/Breena Riley/Desktop/2019 Fall/MultQuant/lab 3.1,no,mono,no,18,no,white,no,yes,768,legacy,5,5,C:/Users/Breena Riley/Desktop/2019 Fall/MultQuant/lab 3.1/BR-subject-1.csv,legacy,5,Kafkaesque Koffka,3.2.8,0,n,0,right,right,NA,right,NA,579,24703,NA,579,NA,2,legacy,1,1024,2,48000,-16,experiment,1,odd,3,60623,57350,58420,2758,NA,58421,51490,2765,NA,63203,59422,62624,27468,62624,NA,Sternberg task,4,4556,6,yes,1024
71.42857143,71.42857143,733,733,black,practice,legacy,legacy,legacy,0,uniform,1,undefined,1,right,6,6,6,0,0,6,6,0,0,6,6,6,0,6,0,10/14/19 13:24,The main experiment item,yes,Sternbergtask.osexp,C:/Users/Breena Riley/Desktop/2019 Fall/MultQuant/lab 3.1,no,mono,no,18,no,white,no,yes,768,legacy,6,6,C:/Users/Breena Riley/Desktop/2019 Fall/MultQuant/lab 3.1/BR-subject-1.csv,legacy,5 7 8 4 1 2,Kafkaesque Koffka,3.2.8,0,n,0,right,right,NA,right,NA,575,24703,NA,575,NA,2,legacy,6,1024,2,48000,-16,experiment,1,odd,6,66485,63210,64281,2758,NA,64283,51490,2765,NA,69061,65284,68486,27468,68486,NA,Sternberg task,5,5131,7,yes,1024
75,75,700.625,700.625,black,practice,legacy,legacy,legacy,0,uniform,1,undefined,1,right,7,7,7,0,0,7,7,0,0,7,7,7,0,7,0,10/14/19 13:24,The main experiment item,yes,Sternbergtask.osexp,C:/Users/Breena Riley/Desktop/2019 Fall/MultQuant/lab 3.1,no,mono,no,18,no,white,no,yes,768,legacy,7,7,C:/Users/Breena Riley/Desktop/2019 Fall/MultQuant/lab 3.1/BR-subject-1.csv,legacy,2 1,Kafkaesque Koffka,3.2.8,0,n,0,right,right,NA,right,NA,474,24703,NA,474,NA,2,legacy,2,1024,2,48000,-16,experiment,1,odd,5,72344,69069,70140,2758,NA,70141,51490,2765,NA,74818,71142,74344,27468,74344,NA,Sternberg task,6,5605,8,yes,1024
77.77777778,77.77777778,673.1111111,673.1111111,black,practice,legacy,legacy,legacy,0,uniform,1,undefined,1,left,8,8,8,0,0,8,8,0,0,8,8,8,0,8,0,10/14/19 13:24,The main experiment item,yes,Sternbergtask.osexp,C:/Users/Breena Riley/Desktop/2019 Fall/MultQuant/lab 3.1,no,mono,no,18,no,white,no,yes,768,legacy,8,8,C:/Users/Breena Riley/Desktop/2019 Fall/MultQuant/lab 3.1/BR-subject-1.csv,legacy,6,Kafkaesque Koffka,3.2.8,1,y,0,left,right,NA,left,NA,453,24703,NA,453,NA,2,legacy,1,1024,2,48000,-16,experiment,1,odd,6,78100,74826,75897,2758,NA,75898,51490,2765,NA,80554,76899,80101,27468,80101,NA,Sternberg task,7,6058,9,yes,1024
80,80,668.4,668.4,black,practice,legacy,legacy,legacy,0,uniform,1,undefined,1,right,9,9,9,0,0,9,9,0,0,9,9,9,0,9,0,10/14/19 13:24,The main experiment item,yes,Sternbergtask.osexp,C:/Users/Breena Riley/Desktop/2019 Fall/MultQuant/lab 3.1,no,mono,no,18,no,white,no,yes,768,legacy,9,9,C:/Users/Breena Riley/Desktop/2019 Fall/MultQuant/lab 3.1/BR-subject-1.csv,legacy,9 6 7 4 5,Kafkaesque Koffka,3.2.8,0,n,0,right,right,NA,right,NA,626,24703,NA,626,NA,2,legacy,5,1024,2,48000,-16,experiment,1,odd,3,83836,80562,81632,2758,NA,81634,51490,2765,NA,86463,82635,85837,27468,85837,NA,Sternberg task,8,6684,10,yes,1024
81.81818182,81.81818182,651.4545455,651.4545455,black,practice,legacy,legacy,legacy,0,uniform,1,undefined,1,right,10,10,10,0,0,10,10,0,0,10,10,10,0,10,0,10/14/19 13:24,The main experiment item,yes,Sternbergtask.osexp,C:/Users/Breena Riley/Desktop/2019 Fall/MultQuant/lab 3.1,no,mono,no,18,no,white,no,yes,768,legacy,10,10,C:/Users/Breena Riley/Desktop/2019 Fall/MultQuant/lab 3.1/BR-subject-1.csv,legacy,4 1 5,Kafkaesque Koffka,3.2.8,0,n,0,right,right,NA,right,NA,482,24703,NA,482,NA,2,legacy,3,1024,2,48000,-16,experiment,1,odd,2,89745,86471,87541,2758,NA,87543,51490,2765,NA,92229,88544,91746,27468,91746,NA,Sternberg task,9,7166,11,yes,1024
83.33333333,83.33333333,660.3333333,660.3333333,black,practice,legacy,legacy,legacy,0,uniform,1,undefined,1,right,11,11,11,0,0,11,11,0,0,11,11,11,0,11,0,10/14/19 13:24,The main experiment item,yes,Sternbergtask.osexp,C:/Users/Breena Riley/Desktop/2019 Fall/MultQuant/lab 3.1,no,mono,no,18,no,white,no,yes,768,legacy,11,11,C:/Users/Breena Riley/Desktop/2019 Fall/MultQuant/lab 3.1/BR-subject-1.csv,legacy,3 1 9 4,Kafkaesque Koffka,3.2.8,0,n,0,right,right,NA,right,NA,758,24703,NA,758,NA,2,legacy,4,1024,2,48000,-16,experiment,1,odd,6,95513,92236,93310,2758,NA,93311,51490,2765,NA,98272,94312,97514,27468,97514,NA,Sternberg task,10,7924,12,yes,1024
84.61538462,84.61538462,654.6923077,654.6923077,black,experiment,legacy,legacy,legacy,0,uniform,1,undefined,1,right,12,12,12,0,0,12,12,0,0,12,12,12,0,12,0,10/14/19 13:24,The main experiment item,yes,Sternbergtask.osexp,C:/Users/Breena Riley/Desktop/2019 Fall/MultQuant/lab 3.1,no,mono,no,18,no,white,no,yes,768,legacy,0,11,C:/Users/Breena Riley/Desktop/2019 Fall/MultQuant/lab 3.1/BR-subject-1.csv,legacy,8 5 7 3 6,Kafkaesque Koffka,3.2.8,0,n,0,right,right,right,right,NA,587,24703,13767,587,NA,2,legacy,5,1024,2,48000,-16,experiment,1,odd,9,115351,98280,113147,2758,113062,113149,51490,2765,99294,117939,114150,117352,27468,117352,NA,Sternberg task,11,8511,13,yes,1024
85.71428571,85.71428571,651.5714286,651.5714286,black,experiment,legacy,legacy,legacy,0,uniform,1,undefined,1,left,13,13,13,0,0,13,13,0,0,13,13,13,0,13,0,10/14/19 13:24,The main experiment item,yes,Sternbergtask.osexp,C:/Users/Breena Riley/Desktop/2019 Fall/MultQuant/lab 3.1,no,mono,no,18,no,white,no,yes,768,legacy,1,11,C:/Users/Breena Riley/Desktop/2019 Fall/MultQuant/lab 3.1/BR-subject-1.csv,legacy,2 4 8 5 1 3,Kafkaesque Koffka,3.2.8,1,y,0,left,right,right,left,NA,611,24703,13767,611,NA,2,legacy,6,1024,2,48000,-16,experiment,1,odd,2,121239,117947,119035,2758,113062,119037,51490,2765,99294,123852,120038,123240,27468,123240,NA,Sternberg task,12,9122,14,yes,1024
86.66666667,86.66666667,644.0666667,644.0666667,black,experiment,legacy,legacy,legacy,0,uniform,1,undefined,1,right,14,14,14,0,0,14,14,0,0,14,14,14,0,14,0,10/14/19 13:24,The main experiment item,yes,Sternbergtask.osexp,C:/Users/Breena Riley/Desktop/2019 Fall/MultQuant/lab 3.1,no,mono,no,18,no,white,no,yes,768,legacy,2,11,C:/Users/Breena Riley/Desktop/2019 Fall/MultQuant/lab 3.1/BR-subject-1.csv,legacy,8 9,Kafkaesque Koffka,3.2.8,0,n,0,right,right,right,right,NA,539,24703,13767,539,NA,2,legacy,2,1024,2,48000,-16,experiment,1,odd,5,127134,123860,124930,2758,113062,124932,51490,2765,99294,129674,125933,129135,27468,129135,NA,Sternberg task,13,9661,15,yes,1024
87.5,87.5,631.125,631.125,black,experiment,legacy,legacy,legacy,0,uniform,1,undefined,1,left,15,15,15,0,0,15,15,0,0,15,15,15,0,15,0,10/14/19 13:24,The main experiment item,yes,Sternbergtask.osexp,C:/Users/Breena Riley/Desktop/2019 Fall/MultQuant/lab 3.1,no,mono,no,18,no,white,no,yes,768,legacy,3,11,C:/Users/Breena Riley/Desktop/2019 Fall/MultQuant/lab 3.1/BR-subject-1.csv,legacy,8 5 3 7 4 6,Kafkaesque Koffka,3.2.8,6,y,0,left,right,right,left,NA,437,24703,13767,437,NA,2,legacy,6,1024,2,48000,-16,experiment,1,odd,6,132965,129681,130761,2758,113062,130763,51490,2765,99294,135403,131764,134966,27468,134966,NA,Sternberg task,14,10098,16,yes,1024
88.23529412,88.23529412,622.7647059,622.7647059,black,experiment,legacy,legacy,legacy,0,uniform,1,undefined,1,right,16,16,16,0,0,16,16,0,0,16,16,16,0,16,0,10/14/19 13:24,The main experiment item,yes,Sternbergtask.osexp,C:/Users/Breena Riley/Desktop/2019 Fall/MultQuant/lab 3.1,no,mono,no,18,no,white,no,yes,768,legacy,4,11,C:/Users/Breena Riley/Desktop/2019 Fall/MultQuant/lab 3.1/BR-subject-1.csv,legacy,7 1,Kafkaesque Koffka,3.2.8,0,n,0,right,right,right,right,NA,489,24703,13767,489,NA,2,legacy,2,1024,2,48000,-16,experiment,1,odd,8,138683,135410,136479,2758,113062,136481,51490,2765,99294,141173,137482,140684,27468,140684,NA,Sternberg task,15,10587,17,yes,1024
88.88888889,88.88888889,624.7777778,624.7777778,black,experiment,legacy,legacy,legacy,0,uniform,1,undefined,1,left,17,17,17,0,0,17,17,0,0,17,17,17,0,17,0,10/14/19 13:24,The main experiment item,yes,Sternbergtask.osexp,C:/Users/Breena Riley/Desktop/2019 Fall/MultQuant/lab 3.1,no,mono,no,18,no,white,no,yes,768,legacy,5,11,C:/Users/Breena Riley/Desktop/2019 Fall/MultQuant/lab 3.1/BR-subject-1.csv,legacy,6 9 3 1,Kafkaesque Koffka,3.2.8,4,y,0,left,right,right,left,NA,659,24703,13767,659,NA,2,legacy,4,1024,2,48000,-16,experiment,1,odd,1,144458,141180,142254,2758,113062,142256,51490,2765,99294,147118,143257,146459,27468,146459,NA,Sternberg task,16,11246,18,yes,1024
89.47368421,89.47368421,614.5789474,614.5789474,black,experiment,legacy,legacy,legacy,0,uniform,1,undefined,1,left,18,18,18,0,0,18,18,0,0,18,18,18,0,18,0,10/14/19 13:24,The main experiment item,yes,Sternbergtask.osexp,C:/Users/Breena Riley/Desktop/2019 Fall/MultQuant/lab 3.1,no,mono,no,18,no,white,no,yes,768,legacy,6,11,C:/Users/Breena Riley/Desktop/2019 Fall/MultQuant/lab 3.1/BR-subject-1.csv,legacy,3 5 9 6 2 4,Kafkaesque Koffka,3.2.8,1,y,0,left,right,right,left,NA,431,24703,13767,431,NA,2,legacy,6,1024,2,48000,-16,experiment,1,odd,3,150400,147126,148196,2758,113062,148198,51490,2765,99294,152832,149199,152401,27468,152401,NA,Sternberg task,17,11677,19,yes,1024
90,90,611.8,611.8,black,experiment,legacy,legacy,legacy,0,uniform,1,undefined,1,right,19,19,19,0,0,19,19,0,0,19,19,19,0,19,0,10/14/19 13:24,The main experiment item,yes,Sternbergtask.osexp,C:/Users/Breena Riley/Desktop/2019 Fall/MultQuant/lab 3.1,no,mono,no,18,no,white,no,yes,768,legacy,7,11,C:/Users/Breena Riley/Desktop/2019 Fall/MultQuant/lab 3.1/BR-subject-1.csv,legacy,3 9 1,Kafkaesque Koffka,3.2.8,0,n,0,right,right,right,right,NA,559,24703,13767,559,NA,2,legacy,3,1024,2,48000,-16,experiment,1,odd,7,156112,152839,153908,2758,113062,153910,51490,2765,99294,158673,154911,158113,27468,158113,NA,Sternberg task,18,12236,20,yes,1024
85.71428571,85.71428571,616.1904762,616.1904762,black,experiment,legacy,legacy,legacy,0,uniform,0,undefined,0,left,20,20,20,0,0,20,20,0,0,20,20,20,0,20,0,10/14/19 13:24,The main experiment item,yes,Sternbergtask.osexp,C:/Users/Breena Riley/Desktop/2019 Fall/MultQuant/lab 3.1,no,mono,no,18,no,white,no,yes,768,legacy,8,11,C:/Users/Breena Riley/Desktop/2019 Fall/MultQuant/lab 3.1/BR-subject-1.csv,legacy,6 8 9 3 4 9,Kafkaesque Koffka,3.2.8,5,y,0,right,right,right,right,NA,704,24703,13767,704,NA,2,legacy,6,1024,2,48000,-16,experiment,1,odd,4,161954,158680,159750,2758,113062,159752,51490,2765,99294,164659,160753,163955,27468,163955,NA,Sternberg task,18,12940,21,yes,1024
86.36363636,86.36363636,612.0909091,612.0909091,black,experiment,legacy,legacy,legacy,0,uniform,1,undefined,1,right,21,21,21,0,0,21,21,0,0,21,21,21,0,21,0,10/14/19 13:24,The main experiment item,yes,Sternbergtask.osexp,C:/Users/Breena Riley/Desktop/2019 Fall/MultQuant/lab 3.1,no,mono,no,18,no,white,no,yes,768,legacy,9,11,C:/Users/Breena Riley/Desktop/2019 Fall/MultQuant/lab 3.1/BR-subject-1.csv,legacy,6 2 9 3 8 4,Kafkaesque Koffka,3.2.8,0,n,0,right,right,right,right,NA,526,24703,13767,526,NA,2,legacy,6,1024,2,48000,-16,experiment,1,odd,1,167951,158680,165746,2758,113062,165748,164665,2765,99294,170478,166750,169952,27468,169952,NA,Sternberg task,19,13466,22,yes,1024
82.60869565,82.60869565,612.0869565,612.0869565,black,experiment,legacy,legacy,legacy,0,uniform,0,undefined,0,left,22,22,22,0,0,22,22,0,0,22,22,22,0,22,0,10/14/19 13:24,The main experiment item,yes,Sternbergtask.osexp,C:/Users/Breena Riley/Desktop/2019 Fall/MultQuant/lab 3.1,no,mono,no,18,no,white,no,yes,768,legacy,10,11,C:/Users/Breena Riley/Desktop/2019 Fall/MultQuant/lab 3.1/BR-subject-1.csv,legacy,3 9 6 2,Kafkaesque Koffka,3.2.8,4,y,0,right,right,right,right,NA,612,24703,13767,612,NA,2,legacy,4,1024,2,48000,-16,experiment,1,odd,2,173761,170485,171556,2758,113062,171557,164665,2765,99294,176375,172559,175762,27468,175762,NA,Sternberg task,19,14078,23,yes,1024
83.33333333,83.33333333,614.1666667,614.1666667,black,experiment,legacy,legacy,legacy,0,uniform,1,undefined,1,right,23,23,23,0,0,23,23,0,0,23,23,23,0,23,0,10/14/19 13:24,The main experiment item,yes,Sternbergtask.osexp,C:/Users/Breena Riley/Desktop/2019 Fall/MultQuant/lab 3.1,no,mono,no,18,no,white,no,yes,768,legacy,11,11,C:/Users/Breena Riley/Desktop/2019 Fall/MultQuant/lab 3.1/BR-subject-1.csv,legacy,6 7 5 9,Kafkaesque Koffka,3.2.8,0,n,0,right,right,right,right,NA,662,24703,13767,662,NA,2,legacy,4,1024,2,48000,-16,experiment,1,odd,2,179656,170485,177452,2758,113062,177453,176382,2765,99294,182319,178455,181657,27468,181657,NA,Sternberg task,20,14740,24,yes,1024
84,84,609.24,609.24,black,experiment,legacy,legacy,legacy,0,uniform,1,undefined,1,left,24,24,24,0,0,24,24,0,0,24,24,24,0,24,0,10/14/19 13:24,The main experiment item,yes,Sternbergtask.osexp,C:/Users/Breena Riley/Desktop/2019 Fall/MultQuant/lab 3.1,no,mono,no,18,no,white,no,yes,768,legacy,12,11,C:/Users/Breena Riley/Desktop/2019 Fall/MultQuant/lab 3.1/BR-subject-1.csv,legacy,4 6 5 8,Kafkaesque Koffka,3.2.8,1,y,0,left,right,right,left,NA,491,24703,13767,491,NA,2,legacy,4,1024,2,48000,-16,experiment,1,odd,4,185601,182327,183396,2758,113062,183398,176382,2765,99294,188094,184399,187602,27468,187602,NA,Sternberg task,21,15231,25,yes,1024
84.61538462,84.61538462,608.0384615,608.0384615,black,experiment,legacy,legacy,legacy,0,uniform,1,undefined,1,left,25,25,25,0,0,25,25,0,0,25,25,25,0,25,0,10/14/19 13:24,The main experiment item,yes,Sternbergtask.osexp,C:/Users/Breena Riley/Desktop/2019 Fall/MultQuant/lab 3.1,no,mono,no,18,no,white,no,yes,768,legacy,13,11,C:/Users/Breena Riley/Desktop/2019 Fall/MultQuant/lab 3.1/BR-subject-1.csv,legacy,3 5 4 7,Kafkaesque Koffka,3.2.8,1,y,0,left,right,right,left,NA,578,24703,13767,578,NA,2,legacy,4,1024,2,48000,-16,experiment,1,odd,3,191377,188101,189173,2758,113062,189175,176382,2765,99294,193957,190176,193379,27468,193379,NA,Sternberg task,22,15809,26,yes,1024
85.18518519,85.18518519,606.4074074,606.4074074,black,experiment,legacy,legacy,legacy,0,uniform,1,undefined,1,right,26,26,26,0,0,26,26,0,0,26,26,26,0,26,0,10/14/19 13:24,The main experiment item,yes,Sternbergtask.osexp,C:/Users/Breena Riley/Desktop/2019 Fall/MultQuant/lab 3.1,no,mono,no,18,no,white,no,yes,768,legacy,14,11,C:/Users/Breena Riley/Desktop/2019 Fall/MultQuant/lab 3.1/BR-subject-1.csv,legacy,1 5 3 2 8,Kafkaesque Koffka,3.2.8,0,n,0,right,right,right,right,NA,564,24703,13767,564,NA,2,legacy,5,1024,2,48000,-16,experiment,1,odd,4,197235,193961,195031,2758,113062,195033,176382,2765,99294,199800,196034,199236,27468,199236,NA,Sternberg task,23,16373,27,yes,1024
85.71428571,85.71428571,609.5714286,609.5714286,black,experiment,legacy,legacy,legacy,0,uniform,1,undefined,1,left,27,27,27,0,0,27,27,0,0,27,27,27,0,27,0,10/14/19 13:24,The main experiment item,yes,Sternbergtask.osexp,C:/Users/Breena Riley/Desktop/2019 Fall/MultQuant/lab 3.1,no,mono,no,18,no,white,no,yes,768,legacy,15,11,C:/Users/Breena Riley/Desktop/2019 Fall/MultQuant/lab 3.1/BR-subject-1.csv,legacy,7 2 3,Kafkaesque Koffka,3.2.8,3,y,0,left,right,right,left,NA,695,24703,13767,695,NA,2,legacy,3,1024,2,48000,-16,experiment,1,odd,3,203083,199808,200880,2758,113062,200881,176382,2765,99294,205779,201882,205084,27468,205084,NA,Sternberg task,24,17068,28,yes,1024
86.20689655,86.20689655,610.3103448,610.3103448,black,experiment,legacy,legacy,legacy,0,uniform,1,undefined,1,left,28,28,28,0,0,28,28,0,0,28,28,28,0,28,0,10/14/19 13:24,The main experiment item,yes,Sternbergtask.osexp,C:/Users/Breena Riley/Desktop/2019 Fall/MultQuant/lab 3.1,no,mono,no,18,no,white,no,yes,768,legacy,16,11,C:/Users/Breena Riley/Desktop/2019 Fall/MultQuant/lab 3.1/BR-subject-1.csv,legacy,4 6 2 5 1,Kafkaesque Koffka,3.2.8,5,y,0,left,right,right,left,NA,631,24703,13767,631,NA,2,legacy,5,1024,2,48000,-16,experiment,1,odd,1,209063,205787,206859,2758,113062,206861,176382,2765,99294,211695,207862,211064,27468,211064,NA,Sternberg task,25,17699,29,yes,1024
86.66666667,86.66666667,606.1,606.1,black,experiment,legacy,legacy,legacy,0,uniform,1,undefined,1,left,29,29,29,0,0,29,29,0,0,29,29,29,0,29,0,10/14/19 13:24,The main experiment item,yes,Sternbergtask.osexp,C:/Users/Breena Riley/Desktop/2019 Fall/MultQuant/lab 3.1,no,mono,no,18,no,white,no,yes,768,legacy,17,11,C:/Users/Breena Riley/Desktop/2019 Fall/MultQuant/lab 3.1/BR-subject-1.csv,legacy,9 5 3 8 4,Kafkaesque Koffka,3.2.8,1,y,0,left,right,right,left,NA,484,24703,13767,484,NA,2,legacy,5,1024,2,48000,-16,experiment,1,odd,9,214977,211702,212774,2758,113062,212775,176382,2765,99294,217462,213776,216978,27468,216978,NA,Sternberg task,26,18183,30,yes,1024
83.87096774,83.87096774,607.5483871,607.5483871,black,experiment,legacy,legacy,legacy,0,uniform,0,undefined,0,left,30,30,30,0,0,30,30,0,0,30,30,30,0,30,0,10/14/19 13:24,The main experiment item,yes,Sternbergtask.osexp,C:/Users/Breena Riley/Desktop/2019 Fall/MultQuant/lab 3.1,no,mono,no,18,no,white,no,yes,768,legacy,18,11,C:/Users/Breena Riley/Desktop/2019 Fall/MultQuant/lab 3.1/BR-subject-1.csv,legacy,2 5 4 8 7,Kafkaesque Koffka,3.2.8,3,y,0,right,right,right,right,NA,651,24703,13767,651,NA,2,legacy,5,1024,2,48000,-16,experiment,1,odd,4,220745,217470,218541,2758,113062,218543,176382,2765,99294,223397,219544,222746,27468,222746,NA,Sternberg task,26,18834,31,yes,1024
84.375,84.375,608.1875,608.1875,black,experiment,legacy,legacy,legacy,0,uniform,1,undefined,1,right,31,31,31,0,0,31,31,0,0,31,31,31,0,31,0,10/14/19 13:24,The main experiment item,yes,Sternbergtask.osexp,C:/Users/Breena Riley/Desktop/2019 Fall/MultQuant/lab 3.1,no,mono,no,18,no,white,no,yes,768,legacy,19,11,C:/Users/Breena Riley/Desktop/2019 Fall/MultQuant/lab 3.1/BR-subject-1.csv,legacy,3 4 9 6 7 8,Kafkaesque Koffka,3.2.8,0,n,0,right,right,right,right,NA,628,24703,13767,628,NA,2,legacy,6,1024,2,48000,-16,experiment,1,odd,2,226680,217470,224474,2758,113062,224477,223405,2765,99294,229310,225479,228682,27468,228682,NA,Sternberg task,27,19462,32,yes,1024
84.84848485,84.84848485,611.4545455,611.4545455,black,experiment,legacy,legacy,legacy,0,uniform,1,undefined,1,right,32,32,32,0,0,32,32,0,0,32,32,32,0,32,0,10/14/19 13:24,The main experiment item,yes,Sternbergtask.osexp,C:/Users/Breena Riley/Desktop/2019 Fall/MultQuant/lab 3.1,no,mono,no,18,no,white,no,yes,768,legacy,20,11,C:/Users/Breena Riley/Desktop/2019 Fall/MultQuant/lab 3.1/BR-subject-1.csv,legacy,5 3 8 7 2 4,Kafkaesque Koffka,3.2.8,0,n,0,right,right,right,right,NA,716,24703,13767,716,NA,2,legacy,6,1024,2,48000,-16,experiment,1,odd,9,232595,229318,230390,2758,113062,230392,223405,2765,99294,235314,231393,234597,27468,234596,NA,Sternberg task,28,20178,33,yes,1024
85.29411765,85.29411765,609.3823529,609.3823529,black,experiment,legacy,legacy,legacy,0,uniform,1,undefined,1,left,33,33,33,0,0,33,33,0,0,33,33,33,0,33,0,10/14/19 13:24,The main experiment item,yes,Sternbergtask.osexp,C:/Users/Breena Riley/Desktop/2019 Fall/MultQuant/lab 3.1,no,mono,no,18,no,white,no,yes,768,legacy,21,11,C:/Users/Breena Riley/Desktop/2019 Fall/MultQuant/lab 3.1/BR-subject-1.csv,legacy,7 1 3,Kafkaesque Koffka,3.2.8,2,y,0,left,right,right,left,NA,541,24703,13767,541,NA,2,legacy,3,1024,2,48000,-16,experiment,1,odd,1,238599,235318,236394,2758,113062,236396,223405,2765,99294,241141,237397,240600,27468,240600,NA,Sternberg task,29,20719,34,yes,1024
85.71428571,85.71428571,610.4,610.4,black,experiment,legacy,legacy,legacy,0,uniform,1,undefined,1,right,34,34,34,0,0,34,34,0,0,34,34,34,0,34,0,10/14/19 13:24,The main experiment item,yes,Sternbergtask.osexp,C:/Users/Breena Riley/Desktop/2019 Fall/MultQuant/lab 3.1,no,mono,no,18,no,white,no,yes,768,legacy,22,11,C:/Users/Breena Riley/Desktop/2019 Fall/MultQuant/lab 3.1/BR-subject-1.csv,legacy,2 8 7 9 5 3,Kafkaesque Koffka,3.2.8,0,n,0,right,right,right,right,NA,645,24703,13767,645,NA,2,legacy,6,1024,2,48000,-16,experiment,1,odd,6,244423,241149,242220,2758,113062,242221,223405,2765,99294,247070,243222,246424,27468,246424,NA,Sternberg task,30,21364,35,yes,1024
86.11111111,86.11111111,610.9166667,610.9166667,black,experiment,legacy,legacy,legacy,0,uniform,1,undefined,1,left,35,35,35,0,0,35,35,0,0,35,35,35,0,35,0,10/14/19 13:24,The main experiment item,yes,Sternbergtask.osexp,C:/Users/Breena Riley/Desktop/2019 Fall/MultQuant/lab 3.1,no,mono,no,18,no,white,no,yes,768,legacy,23,11,C:/Users/Breena Riley/Desktop/2019 Fall/MultQuant/lab 3.1/BR-subject-1.csv,legacy,9 3 1 2 5,Kafkaesque Koffka,3.2.8,4,y,0,left,right,right,left,NA,629,24703,13767,629,NA,2,legacy,5,1024,2,48000,-16,experiment,1,odd,2,250350,247077,248146,2758,113062,248148,223405,2765,99294,252980,249149,252351,27468,252351,NA,Sternberg task,31,21993,36,yes,1024
86.48648649,86.48648649,608.972973,608.972973,black,experiment,legacy,legacy,legacy,0,uniform,1,undefined,1,left,36,36,36,0,0,36,36,0,0,36,36,36,0,36,0,10/14/19 13:24,The main experiment item,yes,Sternbergtask.osexp,C:/Users/Breena Riley/Desktop/2019 Fall/MultQuant/lab 3.1,no,mono,no,18,no,white,no,yes,768,legacy,24,11,C:/Users/Breena Riley/Desktop/2019 Fall/MultQuant/lab 3.1/BR-subject-1.csv,legacy,8 9 6 1,Kafkaesque Koffka,3.2.8,2,y,0,left,right,right,left,NA,539,24703,13767,539,NA,2,legacy,4,1024,2,48000,-16,experiment,1,odd,9,256261,252987,254058,2758,113062,254060,223405,2765,99294,258802,255061,258263,27468,258263,NA,Sternberg task,32,22532,37,yes,1024
86.84210526,86.84210526,607.2105263,607.2105263,black,experiment,legacy,legacy,legacy,0,uniform,1,undefined,1,left,37,37,37,0,0,37,37,0,0,37,37,37,0,37,0,10/14/19 13:24,The main experiment item,yes,Sternbergtask.osexp,C:/Users/Breena Riley/Desktop/2019 Fall/MultQuant/lab 3.1,no,mono,no,18,no,white,no,yes,768,legacy,25,11,C:/Users/Breena Riley/Desktop/2019 Fall/MultQuant/lab 3.1/BR-subject-1.csv,legacy,8 9 5 6 7,Kafkaesque Koffka,3.2.8,1,y,0,left,right,right,left,NA,542,24703,13767,542,NA,2,legacy,5,1024,2,48000,-16,experiment,1,odd,8,262086,258809,259882,2758,113062,259884,223405,2765,99294,264629,260885,264087,27468,264087,NA,Sternberg task,33,23074,38,yes,1024
87.17948718,87.17948718,605.0769231,605.0769231,black,experiment,legacy,legacy,legacy,0,uniform,1,undefined,1,right,38,38,38,0,0,38,38,0,0,38,38,38,0,38,0,10/14/19 13:24,The main experiment item,yes,Sternbergtask.osexp,C:/Users/Breena Riley/Desktop/2019 Fall/MultQuant/lab 3.1,no,mono,no,18,no,white,no,yes,768,legacy,26,11,C:/Users/Breena Riley/Desktop/2019 Fall/MultQuant/lab 3.1/BR-subject-1.csv,legacy,1 7 5 2,Kafkaesque Koffka,3.2.8,0,n,0,right,right,right,right,NA,524,24703,13767,524,NA,2,legacy,4,1024,2,48000,-16,experiment,1,odd,3,267925,264636,265720,2758,113062,265722,223405,2765,99294,270451,266723,269926,27468,269926,NA,Sternberg task,34,23598,39,yes,1024
87.5,87.5,601.975,601.975,black,experiment,legacy,legacy,legacy,0,uniform,1,undefined,1,left,39,39,39,0,0,39,39,0,0,39,39,39,0,39,0,10/14/19 13:24,The main experiment item,yes,Sternbergtask.osexp,C:/Users/Breena Riley/Desktop/2019 Fall/MultQuant/lab 3.1,no,mono,no,18,no,white,no,yes,768,legacy,27,11,C:/Users/Breena Riley/Desktop/2019 Fall/MultQuant/lab 3.1/BR-subject-1.csv,legacy,8 7 3,Kafkaesque Koffka,3.2.8,1,y,0,left,right,right,left,NA,481,24703,13767,481,NA,2,legacy,3,1024,2,48000,-16,experiment,1,odd,8,273732,270458,271528,2758,113062,271530,223405,2765,99294,276215,272531,275733,27468,275733,NA,Sternberg task,35,24079,40,yes,1024
87.80487805,87.80487805,613.7073171,613.7073171,black,experiment,legacy,legacy,legacy,0,uniform,1,undefined,1,right,40,40,40,0,0,40,40,0,0,40,40,40,0,40,0,10/14/19 13:24,The main experiment item,yes,Sternbergtask.osexp,C:/Users/Breena Riley/Desktop/2019 Fall/MultQuant/lab 3.1,no,mono,no,18,no,white,no,yes,768,legacy,28,11,C:/Users/Breena Riley/Desktop/2019 Fall/MultQuant/lab 3.1/BR-subject-1.csv,legacy,7 1 8 4 9 3,Kafkaesque Koffka,3.2.8,0,n,0,right,right,right,right,NA,1083,24703,13767,1083,NA,2,legacy,6,1024,2,48000,-16,experiment,1,odd,6,279495,276222,277291,2758,113062,277292,223405,2765,99294,282580,278294,281496,27468,281496,NA,Sternberg task,36,25162,41,yes,1024
88.0952381,88.0952381,613.8333333,613.8333333,black,experiment,legacy,legacy,legacy,0,uniform,1,undefined,1,right,41,41,41,0,0,41,41,0,0,41,41,41,0,41,0,10/14/19 13:24,The main experiment item,yes,Sternbergtask.osexp,C:/Users/Breena Riley/Desktop/2019 Fall/MultQuant/lab 3.1,no,mono,no,18,no,white,no,yes,768,legacy,29,11,C:/Users/Breena Riley/Desktop/2019 Fall/MultQuant/lab 3.1/BR-subject-1.csv,legacy,1,Kafkaesque Koffka,3.2.8,0,n,0,right,right,right,right,NA,619,24703,13767,619,NA,2,legacy,1,1024,2,48000,-16,experiment,1,odd,7,285857,282583,283654,2758,113062,283655,223405,2765,99294,288477,284656,287858,27468,287858,NA,Sternberg task,37,25781,42,yes,1024
86.04651163,86.04651163,614.255814,614.255814,black,experiment,legacy,legacy,legacy,0,uniform,0,undefined,0,left,42,42,42,0,0,42,42,0,0,42,42,42,0,42,0,10/14/19 13:24,The main experiment item,yes,Sternbergtask.osexp,C:/Users/Breena Riley/Desktop/2019 Fall/MultQuant/lab 3.1,no,mono,no,18,no,white,no,yes,768,legacy,30,11,C:/Users/Breena Riley/Desktop/2019 Fall/MultQuant/lab 3.1/BR-subject-1.csv,legacy,7 8 4 6 9 5,Kafkaesque Koffka,3.2.8,4,y,0,right,right,right,right,NA,632,24703,13767,632,NA,2,legacy,6,1024,2,48000,-16,experiment,1,odd,6,291761,288485,289557,2758,113062,289559,223405,2765,99294,294395,290560,293762,27468,293762,NA,Sternberg task,37,26413,43,yes,1024
86.36363636,86.36363636,614.0681818,614.0681818,black,experiment,legacy,legacy,legacy,0,uniform,1,undefined,1,left,43,43,43,0,0,43,43,0,0,43,43,43,0,43,0,10/14/19 13:24,The main experiment item,yes,Sternbergtask.osexp,C:/Users/Breena Riley/Desktop/2019 Fall/MultQuant/lab 3.1,no,mono,no,18,no,white,no,yes,768,legacy,31,11,C:/Users/Breena Riley/Desktop/2019 Fall/MultQuant/lab 3.1/BR-subject-1.csv,legacy,4 7 6 8 2 3,Kafkaesque Koffka,3.2.8,6,y,0,left,right,right,left,NA,606,24703,13767,606,NA,2,legacy,6,1024,2,48000,-16,experiment,1,odd,3,297672,288485,295469,2758,113062,295470,294399,2765,99294,300280,296471,299673,27468,299673,NA,Sternberg task,38,27019,44,yes,1024
86.66666667,86.66666667,613.4,613.4,black,experiment,legacy,legacy,legacy,0,uniform,1,undefined,1,left,44,44,44,0,0,44,44,0,0,44,44,44,0,44,0,10/14/19 13:24,The main experiment item,yes,Sternbergtask.osexp,C:/Users/Breena Riley/Desktop/2019 Fall/MultQuant/lab 3.1,no,mono,no,18,no,white,no,yes,768,legacy,32,11,C:/Users/Breena Riley/Desktop/2019 Fall/MultQuant/lab 3.1/BR-subject-1.csv,legacy,2 3 7 4,Kafkaesque Koffka,3.2.8,1,y,0,left,right,right,left,NA,584,24703,13767,584,NA,2,legacy,4,1024,2,48000,-16,experiment,1,odd,2,303562,300287,301358,2758,113062,301360,294399,2765,99294,306148,302361,305563,27468,305563,NA,Sternberg task,39,27603,45,yes,1024
84.7826087,84.7826087,614.173913,614.173913,black,experiment,legacy,legacy,legacy,0,uniform,0,undefined,0,left,45,45,45,0,0,45,45,0,0,45,45,45,0,45,0,10/14/19 13:24,The main experiment item,yes,Sternbergtask.osexp,C:/Users/Breena Riley/Desktop/2019 Fall/MultQuant/lab 3.1,no,mono,no,18,no,white,no,yes,768,legacy,33,11,C:/Users/Breena Riley/Desktop/2019 Fall/MultQuant/lab 3.1/BR-subject-1.csv,legacy,7 8 6 3 1,Kafkaesque Koffka,3.2.8,5,y,0,right,right,right,right,NA,649,24703,13767,649,NA,2,legacy,5,1024,2,48000,-16,experiment,1,odd,1,309428,306155,307225,2758,113062,307226,294399,2765,99294,312079,308227,311429,27468,311429,NA,Sternberg task,39,28252,46,yes,1024
82.9787234,82.9787234,616.2978723,616.2978723,black,experiment,legacy,legacy,legacy,0,uniform,0,undefined,0,right,46,46,46,0,0,46,46,0,0,46,46,46,0,46,0,10/14/19 13:24,The main experiment item,yes,Sternbergtask.osexp,C:/Users/Breena Riley/Desktop/2019 Fall/MultQuant/lab 3.1,no,mono,no,18,no,white,no,yes,768,legacy,34,11,C:/Users/Breena Riley/Desktop/2019 Fall/MultQuant/lab 3.1/BR-subject-1.csv,legacy,1 6 4,Kafkaesque Koffka,3.2.8,0,n,0,left,right,right,left,NA,714,24703,13767,714,NA,2,legacy,3,1024,2,48000,-16,experiment,1,odd,7,315362,306155,313158,2758,113062,313160,312086,2765,99294,318077,314161,317363,27468,317363,NA,Sternberg task,39,28966,47,yes,1024
83.33333333,83.33333333,618.0416667,618.0416667,black,experiment,legacy,legacy,legacy,0,uniform,1,undefined,1,left,47,47,47,0,0,47,47,0,0,47,47,47,0,47,0,10/14/19 13:24,The main experiment item,yes,Sternbergtask.osexp,C:/Users/Breena Riley/Desktop/2019 Fall/MultQuant/lab 3.1,no,mono,no,18,no,white,no,yes,768,legacy,35,11,C:/Users/Breena Riley/Desktop/2019 Fall/MultQuant/lab 3.1/BR-subject-1.csv,legacy,9 1 6 7 8,Kafkaesque Koffka,3.2.8,1,y,0,left,right,right,left,NA,700,24703,13767,700,NA,2,legacy,5,1024,2,48000,-16,experiment,1,odd,9,321360,306155,319156,2758,113062,319158,318085,2765,99294,324062,320159,323361,27468,323361,NA,Sternberg task,40,29666,48,yes,1024
83.67346939,83.67346939,620.8163265,620.8163265,black,experiment,legacy,legacy,legacy,0,uniform,1,undefined,1,left,48,48,48,0,0,48,48,0,0,48,48,48,0,48,0,10/14/19 13:24,The main experiment item,yes,Sternbergtask.osexp,C:/Users/Breena Riley/Desktop/2019 Fall/MultQuant/lab 3.1,no,mono,no,18,no,white,no,yes,768,legacy,36,11,C:/Users/Breena Riley/Desktop/2019 Fall/MultQuant/lab 3.1/BR-subject-1.csv,legacy,4,Kafkaesque Koffka,3.2.8,1,y,0,left,right,right,left,NA,754,24703,13767,754,NA,2,legacy,1,1024,2,48000,-16,experiment,1,odd,4,327344,324069,325140,2758,113062,325142,318085,2765,99294,330099,326143,329345,27468,329345,NA,Sternberg task,41,30420,49,yes,1024
84,84,621.46,621.46,black,experiment,legacy,legacy,legacy,0,uniform,1,undefined,1,right,49,49,49,0,0,49,49,0,0,49,49,49,0,49,0,10/14/19 13:24,The main experiment item,yes,Sternbergtask.osexp,C:/Users/Breena Riley/Desktop/2019 Fall/MultQuant/lab 3.1,no,mono,no,18,no,white,no,yes,768,legacy,37,11,C:/Users/Breena Riley/Desktop/2019 Fall/MultQuant/lab 3.1/BR-subject-1.csv,legacy,1 4 9 3,Kafkaesque Koffka,3.2.8,0,n,0,right,right,right,right,NA,653,24703,13767,653,NA,2,legacy,4,1024,2,48000,-16,experiment,1,odd,5,333383,330107,331179,2758,113062,331181,318085,2765,99294,336037,332182,335384,27468,335384,NA,Sternberg task,42,31073,50,yes,1024
84.31372549,84.31372549,619.4117647,619.4117647,black,experiment,legacy,legacy,legacy,0,uniform,1,undefined,1,right,50,50,50,0,0,50,50,0,0,50,50,50,0,50,0,10/14/19 13:24,The main experiment item,yes,Sternbergtask.osexp,C:/Users/Breena Riley/Desktop/2019 Fall/MultQuant/lab 3.1,no,mono,no,18,no,white,no,yes,768,legacy,38,11,C:/Users/Breena Riley/Desktop/2019 Fall/MultQuant/lab 3.1/BR-subject-1.csv,legacy,4 2 6 9,Kafkaesque Koffka,3.2.8,0,n,0,right,right,right,right,NA,517,24703,13767,517,NA,2,legacy,4,1024,2,48000,-16,experiment,1,odd,7,339320,336046,337116,2758,113062,337118,318085,2765,99294,341839,338119,341321,27468,341321,NA,Sternberg task,43,31590,51,yes,1024
84.61538462,84.61538462,618.5769231,618.5769231,black,experiment,legacy,legacy,legacy,0,uniform,1,undefined,1,right,51,51,51,0,0,51,51,0,0,51,51,51,0,51,0,10/14/19 13:24,The main experiment item,yes,Sternbergtask.osexp,C:/Users/Breena Riley/Desktop/2019 Fall/MultQuant/lab 3.1,no,mono,no,18,no,white,no,yes,768,legacy,39,11,C:/Users/Breena Riley/Desktop/2019 Fall/MultQuant/lab 3.1/BR-subject-1.csv,legacy,6 9 4 5 2,Kafkaesque Koffka,3.2.8,0,n,0,right,right,right,right,NA,576,24703,13767,576,NA,2,legacy,5,1024,2,48000,-16,experiment,1,odd,1,345130,341846,342925,2758,113062,342927,318085,2765,99294,347708,343928,347131,27468,347131,NA,Sternberg task,44,32166,52,yes,1024
84.90566038,84.90566038,617.5283019,617.5283019,black,experiment,legacy,legacy,legacy,0,uniform,1,undefined,1,right,52,52,52,0,0,52,52,0,0,52,52,52,0,52,0,10/14/19 13:24,The main experiment item,yes,Sternbergtask.osexp,C:/Users/Breena Riley/Desktop/2019 Fall/MultQuant/lab 3.1,no,mono,no,18,no,white,no,yes,768,legacy,40,11,C:/Users/Breena Riley/Desktop/2019 Fall/MultQuant/lab 3.1/BR-subject-1.csv,legacy,4 2 7 6 1 3,Kafkaesque Koffka,3.2.8,0,n,0,right,right,right,right,NA,563,24703,13767,563,NA,2,legacy,6,1024,2,48000,-16,experiment,1,odd,8,350990,347715,348787,2758,113062,348788,318085,2765,99294,353555,349789,352991,27468,352991,NA,Sternberg task,45,32729,53,yes,1024
83.33333333,83.33333333,616.9259259,616.9259259,black,experiment,legacy,legacy,legacy,0,uniform,0,undefined,0,right,53,53,53,0,0,53,53,0,0,53,53,53,0,53,0,10/14/19 13:24,The main experiment item,yes,Sternbergtask.osexp,C:/Users/Breena Riley/Desktop/2019 Fall/MultQuant/lab 3.1,no,mono,no,18,no,white,no,yes,768,legacy,41,11,C:/Users/Breena Riley/Desktop/2019 Fall/MultQuant/lab 3.1/BR-subject-1.csv,legacy,1 6 4 3 9 7,Kafkaesque Koffka,3.2.8,0,n,0,left,right,right,left,NA,585,24703,13767,585,NA,2,legacy,6,1024,2,48000,-16,experiment,1,odd,8,356837,353563,354633,2758,113062,354635,318085,2765,99294,359423,355636,358838,27468,358838,NA,Sternberg task,45,33314,54,yes,1024
81.81818182,81.81818182,619.6,619.6,black,experiment,legacy,legacy,legacy,0,uniform,0,undefined,0,left,54,54,54,0,0,54,54,0,0,54,54,54,0,54,0,10/14/19 13:24,The main experiment item,yes,Sternbergtask.osexp,C:/Users/Breena Riley/Desktop/2019 Fall/MultQuant/lab 3.1,no,mono,no,18,no,white,no,yes,768,legacy,42,11,C:/Users/Breena Riley/Desktop/2019 Fall/MultQuant/lab 3.1/BR-subject-1.csv,legacy,9 5 8 1,Kafkaesque Koffka,3.2.8,2,y,0,right,right,right,right,NA,764,24703,13767,764,NA,2,legacy,4,1024,2,48000,-16,experiment,1,odd,5,362706,353563,360502,2758,113062,360504,359430,2765,99294,365472,361505,364707,27468,364707,NA,Sternberg task,45,34078,55,yes,1024
82.14285714,82.14285714,620.7678571,620.7678571,black,experiment,legacy,legacy,legacy,0,uniform,1,undefined,1,right,55,55,55,0,0,55,55,0,0,55,55,55,0,55,0,10/14/19 13:24,The main experiment item,yes,Sternbergtask.osexp,C:/Users/Breena Riley/Desktop/2019 Fall/MultQuant/lab 3.1,no,mono,no,18,no,white,no,yes,768,legacy,43,11,C:/Users/Breena Riley/Desktop/2019 Fall/MultQuant/lab 3.1/BR-subject-1.csv,legacy,7 4 2 8 1 9,Kafkaesque Koffka,3.2.8,0,n,0,right,right,right,right,NA,685,24703,13767,685,NA,2,legacy,6,1024,2,48000,-16,experiment,1,odd,5,368755,353563,366550,2758,113062,366552,365479,2765,99294,371442,367553,370756,27468,370756,NA,Sternberg task,46,34763,56,yes,1024
82.45614035,82.45614035,623.6666667,623.6666667,black,experiment,legacy,legacy,legacy,0,uniform,1,undefined,1,left,56,56,56,0,0,56,56,0,0,56,56,56,0,56,0,10/14/19 13:24,The main experiment item,yes,Sternbergtask.osexp,C:/Users/Breena Riley/Desktop/2019 Fall/MultQuant/lab 3.1,no,mono,no,18,no,white,no,yes,768,legacy,44,11,C:/Users/Breena Riley/Desktop/2019 Fall/MultQuant/lab 3.1/BR-subject-1.csv,legacy,5 7 8 2 3 8,Kafkaesque Koffka,3.2.8,5,y,0,left,right,right,left,NA,786,24703,13767,786,NA,2,legacy,6,1024,2,48000,-16,experiment,1,odd,3,374723,371449,372520,2758,113062,372521,365479,2765,99294,377511,373522,376724,27468,376724,NA,Sternberg task,47,35549,57,yes,1024
82.75862069,82.75862069,623.2241379,623.2241379,black,experiment,legacy,legacy,legacy,0,uniform,1,undefined,1,right,57,57,57,0,0,57,57,0,0,57,57,57,0,57,0,10/14/19 13:24,The main experiment item,yes,Sternbergtask.osexp,C:/Users/Breena Riley/Desktop/2019 Fall/MultQuant/lab 3.1,no,mono,no,18,no,white,no,yes,768,legacy,45,11,C:/Users/Breena Riley/Desktop/2019 Fall/MultQuant/lab 3.1/BR-subject-1.csv,legacy,3 9 8 1 6 4,Kafkaesque Koffka,3.2.8,0,n,0,right,right,right,right,NA,598,24703,13767,598,NA,2,legacy,6,1024,2,48000,-16,experiment,1,odd,7,380794,377519,378589,2758,113062,378591,365479,2765,99294,383393,379593,382795,27468,382795,NA,Sternberg task,48,36147,58,yes,1024
83.05084746,83.05084746,622.6271186,622.6271186,black,experiment,legacy,legacy,legacy,0,uniform,1,undefined,1,right,58,58,58,0,0,58,58,0,0,58,58,58,0,58,0,10/14/19 13:24,The main experiment item,yes,Sternbergtask.osexp,C:/Users/Breena Riley/Desktop/2019 Fall/MultQuant/lab 3.1,no,mono,no,18,no,white,no,yes,768,legacy,46,11,C:/Users/Breena Riley/Desktop/2019 Fall/MultQuant/lab 3.1/BR-subject-1.csv,legacy,5 9 2 3,Kafkaesque Koffka,3.2.8,0,n,0,right,right,right,right,NA,588,24703,13767,588,NA,2,legacy,4,1024,2,48000,-16,experiment,1,odd,8,386674,383398,384470,2758,113062,384472,365479,2765,99294,389264,385473,388675,27468,388675,NA,Sternberg task,49,36735,59,yes,1024
83.33333333,83.33333333,619.65,619.65,black,experiment,legacy,legacy,legacy,0,uniform,1,undefined,1,left,59,59,59,0,0,59,59,0,0,59,59,59,0,59,0,10/14/19 13:24,The main experiment item,yes,Sternbergtask.osexp,C:/Users/Breena Riley/Desktop/2019 Fall/MultQuant/lab 3.1,no,mono,no,18,no,white,no,yes,768,legacy,47,11,C:/Users/Breena Riley/Desktop/2019 Fall/MultQuant/lab 3.1/BR-subject-1.csv,legacy,7,Kafkaesque Koffka,3.2.8,1,y,0,left,right,right,left,NA,444,24703,13767,444,NA,2,legacy,1,1024,2,48000,-16,experiment,1,odd,7,392545,389271,390341,2758,113062,390343,365479,2765,99294,394990,391344,394546,27468,394546,NA,Sternberg task,50,37179,60,yes,1024
81.96721311,81.96721311,622.7868852,622.7868852,black,experiment,legacy,legacy,legacy,0,uniform,0,undefined,0,left,60,60,60,0,0,60,60,0,0,60,60,60,0,60,0,10/14/19 13:24,The main experiment item,yes,Sternbergtask.osexp,C:/Users/Breena Riley/Desktop/2019 Fall/MultQuant/lab 3.1,no,mono,no,18,no,white,no,yes,768,legacy,48,11,C:/Users/Breena Riley/Desktop/2019 Fall/MultQuant/lab 3.1/BR-subject-1.csv,legacy,6 1 2,Kafkaesque Koffka,3.2.8,3,y,0,right,right,right,right,NA,811,24703,13767,811,NA,2,legacy,3,1024,2,48000,-16,experiment,1,odd,2,398270,394998,396067,2758,113062,396069,365479,2765,99294,401083,397069,400271,27468,400271,NA,Sternberg task,50,37990,61,yes,1024
80.64516129,80.64516129,621.7096774,621.7096774,black,experiment,legacy,legacy,legacy,0,uniform,0,undefined,0,left,61,61,61,0,0,61,61,0,0,61,61,61,0,61,0,10/14/19 13:24,The main experiment item,yes,Sternbergtask.osexp,C:/Users/Breena Riley/Desktop/2019 Fall/MultQuant/lab 3.1,no,mono,no,18,no,white,no,yes,768,legacy,49,11,C:/Users/Breena Riley/Desktop/2019 Fall/MultQuant/lab 3.1/BR-subject-1.csv,legacy,4 3 2 5 8,Kafkaesque Koffka,3.2.8,2,y,0,right,right,right,right,NA,556,24703,13767,556,NA,2,legacy,5,1024,2,48000,-16,experiment,1,odd,3,404366,394998,402162,2758,113062,402164,401091,2765,99294,406924,403165,406367,27468,406367,NA,Sternberg task,50,38546,62,yes,1024
80.95238095,80.95238095,624.8253968,624.8253968,black,experiment,legacy,legacy,legacy,0,uniform,1,undefined,1,right,62,62,62,0,0,62,62,0,0,62,62,62,0,62,0,10/14/19 13:24,The main experiment item,yes,Sternbergtask.osexp,C:/Users/Breena Riley/Desktop/2019 Fall/MultQuant/lab 3.1,no,mono,no,18,no,white,no,yes,768,legacy,50,11,C:/Users/Breena Riley/Desktop/2019 Fall/MultQuant/lab 3.1/BR-subject-1.csv,legacy,7 3 2 8,Kafkaesque Koffka,3.2.8,0,n,0,right,right,right,right,NA,818,24703,13767,818,NA,2,legacy,4,1024,2,48000,-16,experiment,1,odd,4,410207,394998,408003,2758,113062,408005,406932,2765,99294,413027,409006,412208,27468,412208,NA,Sternberg task,51,39364,63,yes,1024
81.25,81.25,629.875,629.875,black,experiment,legacy,legacy,legacy,0,uniform,1,undefined,1,right,63,63,63,0,0,63,63,0,0,63,63,63,0,63,0,10/14/19 13:24,The main experiment item,yes,Sternbergtask.osexp,C:/Users/Breena Riley/Desktop/2019 Fall/MultQuant/lab 3.1,no,mono,no,18,no,white,no,yes,768,legacy,51,11,C:/Users/Breena Riley/Desktop/2019 Fall/MultQuant/lab 3.1/BR-subject-1.csv,legacy,7 8 6 1,Kafkaesque Koffka,3.2.8,0,n,0,right,right,right,right,NA,948,24703,13767,948,NA,2,legacy,4,1024,2,48000,-16,experiment,1,odd,3,416351,413034,414145,2758,113062,414148,406932,2765,99294,419301,415149,418352,27468,418352,NA,Sternberg task,52,40312,64,yes,1024
81.53846154,81.53846154,631.1692308,631.1692308,black,experiment,legacy,legacy,legacy,0,uniform,1,undefined,1,right,64,64,64,0,0,64,64,0,0,64,64,64,0,64,0,10/14/19 13:24,The main experiment item,yes,Sternbergtask.osexp,C:/Users/Breena Riley/Desktop/2019 Fall/MultQuant/lab 3.1,no,mono,no,18,no,white,no,yes,768,legacy,52,11,C:/Users/Breena Riley/Desktop/2019 Fall/MultQuant/lab 3.1/BR-subject-1.csv,legacy,3 4 2,Kafkaesque Koffka,3.2.8,0,n,0,right,right,right,right,NA,714,24703,13767,714,NA,2,legacy,3,1024,2,48000,-16,experiment,1,odd,5,422582,419308,420378,2758,113062,420379,406932,2765,99294,425298,421381,424583,27468,424583,NA,Sternberg task,53,41026,65,yes,1024
81.81818182,81.81818182,630.1818182,630.1818182,black,experiment,legacy,legacy,legacy,0,uniform,1,undefined,1,left,65,65,65,0,0,65,65,0,0,65,65,65,0,65,0,10/14/19 13:24,The main experiment item,yes,Sternbergtask.osexp,C:/Users/Breena Riley/Desktop/2019 Fall/MultQuant/lab 3.1,no,mono,no,18,no,white,no,yes,768,legacy,53,11,C:/Users/Breena Riley/Desktop/2019 Fall/MultQuant/lab 3.1/BR-subject-1.csv,legacy,9 4 2,Kafkaesque Koffka,3.2.8,1,y,0,left,right,right,left,NA,566,24703,13767,566,NA,2,legacy,3,1024,2,48000,-16,experiment,1,odd,9,428579,425305,426374,2758,113062,426376,406932,2765,99294,431147,427377,430580,27468,430580,NA,Sternberg task,54,41592,66,yes,1024
82.08955224,82.08955224,628.0597015,628.0597015,black,experiment,legacy,legacy,legacy,0,uniform,1,undefined,1,right,66,66,66,0,0,66,66,0,0,66,66,66,0,66,0,10/14/19 13:24,The main experiment item,yes,Sternbergtask.osexp,C:/Users/Breena Riley/Desktop/2019 Fall/MultQuant/lab 3.1,no,mono,no,18,no,white,no,yes,768,legacy,54,11,C:/Users/Breena Riley/Desktop/2019 Fall/MultQuant/lab 3.1/BR-subject-1.csv,legacy,4 1,Kafkaesque Koffka,3.2.8,0,n,0,right,right,right,right,NA,488,24703,13767,488,NA,2,legacy,2,1024,2,48000,-16,experiment,1,odd,6,434425,431150,432221,2758,113062,432223,406932,2765,99294,436915,433224,436426,27468,436426,NA,Sternberg task,55,42080,67,yes,1024
82.35294118,82.35294118,628.9705882,628.9705882,black,experiment,legacy,legacy,legacy,0,uniform,1,undefined,1,left,67,67,67,0,0,67,67,0,0,67,67,67,0,67,0,10/14/19 13:24,The main experiment item,yes,Sternbergtask.osexp,C:/Users/Breena Riley/Desktop/2019 Fall/MultQuant/lab 3.1,no,mono,no,18,no,white,no,yes,768,legacy,55,11,C:/Users/Breena Riley/Desktop/2019 Fall/MultQuant/lab 3.1/BR-subject-1.csv,legacy,4 9 7 8 5 3,Kafkaesque Koffka,3.2.8,4,y,0,left,right,right,left,NA,690,24703,13767,690,NA,2,legacy,6,1024,2,48000,-16,experiment,1,odd,8,440196,436922,437992,2758,113062,437994,406932,2765,99294,442888,438995,442197,27468,442197,NA,Sternberg task,56,42770,68,yes,1024
81.15942029,81.15942029,628.6376812,628.6376812,black,experiment,legacy,legacy,legacy,0,uniform,0,undefined,0,left,68,68,68,0,0,68,68,0,0,68,68,68,0,68,0,10/14/19 13:24,The main experiment item,yes,Sternbergtask.osexp,C:/Users/Breena Riley/Desktop/2019 Fall/MultQuant/lab 3.1,no,mono,no,18,no,white,no,yes,768,legacy,56,11,C:/Users/Breena Riley/Desktop/2019 Fall/MultQuant/lab 3.1/BR-subject-1.csv,legacy,2 6 1 7 4,Kafkaesque Koffka,3.2.8,2,y,0,right,right,right,right,NA,606,24703,13767,606,NA,2,legacy,5,1024,2,48000,-16,experiment,1,odd,6,446170,442895,443966,2758,113062,443968,406932,2765,99294,448778,444969,448171,27468,448171,NA,Sternberg task,56,43376,69,yes,1024
81.42857143,81.42857143,628.8,628.8,black,experiment,legacy,legacy,legacy,0,uniform,1,undefined,1,left,69,69,69,0,0,69,69,0,0,69,69,69,0,69,0,10/14/19 13:24,The main experiment item,yes,Sternbergtask.osexp,C:/Users/Breena Riley/Desktop/2019 Fall/MultQuant/lab 3.1,no,mono,no,18,no,white,no,yes,768,legacy,57,11,C:/Users/Breena Riley/Desktop/2019 Fall/MultQuant/lab 3.1/BR-subject-1.csv,legacy,5 2 6,Kafkaesque Koffka,3.2.8,2,y,0,left,right,right,left,NA,640,24703,13767,640,NA,2,legacy,3,1024,2,48000,-16,experiment,1,odd,2,452062,442895,449858,2758,113062,449860,448785,2765,99294,454704,450861,454063,27468,454063,NA,Sternberg task,57,44016,70,yes,1024
81.69014085,81.69014085,626.5070423,626.5070423,black,experiment,legacy,legacy,legacy,0,uniform,1,undefined,1,right,70,70,70,0,0,70,70,0,0,70,70,70,0,70,0,10/14/19 13:24,The main experiment item,yes,Sternbergtask.osexp,C:/Users/Breena Riley/Desktop/2019 Fall/MultQuant/lab 3.1,no,mono,no,18,no,white,no,yes,768,legacy,58,11,C:/Users/Breena Riley/Desktop/2019 Fall/MultQuant/lab 3.1/BR-subject-1.csv,legacy,2 8 9,Kafkaesque Koffka,3.2.8,0,n,0,right,right,right,right,NA,466,24703,13767,466,NA,2,legacy,3,1024,2,48000,-16,experiment,1,odd,6,457990,454711,455787,2758,113062,455788,448785,2765,99294,460458,456789,459991,27468,459991,NA,Sternberg task,58,44482,71,yes,1024
81.94444444,81.94444444,626.25,626.25,black,experiment,legacy,legacy,legacy,0,uniform,1,undefined,1,right,71,71,71,0,0,71,71,0,0,71,71,71,0,71,0,10/14/19 13:24,The main experiment item,yes,Sternbergtask.osexp,C:/Users/Breena Riley/Desktop/2019 Fall/MultQuant/lab 3.1,no,mono,no,18,no,white,no,yes,768,legacy,59,11,C:/Users/Breena Riley/Desktop/2019 Fall/MultQuant/lab 3.1/BR-subject-1.csv,legacy,6 9 7 3 8 2,Kafkaesque Koffka,3.2.8,0,n,0,right,right,right,right,NA,608,24703,13767,608,NA,2,legacy,6,1024,2,48000,-16,experiment,1,odd,5,463740,460465,461536,2758,113062,461537,448785,2765,99294,466350,462538,465741,27468,465741,NA,Sternberg task,59,45090,72,yes,1024
82.19178082,82.19178082,624.5205479,624.5205479,black,experiment,legacy,legacy,legacy,0,uniform,1,undefined,1,right,72,72,72,0,0,72,72,0,0,72,72,72,0,72,0,10/14/19 13:24,The main experiment item,yes,Sternbergtask.osexp,C:/Users/Breena Riley/Desktop/2019 Fall/MultQuant/lab 3.1,no,mono,no,18,no,white,no,yes,768,legacy,60,11,C:/Users/Breena Riley/Desktop/2019 Fall/MultQuant/lab 3.1/BR-subject-1.csv,legacy,7 6 4 8 1 2,Kafkaesque Koffka,3.2.8,0,n,0,right,right,right,right,NA,500,24703,13767,500,NA,2,legacy,6,1024,2,48000,-16,experiment,1,odd,9,469632,466357,467428,2758,113062,467430,448785,2765,99294,472134,468431,471633,27468,471633,NA,Sternberg task,60,45590,73,yes,1024
82.43243243,82.43243243,625.9324324,625.9324324,black,experiment,legacy,legacy,legacy,0,uniform,1,undefined,1,left,73,73,73,0,0,73,73,0,0,73,73,73,0,73,0,10/14/19 13:24,The main experiment item,yes,Sternbergtask.osexp,C:/Users/Breena Riley/Desktop/2019 Fall/MultQuant/lab 3.1,no,mono,no,18,no,white,no,yes,768,legacy,61,11,C:/Users/Breena Riley/Desktop/2019 Fall/MultQuant/lab 3.1/BR-subject-1.csv,legacy,4 1 8 7 5,Kafkaesque Koffka,3.2.8,3,y,0,left,right,right,left,NA,729,24703,13767,729,NA,2,legacy,5,1024,2,48000,-16,experiment,1,odd,8,475417,472141,473213,2758,113062,473215,448785,2765,99294,478148,474216,477418,27468,477418,NA,Sternberg task,61,46319,74,yes,1024
82.66666667,82.66666667,624.6,624.6,black,experiment,legacy,legacy,legacy,0,uniform,1,undefined,1,right,74,74,74,0,0,74,74,0,0,74,74,74,0,74,0,10/14/19 13:24,The main experiment item,yes,Sternbergtask.osexp,C:/Users/Breena Riley/Desktop/2019 Fall/MultQuant/lab 3.1,no,mono,no,18,no,white,no,yes,768,legacy,62,11,C:/Users/Breena Riley/Desktop/2019 Fall/MultQuant/lab 3.1/BR-subject-1.csv,legacy,8 2 1 4 5 9,Kafkaesque Koffka,3.2.8,0,n,0,right,right,right,right,NA,526,24703,13767,526,NA,2,legacy,6,1024,2,48000,-16,experiment,1,odd,7,481432,478156,479227,2758,113062,479229,448785,2765,99294,483960,480230,483433,27468,483433,NA,Sternberg task,62,46845,75,yes,1024
82.89473684,82.89473684,625.3947368,625.3947368,black,experiment,legacy,legacy,legacy,0,uniform,1,undefined,1,left,75,75,75,0,0,75,75,0,0,75,75,75,0,75,0,10/14/19 13:24,The main experiment item,yes,Sternbergtask.osexp,C:/Users/Breena Riley/Desktop/2019 Fall/MultQuant/lab 3.1,no,mono,no,18,no,white,no,yes,768,legacy,63,11,C:/Users/Breena Riley/Desktop/2019 Fall/MultQuant/lab 3.1/BR-subject-1.csv,legacy,3 9 7 6 4,Kafkaesque Koffka,3.2.8,3,y,0,left,right,right,left,NA,685,24703,13767,685,NA,2,legacy,5,1024,2,48000,-16,experiment,1,odd,7,487242,483967,485038,2758,113062,485040,448785,2765,99294,489929,486041,489243,27468,489243,NA,Sternberg task,63,47530,76,yes,1024
83.11688312,83.11688312,626.8961039,626.8961039,black,experiment,legacy,legacy,legacy,0,uniform,1,undefined,1,left,76,76,76,0,0,76,76,0,0,76,76,76,0,76,0,10/14/19 13:24,The main experiment item,yes,Sternbergtask.osexp,C:/Users/Breena Riley/Desktop/2019 Fall/MultQuant/lab 3.1,no,mono,no,18,no,white,no,yes,768,legacy,64,11,C:/Users/Breena Riley/Desktop/2019 Fall/MultQuant/lab 3.1/BR-subject-1.csv,legacy,8 1 6,Kafkaesque Koffka,3.2.8,3,y,0,left,right,right,left,NA,741,24703,13767,741,NA,2,legacy,3,1024,2,48000,-16,experiment,1,odd,6,493212,489937,491009,2758,113062,491010,448785,2765,99294,495954,492011,495213,27468,495213,NA,Sternberg task,64,48271,77,yes,1024
83.33333333,83.33333333,626.0641026,626.0641026,black,experiment,legacy,legacy,legacy,0,uniform,1,undefined,1,left,77,77,77,0,0,77,77,0,0,77,77,77,0,77,0,10/14/19 13:24,The main experiment item,yes,Sternbergtask.osexp,C:/Users/Breena Riley/Desktop/2019 Fall/MultQuant/lab 3.1,no,mono,no,18,no,white,no,yes,768,legacy,65,11,C:/Users/Breena Riley/Desktop/2019 Fall/MultQuant/lab 3.1/BR-subject-1.csv,legacy,4 1 5,Kafkaesque Koffka,3.2.8,2,y,0,left,right,right,left,NA,562,24703,13767,562,NA,2,legacy,3,1024,2,48000,-16,experiment,1,odd,1,499239,495962,497035,2758,113062,497036,448785,2765,99294,501804,498037,501241,27468,501240,NA,Sternberg task,65,48833,78,yes,1024
83.5443038,83.5443038,625.9113924,625.9113924,black,experiment,legacy,legacy,legacy,0,uniform,1,undefined,1,right,78,78,78,0,0,78,78,0,0,78,78,78,0,78,0,10/14/19 13:24,The main experiment item,yes,Sternbergtask.osexp,C:/Users/Breena Riley/Desktop/2019 Fall/MultQuant/lab 3.1,no,mono,no,18,no,white,no,yes,768,legacy,66,11,C:/Users/Breena Riley/Desktop/2019 Fall/MultQuant/lab 3.1/BR-subject-1.csv,legacy,6 9 4 5 3 2,Kafkaesque Koffka,3.2.8,0,n,0,right,right,right,right,NA,614,24703,13767,614,NA,2,legacy,6,1024,2,48000,-16,experiment,1,odd,8,505087,501811,502883,2758,113062,502885,448785,2765,99294,507703,503886,507088,27468,507088,NA,Sternberg task,66,49447,79,yes,1024
83.75,83.75,627.7625,627.7625,black,experiment,legacy,legacy,legacy,0,uniform,1,undefined,1,right,79,79,79,0,0,79,79,0,0,79,79,79,0,79,0,10/14/19 13:24,The main experiment item,yes,Sternbergtask.osexp,C:/Users/Breena Riley/Desktop/2019 Fall/MultQuant/lab 3.1,no,mono,no,18,no,white,no,yes,768,legacy,67,11,C:/Users/Breena Riley/Desktop/2019 Fall/MultQuant/lab 3.1/BR-subject-1.csv,legacy,1 4 9 2 5,Kafkaesque Koffka,3.2.8,0,n,0,right,right,right,right,NA,774,24703,13767,774,NA,2,legacy,5,1024,2,48000,-16,experiment,1,odd,7,510991,507710,508786,2758,113062,508788,448785,2765,99294,513766,509789,512992,27468,512992,NA,Sternberg task,67,50221,80,yes,1024
83.95061728,83.95061728,626.4444444,626.4444444,black,experiment,legacy,legacy,legacy,0,uniform,1,undefined,1,left,80,80,80,0,0,80,80,0,0,80,80,80,0,80,0,10/14/19 13:24,The main experiment item,yes,Sternbergtask.osexp,C:/Users/Breena Riley/Desktop/2019 Fall/MultQuant/lab 3.1,no,mono,no,18,no,white,no,yes,768,legacy,68,11,C:/Users/Breena Riley/Desktop/2019 Fall/MultQuant/lab 3.1/BR-subject-1.csv,legacy,1 4 9 3 2 5,Kafkaesque Koffka,3.2.8,3,y,0,left,right,right,left,NA,521,24703,13767,521,NA,2,legacy,6,1024,2,48000,-16,experiment,1,odd,9,517047,513774,514843,2758,113062,514845,448785,2765,99294,519570,515846,519048,27468,519048,NA,Sternberg task,68,50742,81,yes,1024
82.92682927,82.92682927,628.902439,628.902439,black,experiment,legacy,legacy,legacy,0,uniform,0,undefined,0,right,81,81,81,0,0,81,81,0,0,81,81,81,0,81,0,10/14/19 13:24,The main experiment item,yes,Sternbergtask.osexp,C:/Users/Breena Riley/Desktop/2019 Fall/MultQuant/lab 3.1,no,mono,no,18,no,white,no,yes,768,legacy,69,11,C:/Users/Breena Riley/Desktop/2019 Fall/MultQuant/lab 3.1/BR-subject-1.csv,legacy,7 1 5 6 3,Kafkaesque Koffka,3.2.8,0,n,0,left,right,right,left,NA,828,24703,13767,828,NA,2,legacy,5,1024,2,48000,-16,experiment,1,odd,8,522853,519577,520649,2758,113062,520651,448785,2765,99294,525684,521652,524856,27468,524855,NA,Sternberg task,68,51570,82,yes,1024
83.13253012,83.13253012,629.2409639,629.2409639,black,experiment,legacy,legacy,legacy,0,uniform,1,undefined,1,right,82,82,82,0,0,82,82,0,0,82,82,82,0,82,0,10/14/19 13:24,The main experiment item,yes,Sternbergtask.osexp,C:/Users/Breena Riley/Desktop/2019 Fall/MultQuant/lab 3.1,no,mono,no,18,no,white,no,yes,768,legacy,70,11,C:/Users/Breena Riley/Desktop/2019 Fall/MultQuant/lab 3.1/BR-subject-1.csv,legacy,6 8,Kafkaesque Koffka,3.2.8,0,n,0,right,right,right,right,NA,657,24703,13767,657,NA,2,legacy,2,1024,2,48000,-16,experiment,1,odd,9,528968,519577,526764,2758,113062,526766,525693,2765,99294,531627,527767,530969,27468,530969,NA,Sternberg task,69,52227,83,yes,1024
82.14285714,82.14285714,629.5238095,629.5238095,black,experiment,legacy,legacy,legacy,0,uniform,0,undefined,0,right,83,83,83,0,0,83,83,0,0,83,83,83,0,83,0,10/14/19 13:24,The main experiment item,yes,Sternbergtask.osexp,C:/Users/Breena Riley/Desktop/2019 Fall/MultQuant/lab 3.1,no,mono,no,18,no,white,no,yes,768,legacy,71,11,C:/Users/Breena Riley/Desktop/2019 Fall/MultQuant/lab 3.1/BR-subject-1.csv,legacy,8 4 3 5,Kafkaesque Koffka,3.2.8,0,n,0,left,right,right,left,NA,653,24703,13767,653,NA,2,legacy,4,1024,2,48000,-16,experiment,1,odd,6,534910,531634,532707,2758,113062,532708,525693,2765,99294,537565,533709,536911,27468,536911,NA,Sternberg task,69,52880,84,yes,1024
81.17647059,81.17647059,629.3647059,629.3647059,black,experiment,legacy,legacy,legacy,0,uniform,0,undefined,0,left,84,84,84,0,0,84,84,0,0,84,84,84,0,84,0,10/14/19 13:24,The main experiment item,yes,Sternbergtask.osexp,C:/Users/Breena Riley/Desktop/2019 Fall/MultQuant/lab 3.1,no,mono,no,18,no,white,no,yes,768,legacy,72,11,C:/Users/Breena Riley/Desktop/2019 Fall/MultQuant/lab 3.1/BR-subject-1.csv,legacy,3 2 1 4 7,Kafkaesque Koffka,3.2.8,2,y,0,right,right,right,right,NA,616,24703,13767,616,NA,2,legacy,5,1024,2,48000,-16,experiment,1,odd,2,540846,531634,538642,2758,113062,538644,537573,2765,99294,543464,539645,542847,27468,542847,NA,Sternberg task,69,53496,85,yes,1024
81.39534884,81.39534884,629.627907,629.627907,black,experiment,legacy,legacy,legacy,0,uniform,1,undefined,1,right,85,85,85,0,0,85,85,0,0,85,85,85,0,85,0,10/14/19 13:24,The main experiment item,yes,Sternbergtask.osexp,C:/Users/Breena Riley/Desktop/2019 Fall/MultQuant/lab 3.1,no,mono,no,18,no,white,no,yes,768,legacy,73,11,C:/Users/Breena Riley/Desktop/2019 Fall/MultQuant/lab 3.1/BR-subject-1.csv,legacy,4 8 1 2,Kafkaesque Koffka,3.2.8,0,n,0,right,right,right,right,NA,652,24703,13767,652,NA,2,legacy,4,1024,2,48000,-16,experiment,1,odd,7,546747,531634,544544,2758,113062,544545,543472,2765,99294,549401,545546,548748,27468,548748,NA,Sternberg task,70,54148,86,yes,1024
81.6091954,81.6091954,628.2643678,628.2643678,black,experiment,legacy,legacy,legacy,0,uniform,1,undefined,1,right,86,86,86,0,0,86,86,0,0,86,86,86,0,86,0,10/14/19 13:24,The main experiment item,yes,Sternbergtask.osexp,C:/Users/Breena Riley/Desktop/2019 Fall/MultQuant/lab 3.1,no,mono,no,18,no,white,no,yes,768,legacy,74,11,C:/Users/Breena Riley/Desktop/2019 Fall/MultQuant/lab 3.1/BR-subject-1.csv,legacy,8 4 3 9,Kafkaesque Koffka,3.2.8,0,n,0,right,right,right,right,NA,511,24703,13767,511,NA,2,legacy,4,1024,2,48000,-16,experiment,1,odd,5,552682,549408,550478,2758,113062,550480,543472,2765,99294,555194,551481,554683,27468,554683,NA,Sternberg task,71,54659,87,yes,1024
80.68181818,80.68181818,627.5909091,627.5909091,black,experiment,legacy,legacy,legacy,0,uniform,0,undefined,0,left,87,87,87,0,0,87,87,0,0,87,87,87,0,87,0,10/14/19 13:24,The main experiment item,yes,Sternbergtask.osexp,C:/Users/Breena Riley/Desktop/2019 Fall/MultQuant/lab 3.1,no,mono,no,18,no,white,no,yes,768,legacy,75,11,C:/Users/Breena Riley/Desktop/2019 Fall/MultQuant/lab 3.1/BR-subject-1.csv,legacy,6 9 7 4 5 1,Kafkaesque Koffka,3.2.8,2,y,0,right,right,right,right,NA,569,24703,13767,569,NA,2,legacy,6,1024,2,48000,-16,experiment,1,odd,9,558472,555198,556268,2758,113062,556269,543472,2765,99294,561043,557270,560473,27468,560473,NA,Sternberg task,71,55228,88,yes,1024
80.8988764,80.8988764,630.4606742,630.4606742,black,experiment,legacy,legacy,legacy,0,uniform,1,undefined,1,right,88,88,88,0,0,88,88,0,0,88,88,88,0,88,0,10/14/19 13:24,The main experiment item,yes,Sternbergtask.osexp,C:/Users/Breena Riley/Desktop/2019 Fall/MultQuant/lab 3.1,no,mono,no,18,no,white,no,yes,768,legacy,76,11,C:/Users/Breena Riley/Desktop/2019 Fall/MultQuant/lab 3.1/BR-subject-1.csv,legacy,5 2,Kafkaesque Koffka,3.2.8,0,n,0,right,right,right,right,NA,883,24703,13767,883,NA,2,legacy,2,1024,2,48000,-16,experiment,1,odd,7,564325,555198,562121,2758,113062,562123,561050,2765,99294,567211,563124,566327,27468,566326,NA,Sternberg task,72,56111,89,yes,1024
81.11111111,81.11111111,632.1111111,632.1111111,black,experiment,legacy,legacy,legacy,0,uniform,1,undefined,1,right,89,89,89,0,0,89,89,0,0,89,89,89,0,89,0,10/14/19 13:24,The main experiment item,yes,Sternbergtask.osexp,C:/Users/Breena Riley/Desktop/2019 Fall/MultQuant/lab 3.1,no,mono,no,18,no,white,no,yes,768,legacy,77,11,C:/Users/Breena Riley/Desktop/2019 Fall/MultQuant/lab 3.1/BR-subject-1.csv,legacy,9 7 4 5 8,Kafkaesque Koffka,3.2.8,0,n,0,right,right,right,right,NA,779,24703,13767,779,NA,2,legacy,5,1024,2,48000,-16,experiment,1,odd,6,570493,567219,568289,2758,113062,568291,561050,2765,99294,573274,569292,572494,27468,572494,NA,Sternberg task,73,56890,90,yes,1024
81.31868132,81.31868132,633.1098901,633.1098901,black,experiment,legacy,legacy,legacy,0,uniform,1,undefined,1,left,90,90,90,0,0,90,90,0,0,90,90,90,0,90,0,10/14/19 13:24,The main experiment item,yes,Sternbergtask.osexp,C:/Users/Breena Riley/Desktop/2019 Fall/MultQuant/lab 3.1,no,mono,no,18,no,white,no,yes,768,legacy,78,11,C:/Users/Breena Riley/Desktop/2019 Fall/MultQuant/lab 3.1/BR-subject-1.csv,legacy,9 3 8 2 1 4,Kafkaesque Koffka,3.2.8,3,y,0,left,right,right,left,NA,723,24703,13767,723,NA,2,legacy,6,1024,2,48000,-16,experiment,1,odd,8,576555,573281,574352,2758,113062,574353,561050,2765,99294,579280,575354,578556,27468,578556,NA,Sternberg task,74,57613,91,yes,1024
81.52173913,81.52173913,632.7608696,632.7608696,black,experiment,legacy,legacy,legacy,0,uniform,1,undefined,1,left,91,91,91,0,0,91,91,0,0,91,91,91,0,91,0,10/14/19 13:24,The main experiment item,yes,Sternbergtask.osexp,C:/Users/Breena Riley/Desktop/2019 Fall/MultQuant/lab 3.1,no,mono,no,18,no,white,no,yes,768,legacy,79,11,C:/Users/Breena Riley/Desktop/2019 Fall/MultQuant/lab 3.1/BR-subject-1.csv,legacy,9 6 2 4 1,Kafkaesque Koffka,3.2.8,4,y,0,left,right,right,left,NA,601,24703,13767,601,NA,2,legacy,5,1024,2,48000,-16,experiment,1,odd,4,582563,579288,580358,2758,113062,580360,561050,2765,99294,585166,581361,584564,27468,584564,NA,Sternberg task,75,58214,92,yes,1024
81.72043011,81.72043011,632.5376344,632.5376344,black,experiment,legacy,legacy,legacy,0,uniform,1,undefined,1,right,92,92,92,0,0,92,92,0,0,92,92,92,0,92,0,10/14/19 13:24,The main experiment item,yes,Sternbergtask.osexp,C:/Users/Breena Riley/Desktop/2019 Fall/MultQuant/lab 3.1,no,mono,no,18,no,white,no,yes,768,legacy,80,11,C:/Users/Breena Riley/Desktop/2019 Fall/MultQuant/lab 3.1/BR-subject-1.csv,legacy,6 9 5,Kafkaesque Koffka,3.2.8,0,n,0,right,right,right,right,NA,612,24703,13767,612,NA,2,legacy,3,1024,2,48000,-16,experiment,1,odd,8,588444,585170,586239,2758,113062,586241,561050,2765,99294,591058,587242,590445,27468,590445,NA,Sternberg task,76,58826,93,yes,1024
81.91489362,81.91489362,633.6382979,633.6382979,black,experiment,legacy,legacy,legacy,0,uniform,1,undefined,1,right,93,93,93,0,0,93,93,0,0,93,93,93,0,93,0,10/14/19 13:24,The main experiment item,yes,Sternbergtask.osexp,C:/Users/Breena Riley/Desktop/2019 Fall/MultQuant/lab 3.1,no,mono,no,18,no,white,no,yes,768,legacy,81,11,C:/Users/Breena Riley/Desktop/2019 Fall/MultQuant/lab 3.1/BR-subject-1.csv,legacy,2 6 4 3 9,Kafkaesque Koffka,3.2.8,0,n,0,right,right,right,right,NA,736,24703,13767,736,NA,2,legacy,5,1024,2,48000,-16,experiment,1,odd,1,594341,591065,592137,2758,113062,592138,561050,2765,99294,597080,593139,596343,27468,596343,NA,Sternberg task,77,59562,94,yes,1024
82.10526316,82.10526316,633.3157895,633.3157895,black,experiment,legacy,legacy,legacy,0,uniform,1,undefined,1,right,94,94,94,0,0,94,94,0,0,94,94,94,0,94,0,10/14/19 13:24,The main experiment item,yes,Sternbergtask.osexp,C:/Users/Breena Riley/Desktop/2019 Fall/MultQuant/lab 3.1,no,mono,no,18,no,white,no,yes,768,legacy,82,11,C:/Users/Breena Riley/Desktop/2019 Fall/MultQuant/lab 3.1/BR-subject-1.csv,legacy,2 8 6 3 1,Kafkaesque Koffka,3.2.8,0,n,0,right,right,right,right,NA,603,24703,13767,603,NA,2,legacy,5,1024,2,48000,-16,experiment,1,odd,7,600362,597087,598158,2758,113062,598160,561050,2765,99294,602967,599161,602363,27468,602363,NA,Sternberg task,78,60165,95,yes,1024
82.29166667,82.29166667,632.4270833,632.4270833,black,experiment,legacy,legacy,legacy,0,uniform,1,undefined,1,right,95,95,95,0,0,95,95,0,0,95,95,95,0,95,0,10/14/19 13:24,The main experiment item,yes,Sternbergtask.osexp,C:/Users/Breena Riley/Desktop/2019 Fall/MultQuant/lab 3.1,no,mono,no,18,no,white,no,yes,768,legacy,83,11,C:/Users/Breena Riley/Desktop/2019 Fall/MultQuant/lab 3.1/BR-subject-1.csv,legacy,5 3 2 6 9 8,Kafkaesque Koffka,3.2.8,0,n,0,right,right,right,right,NA,548,24703,13767,548,NA,2,legacy,6,1024,2,48000,-16,experiment,1,odd,4,606250,602974,604046,2758,113062,604048,561050,2765,99294,608799,605049,608251,27468,608251,NA,Sternberg task,79,60713,96,yes,1024
82.4742268,82.4742268,633.0206186,633.0206186,black,experiment,legacy,legacy,legacy,0,uniform,1,undefined,1,right,96,96,96,0,0,96,96,0,0,96,96,96,0,96,0,10/14/19 13:24,The main experiment item,yes,Sternbergtask.osexp,C:/Users/Breena Riley/Desktop/2019 Fall/MultQuant/lab 3.1,no,mono,no,18,no,white,no,yes,768,legacy,84,11,C:/Users/Breena Riley/Desktop/2019 Fall/MultQuant/lab 3.1/BR-subject-1.csv,legacy,7 9 1 6,Kafkaesque Koffka,3.2.8,0,n,0,right,right,right,right,NA,690,24703,13767,690,NA,2,legacy,4,1024,2,48000,-16,experiment,1,odd,4,612081,608807,609877,2758,113062,609879,561050,2765,99294,614773,610880,614082,27468,614082,NA,Sternberg task,80,61403,97,yes,1024
82.65306122,82.65306122,632.255102,632.255102,black,experiment,legacy,legacy,legacy,0,uniform,1,undefined,1,left,97,97,97,0,0,97,97,0,0,97,97,97,0,97,0,10/14/19 13:24,The main experiment item,yes,Sternbergtask.osexp,C:/Users/Breena Riley/Desktop/2019 Fall/MultQuant/lab 3.1,no,mono,no,18,no,white,no,yes,768,legacy,85,11,C:/Users/Breena Riley/Desktop/2019 Fall/MultQuant/lab 3.1/BR-subject-1.csv,legacy,9 8 4,Kafkaesque Koffka,3.2.8,1,y,0,left,right,right,left,NA,558,24703,13767,558,NA,2,legacy,3,1024,2,48000,-16,experiment,1,odd,9,618055,614780,615850,2758,113062,615852,561050,2765,99294,620615,616853,620056,27468,620056,NA,Sternberg task,81,61961,98,yes,1024
82.82828283,82.82828283,632.4747475,632.4747475,black,experiment,legacy,legacy,legacy,0,uniform,1,undefined,1,left,98,98,98,0,0,98,98,0,0,98,98,98,0,98,0,10/14/19 13:24,The main experiment item,yes,Sternbergtask.osexp,C:/Users/Breena Riley/Desktop/2019 Fall/MultQuant/lab 3.1,no,mono,no,18,no,white,no,yes,768,legacy,86,11,C:/Users/Breena Riley/Desktop/2019 Fall/MultQuant/lab 3.1/BR-subject-1.csv,legacy,5 2 9 6 1 7,Kafkaesque Koffka,3.2.8,3,y,0,left,right,right,left,NA,654,24703,13767,654,NA,2,legacy,6,1024,2,48000,-16,experiment,1,odd,9,623898,620622,621694,2758,113062,621696,561050,2765,99294,626555,622697,625900,27468,625900,NA,Sternberg task,82,62615,99,yes,1024
83,83,631.48,631.48,black,experiment,legacy,legacy,legacy,0,uniform,1,undefined,1,left,99,99,99,0,0,99,99,0,0,99,99,99,0,99,0,10/14/19 13:24,The main experiment item,yes,Sternbergtask.osexp,C:/Users/Breena Riley/Desktop/2019 Fall/MultQuant/lab 3.1,no,mono,no,18,no,white,no,yes,768,legacy,87,11,C:/Users/Breena Riley/Desktop/2019 Fall/MultQuant/lab 3.1/BR-subject-1.csv,legacy,2 3,Kafkaesque Koffka,3.2.8,1,y,0,left,right,right,left,NA,533,24703,13767,533,NA,2,legacy,2,1024,2,48000,-16,experiment,1,odd,2,629836,626562,627632,2758,113062,627633,561050,2765,99294,632371,628634,631837,27468,631837,NA,Sternberg task,83,63148,100,yes,1024
83.16831683,83.16831683,631.9207921,631.9207921,black,experiment,legacy,legacy,legacy,0,uniform,1,undefined,1,right,100,100,100,0,0,100,100,0,0,100,100,100,0,100,0,10/14/19 13:24,The main experiment item,yes,Sternbergtask.osexp,C:/Users/Breena Riley/Desktop/2019 Fall/MultQuant/lab 3.1,no,mono,no,18,no,white,no,yes,768,legacy,88,11,C:/Users/Breena Riley/Desktop/2019 Fall/MultQuant/lab 3.1/BR-subject-1.csv,legacy,8 6 3 4 7,Kafkaesque Koffka,3.2.8,0,n,0,right,right,right,right,NA,676,24703,13767,676,NA,2,legacy,5,1024,2,48000,-16,experiment,1,odd,1,635652,632379,633448,2758,113062,633450,561050,2765,99294,638330,634451,637653,27468,637653,NA,Sternberg task,84,63824,101,yes,1024
83.33333333,83.33333333,631.9901961,631.9901961,black,experiment,legacy,legacy,legacy,0,uniform,1,undefined,1,right,101,101,101,0,0,101,101,0,0,101,101,101,0,101,0,10/14/19 13:24,The main experiment item,yes,Sternbergtask.osexp,C:/Users/Breena Riley/Desktop/2019 Fall/MultQuant/lab 3.1,no,mono,no,18,no,white,no,yes,768,legacy,89,11,C:/Users/Breena Riley/Desktop/2019 Fall/MultQuant/lab 3.1/BR-subject-1.csv,legacy,1 7 8 3 9,Kafkaesque Koffka,3.2.8,0,n,0,right,right,right,right,NA,639,24703,13767,639,NA,2,legacy,5,1024,2,48000,-16,experiment,1,odd,2,641613,638339,639410,2758,113062,639411,561050,2765,99294,644253,640412,643614,27468,643614,NA,Sternberg task,85,64463,102,yes,1024
83.49514563,83.49514563,632.1747573,632.1747573,black,experiment,legacy,legacy,legacy,0,uniform,1,undefined,1,right,102,102,102,0,0,102,102,0,0,102,102,102,0,102,0,10/14/19 13:24,The main experiment item,yes,Sternbergtask.osexp,C:/Users/Breena Riley/Desktop/2019 Fall/MultQuant/lab 3.1,no,mono,no,18,no,white,no,yes,768,legacy,90,11,C:/Users/Breena Riley/Desktop/2019 Fall/MultQuant/lab 3.1/BR-subject-1.csv,legacy,7 9,Kafkaesque Koffka,3.2.8,0,n,0,right,right,right,right,NA,651,24703,13767,651,NA,2,legacy,2,1024,2,48000,-16,experiment,1,odd,1,647536,644261,645331,2758,113062,645333,561050,2765,99294,650189,646334,649537,27468,649537,NA,Sternberg task,86,65114,103,yes,1024
82.69230769,82.69230769,632.7692308,632.7692308,black,experiment,legacy,legacy,legacy,0,uniform,0,undefined,0,left,103,103,103,0,0,103,103,0,0,103,103,103,0,103,0,10/14/19 13:24,The main experiment item,yes,Sternbergtask.osexp,C:/Users/Breena Riley/Desktop/2019 Fall/MultQuant/lab 3.1,no,mono,no,18,no,white,no,yes,768,legacy,91,11,C:/Users/Breena Riley/Desktop/2019 Fall/MultQuant/lab 3.1/BR-subject-1.csv,legacy,7 4 2 6 3 5,Kafkaesque Koffka,3.2.8,6,y,0,right,right,right,right,NA,694,24703,13767,694,NA,2,legacy,6,1024,2,48000,-16,experiment,1,odd,5,653468,650195,651264,2758,113062,651266,561050,2765,99294,656165,652267,655470,27468,655470,NA,Sternberg task,86,65808,104,yes,1024
82.85714286,82.85714286,631,631,black,experiment,legacy,legacy,legacy,0,uniform,1,undefined,1,left,104,104,104,0,0,104,104,0,0,104,104,104,0,104,0,10/14/19 13:24,The main experiment item,yes,Sternbergtask.osexp,C:/Users/Breena Riley/Desktop/2019 Fall/MultQuant/lab 3.1,no,mono,no,18,no,white,no,yes,768,legacy,92,11,C:/Users/Breena Riley/Desktop/2019 Fall/MultQuant/lab 3.1/BR-subject-1.csv,legacy,8,Kafkaesque Koffka,3.2.8,1,y,0,left,right,right,left,NA,447,24703,13767,447,NA,2,legacy,1,1024,2,48000,-16,experiment,1,odd,8,659445,650195,657241,2758,113062,657243,656173,2765,99294,661894,658244,661446,27468,661446,NA,Sternberg task,87,66255,105,yes,1024
83.01886792,83.01886792,631.6320755,631.6320755,black,experiment,legacy,legacy,legacy,0,uniform,1,undefined,1,right,105,105,105,0,0,105,105,0,0,105,105,105,0,105,0,10/14/19 13:24,The main experiment item,yes,Sternbergtask.osexp,C:/Users/Breena Riley/Desktop/2019 Fall/MultQuant/lab 3.1,no,mono,no,18,no,white,no,yes,768,legacy,93,11,C:/Users/Breena Riley/Desktop/2019 Fall/MultQuant/lab 3.1/BR-subject-1.csv,legacy,2 7 5,Kafkaesque Koffka,3.2.8,0,n,0,right,right,right,right,NA,698,24703,13767,698,NA,2,legacy,3,1024,2,48000,-16,experiment,1,odd,8,665176,661902,662972,2758,113062,662974,656173,2765,99294,667876,663975,667177,27468,667177,NA,Sternberg task,88,66953,106,yes,1024
83.17757009,83.17757009,632.1308411,632.1308411,black,experiment,legacy,legacy,legacy,0,uniform,1,undefined,1,right,106,106,106,0,0,106,106,0,0,106,106,106,0,106,0,10/14/19 13:24,The main experiment item,yes,Sternbergtask.osexp,C:/Users/Breena Riley/Desktop/2019 Fall/MultQuant/lab 3.1,no,mono,no,18,no,white,no,yes,768,legacy,94,11,C:/Users/Breena Riley/Desktop/2019 Fall/MultQuant/lab 3.1/BR-subject-1.csv,legacy,9 5 3 2 8 6,Kafkaesque Koffka,3.2.8,0,n,0,right,right,right,right,NA,685,24703,13767,685,NA,2,legacy,6,1024,2,48000,-16,experiment,1,odd,7,671158,667884,668954,2758,113062,668956,656173,2765,99294,673846,669957,673160,27468,673160,NA,Sternberg task,89,67638,107,yes,1024
83.33333333,83.33333333,631.7962963,631.7962963,black,experiment,legacy,legacy,legacy,0,uniform,1,undefined,1,left,107,107,107,0,0,107,107,0,0,107,107,107,0,107,0,10/14/19 13:24,The main experiment item,yes,Sternbergtask.osexp,C:/Users/Breena Riley/Desktop/2019 Fall/MultQuant/lab 3.1,no,mono,no,18,no,white,no,yes,768,legacy,95,11,C:/Users/Breena Riley/Desktop/2019 Fall/MultQuant/lab 3.1/BR-subject-1.csv,legacy,7 1 8 5 6 2,Kafkaesque Koffka,3.2.8,2,y,0,left,right,right,left,NA,596,24703,13767,596,NA,2,legacy,6,1024,2,48000,-16,experiment,1,odd,1,677129,673853,674925,2758,113062,674927,656173,2765,99294,679728,675928,679131,27468,679131,NA,Sternberg task,90,68234,108,yes,1024
82.56880734,82.56880734,633.7889908,633.7889908,black,experiment,legacy,legacy,legacy,0,uniform,0,undefined,0,right,108,108,108,0,0,108,108,0,0,108,108,108,0,108,0,10/14/19 13:24,The main experiment item,yes,Sternbergtask.osexp,C:/Users/Breena Riley/Desktop/2019 Fall/MultQuant/lab 3.1,no,mono,no,18,no,white,no,yes,768,legacy,96,11,C:/Users/Breena Riley/Desktop/2019 Fall/MultQuant/lab 3.1/BR-subject-1.csv,legacy,1 7 5 2 9,Kafkaesque Koffka,3.2.8,0,n,0,left,right,right,left,NA,849,24703,13767,849,NA,2,legacy,5,1024,2,48000,-16,experiment,1,odd,3,683008,679735,680805,2758,113062,680806,656173,2765,99294,685860,681807,685010,27468,685010,NA,Sternberg task,90,69083,109,yes,1024
81.81818182,81.81818182,634.1363636,634.1363636,black,experiment,legacy,legacy,legacy,0,uniform,0,undefined,0,left,109,109,109,0,0,109,109,0,0,109,109,109,0,109,0,10/14/19 13:24,The main experiment item,yes,Sternbergtask.osexp,C:/Users/Breena Riley/Desktop/2019 Fall/MultQuant/lab 3.1,no,mono,no,18,no,white,no,yes,768,legacy,97,11,C:/Users/Breena Riley/Desktop/2019 Fall/MultQuant/lab 3.1/BR-subject-1.csv,legacy,5 7 3 6 2,Kafkaesque Koffka,3.2.8,5,y,0,right,right,right,right,NA,672,24703,13767,672,NA,2,legacy,5,1024,2,48000,-16,experiment,1,odd,2,689143,679735,686940,2758,113062,686941,685867,2765,99294,691817,687942,691144,27468,691144,NA,Sternberg task,90,69755,110,yes,1024
81.08108108,81.08108108,636.7837838,636.7837838,black,experiment,legacy,legacy,legacy,0,uniform,0,undefined,0,right,110,110,110,0,0,110,110,0,0,110,110,110,0,110,0,10/14/19 13:24,The main experiment item,yes,Sternbergtask.osexp,C:/Users/Breena Riley/Desktop/2019 Fall/MultQuant/lab 3.1,no,mono,no,18,no,white,no,yes,768,legacy,98,11,C:/Users/Breena Riley/Desktop/2019 Fall/MultQuant/lab 3.1/BR-subject-1.csv,legacy,1 3 2 6 9,Kafkaesque Koffka,3.2.8,0,n,0,left,right,right,left,NA,928,24703,13767,928,NA,2,legacy,5,1024,2,48000,-16,experiment,1,odd,5,695100,679735,692896,2758,113062,692898,691824,2765,99294,698031,693899,697102,27468,697102,NA,Sternberg task,90,70683,111,yes,1024
80.35714286,80.35714286,637.4553571,637.4553571,black,experiment,legacy,legacy,legacy,0,uniform,0,undefined,0,left,111,111,111,0,0,111,111,0,0,111,111,111,0,111,0,10/14/19 13:24,The main experiment item,yes,Sternbergtask.osexp,C:/Users/Breena Riley/Desktop/2019 Fall/MultQuant/lab 3.1,no,mono,no,18,no,white,no,yes,768,legacy,99,11,C:/Users/Breena Riley/Desktop/2019 Fall/MultQuant/lab 3.1/BR-subject-1.csv,legacy,2 8 5 1,Kafkaesque Koffka,3.2.8,4,y,0,right,right,right,right,NA,712,24703,13767,712,NA,2,legacy,4,1024,2,48000,-16,experiment,1,odd,1,701313,679735,699109,2758,113062,699110,698038,2765,99294,704027,700111,703314,27468,703314,NA,Sternberg task,90,71395,112,yes,1024
80.53097345,80.53097345,636.5486726,636.5486726,black,experiment,legacy,legacy,legacy,0,uniform,1,undefined,1,left,112,112,112,0,0,112,112,0,0,112,112,112,0,112,0,10/14/19 13:24,The main experiment item,yes,Sternbergtask.osexp,C:/Users/Breena Riley/Desktop/2019 Fall/MultQuant/lab 3.1,no,mono,no,18,no,white,no,yes,768,legacy,100,11,C:/Users/Breena Riley/Desktop/2019 Fall/MultQuant/lab 3.1/BR-subject-1.csv,legacy,3 5 7 1,Kafkaesque Koffka,3.2.8,3,y,0,left,right,right,left,NA,535,24703,13767,535,NA,2,legacy,4,1024,2,48000,-16,experiment,1,odd,7,707308,679735,705104,2758,113062,705106,704034,2765,99294,709845,706107,709309,27468,709309,NA,Sternberg task,91,71930,113,yes,1024
80.70175439,80.70175439,636.2894737,636.2894737,black,experiment,legacy,legacy,legacy,0,uniform,1,undefined,1,right,113,113,113,0,0,113,113,0,0,113,113,113,0,113,0,10/14/19 13:24,The main experiment item,yes,Sternbergtask.osexp,C:/Users/Breena Riley/Desktop/2019 Fall/MultQuant/lab 3.1,no,mono,no,18,no,white,no,yes,768,legacy,101,11,C:/Users/Breena Riley/Desktop/2019 Fall/MultQuant/lab 3.1/BR-subject-1.csv,legacy,1 4 3 6 5,Kafkaesque Koffka,3.2.8,0,n,0,right,right,right,right,NA,607,24703,13767,607,NA,2,legacy,5,1024,2,48000,-16,experiment,1,odd,8,713131,709853,710927,2758,113062,710929,704034,2765,99294,715740,711930,715132,27468,715132,NA,Sternberg task,92,72537,114,yes,1024
80.86956522,80.86956522,637.1652174,637.1652174,black,experiment,legacy,legacy,legacy,0,uniform,1,undefined,1,left,114,114,114,0,0,114,114,0,0,114,114,114,0,114,0,10/14/19 13:24,The main experiment item,yes,Sternbergtask.osexp,C:/Users/Breena Riley/Desktop/2019 Fall/MultQuant/lab 3.1,no,mono,no,18,no,white,no,yes,768,legacy,102,11,C:/Users/Breena Riley/Desktop/2019 Fall/MultQuant/lab 3.1/BR-subject-1.csv,legacy,8 9 5 7 1 6,Kafkaesque Koffka,3.2.8,4,y,0,left,right,right,left,NA,737,24703,13767,737,NA,2,legacy,6,1024,2,48000,-16,experiment,1,odd,7,719023,715747,716819,2758,113062,716821,704034,2765,99294,721762,717822,721024,27468,721024,NA,Sternberg task,93,73274,115,yes,1024
81.03448276,81.03448276,639.9827586,639.9827586,black,experiment,legacy,legacy,legacy,0,uniform,1,undefined,1,right,115,115,115,0,0,115,115,0,0,115,115,115,0,115,0,10/14/19 13:24,The main experiment item,yes,Sternbergtask.osexp,C:/Users/Breena Riley/Desktop/2019 Fall/MultQuant/lab 3.1,no,mono,no,18,no,white,no,yes,768,legacy,103,11,C:/Users/Breena Riley/Desktop/2019 Fall/MultQuant/lab 3.1/BR-subject-1.csv,legacy,9 8 2 7 4,Kafkaesque Koffka,3.2.8,0,n,0,right,right,right,right,NA,964,24703,13767,964,NA,2,legacy,5,1024,2,48000,-16,experiment,1,odd,5,725046,721769,722842,2758,113062,722843,704034,2765,99294,728012,723845,727047,27468,727047,NA,Sternberg task,94,74238,116,yes,1024
81.1965812,81.1965812,639.2136752,639.2136752,black,experiment,legacy,legacy,legacy,0,uniform,1,undefined,1,left,116,116,116,0,0,116,116,0,0,116,116,116,0,116,0,10/14/19 13:24,The main experiment item,yes,Sternbergtask.osexp,C:/Users/Breena Riley/Desktop/2019 Fall/MultQuant/lab 3.1,no,mono,no,18,no,white,no,yes,768,legacy,104,11,C:/Users/Breena Riley/Desktop/2019 Fall/MultQuant/lab 3.1/BR-subject-1.csv,legacy,8 3,Kafkaesque Koffka,3.2.8,2,y,0,left,right,right,left,NA,550,24703,13767,550,NA,2,legacy,2,1024,2,48000,-16,experiment,1,odd,3,731294,728020,729090,2758,113062,729092,704034,2765,99294,733846,730093,733295,27468,733295,NA,Sternberg task,95,74788,117,yes,1024
80.50847458,80.50847458,639.0932203,639.0932203,black,experiment,legacy,legacy,legacy,0,uniform,0,undefined,0,left,117,117,117,0,0,117,117,0,0,117,117,117,0,117,0,10/14/19 13:24,The main experiment item,yes,Sternbergtask.osexp,C:/Users/Breena Riley/Desktop/2019 Fall/MultQuant/lab 3.1,no,mono,no,18,no,white,no,yes,768,legacy,105,11,C:/Users/Breena Riley/Desktop/2019 Fall/MultQuant/lab 3.1/BR-subject-1.csv,legacy,2 4 6 9,Kafkaesque Koffka,3.2.8,3,y,0,right,right,right,right,NA,625,24703,13767,625,NA,2,legacy,4,1024,2,48000,-16,experiment,1,odd,6,737131,733854,734927,2758,113062,734929,704034,2765,99294,739758,735930,739132,27468,739132,NA,Sternberg task,95,75413,118,yes,1024
80.67226891,80.67226891,639.4453782,639.4453782,black,experiment,legacy,legacy,legacy,0,uniform,1,undefined,1,right,118,118,118,0,0,118,118,0,0,118,118,118,0,118,0,10/14/19 13:24,The main experiment item,yes,Sternbergtask.osexp,C:/Users/Breena Riley/Desktop/2019 Fall/MultQuant/lab 3.1,no,mono,no,18,no,white,no,yes,768,legacy,106,11,C:/Users/Breena Riley/Desktop/2019 Fall/MultQuant/lab 3.1/BR-subject-1.csv,legacy,2 5 1 4,Kafkaesque Koffka,3.2.8,0,n,0,right,right,right,right,NA,681,24703,13767,681,NA,2,legacy,4,1024,2,48000,-16,experiment,1,odd,6,743039,733854,740834,2758,113062,740836,739765,2765,99294,745722,741837,745040,27468,745040,NA,Sternberg task,96,76094,119,yes,1024
80.83333333,80.83333333,638.975,638.975,black,experiment,legacy,legacy,legacy,0,uniform,1,undefined,1,left,119,119,119,0,0,119,119,0,0,119,119,119,0,119,0,10/14/19 13:24,The main experiment item,yes,Sternbergtask.osexp,C:/Users/Breena Riley/Desktop/2019 Fall/MultQuant/lab 3.1,no,mono,no,18,no,white,no,yes,768,legacy,107,11,C:/Users/Breena Riley/Desktop/2019 Fall/MultQuant/lab 3.1/BR-subject-1.csv,legacy,3 4 9 6 2 9,Kafkaesque Koffka,3.2.8,5,y,0,left,right,right,left,NA,583,24703,13767,583,NA,2,legacy,6,1024,2,48000,-16,experiment,1,odd,2,749006,745730,746802,2758,113062,746804,739765,2765,99294,751591,747805,751007,27468,751007,NA,Sternberg task,97,76677,120,yes,1024
80.99173554,80.99173554,637.214876,637.214876,black,experiment,legacy,legacy,legacy,0,uniform,1,undefined,1,left,120,120,120,0,0,120,120,0,0,120,120,120,0,120,0,10/14/19 13:24,The main experiment item,yes,Sternbergtask.osexp,C:/Users/Breena Riley/Desktop/2019 Fall/MultQuant/lab 3.1,no,mono,no,18,no,white,no,yes,768,legacy,108,11,C:/Users/Breena Riley/Desktop/2019 Fall/MultQuant/lab 3.1/BR-subject-1.csv,legacy,3 4,Kafkaesque Koffka,3.2.8,1,y,0,left,right,right,left,NA,426,24703,13767,426,NA,2,legacy,2,1024,2,48000,-16,experiment,1,odd,3,754874,751598,752670,2758,113062,752671,739765,2765,99294,757303,753673,756875,27468,756875,NA,Sternberg task,98,77103,121,yes,1024
81.14754098,81.14754098,638.1557377,638.1557377,black,experiment,legacy,legacy,legacy,0,uniform,1,undefined,1,left,121,121,121,0,0,121,121,0,0,121,121,121,0,121,0,10/14/19 13:24,The main experiment item,yes,Sternbergtask.osexp,C:/Users/Breena Riley/Desktop/2019 Fall/MultQuant/lab 3.1,no,mono,no,18,no,white,no,yes,768,legacy,109,11,C:/Users/Breena Riley/Desktop/2019 Fall/MultQuant/lab 3.1/BR-subject-1.csv,legacy,6 5,Kafkaesque Koffka,3.2.8,2,y,0,left,right,right,left,NA,752,24703,13767,752,NA,2,legacy,2,1024,2,48000,-16,experiment,1,odd,5,760582,757309,758378,2758,113062,758380,739765,2765,99294,763336,759381,762583,27468,762583,NA,Sternberg task,99,77855,122,yes,1024
81.30081301,81.30081301,637.8861789,637.8861789,black,experiment,legacy,legacy,legacy,0,uniform,1,undefined,1,right,122,122,122,0,0,122,122,0,0,122,122,122,0,122,0,10/14/19 13:24,The main experiment item,yes,Sternbergtask.osexp,C:/Users/Breena Riley/Desktop/2019 Fall/MultQuant/lab 3.1,no,mono,no,18,no,white,no,yes,768,legacy,110,11,C:/Users/Breena Riley/Desktop/2019 Fall/MultQuant/lab 3.1/BR-subject-1.csv,legacy,6 8 4,Kafkaesque Koffka,3.2.8,0,n,0,right,right,right,right,NA,605,24703,13767,605,NA,2,legacy,3,1024,2,48000,-16,experiment,1,odd,1,766617,763343,764413,2758,113062,764415,739765,2765,99294,769224,765416,768618,27468,768618,NA,Sternberg task,100,78460,123,yes,1024
81.4516129,81.4516129,637.2096774,637.2096774,black,experiment,legacy,legacy,legacy,0,uniform,1,undefined,1,right,123,123,123,0,0,123,123,0,0,123,123,123,0,123,0,10/14/19 13:24,The main experiment item,yes,Sternbergtask.osexp,C:/Users/Breena Riley/Desktop/2019 Fall/MultQuant/lab 3.1,no,mono,no,18,no,white,no,yes,768,legacy,111,11,C:/Users/Breena Riley/Desktop/2019 Fall/MultQuant/lab 3.1/BR-subject-1.csv,legacy,5 7 3,Kafkaesque Koffka,3.2.8,0,n,0,right,right,right,right,NA,554,24703,13767,554,NA,2,legacy,3,1024,2,48000,-16,experiment,1,odd,9,772506,769231,770302,2758,113062,770304,739765,2765,99294,775064,771305,774507,27468,774507,NA,Sternberg task,101,79014,124,yes,1024
81.6,81.6,640.048,640.048,black,experiment,legacy,legacy,legacy,0,uniform,1,undefined,1,right,124,124,124,0,0,124,124,0,0,124,124,124,0,124,0,10/14/19 13:24,The main experiment item,yes,Sternbergtask.osexp,C:/Users/Breena Riley/Desktop/2019 Fall/MultQuant/lab 3.1,no,mono,no,18,no,white,no,yes,768,legacy,112,11,C:/Users/Breena Riley/Desktop/2019 Fall/MultQuant/lab 3.1/BR-subject-1.csv,legacy,8 5 4 2 9 6,Kafkaesque Koffka,3.2.8,0,n,0,right,right,right,right,NA,992,24703,13767,992,NA,2,legacy,6,1024,2,48000,-16,experiment,1,odd,3,778346,775072,776142,2758,113062,776144,739765,2765,99294,781340,777145,780347,27468,780347,NA,Sternberg task,102,80006,125,yes,1024
81.74603175,81.74603175,639.7857143,639.7857143,black,experiment,legacy,legacy,legacy,0,uniform,1,undefined,1,left,125,125,125,0,0,125,125,0,0,125,125,125,0,125,0,10/14/19 13:24,The main experiment item,yes,Sternbergtask.osexp,C:/Users/Breena Riley/Desktop/2019 Fall/MultQuant/lab 3.1,no,mono,no,18,no,white,no,yes,768,legacy,113,11,C:/Users/Breena Riley/Desktop/2019 Fall/MultQuant/lab 3.1/BR-subject-1.csv,legacy,8 5 1 3 9,Kafkaesque Koffka,3.2.8,4,y,0,left,right,right,left,NA,607,24703,13767,607,NA,2,legacy,5,1024,2,48000,-16,experiment,1,odd,3,784621,781347,782418,2758,113062,782419,739765,2765,99294,787230,783420,786622,27468,786622,NA,Sternberg task,103,80613,126,yes,1024
81.88976378,81.88976378,639.3307087,639.3307087,black,experiment,legacy,legacy,legacy,0,uniform,1,undefined,1,right,126,126,126,0,0,126,126,0,0,126,126,126,0,126,0,10/14/19 13:24,The main experiment item,yes,Sternbergtask.osexp,C:/Users/Breena Riley/Desktop/2019 Fall/MultQuant/lab 3.1,no,mono,no,18,no,white,no,yes,768,legacy,114,11,C:/Users/Breena Riley/Desktop/2019 Fall/MultQuant/lab 3.1/BR-subject-1.csv,legacy,6 3 1 7 9 8,Kafkaesque Koffka,3.2.8,0,n,0,right,right,right,right,NA,582,24703,13767,582,NA,2,legacy,6,1024,2,48000,-16,experiment,1,odd,4,790512,787237,788307,2758,113062,788309,739765,2765,99294,793096,789310,792513,27468,792513,NA,Sternberg task,104,81195,127,yes,1024
82.03125,82.03125,639.25,639.25,black,experiment,legacy,legacy,legacy,0,uniform,1,undefined,1,left,127,127,127,0,0,127,127,0,0,127,127,127,0,127,0,10/14/19 13:24,The main experiment item,yes,Sternbergtask.osexp,C:/Users/Breena Riley/Desktop/2019 Fall/MultQuant/lab 3.1,no,mono,no,18,no,white,no,yes,768,legacy,115,11,C:/Users/Breena Riley/Desktop/2019 Fall/MultQuant/lab 3.1/BR-subject-1.csv,legacy,6 7 9 3 1 2,Kafkaesque Koffka,3.2.8,1,y,0,left,right,right,left,NA,629,24703,13767,629,NA,2,legacy,6,1024,2,48000,-16,experiment,1,odd,6,796377,793104,794174,2758,113062,794175,739765,2765,99294,799009,795176,798378,27468,798378,NA,Sternberg task,105,81824,128,yes,1024
82.17054264,82.17054264,637.8139535,637.8139535,black,experiment,legacy,legacy,legacy,0,uniform,1,undefined,1,left,128,128,128,0,0,128,128,0,0,128,128,128,0,128,0,10/14/19 13:24,The main experiment item,yes,Sternbergtask.osexp,C:/Users/Breena Riley/Desktop/2019 Fall/MultQuant/lab 3.1,no,mono,no,18,no,white,no,yes,768,legacy,116,11,C:/Users/Breena Riley/Desktop/2019 Fall/MultQuant/lab 3.1/BR-subject-1.csv,legacy,6 2,Kafkaesque Koffka,3.2.8,1,y,0,left,right,right,left,NA,454,24703,13767,454,NA,2,legacy,2,1024,2,48000,-16,experiment,1,odd,6,802299,799015,800096,2758,113062,800097,739765,2765,99294,804755,801098,804300,27468,804300,NA,Sternberg task,106,82278,129,yes,1024
82.30769231,82.30769231,636.5769231,636.5769231,black,experiment,legacy,legacy,legacy,0,uniform,1,undefined,1,right,129,129,129,0,0,129,129,0,0,129,129,129,0,129,0,10/14/19 13:24,The main experiment item,yes,Sternbergtask.osexp,C:/Users/Breena Riley/Desktop/2019 Fall/MultQuant/lab 3.1,no,mono,no,18,no,white,no,yes,768,legacy,117,11,C:/Users/Breena Riley/Desktop/2019 Fall/MultQuant/lab 3.1/BR-subject-1.csv,legacy,5,Kafkaesque Koffka,3.2.8,0,n,0,right,right,right,right,NA,477,24703,13767,477,NA,2,legacy,1,1024,2,48000,-16,experiment,1,odd,8,808037,804762,805834,2758,113062,805835,739765,2765,99294,810516,806836,810038,27468,810038,NA,Sternberg task,107,82755,130,yes,1024
82.44274809,82.44274809,635.7099237,635.7099237,black,experiment,legacy,legacy,legacy,0,uniform,1,undefined,1,left,130,130,130,0,0,130,130,0,0,130,130,130,0,130,0,10/14/19 13:24,The main experiment item,yes,Sternbergtask.osexp,C:/Users/Breena Riley/Desktop/2019 Fall/MultQuant/lab 3.1,no,mono,no,18,no,white,no,yes,768,legacy,118,11,C:/Users/Breena Riley/Desktop/2019 Fall/MultQuant/lab 3.1/BR-subject-1.csv,legacy,7 6,Kafkaesque Koffka,3.2.8,2,y,0,left,right,right,left,NA,523,24703,13767,523,NA,2,legacy,2,1024,2,48000,-16,experiment,1,odd,6,813795,810523,811592,2758,113062,811593,739765,2765,99294,816320,812594,815796,27468,815796,NA,Sternberg task,108,83278,131,yes,1024
81.81818182,81.81818182,636.0681818,636.0681818,black,experiment,legacy,legacy,legacy,0,uniform,0,undefined,0,left,131,131,131,0,0,131,131,0,0,131,131,131,0,131,0,10/14/19 13:24,The main experiment item,yes,Sternbergtask.osexp,C:/Users/Breena Riley/Desktop/2019 Fall/MultQuant/lab 3.1,no,mono,no,18,no,white,no,yes,768,legacy,119,11,C:/Users/Breena Riley/Desktop/2019 Fall/MultQuant/lab 3.1/BR-subject-1.csv,legacy,9 1 7 2,Kafkaesque Koffka,3.2.8,2,y,0,right,right,right,right,NA,683,24703,13767,683,NA,2,legacy,4,1024,2,48000,-16,experiment,1,odd,1,819606,816327,817402,2758,113062,817404,739765,2765,99294,822291,818404,821607,27468,821607,NA,Sternberg task,108,83961,132,yes,1024
81.95488722,81.95488722,635.8345865,635.8345865,black,experiment,legacy,legacy,legacy,0,uniform,1,undefined,1,right,132,132,132,0,0,132,132,0,0,132,132,132,0,132,0,10/14/19 13:24,The main experiment item,yes,Sternbergtask.osexp,C:/Users/Breena Riley/Desktop/2019 Fall/MultQuant/lab 3.1,no,mono,no,18,no,white,no,yes,768,legacy,120,11,C:/Users/Breena Riley/Desktop/2019 Fall/MultQuant/lab 3.1/BR-subject-1.csv,legacy,1 8 7,Kafkaesque Koffka,3.2.8,0,n,0,right,right,right,right,NA,605,24703,13767,605,NA,2,legacy,3,1024,2,48000,-16,experiment,1,odd,4,825574,816327,823370,2758,113062,823372,822298,2765,99294,828181,824373,827575,27468,827575,NA,Sternberg task,109,84566,133,yes,1024
81.34328358,81.34328358,637.5298507,637.5298507,black,experiment,legacy,legacy,legacy,0,uniform,0,undefined,0,right,133,133,133,0,0,133,133,0,0,133,133,133,0,133,0,10/14/19 13:24,The main experiment item,yes,Sternbergtask.osexp,C:/Users/Breena Riley/Desktop/2019 Fall/MultQuant/lab 3.1,no,mono,no,18,no,white,no,yes,768,legacy,121,11,C:/Users/Breena Riley/Desktop/2019 Fall/MultQuant/lab 3.1/BR-subject-1.csv,legacy,2 3 8 5 6 7,Kafkaesque Koffka,3.2.8,0,n,0,left,right,right,left,NA,863,24703,13767,863,NA,2,legacy,6,1024,2,48000,-16,experiment,1,odd,1,831463,828190,829260,2758,113062,829261,822298,2765,99294,834328,830262,833464,27468,833464,NA,Sternberg task,109,85429,134,yes,1024
81.48148148,81.48148148,637.3481481,637.3481481,black,experiment,legacy,legacy,legacy,0,uniform,1,undefined,1,left,134,134,134,0,0,134,134,0,0,134,134,134,0,134,0,10/14/19 13:24,The main experiment item,yes,Sternbergtask.osexp,C:/Users/Breena Riley/Desktop/2019 Fall/MultQuant/lab 3.1,no,mono,no,18,no,white,no,yes,768,legacy,122,11,C:/Users/Breena Riley/Desktop/2019 Fall/MultQuant/lab 3.1/BR-subject-1.csv,legacy,6 7 8 5,Kafkaesque Koffka,3.2.8,3,y,0,left,right,right,left,NA,613,24703,13767,613,NA,2,legacy,4,1024,2,48000,-16,experiment,1,odd,8,837608,828190,835405,2758,113062,835406,834335,2765,99294,840224,836407,839610,27468,839610,NA,Sternberg task,110,86042,135,yes,1024
80.88235294,80.88235294,637.3602941,637.3602941,black,experiment,legacy,legacy,legacy,0,uniform,0,undefined,0,left,135,135,135,0,0,135,135,0,0,135,135,135,0,135,0,10/14/19 13:24,The main experiment item,yes,Sternbergtask.osexp,C:/Users/Breena Riley/Desktop/2019 Fall/MultQuant/lab 3.1,no,mono,no,18,no,white,no,yes,768,legacy,123,11,C:/Users/Breena Riley/Desktop/2019 Fall/MultQuant/lab 3.1/BR-subject-1.csv,legacy,8 5 4 7 3 1,Kafkaesque Koffka,3.2.8,2,y,0,right,right,right,right,NA,639,24703,13767,639,NA,2,legacy,6,1024,2,48000,-16,experiment,1,odd,5,843506,840231,841302,2758,113062,841304,834335,2765,99294,846147,842305,845507,27468,845507,NA,Sternberg task,110,86681,136,yes,1024
81.02189781,81.02189781,636.4525547,636.4525547,black,experiment,legacy,legacy,legacy,0,uniform,1,undefined,1,right,136,136,136,0,0,136,136,0,0,136,136,136,0,136,0,10/14/19 13:24,The main experiment item,yes,Sternbergtask.osexp,C:/Users/Breena Riley/Desktop/2019 Fall/MultQuant/lab 3.1,no,mono,no,18,no,white,no,yes,768,legacy,124,11,C:/Users/Breena Riley/Desktop/2019 Fall/MultQuant/lab 3.1/BR-subject-1.csv,legacy,9,Kafkaesque Koffka,3.2.8,0,n,0,right,right,right,right,NA,513,24703,13767,513,NA,2,legacy,1,1024,2,48000,-16,experiment,1,odd,6,849428,840231,847223,2758,113062,847225,846154,2765,99294,851943,848226,851429,27468,851429,NA,Sternberg task,111,87194,137,yes,1024
81.15942029,81.15942029,638.3405797,638.3405797,black,experiment,legacy,legacy,legacy,0,uniform,1,undefined,1,right,137,137,137,0,0,137,137,0,0,137,137,137,0,137,0,10/14/19 13:24,The main experiment item,yes,Sternbergtask.osexp,C:/Users/Breena Riley/Desktop/2019 Fall/MultQuant/lab 3.1,no,mono,no,18,no,white,no,yes,768,legacy,125,11,C:/Users/Breena Riley/Desktop/2019 Fall/MultQuant/lab 3.1/BR-subject-1.csv,legacy,2 8 9 4 1,Kafkaesque Koffka,3.2.8,0,n,0,right,right,right,right,NA,897,24703,13767,897,NA,2,legacy,5,1024,2,48000,-16,experiment,1,odd,5,855227,851950,853022,2758,113062,853024,846154,2765,99294,858125,854026,857228,27468,857228,NA,Sternberg task,112,88091,138,yes,1024