acc,accuracy,average_response_time,avg_rt,background,block,canvas_backend,clock_backend,color_backend,compensation,coordinates,correct,correct_instruction1,correct_keyboard_response,correct_response,count_ISI,count_correctFeedback,count_expSequence,count_experiment,count_experimentLoop,count_fixation,count_incorrectFeedback,count_instruction1,count_instructions2,count_keyboard_response,count_logger,count_memorySet,count_practiceLoop,count_probe,count_thankYou,datetime,description,disable_garbage_collection,experiment_file,experiment_path,font_bold,font_family,font_italic,font_size,font_underline,foreground,form_clicks,fullscreen,height,keyboard_backend,live_row,live_row_practiceLoop,logfile,mouse_backend,numberSet,opensesame_codename,opensesame_version,posInSet,present,repeat_cycle,response,response_instruction1,response_instructions2,response_keyboard_response,response_thankYou,response_time,response_time_instruction1,response_time_instructions2,response_time_keyboard_response,response_time_thankYou,round_decimals,sampler_backend,setSize,sound_buf_size,sound_channels,sound_freq,sound_sample_size,start,subject_nr,subject_parity,target,time_ISI,time_correctFeedback,time_expSequence,time_experiment,time_experimentLoop,time_fixation,time_incorrectFeedback,time_instruction1,time_instructions2,time_keyboard_response,time_logger,time_memorySet,time_practiceLoop,time_probe,time_thankYou,title,total_correct,total_response_time,total_responses,uniform_coordinates,width
0,0,2000,2000,black,practice,legacy,legacy,legacy,0,uniform,0,undefined,0,right,0,0,0,0,0,0,0,0,0,0,0,0,0,0,0,10/25/19 17:35,The main experiment item,yes,Sternbergtask.osexp,C:\Users\Edgar\Documents\Edgar School\Fall 2019\Lab 3-1,no,mono,no,18,no,white,no,yes,768,legacy,0,0,C:/Users/Edgar/Documents/Edgar School/Fall 2019/Lab 3-1/MJ-subject-2.csv,legacy,2 1,Kafkaesque Koffka,3.2.8,0,n,0,None,right,NA,None,NA,2000,59634,NA,2000,NA,2,legacy,2,1024,2,48000,-16,experiment,2,even,5,88112,NA,85891,13588,NA,85899,NA,13597,NA,90119,92119,86905,73235,90118,NA,Sternberg task,0,2000,1,yes,1024
50,50,1498.5,1498.5,black,practice,legacy,legacy,legacy,0,uniform,1,undefined,1,left,1,1,1,0,0,1,1,0,0,1,1,1,0,1,0,10/25/19 17:35,The main experiment item,yes,Sternbergtask.osexp,C:\Users\Edgar\Documents\Edgar School\Fall 2019\Lab 3-1,no,mono,no,18,no,white,no,yes,768,legacy,1,1,C:/Users/Edgar/Documents/Edgar School/Fall 2019/Lab 3-1/MJ-subject-2.csv,legacy,1 5 2 9,Kafkaesque Koffka,3.2.8,2,y,0,left,right,NA,left,NA,997,59634,NA,997,NA,2,legacy,4,1024,2,48000,-16,experiment,2,even,5,96163,NA,93942,13588,NA,93951,92586,13597,NA,98170,99169,94957,73235,98170,NA,Sternberg task,1,2997,2,yes,1024
33.33333333,33.33333333,1075.333333,1075.333333,black,practice,legacy,legacy,legacy,0,uniform,0,undefined,0,left,2,2,2,0,0,2,2,0,0,2,2,2,0,2,0,10/25/19 17:35,The main experiment item,yes,Sternbergtask.osexp,C:\Users\Edgar\Documents\Edgar School\Fall 2019\Lab 3-1,no,mono,no,18,no,white,no,yes,768,legacy,2,2,C:/Users/Edgar/Documents/Edgar School/Fall 2019/Lab 3-1/MJ-subject-2.csv,legacy,6,Kafkaesque Koffka,3.2.8,1,y,0,right,right,NA,right,NA,229,59634,NA,229,NA,2,legacy,1,1024,2,48000,-16,experiment,2,even,6,102864,99227,100643,13588,NA,100653,92586,13597,NA,104872,105103,101658,73235,104871,NA,Sternberg task,1,3226,3,yes,1024
50,50,1114.75,1114.75,black,practice,legacy,legacy,legacy,0,uniform,1,undefined,1,left,3,3,3,0,0,3,3,0,0,3,3,3,0,3,0,10/25/19 17:35,The main experiment item,yes,Sternbergtask.osexp,C:\Users\Edgar\Documents\Edgar School\Fall 2019\Lab 3-1,no,mono,no,18,no,white,no,yes,768,legacy,3,3,C:/Users/Edgar/Documents/Edgar School/Fall 2019/Lab 3-1/MJ-subject-2.csv,legacy,4 3 1 7 9 8,Kafkaesque Koffka,3.2.8,1,y,0,left,right,NA,left,NA,1233,59634,NA,1233,NA,2,legacy,6,1024,2,48000,-16,experiment,2,even,4,108770,99227,106552,13588,NA,106559,105184,13597,NA,110778,112013,107565,73235,110777,NA,Sternberg task,2,4459,4,yes,1024
60,60,1115.6,1115.6,black,practice,legacy,legacy,legacy,0,uniform,1,undefined,1,right,4,4,4,0,0,4,4,0,0,4,4,4,0,4,0,10/25/19 17:35,The main experiment item,yes,Sternbergtask.osexp,C:\Users\Edgar\Documents\Edgar School\Fall 2019\Lab 3-1,no,mono,no,18,no,white,no,yes,768,legacy,4,4,C:/Users/Edgar/Documents/Edgar School/Fall 2019/Lab 3-1/MJ-subject-2.csv,legacy,4 1 5,Kafkaesque Koffka,3.2.8,0,n,0,right,right,NA,right,NA,1119,59634,NA,1119,NA,2,legacy,3,1024,2,48000,-16,experiment,2,even,2,115655,112050,113436,13588,NA,113443,105184,13597,NA,117663,118783,114449,73235,117662,NA,Sternberg task,3,5578,5,yes,1024
66.66666667,66.66666667,1114.666667,1114.666667,black,practice,legacy,legacy,legacy,0,uniform,1,undefined,1,right,5,5,5,0,0,5,5,0,0,5,5,5,0,5,0,10/25/19 17:35,The main experiment item,yes,Sternbergtask.osexp,C:\Users\Edgar\Documents\Edgar School\Fall 2019\Lab 3-1,no,mono,no,18,no,white,no,yes,768,legacy,5,5,C:/Users/Edgar/Documents/Edgar School/Fall 2019/Lab 3-1/MJ-subject-2.csv,legacy,3 1 9 4,Kafkaesque Koffka,3.2.8,0,n,0,right,right,NA,right,NA,1110,59634,NA,1110,NA,2,legacy,4,1024,2,48000,-16,experiment,2,even,6,122405,118836,120185,13588,NA,120191,105184,13597,NA,124411,125523,121199,73235,124410,NA,Sternberg task,4,6688,6,yes,1024
71.42857143,71.42857143,1154.571429,1154.571429,black,practice,legacy,legacy,legacy,0,uniform,1,undefined,1,right,6,6,6,0,0,6,6,0,0,6,6,6,0,6,0,10/25/19 17:35,The main experiment item,yes,Sternbergtask.osexp,C:\Users\Edgar\Documents\Edgar School\Fall 2019\Lab 3-1,no,mono,no,18,no,white,no,yes,768,legacy,6,6,C:/Users/Edgar/Documents/Edgar School/Fall 2019/Lab 3-1/MJ-subject-2.csv,legacy,5 7 8 4 1 2,Kafkaesque Koffka,3.2.8,0,n,0,right,right,NA,right,NA,1394,59634,NA,1394,NA,2,legacy,6,1024,2,48000,-16,experiment,2,even,6,129156,125587,126937,13588,NA,126944,105184,13597,NA,131163,132560,127950,73235,131163,NA,Sternberg task,5,8082,7,yes,1024
75,75,1158.875,1158.875,black,practice,legacy,legacy,legacy,0,uniform,1,undefined,1,right,7,7,7,0,0,7,7,0,0,7,7,7,0,7,0,10/25/19 17:35,The main experiment item,yes,Sternbergtask.osexp,C:\Users\Edgar\Documents\Edgar School\Fall 2019\Lab 3-1,no,mono,no,18,no,white,no,yes,768,legacy,7,7,C:/Users/Edgar/Documents/Edgar School/Fall 2019/Lab 3-1/MJ-subject-2.csv,legacy,9 6 7 4 5,Kafkaesque Koffka,3.2.8,0,n,0,right,right,NA,right,NA,1189,59634,NA,1189,NA,2,legacy,5,1024,2,48000,-16,experiment,2,even,3,136168,132615,133948,13588,NA,133955,105184,13597,NA,138176,139367,134961,73235,138176,NA,Sternberg task,6,9271,8,yes,1024
77.77777778,77.77777778,1187.666667,1187.666667,black,practice,legacy,legacy,legacy,0,uniform,1,undefined,1,left,8,8,8,0,0,8,8,0,0,8,8,8,0,8,0,10/25/19 17:35,The main experiment item,yes,Sternbergtask.osexp,C:\Users\Edgar\Documents\Edgar School\Fall 2019\Lab 3-1,no,mono,no,18,no,white,no,yes,768,legacy,8,8,C:/Users/Edgar/Documents/Edgar School/Fall 2019/Lab 3-1/MJ-subject-2.csv,legacy,1 7 9 8 5,Kafkaesque Koffka,3.2.8,4,y,0,left,right,NA,left,NA,1418,59634,NA,1418,NA,2,legacy,5,1024,2,48000,-16,experiment,2,even,8,143006,139433,140785,13588,NA,140794,105184,13597,NA,145014,146435,141800,73235,145013,NA,Sternberg task,7,10689,9,yes,1024
80,80,1201.3,1201.3,black,practice,legacy,legacy,legacy,0,uniform,1,undefined,1,left,9,9,9,0,0,9,9,0,0,9,9,9,0,9,0,10/25/19 17:35,The main experiment item,yes,Sternbergtask.osexp,C:\Users\Edgar\Documents\Edgar School\Fall 2019\Lab 3-1,no,mono,no,18,no,white,no,yes,768,legacy,9,9,C:/Users/Edgar/Documents/Edgar School/Fall 2019/Lab 3-1/MJ-subject-2.csv,legacy,4 8,Kafkaesque Koffka,3.2.8,1,y,0,left,right,NA,left,NA,1324,59634,NA,1324,NA,2,legacy,2,1024,2,48000,-16,experiment,2,even,4,150098,146496,147878,13588,NA,147886,105184,13597,NA,152106,153432,148893,73235,152106,NA,Sternberg task,8,12013,10,yes,1024
81.81818182,81.81818182,1273.090909,1273.090909,black,practice,legacy,legacy,legacy,0,uniform,1,undefined,1,right,10,10,10,0,0,10,10,0,0,10,10,10,0,10,0,10/25/19 17:35,The main experiment item,yes,Sternbergtask.osexp,C:\Users\Edgar\Documents\Edgar School\Fall 2019\Lab 3-1,no,mono,no,18,no,white,no,yes,768,legacy,10,10,C:/Users/Edgar/Documents/Edgar School/Fall 2019/Lab 3-1/MJ-subject-2.csv,legacy,5,Kafkaesque Koffka,3.2.8,0,n,0,right,right,NA,right,NA,1991,59634,NA,1991,NA,2,legacy,1,1024,2,48000,-16,experiment,2,even,3,157057,153484,154838,13588,NA,154845,105184,13597,NA,159066,161059,155852,73235,159064,NA,Sternberg task,9,14004,11,yes,1024
83.33333333,83.33333333,1254,1254,black,practice,legacy,legacy,legacy,0,uniform,1,undefined,1,left,11,11,11,0,0,11,11,0,0,11,11,11,0,11,0,10/25/19 17:35,The main experiment item,yes,Sternbergtask.osexp,C:\Users\Edgar\Documents\Edgar School\Fall 2019\Lab 3-1,no,mono,no,18,no,white,no,yes,768,legacy,11,11,C:/Users/Edgar/Documents/Edgar School/Fall 2019/Lab 3-1/MJ-subject-2.csv,legacy,2 9 4,Kafkaesque Koffka,3.2.8,3,y,0,left,right,NA,left,NA,1044,59634,NA,1044,NA,2,legacy,3,1024,2,48000,-16,experiment,2,even,4,164699,161131,162476,13588,NA,162485,105184,13597,NA,166705,167752,163491,73235,166705,NA,Sternberg task,10,15048,12,yes,1024
84.61538462,84.61538462,1235,1235,black,experiment,legacy,legacy,legacy,0,uniform,1,undefined,1,right,12,12,12,0,0,12,12,0,0,12,12,12,0,12,0,10/25/19 17:35,The main experiment item,yes,Sternbergtask.osexp,C:\Users\Edgar\Documents\Edgar School\Fall 2019\Lab 3-1,no,mono,no,18,no,white,no,yes,768,legacy,0,11,C:/Users/Edgar/Documents/Edgar School/Fall 2019/Lab 3-1/MJ-subject-2.csv,legacy,2 3 8 5 6 7,Kafkaesque Koffka,3.2.8,0,n,0,right,right,right,right,NA,1007,59634,13838,1007,NA,2,legacy,6,1024,2,48000,-16,experiment,2,even,1,185478,167824,183258,13588,182739,183266,105184,13597,168898,187485,188494,184271,73235,187484,NA,Sternberg task,11,16055,13,yes,1024
85.71428571,85.71428571,1219.928571,1219.928571,black,experiment,legacy,legacy,legacy,0,uniform,1,undefined,1,right,13,13,13,0,0,13,13,0,0,13,13,13,0,13,0,10/25/19 17:35,The main experiment item,yes,Sternbergtask.osexp,C:\Users\Edgar\Documents\Edgar School\Fall 2019\Lab 3-1,no,mono,no,18,no,white,no,yes,768,legacy,1,11,C:/Users/Edgar/Documents/Edgar School/Fall 2019/Lab 3-1/MJ-subject-2.csv,legacy,7 8 6 1,Kafkaesque Koffka,3.2.8,0,n,0,right,right,right,right,NA,1024,59634,13838,1024,NA,2,legacy,4,1024,2,48000,-16,experiment,2,even,3,192114,188544,189893,13588,182739,189900,105184,13597,168898,194123,195149,190907,73235,194123,NA,Sternberg task,12,17079,14,yes,1024
86.66666667,86.66666667,1208.133333,1208.133333,black,experiment,legacy,legacy,legacy,0,uniform,1,undefined,1,left,14,14,14,0,0,14,14,0,0,14,14,14,0,14,0,10/25/19 17:35,The main experiment item,yes,Sternbergtask.osexp,C:\Users\Edgar\Documents\Edgar School\Fall 2019\Lab 3-1,no,mono,no,18,no,white,no,yes,768,legacy,2,11,C:/Users/Edgar/Documents/Edgar School/Fall 2019/Lab 3-1/MJ-subject-2.csv,legacy,8 5 1 3 9,Kafkaesque Koffka,3.2.8,4,y,0,left,right,right,left,NA,1043,59634,13838,1043,NA,2,legacy,5,1024,2,48000,-16,experiment,2,even,3,198780,195198,196559,13588,182739,196567,105184,13597,168898,200787,201832,197573,73235,200786,NA,Sternberg task,13,18122,15,yes,1024
87.5,87.5,1249.0625,1249.0625,black,experiment,legacy,legacy,legacy,0,uniform,1,undefined,1,right,15,15,15,0,0,15,15,0,0,15,15,15,0,15,0,10/25/19 17:35,The main experiment item,yes,Sternbergtask.osexp,C:\Users\Edgar\Documents\Edgar School\Fall 2019\Lab 3-1,no,mono,no,18,no,white,no,yes,768,legacy,3,11,C:/Users/Edgar/Documents/Edgar School/Fall 2019/Lab 3-1/MJ-subject-2.csv,legacy,3 4 2,Kafkaesque Koffka,3.2.8,0,n,0,right,right,right,right,NA,1863,59634,13838,1863,NA,2,legacy,3,1024,2,48000,-16,experiment,2,even,5,205493,201904,203272,13588,182739,203280,105184,13597,168898,207500,209366,204286,73235,207499,NA,Sternberg task,14,19985,16,yes,1024
88.23529412,88.23529412,1246.529412,1246.529412,black,experiment,legacy,legacy,legacy,0,uniform,1,undefined,1,left,16,16,16,0,0,16,16,0,0,16,16,16,0,16,0,10/25/19 17:35,The main experiment item,yes,Sternbergtask.osexp,C:\Users\Edgar\Documents\Edgar School\Fall 2019\Lab 3-1,no,mono,no,18,no,white,no,yes,768,legacy,4,11,C:/Users/Edgar/Documents/Edgar School/Fall 2019/Lab 3-1/MJ-subject-2.csv,legacy,5 7 3 6 2,Kafkaesque Koffka,3.2.8,5,y,0,left,right,right,left,NA,1206,59634,13838,1206,NA,2,legacy,5,1024,2,48000,-16,experiment,2,even,2,212992,209404,210770,13588,182739,210777,105184,13597,168898,215000,216209,211783,73235,215000,NA,Sternberg task,15,21191,17,yes,1024
88.88888889,88.88888889,1234.944444,1234.944444,black,experiment,legacy,legacy,legacy,0,uniform,1,undefined,1,right,17,17,17,0,0,17,17,0,0,17,17,17,0,17,0,10/25/19 17:35,The main experiment item,yes,Sternbergtask.osexp,C:\Users\Edgar\Documents\Edgar School\Fall 2019\Lab 3-1,no,mono,no,18,no,white,no,yes,768,legacy,5,11,C:/Users/Edgar/Documents/Edgar School/Fall 2019/Lab 3-1/MJ-subject-2.csv,legacy,1 4 3 6 5,Kafkaesque Koffka,3.2.8,0,n,0,right,right,right,right,NA,1038,59634,13838,1038,NA,2,legacy,5,1024,2,48000,-16,experiment,2,even,8,219914,216282,217695,13588,182739,217702,105184,13597,168898,221922,222962,218707,73235,221921,NA,Sternberg task,16,22229,18,yes,1024
89.47368421,89.47368421,1242,1242,black,experiment,legacy,legacy,legacy,0,uniform,1,undefined,1,left,18,18,18,0,0,18,18,0,0,18,18,18,0,18,0,10/25/19 17:35,The main experiment item,yes,Sternbergtask.osexp,C:\Users\Edgar\Documents\Edgar School\Fall 2019\Lab 3-1,no,mono,no,18,no,white,no,yes,768,legacy,6,11,C:/Users/Edgar/Documents/Edgar School/Fall 2019/Lab 3-1/MJ-subject-2.csv,legacy,3 2 1 4 7,Kafkaesque Koffka,3.2.8,2,y,0,left,right,right,left,NA,1369,59634,13838,1369,NA,2,legacy,5,1024,2,48000,-16,experiment,2,even,2,226609,223025,224386,13588,182739,224394,105184,13597,168898,228620,229992,225402,73235,228620,NA,Sternberg task,17,23598,19,yes,1024
90,90,1236.7,1236.7,black,experiment,legacy,legacy,legacy,0,uniform,1,undefined,1,left,19,19,19,0,0,19,19,0,0,19,19,19,0,19,0,10/25/19 17:35,The main experiment item,yes,Sternbergtask.osexp,C:\Users\Edgar\Documents\Edgar School\Fall 2019\Lab 3-1,no,mono,no,18,no,white,no,yes,768,legacy,7,11,C:/Users/Edgar/Documents/Edgar School/Fall 2019/Lab 3-1/MJ-subject-2.csv,legacy,8 9 6 1,Kafkaesque Koffka,3.2.8,2,y,0,left,right,right,left,NA,1136,59634,13838,1136,NA,2,legacy,4,1024,2,48000,-16,experiment,2,even,9,233649,230065,231426,13588,182739,231435,105184,13597,168898,235656,236795,232442,73235,235656,NA,Sternberg task,18,24734,20,yes,1024
90.47619048,90.47619048,1228.333333,1228.333333,black,experiment,legacy,legacy,legacy,0,uniform,1,undefined,1,left,20,20,20,0,0,20,20,0,0,20,20,20,0,20,0,10/25/19 17:35,The main experiment item,yes,Sternbergtask.osexp,C:\Users\Edgar\Documents\Edgar School\Fall 2019\Lab 3-1,no,mono,no,18,no,white,no,yes,768,legacy,8,11,C:/Users/Edgar/Documents/Edgar School/Fall 2019/Lab 3-1/MJ-subject-2.csv,legacy,8 5 3 7 4 6,Kafkaesque Koffka,3.2.8,6,y,0,left,right,right,left,NA,1061,59634,13838,1061,NA,2,legacy,6,1024,2,48000,-16,experiment,2,even,6,240445,236856,238226,13588,182739,238233,105184,13597,168898,242454,243518,239239,73235,242453,NA,Sternberg task,19,25795,21,yes,1024
90.90909091,90.90909091,1213.818182,1213.818182,black,experiment,legacy,legacy,legacy,0,uniform,1,undefined,1,right,21,21,21,0,0,21,21,0,0,21,21,21,0,21,0,10/25/19 17:35,The main experiment item,yes,Sternbergtask.osexp,C:\Users\Edgar\Documents\Edgar School\Fall 2019\Lab 3-1,no,mono,no,18,no,white,no,yes,768,legacy,9,11,C:/Users/Edgar/Documents/Edgar School/Fall 2019/Lab 3-1/MJ-subject-2.csv,legacy,2 8 9 4 1,Kafkaesque Koffka,3.2.8,0,n,0,right,right,right,right,NA,909,59634,13838,909,NA,2,legacy,5,1024,2,48000,-16,experiment,2,even,5,247128,243557,244908,13588,182739,244916,105184,13597,168898,249135,250046,245922,73235,249134,NA,Sternberg task,20,26704,22,yes,1024
91.30434783,91.30434783,1211.565217,1211.565217,black,experiment,legacy,legacy,legacy,0,uniform,1,undefined,1,left,22,22,22,0,0,22,22,0,0,22,22,22,0,22,0,10/25/19 17:35,The main experiment item,yes,Sternbergtask.osexp,C:\Users\Edgar\Documents\Edgar School\Fall 2019\Lab 3-1,no,mono,no,18,no,white,no,yes,768,legacy,10,11,C:/Users/Edgar/Documents/Edgar School/Fall 2019/Lab 3-1/MJ-subject-2.csv,legacy,8,Kafkaesque Koffka,3.2.8,1,y,0,left,right,right,left,NA,1162,59634,13838,1162,NA,2,legacy,1,1024,2,48000,-16,experiment,2,even,8,253686,250103,251467,13588,182739,251474,105184,13597,168898,255693,256858,252479,73235,255693,NA,Sternberg task,21,27866,23,yes,1024
91.66666667,91.66666667,1199.375,1199.375,black,experiment,legacy,legacy,legacy,0,uniform,1,undefined,1,right,23,23,23,0,0,23,23,0,0,23,23,23,0,23,0,10/25/19 17:35,The main experiment item,yes,Sternbergtask.osexp,C:\Users\Edgar\Documents\Edgar School\Fall 2019\Lab 3-1,no,mono,no,18,no,white,no,yes,768,legacy,11,11,C:/Users/Edgar/Documents/Edgar School/Fall 2019/Lab 3-1/MJ-subject-2.csv,legacy,7 9,Kafkaesque Koffka,3.2.8,0,n,0,right,right,right,right,NA,919,59634,13838,919,NA,2,legacy,2,1024,2,48000,-16,experiment,2,even,1,260499,256916,258280,13588,182739,258286,105184,13597,168898,262506,263428,259294,73235,262505,NA,Sternberg task,22,28785,24,yes,1024
92,92,1191.8,1191.8,black,experiment,legacy,legacy,legacy,0,uniform,1,undefined,1,left,24,24,24,0,0,24,24,0,0,24,24,24,0,24,0,10/25/19 17:35,The main experiment item,yes,Sternbergtask.osexp,C:\Users\Edgar\Documents\Edgar School\Fall 2019\Lab 3-1,no,mono,no,18,no,white,no,yes,768,legacy,12,11,C:/Users/Edgar/Documents/Edgar School/Fall 2019/Lab 3-1/MJ-subject-2.csv,legacy,7 8 4 6 9 5,Kafkaesque Koffka,3.2.8,4,y,0,left,right,right,left,NA,1010,59634,13838,1010,NA,2,legacy,6,1024,2,48000,-16,experiment,2,even,6,267076,263494,264854,13588,182739,264862,105184,13597,168898,269083,270095,265870,73235,269082,NA,Sternberg task,23,29795,25,yes,1024
92.30769231,92.30769231,1177.5,1177.5,black,experiment,legacy,legacy,legacy,0,uniform,1,undefined,1,right,25,25,25,0,0,25,25,0,0,25,25,25,0,25,0,10/25/19 17:35,The main experiment item,yes,Sternbergtask.osexp,C:\Users\Edgar\Documents\Edgar School\Fall 2019\Lab 3-1,no,mono,no,18,no,white,no,yes,768,legacy,13,11,C:/Users/Edgar/Documents/Edgar School/Fall 2019/Lab 3-1/MJ-subject-2.csv,legacy,1 6 4,Kafkaesque Koffka,3.2.8,0,n,0,right,right,right,right,NA,820,59634,13838,820,NA,2,legacy,3,1024,2,48000,-16,experiment,2,even,7,273721,270160,271501,13588,182739,271510,105184,13597,168898,275728,276551,272516,73235,275728,NA,Sternberg task,24,30615,26,yes,1024
92.59259259,92.59259259,1163.407407,1163.407407,black,experiment,legacy,legacy,legacy,0,uniform,1,undefined,1,right,26,26,26,0,0,26,26,0,0,26,26,26,0,26,0,10/25/19 17:35,The main experiment item,yes,Sternbergtask.osexp,C:\Users\Edgar\Documents\Edgar School\Fall 2019\Lab 3-1,no,mono,no,18,no,white,no,yes,768,legacy,14,11,C:/Users/Edgar/Documents/Edgar School/Fall 2019/Lab 3-1/MJ-subject-2.csv,legacy,6 7 5 9,Kafkaesque Koffka,3.2.8,0,n,0,right,right,right,right,NA,797,59634,13838,797,NA,2,legacy,4,1024,2,48000,-16,experiment,2,even,2,280197,276607,277975,13588,182739,277982,105184,13597,168898,282203,283003,278990,73235,282203,NA,Sternberg task,25,31412,27,yes,1024
92.85714286,92.85714286,1161.428571,1161.428571,black,experiment,legacy,legacy,legacy,0,uniform,1,undefined,1,right,27,27,27,0,0,27,27,0,0,27,27,27,0,27,0,10/25/19 17:35,The main experiment item,yes,Sternbergtask.osexp,C:\Users\Edgar\Documents\Edgar School\Fall 2019\Lab 3-1,no,mono,no,18,no,white,no,yes,768,legacy,15,11,C:/Users/Edgar/Documents/Edgar School/Fall 2019/Lab 3-1/MJ-subject-2.csv,legacy,1 7 8 3 9,Kafkaesque Koffka,3.2.8,0,n,0,right,right,right,right,NA,1108,59634,13838,1108,NA,2,legacy,5,1024,2,48000,-16,experiment,2,even,2,286645,283064,284423,13588,182739,284431,105184,13597,168898,288656,289766,285438,73235,288655,NA,Sternberg task,26,32520,28,yes,1024
93.10344828,93.10344828,1157.241379,1157.241379,black,experiment,legacy,legacy,legacy,0,uniform,1,undefined,1,right,28,28,28,0,0,28,28,0,0,28,28,28,0,28,0,10/25/19 17:35,The main experiment item,yes,Sternbergtask.osexp,C:\Users\Edgar\Documents\Edgar School\Fall 2019\Lab 3-1,no,mono,no,18,no,white,no,yes,768,legacy,16,11,C:/Users/Edgar/Documents/Edgar School/Fall 2019/Lab 3-1/MJ-subject-2.csv,legacy,5 7 3,Kafkaesque Koffka,3.2.8,0,n,0,right,right,right,right,NA,1040,59634,13838,1040,NA,2,legacy,3,1024,2,48000,-16,experiment,2,even,9,293425,289819,291203,13588,182739,291210,105184,13597,168898,295434,296478,292219,73235,295433,NA,Sternberg task,27,33560,29,yes,1024
93.33333333,93.33333333,1153.066667,1153.066667,black,experiment,legacy,legacy,legacy,0,uniform,1,undefined,1,left,29,29,29,0,0,29,29,0,0,29,29,29,0,29,0,10/25/19 17:35,The main experiment item,yes,Sternbergtask.osexp,C:\Users\Edgar\Documents\Edgar School\Fall 2019\Lab 3-1,no,mono,no,18,no,white,no,yes,768,legacy,17,11,C:/Users/Edgar/Documents/Edgar School/Fall 2019/Lab 3-1/MJ-subject-2.csv,legacy,9 5 8 1,Kafkaesque Koffka,3.2.8,2,y,0,left,right,right,left,NA,1032,59634,13838,1032,NA,2,legacy,4,1024,2,48000,-16,experiment,2,even,5,300101,296520,297883,13588,182739,297890,105184,13597,168898,302108,303143,298895,73235,302108,NA,Sternberg task,28,34592,30,yes,1024
93.5483871,93.5483871,1146.903226,1146.903226,black,experiment,legacy,legacy,legacy,0,uniform,1,undefined,1,right,30,30,30,0,0,30,30,0,0,30,30,30,0,30,0,10/25/19 17:35,The main experiment item,yes,Sternbergtask.osexp,C:\Users\Edgar\Documents\Edgar School\Fall 2019\Lab 3-1,no,mono,no,18,no,white,no,yes,768,legacy,18,11,C:/Users/Edgar/Documents/Edgar School/Fall 2019/Lab 3-1/MJ-subject-2.csv,legacy,8 5 7 3 6,Kafkaesque Koffka,3.2.8,0,n,0,right,right,right,right,NA,962,59634,13838,962,NA,2,legacy,5,1024,2,48000,-16,experiment,2,even,9,306755,303188,304532,13588,182739,304539,105184,13597,168898,308762,309728,305547,73235,308762,NA,Sternberg task,29,35554,31,yes,1024
93.75,93.75,1139.21875,1139.21875,black,experiment,legacy,legacy,legacy,0,uniform,1,undefined,1,left,31,31,31,0,0,31,31,0,0,31,31,31,0,31,0,10/25/19 17:35,The main experiment item,yes,Sternbergtask.osexp,C:\Users\Edgar\Documents\Edgar School\Fall 2019\Lab 3-1,no,mono,no,18,no,white,no,yes,768,legacy,19,11,C:/Users/Edgar/Documents/Edgar School/Fall 2019/Lab 3-1/MJ-subject-2.csv,legacy,7 1 3,Kafkaesque Koffka,3.2.8,2,y,0,left,right,right,left,NA,901,59634,13838,901,NA,2,legacy,3,1024,2,48000,-16,experiment,2,even,1,313354,309790,311134,13588,182739,311141,105184,13597,168898,315362,316265,312147,73235,315362,NA,Sternberg task,30,36455,32,yes,1024
93.93939394,93.93939394,1127.242424,1127.242424,black,experiment,legacy,legacy,legacy,0,uniform,1,undefined,1,right,32,32,32,0,0,32,32,0,0,32,32,32,0,32,0,10/25/19 17:35,The main experiment item,yes,Sternbergtask.osexp,C:\Users\Edgar\Documents\Edgar School\Fall 2019\Lab 3-1,no,mono,no,18,no,white,no,yes,768,legacy,20,11,C:/Users/Edgar/Documents/Edgar School/Fall 2019/Lab 3-1/MJ-subject-2.csv,legacy,7 1,Kafkaesque Koffka,3.2.8,0,n,0,right,right,right,right,NA,744,59634,13838,744,NA,2,legacy,2,1024,2,48000,-16,experiment,2,even,8,319908,316324,317688,13588,182739,317695,105184,13597,168898,321917,322665,318703,73235,321917,NA,Sternberg task,31,37199,33,yes,1024
94.11764706,94.11764706,1120.705882,1120.705882,black,experiment,legacy,legacy,legacy,0,uniform,1,undefined,1,right,33,33,33,0,0,33,33,0,0,33,33,33,0,33,0,10/25/19 17:35,The main experiment item,yes,Sternbergtask.osexp,C:\Users\Edgar\Documents\Edgar School\Fall 2019\Lab 3-1,no,mono,no,18,no,white,no,yes,768,legacy,21,11,C:/Users/Edgar/Documents/Edgar School/Fall 2019/Lab 3-1/MJ-subject-2.csv,legacy,6 2 9 3 8 4,Kafkaesque Koffka,3.2.8,0,n,0,right,right,right,right,NA,905,59634,13838,905,NA,2,legacy,6,1024,2,48000,-16,experiment,2,even,1,326295,322715,324073,13588,182739,324080,105184,13597,168898,328303,329210,325088,73235,328303,NA,Sternberg task,32,38104,34,yes,1024
94.28571429,94.28571429,1123.685714,1123.685714,black,experiment,legacy,legacy,legacy,0,uniform,1,undefined,1,right,34,34,34,0,0,34,34,0,0,34,34,34,0,34,0,10/25/19 17:35,The main experiment item,yes,Sternbergtask.osexp,C:\Users\Edgar\Documents\Edgar School\Fall 2019\Lab 3-1,no,mono,no,18,no,white,no,yes,768,legacy,22,11,C:/Users/Edgar/Documents/Edgar School/Fall 2019/Lab 3-1/MJ-subject-2.csv,legacy,6 9 4 5 3 2,Kafkaesque Koffka,3.2.8,0,n,0,right,right,right,right,NA,1225,59634,13838,1225,NA,2,legacy,6,1024,2,48000,-16,experiment,2,even,8,332852,329272,330632,13588,182739,330640,105184,13597,168898,334859,336087,331646,73235,334858,NA,Sternberg task,33,39329,35,yes,1024
94.44444444,94.44444444,1117.5,1117.5,black,experiment,legacy,legacy,legacy,0,uniform,1,undefined,1,right,35,35,35,0,0,35,35,0,0,35,35,35,0,35,0,10/25/19 17:35,The main experiment item,yes,Sternbergtask.osexp,C:\Users\Edgar\Documents\Edgar School\Fall 2019\Lab 3-1,no,mono,no,18,no,white,no,yes,768,legacy,23,11,C:/Users/Edgar/Documents/Edgar School/Fall 2019/Lab 3-1/MJ-subject-2.csv,legacy,7 4 2 8 1 9,Kafkaesque Koffka,3.2.8,0,n,0,right,right,right,right,NA,901,59634,13838,901,NA,2,legacy,6,1024,2,48000,-16,experiment,2,even,5,339745,336149,337523,13588,182739,337530,105184,13597,168898,341752,342655,338538,73235,341752,NA,Sternberg task,34,40230,36,yes,1024
94.59459459,94.59459459,1114.081081,1114.081081,black,experiment,legacy,legacy,legacy,0,uniform,1,undefined,1,right,36,36,36,0,0,36,36,0,0,36,36,36,0,36,0,10/25/19 17:35,The main experiment item,yes,Sternbergtask.osexp,C:\Users\Edgar\Documents\Edgar School\Fall 2019\Lab 3-1,no,mono,no,18,no,white,no,yes,768,legacy,24,11,C:/Users/Edgar/Documents/Edgar School/Fall 2019/Lab 3-1/MJ-subject-2.csv,legacy,1 3 2 6 9,Kafkaesque Koffka,3.2.8,0,n,0,right,right,right,right,NA,991,59634,13838,991,NA,2,legacy,5,1024,2,48000,-16,experiment,2,even,5,346335,342718,344112,13588,182739,344120,105184,13597,168898,348342,349337,345128,73235,348341,NA,Sternberg task,35,41221,37,yes,1024
94.73684211,94.73684211,1110.342105,1110.342105,black,experiment,legacy,legacy,legacy,0,uniform,1,undefined,1,left,37,37,37,0,0,37,37,0,0,37,37,37,0,37,0,10/25/19 17:35,The main experiment item,yes,Sternbergtask.osexp,C:\Users\Edgar\Documents\Edgar School\Fall 2019\Lab 3-1,no,mono,no,18,no,white,no,yes,768,legacy,25,11,C:/Users/Edgar/Documents/Edgar School/Fall 2019/Lab 3-1/MJ-subject-2.csv,legacy,9 4 2,Kafkaesque Koffka,3.2.8,1,y,0,left,right,right,left,NA,972,59634,13838,972,NA,2,legacy,3,1024,2,48000,-16,experiment,2,even,9,353063,349433,350840,13588,182739,350849,105184,13597,168898,355069,356044,351856,73235,355068,NA,Sternberg task,36,42193,38,yes,1024
94.87179487,94.87179487,1107.487179,1107.487179,black,experiment,legacy,legacy,legacy,0,uniform,1,undefined,1,right,38,38,38,0,0,38,38,0,0,38,38,38,0,38,0,10/25/19 17:35,The main experiment item,yes,Sternbergtask.osexp,C:\Users\Edgar\Documents\Edgar School\Fall 2019\Lab 3-1,no,mono,no,18,no,white,no,yes,768,legacy,26,11,C:/Users/Edgar/Documents/Edgar School/Fall 2019/Lab 3-1/MJ-subject-2.csv,legacy,8 4 3 5,Kafkaesque Koffka,3.2.8,0,n,0,right,right,right,right,NA,999,59634,13838,999,NA,2,legacy,4,1024,2,48000,-16,experiment,2,even,6,359681,356098,357462,13588,182739,357469,105184,13597,168898,361687,362688,358474,73235,361687,NA,Sternberg task,37,43192,39,yes,1024
95,95,1106.65,1106.65,black,experiment,legacy,legacy,legacy,0,uniform,1,undefined,1,left,39,39,39,0,0,39,39,0,0,39,39,39,0,39,0,10/25/19 17:35,The main experiment item,yes,Sternbergtask.osexp,C:\Users\Edgar\Documents\Edgar School\Fall 2019\Lab 3-1,no,mono,no,18,no,white,no,yes,768,legacy,27,11,C:/Users/Edgar/Documents/Edgar School/Fall 2019/Lab 3-1/MJ-subject-2.csv,legacy,4 9 7 8 5 3,Kafkaesque Koffka,3.2.8,4,y,0,left,right,right,left,NA,1074,59634,13838,1074,NA,2,legacy,6,1024,2,48000,-16,experiment,2,even,8,366337,362727,364117,13588,182739,364124,105184,13597,168898,368343,369420,365131,73235,368342,NA,Sternberg task,38,44266,40,yes,1024
95.12195122,95.12195122,1107.926829,1107.926829,black,experiment,legacy,legacy,legacy,0,uniform,1,undefined,1,left,40,40,40,0,0,40,40,0,0,40,40,40,0,40,0,10/25/19 17:35,The main experiment item,yes,Sternbergtask.osexp,C:\Users\Edgar\Documents\Edgar School\Fall 2019\Lab 3-1,no,mono,no,18,no,white,no,yes,768,legacy,28,11,C:/Users/Edgar/Documents/Edgar School/Fall 2019/Lab 3-1/MJ-subject-2.csv,legacy,5 2 6,Kafkaesque Koffka,3.2.8,2,y,0,left,right,right,left,NA,1159,59634,13838,1159,NA,2,legacy,3,1024,2,48000,-16,experiment,2,even,2,373060,369477,370838,13588,182739,370847,105184,13597,168898,375067,376230,371853,73235,375066,NA,Sternberg task,39,45425,41,yes,1024
95.23809524,95.23809524,1103.047619,1103.047619,black,experiment,legacy,legacy,legacy,0,uniform,1,undefined,1,left,41,41,41,0,0,41,41,0,0,41,41,41,0,41,0,10/25/19 17:35,The main experiment item,yes,Sternbergtask.osexp,C:\Users\Edgar\Documents\Edgar School\Fall 2019\Lab 3-1,no,mono,no,18,no,white,no,yes,768,legacy,29,11,C:/Users/Edgar/Documents/Edgar School/Fall 2019/Lab 3-1/MJ-subject-2.csv,legacy,8 1 6,Kafkaesque Koffka,3.2.8,3,y,0,left,right,right,left,NA,903,59634,13838,903,NA,2,legacy,3,1024,2,48000,-16,experiment,2,even,6,379866,376289,377644,13588,182739,377652,105184,13597,168898,381872,382778,378660,73235,381871,NA,Sternberg task,40,46328,42,yes,1024
95.34883721,95.34883721,1109.255814,1109.255814,black,experiment,legacy,legacy,legacy,0,uniform,1,undefined,1,left,42,42,42,0,0,42,42,0,0,42,42,42,0,42,0,10/25/19 17:35,The main experiment item,yes,Sternbergtask.osexp,C:\Users\Edgar\Documents\Edgar School\Fall 2019\Lab 3-1,no,mono,no,18,no,white,no,yes,768,legacy,30,11,C:/Users/Edgar/Documents/Edgar School/Fall 2019/Lab 3-1/MJ-subject-2.csv,legacy,4 7 6 8 2 3,Kafkaesque Koffka,3.2.8,6,y,0,left,right,right,left,NA,1370,59634,13838,1370,NA,2,legacy,6,1024,2,48000,-16,experiment,2,even,3,386386,382808,384164,13588,182739,384173,105184,13597,168898,388393,389768,385180,73235,388393,NA,Sternberg task,41,47698,43,yes,1024
95.45454545,95.45454545,1103.159091,1103.159091,black,experiment,legacy,legacy,legacy,0,uniform,1,undefined,1,left,43,43,43,0,0,43,43,0,0,43,43,43,0,43,0,10/25/19 17:35,The main experiment item,yes,Sternbergtask.osexp,C:\Users\Edgar\Documents\Edgar School\Fall 2019\Lab 3-1,no,mono,no,18,no,white,no,yes,768,legacy,31,11,C:/Users/Edgar/Documents/Edgar School/Fall 2019/Lab 3-1/MJ-subject-2.csv,legacy,9 6 2 4 1,Kafkaesque Koffka,3.2.8,4,y,0,left,right,right,left,NA,841,59634,13838,841,NA,2,legacy,5,1024,2,48000,-16,experiment,2,even,4,393371,389799,391150,13588,182739,391156,105184,13597,168898,395378,396223,392165,73235,395378,NA,Sternberg task,42,48539,44,yes,1024
95.55555556,95.55555556,1100.066667,1100.066667,black,experiment,legacy,legacy,legacy,0,uniform,1,undefined,1,left,44,44,44,0,0,44,44,0,0,44,44,44,0,44,0,10/25/19 17:35,The main experiment item,yes,Sternbergtask.osexp,C:\Users\Edgar\Documents\Edgar School\Fall 2019\Lab 3-1,no,mono,no,18,no,white,no,yes,768,legacy,32,11,C:/Users/Edgar/Documents/Edgar School/Fall 2019/Lab 3-1/MJ-subject-2.csv,legacy,3 5 9 6 2 4,Kafkaesque Koffka,3.2.8,1,y,0,left,right,right,left,NA,964,59634,13838,964,NA,2,legacy,6,1024,2,48000,-16,experiment,2,even,3,399869,396293,397648,13588,182739,397655,105184,13597,168898,401875,402844,398663,73235,401875,NA,Sternberg task,43,49503,45,yes,1024
95.65217391,95.65217391,1094.456522,1094.456522,black,experiment,legacy,legacy,legacy,0,uniform,1,undefined,1,right,45,45,45,0,0,45,45,0,0,45,45,45,0,45,0,10/25/19 17:35,The main experiment item,yes,Sternbergtask.osexp,C:\Users\Edgar\Documents\Edgar School\Fall 2019\Lab 3-1,no,mono,no,18,no,white,no,yes,768,legacy,33,11,C:/Users/Edgar/Documents/Edgar School/Fall 2019/Lab 3-1/MJ-subject-2.csv,legacy,2 8 6 3 1,Kafkaesque Koffka,3.2.8,0,n,0,right,right,right,right,NA,842,59634,13838,842,NA,2,legacy,5,1024,2,48000,-16,experiment,2,even,7,406470,402904,404251,13588,182739,404258,105184,13597,168898,408477,409324,405263,73235,408477,NA,Sternberg task,44,50345,46,yes,1024
95.74468085,95.74468085,1089.042553,1089.042553,black,experiment,legacy,legacy,legacy,0,uniform,1,undefined,1,right,46,46,46,0,0,46,46,0,0,46,46,46,0,46,0,10/25/19 17:35,The main experiment item,yes,Sternbergtask.osexp,C:\Users\Edgar\Documents\Edgar School\Fall 2019\Lab 3-1,no,mono,no,18,no,white,no,yes,768,legacy,34,11,C:/Users/Edgar/Documents/Edgar School/Fall 2019/Lab 3-1/MJ-subject-2.csv,legacy,8 2 1 4 5 9,Kafkaesque Koffka,3.2.8,0,n,0,right,right,right,right,NA,840,59634,13838,840,NA,2,legacy,6,1024,2,48000,-16,experiment,2,even,7,412991,409397,410770,13588,182739,410778,105184,13597,168898,414997,415841,411785,73235,414997,NA,Sternberg task,45,51185,47,yes,1024
95.83333333,95.83333333,1087.604167,1087.604167,black,experiment,legacy,legacy,legacy,0,uniform,1,undefined,1,left,47,47,47,0,0,47,47,0,0,47,47,47,0,47,0,10/25/19 17:35,The main experiment item,yes,Sternbergtask.osexp,C:\Users\Edgar\Documents\Edgar School\Fall 2019\Lab 3-1,no,mono,no,18,no,white,no,yes,768,legacy,35,11,C:/Users/Edgar/Documents/Edgar School/Fall 2019/Lab 3-1/MJ-subject-2.csv,legacy,6 7 8 5,Kafkaesque Koffka,3.2.8,3,y,0,left,right,right,left,NA,1020,59634,13838,1020,NA,2,legacy,4,1024,2,48000,-16,experiment,2,even,8,419470,415886,417250,13588,182739,417256,105184,13597,168898,421481,422504,418263,73235,421480,NA,Sternberg task,46,52205,48,yes,1024
95.91836735,95.91836735,1081.367347,1081.367347,black,experiment,legacy,legacy,legacy,0,uniform,1,undefined,1,right,48,48,48,0,0,48,48,0,0,48,48,48,0,48,0,10/25/19 17:35,The main experiment item,yes,Sternbergtask.osexp,C:\Users\Edgar\Documents\Edgar School\Fall 2019\Lab 3-1,no,mono,no,18,no,white,no,yes,768,legacy,36,11,C:/Users/Edgar/Documents/Edgar School/Fall 2019/Lab 3-1/MJ-subject-2.csv,legacy,1 8 7,Kafkaesque Koffka,3.2.8,0,n,0,right,right,right,right,NA,782,59634,13838,782,NA,2,legacy,3,1024,2,48000,-16,experiment,2,even,4,426168,422563,423947,13588,182739,423953,105184,13597,168898,428175,428961,424960,73235,428174,NA,Sternberg task,47,52987,49,yes,1024
96,96,1077.64,1077.64,black,experiment,legacy,legacy,legacy,0,uniform,1,undefined,1,left,49,49,49,0,0,49,49,0,0,49,49,49,0,49,0,10/25/19 17:35,The main experiment item,yes,Sternbergtask.osexp,C:\Users\Edgar\Documents\Edgar School\Fall 2019\Lab 3-1,no,mono,no,18,no,white,no,yes,768,legacy,37,11,C:/Users/Edgar/Documents/Edgar School/Fall 2019/Lab 3-1/MJ-subject-2.csv,legacy,2 4 6 9,Kafkaesque Koffka,3.2.8,3,y,0,left,right,right,left,NA,895,59634,13838,895,NA,2,legacy,4,1024,2,48000,-16,experiment,2,even,6,432604,429021,430382,13588,182739,430390,105184,13597,168898,434610,435508,431397,73235,434610,NA,Sternberg task,48,53882,50,yes,1024
96.07843137,96.07843137,1075.509804,1075.509804,black,experiment,legacy,legacy,legacy,0,uniform,1,undefined,1,right,50,50,50,0,0,50,50,0,0,50,50,50,0,50,0,10/25/19 17:35,The main experiment item,yes,Sternbergtask.osexp,C:\Users\Edgar\Documents\Edgar School\Fall 2019\Lab 3-1,no,mono,no,18,no,white,no,yes,768,legacy,38,11,C:/Users/Edgar/Documents/Edgar School/Fall 2019/Lab 3-1/MJ-subject-2.csv,legacy,1 5 3 2 8,Kafkaesque Koffka,3.2.8,0,n,0,right,right,right,right,NA,969,59634,13838,969,NA,2,legacy,5,1024,2,48000,-16,experiment,2,even,4,439154,435563,436931,13588,182739,436939,105184,13597,168898,441161,442134,437949,73235,441160,NA,Sternberg task,49,54851,51,yes,1024
96.15384615,96.15384615,1072.807692,1072.807692,black,experiment,legacy,legacy,legacy,0,uniform,1,undefined,1,left,51,51,51,0,0,51,51,0,0,51,51,51,0,51,0,10/25/19 17:35,The main experiment item,yes,Sternbergtask.osexp,C:\Users\Edgar\Documents\Edgar School\Fall 2019\Lab 3-1,no,mono,no,18,no,white,no,yes,768,legacy,39,11,C:/Users/Edgar/Documents/Edgar School/Fall 2019/Lab 3-1/MJ-subject-2.csv,legacy,9 8 4,Kafkaesque Koffka,3.2.8,1,y,0,left,right,right,left,NA,935,59634,13838,935,NA,2,legacy,3,1024,2,48000,-16,experiment,2,even,9,445834,442246,443614,13588,182739,443621,105184,13597,168898,447841,448781,444628,73235,447840,NA,Sternberg task,50,55786,52,yes,1024
96.22641509,96.22641509,1070.09434,1070.09434,black,experiment,legacy,legacy,legacy,0,uniform,1,undefined,1,left,52,52,52,0,0,52,52,0,0,52,52,52,0,52,0,10/25/19 17:35,The main experiment item,yes,Sternbergtask.osexp,C:\Users\Edgar\Documents\Edgar School\Fall 2019\Lab 3-1,no,mono,no,18,no,white,no,yes,768,legacy,40,11,C:/Users/Edgar/Documents/Edgar School/Fall 2019/Lab 3-1/MJ-subject-2.csv,legacy,7 8 6 3 1,Kafkaesque Koffka,3.2.8,5,y,0,left,right,right,left,NA,929,59634,13838,929,NA,2,legacy,5,1024,2,48000,-16,experiment,2,even,1,452421,448836,450200,13588,182739,450207,105184,13597,168898,454427,455362,451214,73235,454426,NA,Sternberg task,51,56715,53,yes,1024
96.2962963,96.2962963,1068.055556,1068.055556,black,experiment,legacy,legacy,legacy,0,uniform,1,undefined,1,right,53,53,53,0,0,53,53,0,0,53,53,53,0,53,0,10/25/19 17:35,The main experiment item,yes,Sternbergtask.osexp,C:\Users\Edgar\Documents\Edgar School\Fall 2019\Lab 3-1,no,mono,no,18,no,white,no,yes,768,legacy,41,11,C:/Users/Edgar/Documents/Edgar School/Fall 2019/Lab 3-1/MJ-subject-2.csv,legacy,7 9 1 6,Kafkaesque Koffka,3.2.8,0,n,0,right,right,right,right,NA,960,59634,13838,960,NA,2,legacy,4,1024,2,48000,-16,experiment,2,even,4,458997,455404,456776,13588,182739,456783,105184,13597,168898,461004,461969,457790,73235,461004,NA,Sternberg task,52,57675,54,yes,1024
96.36363636,96.36363636,1066.727273,1066.727273,black,experiment,legacy,legacy,legacy,0,uniform,1,undefined,1,right,54,54,54,0,0,54,54,0,0,54,54,54,0,54,0,10/25/19 17:35,The main experiment item,yes,Sternbergtask.osexp,C:\Users\Edgar\Documents\Edgar School\Fall 2019\Lab 3-1,no,mono,no,18,no,white,no,yes,768,legacy,42,11,C:/Users/Edgar/Documents/Edgar School/Fall 2019/Lab 3-1/MJ-subject-2.csv,legacy,5 9 2 3,Kafkaesque Koffka,3.2.8,0,n,0,right,right,right,right,NA,995,59634,13838,995,NA,2,legacy,4,1024,2,48000,-16,experiment,2,even,8,465615,462039,463394,13588,182739,463401,105184,13597,168898,467621,468622,464407,73235,467620,NA,Sternberg task,53,58670,55,yes,1024
96.42857143,96.42857143,1065.589286,1065.589286,black,experiment,legacy,legacy,legacy,0,uniform,1,undefined,1,left,55,55,55,0,0,55,55,0,0,55,55,55,0,55,0,10/25/19 17:35,The main experiment item,yes,Sternbergtask.osexp,C:\Users\Edgar\Documents\Edgar School\Fall 2019\Lab 3-1,no,mono,no,18,no,white,no,yes,768,legacy,43,11,C:/Users/Edgar/Documents/Edgar School/Fall 2019/Lab 3-1/MJ-subject-2.csv,legacy,8 9 5 6 7,Kafkaesque Koffka,3.2.8,1,y,0,left,right,right,left,NA,1003,59634,13838,1003,NA,2,legacy,5,1024,2,48000,-16,experiment,2,even,8,472271,468700,470052,13588,182739,470060,105184,13597,168898,474276,475284,471066,73235,474276,NA,Sternberg task,54,59673,56,yes,1024
96.49122807,96.49122807,1061.54386,1061.54386,black,experiment,legacy,legacy,legacy,0,uniform,1,undefined,1,right,56,56,56,0,0,56,56,0,0,56,56,56,0,56,0,10/25/19 17:35,The main experiment item,yes,Sternbergtask.osexp,C:\Users\Edgar\Documents\Edgar School\Fall 2019\Lab 3-1,no,mono,no,18,no,white,no,yes,768,legacy,44,11,C:/Users/Edgar/Documents/Edgar School/Fall 2019/Lab 3-1/MJ-subject-2.csv,legacy,1 4 9 2 5,Kafkaesque Koffka,3.2.8,0,n,0,right,right,right,right,NA,835,59634,13838,835,NA,2,legacy,5,1024,2,48000,-16,experiment,2,even,7,478924,475351,476703,13588,182739,476709,105184,13597,168898,480932,481777,477717,73235,480932,NA,Sternberg task,55,60508,57,yes,1024
96.55172414,96.55172414,1056.258621,1056.258621,black,experiment,legacy,legacy,legacy,0,uniform,1,undefined,1,right,57,57,57,0,0,57,57,0,0,57,57,57,0,57,0,10/25/19 17:35,The main experiment item,yes,Sternbergtask.osexp,C:\Users\Edgar\Documents\Edgar School\Fall 2019\Lab 3-1,no,mono,no,18,no,white,no,yes,768,legacy,45,11,C:/Users/Edgar/Documents/Edgar School/Fall 2019/Lab 3-1/MJ-subject-2.csv,legacy,4 1,Kafkaesque Koffka,3.2.8,0,n,0,right,right,right,right,NA,755,59634,13838,755,NA,2,legacy,2,1024,2,48000,-16,experiment,2,even,6,485403,481843,483184,13588,182739,483191,105184,13597,168898,487410,488169,484197,73235,487410,NA,Sternberg task,56,61263,58,yes,1024
96.61016949,96.61016949,1057.932203,1057.932203,black,experiment,legacy,legacy,legacy,0,uniform,1,undefined,1,right,58,58,58,0,0,58,58,0,0,58,58,58,0,58,0,10/25/19 17:35,The main experiment item,yes,Sternbergtask.osexp,C:\Users\Edgar\Documents\Edgar School\Fall 2019\Lab 3-1,no,mono,no,18,no,white,no,yes,768,legacy,46,11,C:/Users/Edgar/Documents/Edgar School/Fall 2019/Lab 3-1/MJ-subject-2.csv,legacy,5 3 8 7 2 4,Kafkaesque Koffka,3.2.8,0,n,0,right,right,right,right,NA,1155,59634,13838,1155,NA,2,legacy,6,1024,2,48000,-16,experiment,2,even,9,491800,488221,489580,13588,182739,489587,105184,13597,168898,493808,494966,490593,73235,493807,NA,Sternberg task,57,62418,59,yes,1024
96.66666667,96.66666667,1055.466667,1055.466667,black,experiment,legacy,legacy,legacy,0,uniform,1,undefined,1,right,59,59,59,0,0,59,59,0,0,59,59,59,0,59,0,10/25/19 17:35,The main experiment item,yes,Sternbergtask.osexp,C:\Users\Edgar\Documents\Edgar School\Fall 2019\Lab 3-1,no,mono,no,18,no,white,no,yes,768,legacy,47,11,C:/Users/Edgar/Documents/Edgar School/Fall 2019/Lab 3-1/MJ-subject-2.csv,legacy,2 6 4 3 9,Kafkaesque Koffka,3.2.8,0,n,0,right,right,right,right,NA,910,59634,13838,910,NA,2,legacy,5,1024,2,48000,-16,experiment,2,even,1,498690,495033,496467,13588,182739,496476,105184,13597,168898,500699,501615,497483,73235,500698,NA,Sternberg task,58,63328,60,yes,1024
96.72131148,96.72131148,1053.737705,1053.737705,black,experiment,legacy,legacy,legacy,0,uniform,1,undefined,1,right,60,60,60,0,0,60,60,0,0,60,60,60,0,60,0,10/25/19 17:35,The main experiment item,yes,Sternbergtask.osexp,C:\Users\Edgar\Documents\Edgar School\Fall 2019\Lab 3-1,no,mono,no,18,no,white,no,yes,768,legacy,48,11,C:/Users/Edgar/Documents/Edgar School/Fall 2019/Lab 3-1/MJ-subject-2.csv,legacy,4 8 1 2,Kafkaesque Koffka,3.2.8,0,n,0,right,right,right,right,NA,950,59634,13838,950,NA,2,legacy,4,1024,2,48000,-16,experiment,2,even,7,505315,501658,503090,13588,182739,503099,105184,13597,168898,507323,508277,504107,73235,507322,NA,Sternberg task,59,64278,61,yes,1024
96.77419355,96.77419355,1050.83871,1050.83871,black,experiment,legacy,legacy,legacy,0,uniform,1,undefined,1,right,61,61,61,0,0,61,61,0,0,61,61,61,0,61,0,10/25/19 17:35,The main experiment item,yes,Sternbergtask.osexp,C:\Users\Edgar\Documents\Edgar School\Fall 2019\Lab 3-1,no,mono,no,18,no,white,no,yes,768,legacy,49,11,C:/Users/Edgar/Documents/Edgar School/Fall 2019/Lab 3-1/MJ-subject-2.csv,legacy,7 1 5 6 3,Kafkaesque Koffka,3.2.8,0,n,0,right,right,right,right,NA,874,59634,13838,874,NA,2,legacy,5,1024,2,48000,-16,experiment,2,even,8,511923,508315,509703,13588,182739,509711,105184,13597,168898,513930,514808,510717,73235,513930,NA,Sternberg task,60,65152,62,yes,1024
96.82539683,96.82539683,1051.587302,1051.587302,black,experiment,legacy,legacy,legacy,0,uniform,1,undefined,1,left,62,62,62,0,0,62,62,0,0,62,62,62,0,62,0,10/25/19 17:35,The main experiment item,yes,Sternbergtask.osexp,C:\Users\Edgar\Documents\Edgar School\Fall 2019\Lab 3-1,no,mono,no,18,no,white,no,yes,768,legacy,50,11,C:/Users/Edgar/Documents/Edgar School/Fall 2019/Lab 3-1/MJ-subject-2.csv,legacy,9 5 3 8 4,Kafkaesque Koffka,3.2.8,1,y,0,left,right,right,left,NA,1098,59634,13838,1098,NA,2,legacy,5,1024,2,48000,-16,experiment,2,even,9,518472,514891,516250,13588,182739,516259,105184,13597,168898,520480,521583,517267,73235,520480,NA,Sternberg task,61,66250,63,yes,1024
96.875,96.875,1059.421875,1059.421875,black,experiment,legacy,legacy,legacy,0,uniform,1,undefined,1,right,63,63,63,0,0,63,63,0,0,63,63,63,0,63,0,10/25/19 17:35,The main experiment item,yes,Sternbergtask.osexp,C:\Users\Edgar\Documents\Edgar School\Fall 2019\Lab 3-1,no,mono,no,18,no,white,no,yes,768,legacy,51,11,C:/Users/Edgar/Documents/Edgar School/Fall 2019/Lab 3-1/MJ-subject-2.csv,legacy,5 3 2 6 9 8,Kafkaesque Koffka,3.2.8,0,n,0,right,right,right,right,NA,1553,59634,13838,1553,NA,2,legacy,6,1024,2,48000,-16,experiment,2,even,4,525214,521638,522993,13588,182739,523001,105184,13597,168898,527222,528780,524008,73235,527221,NA,Sternberg task,62,67803,64,yes,1024
96.92307692,96.92307692,1058.261538,1058.261538,black,experiment,legacy,legacy,legacy,0,uniform,1,undefined,1,left,64,64,64,0,0,64,64,0,0,64,64,64,0,64,0,10/25/19 17:35,The main experiment item,yes,Sternbergtask.osexp,C:\Users\Edgar\Documents\Edgar School\Fall 2019\Lab 3-1,no,mono,no,18,no,white,no,yes,768,legacy,52,11,C:/Users/Edgar/Documents/Edgar School/Fall 2019/Lab 3-1/MJ-subject-2.csv,legacy,6 2,Kafkaesque Koffka,3.2.8,1,y,0,left,right,right,left,NA,984,59634,13838,984,NA,2,legacy,2,1024,2,48000,-16,experiment,2,even,6,532418,528841,530199,13588,182739,530206,105184,13597,168898,534426,535414,531213,73235,534425,NA,Sternberg task,63,68787,65,yes,1024
96.96969697,96.96969697,1054.257576,1054.257576,black,experiment,legacy,legacy,legacy,0,uniform,1,undefined,1,right,65,65,65,0,0,65,65,0,0,65,65,65,0,65,0,10/25/19 17:35,The main experiment item,yes,Sternbergtask.osexp,C:\Users\Edgar\Documents\Edgar School\Fall 2019\Lab 3-1,no,mono,no,18,no,white,no,yes,768,legacy,53,11,C:/Users/Edgar/Documents/Edgar School/Fall 2019/Lab 3-1/MJ-subject-2.csv,legacy,3 9 1,Kafkaesque Koffka,3.2.8,0,n,0,right,right,right,right,NA,794,59634,13838,794,NA,2,legacy,3,1024,2,48000,-16,experiment,2,even,7,539048,535469,536829,13588,182739,536836,105184,13597,168898,541056,541855,537842,73235,541055,NA,Sternberg task,64,69581,66,yes,1024
97.01492537,97.01492537,1051.19403,1051.19403,black,experiment,legacy,legacy,legacy,0,uniform,1,undefined,1,right,66,66,66,0,0,66,66,0,0,66,66,66,0,66,0,10/25/19 17:35,The main experiment item,yes,Sternbergtask.osexp,C:\Users\Edgar\Documents\Edgar School\Fall 2019\Lab 3-1,no,mono,no,18,no,white,no,yes,768,legacy,54,11,C:/Users/Edgar/Documents/Edgar School/Fall 2019/Lab 3-1/MJ-subject-2.csv,legacy,6 9 5,Kafkaesque Koffka,3.2.8,0,n,0,right,right,right,right,NA,849,59634,13838,849,NA,2,legacy,3,1024,2,48000,-16,experiment,2,even,8,545503,541929,543282,13588,182739,543289,105184,13597,168898,547510,548365,544297,73235,547509,NA,Sternberg task,65,70430,67,yes,1024
97.05882353,97.05882353,1050.029412,1050.029412,black,experiment,legacy,legacy,legacy,0,uniform,1,undefined,1,left,67,67,67,0,0,67,67,0,0,67,67,67,0,67,0,10/25/19 17:35,The main experiment item,yes,Sternbergtask.osexp,C:\Users\Edgar\Documents\Edgar School\Fall 2019\Lab 3-1,no,mono,no,18,no,white,no,yes,768,legacy,55,11,C:/Users/Edgar/Documents/Edgar School/Fall 2019/Lab 3-1/MJ-subject-2.csv,legacy,7 6,Kafkaesque Koffka,3.2.8,2,y,0,left,right,right,left,NA,972,59634,13838,972,NA,2,legacy,2,1024,2,48000,-16,experiment,2,even,6,551995,548421,549774,13588,182739,549782,105184,13597,168898,554003,554980,550788,73235,554003,NA,Sternberg task,66,71402,68,yes,1024
97.10144928,97.10144928,1047.869565,1047.869565,black,experiment,legacy,legacy,legacy,0,uniform,1,undefined,1,left,68,68,68,0,0,68,68,0,0,68,68,68,0,68,0,10/25/19 17:35,The main experiment item,yes,Sternbergtask.osexp,C:\Users\Edgar\Documents\Edgar School\Fall 2019\Lab 3-1,no,mono,no,18,no,white,no,yes,768,legacy,56,11,C:/Users/Edgar/Documents/Edgar School/Fall 2019/Lab 3-1/MJ-subject-2.csv,legacy,6 7 9 3 1 2,Kafkaesque Koffka,3.2.8,1,y,0,left,right,right,left,NA,901,59634,13838,901,NA,2,legacy,6,1024,2,48000,-16,experiment,2,even,6,558646,555054,556425,13588,182739,556433,105184,13597,168898,560653,561557,557440,73235,560652,NA,Sternberg task,67,72303,69,yes,1024
97.14285714,97.14285714,1044.285714,1044.285714,black,experiment,legacy,legacy,legacy,0,uniform,1,undefined,1,right,69,69,69,0,0,69,69,0,0,69,69,69,0,69,0,10/25/19 17:35,The main experiment item,yes,Sternbergtask.osexp,C:\Users\Edgar\Documents\Edgar School\Fall 2019\Lab 3-1,no,mono,no,18,no,white,no,yes,768,legacy,57,11,C:/Users/Edgar/Documents/Edgar School/Fall 2019/Lab 3-1/MJ-subject-2.csv,legacy,5,Kafkaesque Koffka,3.2.8,0,n,0,right,right,right,right,NA,797,59634,13838,797,NA,2,legacy,1,1024,2,48000,-16,experiment,2,even,8,565181,561599,562959,13588,182739,562968,105184,13597,168898,567188,567990,563975,73235,567187,NA,Sternberg task,68,73100,70,yes,1024
97.18309859,97.18309859,1042.859155,1042.859155,black,experiment,legacy,legacy,legacy,0,uniform,1,undefined,1,right,70,70,70,0,0,70,70,0,0,70,70,70,0,70,0,10/25/19 17:35,The main experiment item,yes,Sternbergtask.osexp,C:\Users\Edgar\Documents\Edgar School\Fall 2019\Lab 3-1,no,mono,no,18,no,white,no,yes,768,legacy,58,11,C:/Users/Edgar/Documents/Edgar School/Fall 2019/Lab 3-1/MJ-subject-2.csv,legacy,8 4 3 9,Kafkaesque Koffka,3.2.8,0,n,0,right,right,right,right,NA,943,59634,13838,943,NA,2,legacy,4,1024,2,48000,-16,experiment,2,even,5,571658,568074,569437,13588,182739,569444,105184,13597,168898,573665,574613,570451,73235,573664,NA,Sternberg task,69,74043,71,yes,1024
97.22222222,97.22222222,1038.708333,1038.708333,black,experiment,legacy,legacy,legacy,0,uniform,1,undefined,1,right,71,71,71,0,0,71,71,0,0,71,71,71,0,71,0,10/25/19 17:35,The main experiment item,yes,Sternbergtask.osexp,C:\Users\Edgar\Documents\Edgar School\Fall 2019\Lab 3-1,no,mono,no,18,no,white,no,yes,768,legacy,59,11,C:/Users/Edgar/Documents/Edgar School/Fall 2019/Lab 3-1/MJ-subject-2.csv,legacy,5 2,Kafkaesque Koffka,3.2.8,0,n,0,right,right,right,right,NA,744,59634,13838,744,NA,2,legacy,2,1024,2,48000,-16,experiment,2,even,7,578257,574657,576037,13588,182739,576045,105184,13597,168898,580264,581012,577052,73235,580263,NA,Sternberg task,70,74787,72,yes,1024
97.26027397,97.26027397,1046.068493,1046.068493,black,experiment,legacy,legacy,legacy,0,uniform,1,undefined,1,left,72,72,72,0,0,72,72,0,0,72,72,72,0,72,0,10/25/19 17:35,The main experiment item,yes,Sternbergtask.osexp,C:\Users\Edgar\Documents\Edgar School\Fall 2019\Lab 3-1,no,mono,no,18,no,white,no,yes,768,legacy,60,11,C:/Users/Edgar/Documents/Edgar School/Fall 2019/Lab 3-1/MJ-subject-2.csv,legacy,6 1 2,Kafkaesque Koffka,3.2.8,3,y,0,left,right,right,left,NA,1576,59634,13838,1576,NA,2,legacy,3,1024,2,48000,-16,experiment,2,even,2,584638,581082,582415,13588,182739,582423,105184,13597,168898,586645,588226,583430,73235,586645,NA,Sternberg task,71,76363,73,yes,1024
97.2972973,97.2972973,1049.648649,1049.648649,black,experiment,legacy,legacy,legacy,0,uniform,1,undefined,1,right,73,73,73,0,0,73,73,0,0,73,73,73,0,73,0,10/25/19 17:35,The main experiment item,yes,Sternbergtask.osexp,C:\Users\Edgar\Documents\Edgar School\Fall 2019\Lab 3-1,no,mono,no,18,no,white,no,yes,768,legacy,61,11,C:/Users/Edgar/Documents/Edgar School/Fall 2019/Lab 3-1/MJ-subject-2.csv,legacy,1 7 5 2 9,Kafkaesque Koffka,3.2.8,0,n,0,right,right,right,right,NA,1311,59634,13838,1311,NA,2,legacy,5,1024,2,48000,-16,experiment,2,even,3,591834,588271,589613,13588,182739,589620,105184,13597,168898,593839,595154,590626,73235,593839,NA,Sternberg task,72,77674,74,yes,1024
97.33333333,97.33333333,1045.906667,1045.906667,black,experiment,legacy,legacy,legacy,0,uniform,1,undefined,1,right,74,74,74,0,0,74,74,0,0,74,74,74,0,74,0,10/25/19 17:35,The main experiment item,yes,Sternbergtask.osexp,C:\Users\Edgar\Documents\Edgar School\Fall 2019\Lab 3-1,no,mono,no,18,no,white,no,yes,768,legacy,62,11,C:/Users/Edgar/Documents/Edgar School/Fall 2019/Lab 3-1/MJ-subject-2.csv,legacy,8 9,Kafkaesque Koffka,3.2.8,0,n,0,right,right,right,right,NA,769,59634,13838,769,NA,2,legacy,2,1024,2,48000,-16,experiment,2,even,5,598779,595216,596560,13588,182739,596567,105184,13597,168898,600787,601561,597573,73235,600786,NA,Sternberg task,73,78443,75,yes,1024
97.36842105,97.36842105,1045.842105,1045.842105,black,experiment,legacy,legacy,legacy,0,uniform,1,undefined,1,left,75,75,75,0,0,75,75,0,0,75,75,75,0,75,0,10/25/19 17:35,The main experiment item,yes,Sternbergtask.osexp,C:\Users\Edgar\Documents\Edgar School\Fall 2019\Lab 3-1,no,mono,no,18,no,white,no,yes,768,legacy,63,11,C:/Users/Edgar/Documents/Edgar School/Fall 2019/Lab 3-1/MJ-subject-2.csv,legacy,3 4 9 6 2 9,Kafkaesque Koffka,3.2.8,5,y,0,left,right,right,left,NA,1041,59634,13838,1041,NA,2,legacy,6,1024,2,48000,-16,experiment,2,even,2,605199,601617,602978,13588,182739,602985,105184,13597,168898,607206,608250,603993,73235,607206,NA,Sternberg task,74,79484,76,yes,1024
97.4025974,97.4025974,1043.987013,1043.987013,black,experiment,legacy,legacy,legacy,0,uniform,1,undefined,1,left,76,76,76,0,0,76,76,0,0,76,76,76,0,76,0,10/25/19 17:35,The main experiment item,yes,Sternbergtask.osexp,C:\Users\Edgar\Documents\Edgar School\Fall 2019\Lab 3-1,no,mono,no,18,no,white,no,yes,768,legacy,64,11,C:/Users/Edgar/Documents/Edgar School/Fall 2019/Lab 3-1/MJ-subject-2.csv,legacy,2 4 8 5 1 3,Kafkaesque Koffka,3.2.8,1,y,0,left,right,right,left,NA,903,59634,13838,903,NA,2,legacy,6,1024,2,48000,-16,experiment,2,even,2,611924,608325,609703,13588,182739,609712,105184,13597,168898,613932,614840,610717,73235,613932,NA,Sternberg task,75,80387,77,yes,1024
97.43589744,97.43589744,1042.461538,1042.461538,black,experiment,legacy,legacy,legacy,0,uniform,1,undefined,1,right,77,77,77,0,0,77,77,0,0,77,77,77,0,77,0,10/25/19 17:35,The main experiment item,yes,Sternbergtask.osexp,C:\Users\Edgar\Documents\Edgar School\Fall 2019\Lab 3-1,no,mono,no,18,no,white,no,yes,768,legacy,65,11,C:/Users/Edgar/Documents/Edgar School/Fall 2019/Lab 3-1/MJ-subject-2.csv,legacy,4 2 7 6 1 3,Kafkaesque Koffka,3.2.8,0,n,0,right,right,right,right,NA,925,59634,13838,925,NA,2,legacy,6,1024,2,48000,-16,experiment,2,even,8,618485,614905,616266,13588,182739,616273,105184,13597,168898,620494,621423,617278,73235,620493,NA,Sternberg task,76,81312,78,yes,1024
97.46835443,97.46835443,1038.202532,1038.202532,black,experiment,legacy,legacy,legacy,0,uniform,1,undefined,1,right,78,78,78,0,0,78,78,0,0,78,78,78,0,78,0,10/25/19 17:35,The main experiment item,yes,Sternbergtask.osexp,C:\Users\Edgar\Documents\Edgar School\Fall 2019\Lab 3-1,no,mono,no,18,no,white,no,yes,768,legacy,66,11,C:/Users/Edgar/Documents/Edgar School/Fall 2019/Lab 3-1/MJ-subject-2.csv,legacy,3 9 8 1 6 4,Kafkaesque Koffka,3.2.8,0,n,0,right,right,right,right,NA,706,59634,13838,706,NA,2,legacy,6,1024,2,48000,-16,experiment,2,even,7,625085,621487,622857,13588,182739,622869,105184,13597,168898,627091,627803,623878,73235,627091,NA,Sternberg task,77,82018,79,yes,1024
97.5,97.5,1038.3375,1038.3375,black,experiment,legacy,legacy,legacy,0,uniform,1,undefined,1,left,79,79,79,0,0,79,79,0,0,79,79,79,0,79,0,10/25/19 17:35,The main experiment item,yes,Sternbergtask.osexp,C:\Users\Edgar\Documents\Edgar School\Fall 2019\Lab 3-1,no,mono,no,18,no,white,no,yes,768,legacy,67,11,C:/Users/Edgar/Documents/Edgar School/Fall 2019/Lab 3-1/MJ-subject-2.csv,legacy,6 9 3 1,Kafkaesque Koffka,3.2.8,4,y,0,left,right,right,left,NA,1049,59634,13838,1049,NA,2,legacy,4,1024,2,48000,-16,experiment,2,even,1,631467,627874,629248,13588,182739,629256,105184,13597,168898,633475,634528,630261,73235,633474,NA,Sternberg task,78,83067,80,yes,1024
97.5308642,97.5308642,1038.320988,1038.320988,black,experiment,legacy,legacy,legacy,0,uniform,1,undefined,1,left,80,80,80,0,0,80,80,0,0,80,80,80,0,80,0,10/25/19 17:35,The main experiment item,yes,Sternbergtask.osexp,C:\Users\Edgar\Documents\Edgar School\Fall 2019\Lab 3-1,no,mono,no,18,no,white,no,yes,768,legacy,68,11,C:/Users/Edgar/Documents/Edgar School/Fall 2019/Lab 3-1/MJ-subject-2.csv,legacy,9 3 8 2 1 4,Kafkaesque Koffka,3.2.8,3,y,0,left,right,right,left,NA,1037,59634,13838,1037,NA,2,legacy,6,1024,2,48000,-16,experiment,2,even,8,638185,634597,635965,13588,182739,635972,105184,13597,168898,640191,641234,636978,73235,640190,NA,Sternberg task,79,84104,81,yes,1024
97.56097561,97.56097561,1037.97561,1037.97561,black,experiment,legacy,legacy,legacy,0,uniform,1,undefined,1,right,81,81,81,0,0,81,81,0,0,81,81,81,0,81,0,10/25/19 17:35,The main experiment item,yes,Sternbergtask.osexp,C:\Users\Edgar\Documents\Edgar School\Fall 2019\Lab 3-1,no,mono,no,18,no,white,no,yes,768,legacy,69,11,C:/Users/Edgar/Documents/Edgar School/Fall 2019/Lab 3-1/MJ-subject-2.csv,legacy,6 3 1 7 9 8,Kafkaesque Koffka,3.2.8,0,n,0,right,right,right,right,NA,1010,59634,13838,1010,NA,2,legacy,6,1024,2,48000,-16,experiment,2,even,4,644871,641297,642649,13588,182739,642657,105184,13597,168898,646879,647894,643663,73235,646879,NA,Sternberg task,80,85114,82,yes,1024
97.59036145,97.59036145,1036.253012,1036.253012,black,experiment,legacy,legacy,legacy,0,uniform,1,undefined,1,left,82,82,82,0,0,82,82,0,0,82,82,82,0,82,0,10/25/19 17:35,The main experiment item,yes,Sternbergtask.osexp,C:\Users\Edgar\Documents\Edgar School\Fall 2019\Lab 3-1,no,mono,no,18,no,white,no,yes,768,legacy,70,11,C:/Users/Edgar/Documents/Edgar School/Fall 2019/Lab 3-1/MJ-subject-2.csv,legacy,4 6 5 8,Kafkaesque Koffka,3.2.8,1,y,0,left,right,right,left,NA,895,59634,13838,895,NA,2,legacy,4,1024,2,48000,-16,experiment,2,even,4,651584,647960,649361,13588,182739,649370,105184,13597,168898,653591,654493,650375,73235,653591,NA,Sternberg task,81,86009,83,yes,1024
97.61904762,97.61904762,1033.642857,1033.642857,black,experiment,legacy,legacy,legacy,0,uniform,1,undefined,1,left,83,83,83,0,0,83,83,0,0,83,83,83,0,83,0,10/25/19 17:35,The main experiment item,yes,Sternbergtask.osexp,C:\Users\Edgar\Documents\Edgar School\Fall 2019\Lab 3-1,no,mono,no,18,no,white,no,yes,768,legacy,71,11,C:/Users/Edgar/Documents/Edgar School/Fall 2019/Lab 3-1/MJ-subject-2.csv,legacy,2 3,Kafkaesque Koffka,3.2.8,1,y,0,left,right,right,left,NA,817,59634,13838,817,NA,2,legacy,2,1024,2,48000,-16,experiment,2,even,2,658158,654562,655935,13588,182739,655943,105184,13597,168898,660164,660985,656951,73235,660163,NA,Sternberg task,82,86826,84,yes,1024
97.64705882,97.64705882,1032.670588,1032.670588,black,experiment,legacy,legacy,legacy,0,uniform,1,undefined,1,right,84,84,84,0,0,84,84,0,0,84,84,84,0,84,0,10/25/19 17:35,The main experiment item,yes,Sternbergtask.osexp,C:\Users\Edgar\Documents\Edgar School\Fall 2019\Lab 3-1,no,mono,no,18,no,white,no,yes,768,legacy,72,11,C:/Users/Edgar/Documents/Edgar School/Fall 2019/Lab 3-1/MJ-subject-2.csv,legacy,2 5 1 4,Kafkaesque Koffka,3.2.8,0,n,0,right,right,right,right,NA,951,59634,13838,951,NA,2,legacy,4,1024,2,48000,-16,experiment,2,even,6,664624,661044,662400,13588,182739,662407,105184,13597,168898,666631,667587,663416,73235,666630,NA,Sternberg task,83,87777,85,yes,1024
97.6744186,97.6744186,1030.348837,1030.348837,black,experiment,legacy,legacy,legacy,0,uniform,1,undefined,1,right,85,85,85,0,0,85,85,0,0,85,85,85,0,85,0,10/25/19 17:35,The main experiment item,yes,Sternbergtask.osexp,C:\Users\Edgar\Documents\Edgar School\Fall 2019\Lab 3-1,no,mono,no,18,no,white,no,yes,768,legacy,73,11,C:/Users/Edgar/Documents/Edgar School/Fall 2019/Lab 3-1/MJ-subject-2.csv,legacy,6 8 4,Kafkaesque Koffka,3.2.8,0,n,0,right,right,right,right,NA,833,59634,13838,833,NA,2,legacy,3,1024,2,48000,-16,experiment,2,even,1,671274,667688,669053,13588,182739,669063,105184,13597,168898,673284,674124,670069,73235,673283,NA,Sternberg task,84,88610,86,yes,1024
97.70114943,97.70114943,1029.931034,1029.931034,black,experiment,legacy,legacy,legacy,0,uniform,1,undefined,1,left,86,86,86,0,0,86,86,0,0,86,86,86,0,86,0,10/25/19 17:35,The main experiment item,yes,Sternbergtask.osexp,C:\Users\Edgar\Documents\Edgar School\Fall 2019\Lab 3-1,no,mono,no,18,no,white,no,yes,768,legacy,74,11,C:/Users/Edgar/Documents/Edgar School/Fall 2019/Lab 3-1/MJ-subject-2.csv,legacy,3 4,Kafkaesque Koffka,3.2.8,1,y,0,left,right,right,left,NA,994,59634,13838,994,NA,2,legacy,2,1024,2,48000,-16,experiment,2,even,3,677790,674199,675569,13588,182739,675576,105184,13597,168898,679796,680796,676581,73235,679796,NA,Sternberg task,85,89604,87,yes,1024
97.72727273,97.72727273,1028.329545,1028.329545,black,experiment,legacy,legacy,legacy,0,uniform,1,undefined,1,left,87,87,87,0,0,87,87,0,0,87,87,87,0,87,0,10/25/19 17:35,The main experiment item,yes,Sternbergtask.osexp,C:\Users\Edgar\Documents\Edgar School\Fall 2019\Lab 3-1,no,mono,no,18,no,white,no,yes,768,legacy,75,11,C:/Users/Edgar/Documents/Edgar School/Fall 2019/Lab 3-1/MJ-subject-2.csv,legacy,2 3 7 4,Kafkaesque Koffka,3.2.8,1,y,0,left,right,right,left,NA,889,59634,13838,889,NA,2,legacy,4,1024,2,48000,-16,experiment,2,even,2,684416,680848,682195,13588,182739,682201,105184,13597,168898,686423,687317,683210,73235,686422,NA,Sternberg task,86,90493,88,yes,1024
97.75280899,97.75280899,1025.966292,1025.966292,black,experiment,legacy,legacy,legacy,0,uniform,1,undefined,1,left,88,88,88,0,0,88,88,0,0,88,88,88,0,88,0,10/25/19 17:35,The main experiment item,yes,Sternbergtask.osexp,C:\Users\Edgar\Documents\Edgar School\Fall 2019\Lab 3-1,no,mono,no,18,no,white,no,yes,768,legacy,76,11,C:/Users/Edgar/Documents/Edgar School/Fall 2019/Lab 3-1/MJ-subject-2.csv,legacy,2 6 1 7 4,Kafkaesque Koffka,3.2.8,2,y,0,left,right,right,left,NA,818,59634,13838,818,NA,2,legacy,5,1024,2,48000,-16,experiment,2,even,6,690996,687417,688776,13588,182739,688784,105184,13597,168898,693003,693826,689790,73235,693002,NA,Sternberg task,87,91311,89,yes,1024
97.77777778,97.77777778,1024.555556,1024.555556,black,experiment,legacy,legacy,legacy,0,uniform,1,undefined,1,right,89,89,89,0,0,89,89,0,0,89,89,89,0,89,0,10/25/19 17:35,The main experiment item,yes,Sternbergtask.osexp,C:\Users\Edgar\Documents\Edgar School\Fall 2019\Lab 3-1,no,mono,no,18,no,white,no,yes,768,legacy,77,11,C:/Users/Edgar/Documents/Edgar School/Fall 2019/Lab 3-1/MJ-subject-2.csv,legacy,6 8,Kafkaesque Koffka,3.2.8,0,n,0,right,right,right,right,NA,899,59634,13838,899,NA,2,legacy,2,1024,2,48000,-16,experiment,2,even,9,697480,693888,695259,13588,182739,695267,105184,13597,168898,699488,700393,696273,73235,699488,NA,Sternberg task,88,92210,90,yes,1024
96.7032967,96.7032967,1035.274725,1035.274725,black,experiment,legacy,legacy,legacy,0,uniform,0,undefined,0,left,90,90,90,0,0,90,90,0,0,90,90,90,0,90,0,10/25/19 17:35,The main experiment item,yes,Sternbergtask.osexp,C:\Users\Edgar\Documents\Edgar School\Fall 2019\Lab 3-1,no,mono,no,18,no,white,no,yes,768,legacy,78,11,C:/Users/Edgar/Documents/Edgar School/Fall 2019/Lab 3-1/MJ-subject-2.csv,legacy,3 9 7 6 4,Kafkaesque Koffka,3.2.8,3,y,0,None,right,right,None,NA,2000,59634,13838,2000,NA,2,legacy,5,1024,2,48000,-16,experiment,2,even,7,704022,700447,701800,13588,182739,701810,105184,13597,168898,706028,708037,702815,73235,706028,NA,Sternberg task,88,94210,91,yes,1024
96.73913043,96.73913043,1036.608696,1036.608696,black,experiment,legacy,legacy,legacy,0,uniform,1,undefined,1,left,91,91,91,0,0,91,91,0,0,91,91,91,0,91,0,10/25/19 17:35,The main experiment item,yes,Sternbergtask.osexp,C:\Users\Edgar\Documents\Edgar School\Fall 2019\Lab 3-1,no,mono,no,18,no,white,no,yes,768,legacy,79,11,C:/Users/Edgar/Documents/Edgar School/Fall 2019/Lab 3-1/MJ-subject-2.csv,legacy,7 1 8 5 6 2,Kafkaesque Koffka,3.2.8,2,y,0,left,right,right,left,NA,1158,59634,13838,1158,NA,2,legacy,6,1024,2,48000,-16,experiment,2,even,1,711709,700447,709490,13588,182739,709497,708102,13597,168898,713715,714880,710503,73235,713715,NA,Sternberg task,89,95368,92,yes,1024
96.77419355,96.77419355,1034.55914,1034.55914,black,experiment,legacy,legacy,legacy,0,uniform,1,undefined,1,right,92,92,92,0,0,92,92,0,0,92,92,92,0,92,0,10/25/19 17:35,The main experiment item,yes,Sternbergtask.osexp,C:\Users\Edgar\Documents\Edgar School\Fall 2019\Lab 3-1,no,mono,no,18,no,white,no,yes,768,legacy,80,11,C:/Users/Edgar/Documents/Edgar School/Fall 2019/Lab 3-1/MJ-subject-2.csv,legacy,9 7 4 5 8,Kafkaesque Koffka,3.2.8,0,n,0,right,right,right,right,NA,846,59634,13838,846,NA,2,legacy,5,1024,2,48000,-16,experiment,2,even,6,718519,714930,716297,13588,182739,716306,708102,13597,168898,720528,721380,717312,73235,720528,NA,Sternberg task,90,96214,93,yes,1024
96.80851064,96.80851064,1031.797872,1031.797872,black,experiment,legacy,legacy,legacy,0,uniform,1,undefined,1,right,93,93,93,0,0,93,93,0,0,93,93,93,0,93,0,10/25/19 17:35,The main experiment item,yes,Sternbergtask.osexp,C:\Users\Edgar\Documents\Edgar School\Fall 2019\Lab 3-1,no,mono,no,18,no,white,no,yes,768,legacy,81,11,C:/Users/Edgar/Documents/Edgar School/Fall 2019/Lab 3-1/MJ-subject-2.csv,legacy,2 8 7 9 5 3,Kafkaesque Koffka,3.2.8,0,n,0,right,right,right,right,NA,775,59634,13838,775,NA,2,legacy,6,1024,2,48000,-16,experiment,2,even,6,725112,721437,722891,13588,182739,722899,708102,13597,168898,727118,727899,723906,73235,727118,NA,Sternberg task,91,96989,94,yes,1024
96.84210526,96.84210526,1028.989474,1028.989474,black,experiment,legacy,legacy,legacy,0,uniform,1,undefined,1,right,94,94,94,0,0,94,94,0,0,94,94,94,0,94,0,10/25/19 17:35,The main experiment item,yes,Sternbergtask.osexp,C:\Users\Edgar\Documents\Edgar School\Fall 2019\Lab 3-1,no,mono,no,18,no,white,no,yes,768,legacy,82,11,C:/Users/Edgar/Documents/Edgar School/Fall 2019/Lab 3-1/MJ-subject-2.csv,legacy,1 6 4 3 9 7,Kafkaesque Koffka,3.2.8,0,n,0,right,right,right,right,NA,765,59634,13838,765,NA,2,legacy,6,1024,2,48000,-16,experiment,2,even,8,731545,727961,729327,13588,182739,729335,708102,13597,168898,733554,734325,730340,73235,733553,NA,Sternberg task,92,97754,95,yes,1024
96.875,96.875,1030.5625,1030.5625,black,experiment,legacy,legacy,legacy,0,uniform,1,undefined,1,right,95,95,95,0,0,95,95,0,0,95,95,95,0,95,0,10/25/19 17:35,The main experiment item,yes,Sternbergtask.osexp,C:\Users\Edgar\Documents\Edgar School\Fall 2019\Lab 3-1,no,mono,no,18,no,white,no,yes,768,legacy,83,11,C:/Users/Edgar/Documents/Edgar School/Fall 2019/Lab 3-1/MJ-subject-2.csv,legacy,4 2 6 9,Kafkaesque Koffka,3.2.8,0,n,0,right,right,right,right,NA,1180,59634,13838,1180,NA,2,legacy,4,1024,2,48000,-16,experiment,2,even,7,737951,734385,735731,13588,182739,735739,708102,13597,168898,739958,741145,736746,73235,739957,NA,Sternberg task,93,98934,96,yes,1024
96.90721649,96.90721649,1029,1029,black,experiment,legacy,legacy,legacy,0,uniform,1,undefined,1,left,96,96,96,0,0,96,96,0,0,96,96,96,0,96,0,10/25/19 17:35,The main experiment item,yes,Sternbergtask.osexp,C:\Users\Edgar\Documents\Edgar School\Fall 2019\Lab 3-1,no,mono,no,18,no,white,no,yes,768,legacy,84,11,C:/Users/Edgar/Documents/Edgar School/Fall 2019/Lab 3-1/MJ-subject-2.csv,legacy,8 5 4 7 3 1,Kafkaesque Koffka,3.2.8,2,y,0,left,right,right,left,NA,879,59634,13838,879,NA,2,legacy,6,1024,2,48000,-16,experiment,2,even,5,744773,741196,742552,13588,182739,742560,708102,13597,168898,746779,747663,743567,73235,746779,NA,Sternberg task,94,99813,97,yes,1024
96.93877551,96.93877551,1026.887755,1026.887755,black,experiment,legacy,legacy,legacy,0,uniform,1,undefined,1,left,97,97,97,0,0,97,97,0,0,97,97,97,0,97,0,10/25/19 17:35,The main experiment item,yes,Sternbergtask.osexp,C:\Users\Edgar\Documents\Edgar School\Fall 2019\Lab 3-1,no,mono,no,18,no,white,no,yes,768,legacy,85,11,C:/Users/Edgar/Documents/Edgar School/Fall 2019/Lab 3-1/MJ-subject-2.csv,legacy,4 1 8 7 5,Kafkaesque Koffka,3.2.8,3,y,0,left,right,right,left,NA,822,59634,13838,822,NA,2,legacy,5,1024,2,48000,-16,experiment,2,even,8,751314,747714,749092,13588,182739,749100,708102,13597,168898,753320,754147,750107,73235,753319,NA,Sternberg task,95,100635,98,yes,1024
96.96969697,96.96969697,1024.474747,1024.474747,black,experiment,legacy,legacy,legacy,0,uniform,1,undefined,1,left,98,98,98,0,0,98,98,0,0,98,98,98,0,98,0,10/25/19 17:35,The main experiment item,yes,Sternbergtask.osexp,C:\Users\Edgar\Documents\Edgar School\Fall 2019\Lab 3-1,no,mono,no,18,no,white,no,yes,768,legacy,86,11,C:/Users/Edgar/Documents/Edgar School/Fall 2019/Lab 3-1/MJ-subject-2.csv,legacy,3 5 4 7,Kafkaesque Koffka,3.2.8,1,y,0,left,right,right,left,NA,788,59634,13838,788,NA,2,legacy,4,1024,2,48000,-16,experiment,2,even,3,757814,754218,755591,13588,182739,755599,708102,13597,168898,759820,760615,756606,73235,759819,NA,Sternberg task,96,101423,99,yes,1024
97,97,1022.2,1022.2,black,experiment,legacy,legacy,legacy,0,uniform,1,undefined,1,left,99,99,99,0,0,99,99,0,0,99,99,99,0,99,0,10/25/19 17:35,The main experiment item,yes,Sternbergtask.osexp,C:\Users\Edgar\Documents\Edgar School\Fall 2019\Lab 3-1,no,mono,no,18,no,white,no,yes,768,legacy,87,11,C:/Users/Edgar/Documents/Edgar School/Fall 2019/Lab 3-1/MJ-subject-2.csv,legacy,7,Kafkaesque Koffka,3.2.8,1,y,0,left,right,right,left,NA,797,59634,13838,797,NA,2,legacy,1,1024,2,48000,-16,experiment,2,even,7,764280,760677,762061,13588,182739,762068,708102,13597,168898,766287,767089,763074,73235,766286,NA,Sternberg task,97,102220,100,yes,1024
97.02970297,97.02970297,1020.584158,1020.584158,black,experiment,legacy,legacy,legacy,0,uniform,1,undefined,1,left,100,100,100,0,0,100,100,0,0,100,100,100,0,100,0,10/25/19 17:35,The main experiment item,yes,Sternbergtask.osexp,C:\Users\Edgar\Documents\Edgar School\Fall 2019\Lab 3-1,no,mono,no,18,no,white,no,yes,768,legacy,88,11,C:/Users/Edgar/Documents/Edgar School/Fall 2019/Lab 3-1/MJ-subject-2.csv,legacy,4 1 5,Kafkaesque Koffka,3.2.8,2,y,0,left,right,right,left,NA,859,59634,13838,859,NA,2,legacy,3,1024,2,48000,-16,experiment,2,even,1,770781,767219,768560,13588,182739,768568,708102,13597,168898,772788,773653,769574,73235,772788,NA,Sternberg task,98,103079,101,yes,1024
97.05882353,97.05882353,1021.284314,1021.284314,black,experiment,legacy,legacy,legacy,0,uniform,1,undefined,1,right,101,101,101,0,0,101,101,0,0,101,101,101,0,101,0,10/25/19 17:35,The main experiment item,yes,Sternbergtask.osexp,C:\Users\Edgar\Documents\Edgar School\Fall 2019\Lab 3-1,no,mono,no,18,no,white,no,yes,768,legacy,89,11,C:/Users/Edgar/Documents/Edgar School/Fall 2019/Lab 3-1/MJ-subject-2.csv,legacy,7 6 4 8 1 2,Kafkaesque Koffka,3.2.8,0,n,0,right,right,right,right,NA,1092,59634,13838,1092,NA,2,legacy,6,1024,2,48000,-16,experiment,2,even,9,777300,773713,775079,13588,182739,775087,708102,13597,168898,779307,780404,776093,73235,779306,NA,Sternberg task,99,104171,102,yes,1024
97.08737864,97.08737864,1019.456311,1019.456311,black,experiment,legacy,legacy,legacy,0,uniform,1,undefined,1,right,102,102,102,0,0,102,102,0,0,102,102,102,0,102,0,10/25/19 17:35,The main experiment item,yes,Sternbergtask.osexp,C:\Users\Edgar\Documents\Edgar School\Fall 2019\Lab 3-1,no,mono,no,18,no,white,no,yes,768,legacy,90,11,C:/Users/Edgar/Documents/Edgar School/Fall 2019/Lab 3-1/MJ-subject-2.csv,legacy,2 8 9,Kafkaesque Koffka,3.2.8,0,n,0,right,right,right,right,NA,833,59634,13838,833,NA,2,legacy,3,1024,2,48000,-16,experiment,2,even,6,784053,780470,781835,13588,182739,781842,708102,13597,168898,786060,786898,782847,73235,786060,NA,Sternberg task,100,105004,103,yes,1024
97.11538462,97.11538462,1017.586538,1017.586538,black,experiment,legacy,legacy,legacy,0,uniform,1,undefined,1,left,103,103,103,0,0,103,103,0,0,103,103,103,0,103,0,10/25/19 17:35,The main experiment item,yes,Sternbergtask.osexp,C:\Users\Edgar\Documents\Edgar School\Fall 2019\Lab 3-1,no,mono,no,18,no,white,no,yes,768,legacy,91,11,C:/Users/Edgar/Documents/Edgar School/Fall 2019/Lab 3-1/MJ-subject-2.csv,legacy,9 3 1 2 5,Kafkaesque Koffka,3.2.8,4,y,0,left,right,right,left,NA,825,59634,13838,825,NA,2,legacy,5,1024,2,48000,-16,experiment,2,even,2,790540,786961,788322,13588,182739,788328,708102,13597,168898,792547,793379,789335,73235,792547,NA,Sternberg task,101,105829,104,yes,1024
97.14285714,97.14285714,1015.942857,1015.942857,black,experiment,legacy,legacy,legacy,0,uniform,1,undefined,1,right,104,104,104,0,0,104,104,0,0,104,104,104,0,104,0,10/25/19 17:35,The main experiment item,yes,Sternbergtask.osexp,C:\Users\Edgar\Documents\Edgar School\Fall 2019\Lab 3-1,no,mono,no,18,no,white,no,yes,768,legacy,92,11,C:/Users/Edgar/Documents/Edgar School/Fall 2019/Lab 3-1/MJ-subject-2.csv,legacy,8 6 3 4 7,Kafkaesque Koffka,3.2.8,0,n,0,right,right,right,right,NA,845,59634,13838,845,NA,2,legacy,5,1024,2,48000,-16,experiment,2,even,1,797017,793440,794796,13588,182739,794804,708102,13597,168898,799024,799875,795810,73235,799024,NA,Sternberg task,102,106674,105,yes,1024
97.16981132,97.16981132,1015.056604,1015.056604,black,experiment,legacy,legacy,legacy,0,uniform,1,undefined,1,left,105,105,105,0,0,105,105,0,0,105,105,105,0,105,0,10/25/19 17:35,The main experiment item,yes,Sternbergtask.osexp,C:\Users\Edgar\Documents\Edgar School\Fall 2019\Lab 3-1,no,mono,no,18,no,white,no,yes,768,legacy,93,11,C:/Users/Edgar/Documents/Edgar School/Fall 2019/Lab 3-1/MJ-subject-2.csv,legacy,2 8 5 1,Kafkaesque Koffka,3.2.8,4,y,0,left,right,right,left,NA,922,59634,13838,922,NA,2,legacy,4,1024,2,48000,-16,experiment,2,even,1,803515,799940,801293,13588,182739,801302,708102,13597,168898,805523,806453,802310,73235,805522,NA,Sternberg task,103,107596,106,yes,1024
97.19626168,97.19626168,1013.869159,1013.869159,black,experiment,legacy,legacy,legacy,0,uniform,1,undefined,1,left,106,106,106,0,0,106,106,0,0,106,106,106,0,106,0,10/25/19 17:35,The main experiment item,yes,Sternbergtask.osexp,C:\Users\Edgar\Documents\Edgar School\Fall 2019\Lab 3-1,no,mono,no,18,no,white,no,yes,768,legacy,94,11,C:/Users/Edgar/Documents/Edgar School/Fall 2019/Lab 3-1/MJ-subject-2.csv,legacy,4 6 2 5 1,Kafkaesque Koffka,3.2.8,5,y,0,left,right,right,left,NA,888,59634,13838,888,NA,2,legacy,5,1024,2,48000,-16,experiment,2,even,1,810132,806509,807909,13588,182739,807917,708102,13597,168898,812139,813033,808924,73235,812138,NA,Sternberg task,104,108484,107,yes,1024
97.22222222,97.22222222,1012.222222,1012.222222,black,experiment,legacy,legacy,legacy,0,uniform,1,undefined,1,right,107,107,107,0,0,107,107,0,0,107,107,107,0,107,0,10/25/19 17:35,The main experiment item,yes,Sternbergtask.osexp,C:\Users\Edgar\Documents\Edgar School\Fall 2019\Lab 3-1,no,mono,no,18,no,white,no,yes,768,legacy,95,11,C:/Users/Edgar/Documents/Edgar School/Fall 2019/Lab 3-1/MJ-subject-2.csv,legacy,9 8 2 7 4,Kafkaesque Koffka,3.2.8,0,n,0,right,right,right,right,NA,836,59634,13838,836,NA,2,legacy,5,1024,2,48000,-16,experiment,2,even,5,816707,813128,814483,13588,182739,814493,708102,13597,168898,818715,819557,815500,73235,818715,NA,Sternberg task,105,109320,108,yes,1024
96.33027523,96.33027523,1009.614679,1009.614679,black,experiment,legacy,legacy,legacy,0,uniform,0,undefined,0,left,108,108,108,0,0,108,108,0,0,108,108,108,0,108,0,10/25/19 17:35,The main experiment item,yes,Sternbergtask.osexp,C:\Users\Edgar\Documents\Edgar School\Fall 2019\Lab 3-1,no,mono,no,18,no,white,no,yes,768,legacy,96,11,C:/Users/Edgar/Documents/Edgar School/Fall 2019/Lab 3-1/MJ-subject-2.csv,legacy,5 7 8 2 3 8,Kafkaesque Koffka,3.2.8,5,y,0,right,right,right,right,NA,728,59634,13838,728,NA,2,legacy,6,1024,2,48000,-16,experiment,2,even,3,823201,819620,820979,13588,182739,820986,708102,13597,168898,825210,825945,821993,73235,825210,NA,Sternberg task,105,110048,109,yes,1024
96.36363636,96.36363636,1007.581818,1007.581818,black,experiment,legacy,legacy,legacy,0,uniform,1,undefined,1,left,109,109,109,0,0,109,109,0,0,109,109,109,0,109,0,10/25/19 17:35,The main experiment item,yes,Sternbergtask.osexp,C:\Users\Edgar\Documents\Edgar School\Fall 2019\Lab 3-1,no,mono,no,18,no,white,no,yes,768,legacy,97,11,C:/Users/Edgar/Documents/Edgar School/Fall 2019/Lab 3-1/MJ-subject-2.csv,legacy,8 7 3,Kafkaesque Koffka,3.2.8,1,y,0,left,right,right,left,NA,786,59634,13838,786,NA,2,legacy,3,1024,2,48000,-16,experiment,2,even,8,829557,819620,827335,13588,182739,827341,825979,13597,168898,831564,832359,828349,73235,831564,NA,Sternberg task,106,110834,110,yes,1024
96.3963964,96.3963964,1007.144144,1007.144144,black,experiment,legacy,legacy,legacy,0,uniform,1,undefined,1,left,110,110,110,0,0,110,110,0,0,110,110,110,0,110,0,10/25/19 17:35,The main experiment item,yes,Sternbergtask.osexp,C:\Users\Edgar\Documents\Edgar School\Fall 2019\Lab 3-1,no,mono,no,18,no,white,no,yes,768,legacy,98,11,C:/Users/Edgar/Documents/Edgar School/Fall 2019/Lab 3-1/MJ-subject-2.csv,legacy,1 4 9 3 2 5,Kafkaesque Koffka,3.2.8,3,y,0,left,right,right,left,NA,959,59634,13838,959,NA,2,legacy,6,1024,2,48000,-16,experiment,2,even,9,835995,832415,833777,13588,182739,833784,825979,13597,168898,838001,838969,834789,73235,838000,NA,Sternberg task,107,111793,111,yes,1024
96.42857143,96.42857143,1005.410714,1005.410714,black,experiment,legacy,legacy,legacy,0,uniform,1,undefined,1,left,111,111,111,0,0,111,111,0,0,111,111,111,0,111,0,10/25/19 17:35,The main experiment item,yes,Sternbergtask.osexp,C:\Users\Edgar\Documents\Edgar School\Fall 2019\Lab 3-1,no,mono,no,18,no,white,no,yes,768,legacy,99,11,C:/Users/Edgar/Documents/Edgar School/Fall 2019/Lab 3-1/MJ-subject-2.csv,legacy,7 4 2 6 3 5,Kafkaesque Koffka,3.2.8,6,y,0,left,right,right,left,NA,813,59634,13838,813,NA,2,legacy,6,1024,2,48000,-16,experiment,2,even,5,842627,839029,840404,13588,182739,840412,825979,13597,168898,844634,845457,841421,73235,844634,NA,Sternberg task,108,112606,112,yes,1024
96.46017699,96.46017699,1006,1006,black,experiment,legacy,legacy,legacy,0,uniform,1,undefined,1,left,112,112,112,0,0,112,112,0,0,112,112,112,0,112,0,10/25/19 17:35,The main experiment item,yes,Sternbergtask.osexp,C:\Users\Edgar\Documents\Edgar School\Fall 2019\Lab 3-1,no,mono,no,18,no,white,no,yes,768,legacy,100,11,C:/Users/Edgar/Documents/Edgar School/Fall 2019/Lab 3-1/MJ-subject-2.csv,legacy,6 9 7 4 5 1,Kafkaesque Koffka,3.2.8,2,y,0,left,right,right,left,NA,1072,59634,13838,1072,NA,2,legacy,6,1024,2,48000,-16,experiment,2,even,9,849112,845512,846891,13588,182739,846898,825979,13597,168898,851119,852200,847905,73235,851119,NA,Sternberg task,109,113678,113,yes,1024
96.49122807,96.49122807,1006.175439,1006.175439,black,experiment,legacy,legacy,legacy,0,uniform,1,undefined,1,right,113,113,113,0,0,113,113,0,0,113,113,113,0,113,0,10/25/19 17:35,The main experiment item,yes,Sternbergtask.osexp,C:\Users\Edgar\Documents\Edgar School\Fall 2019\Lab 3-1,no,mono,no,18,no,white,no,yes,768,legacy,101,11,C:/Users/Edgar/Documents/Edgar School/Fall 2019/Lab 3-1/MJ-subject-2.csv,legacy,3 4 9 6 7 8,Kafkaesque Koffka,3.2.8,0,n,0,right,right,right,right,NA,1026,59634,13838,1026,NA,2,legacy,6,1024,2,48000,-16,experiment,2,even,2,855902,852263,853681,13588,182739,853689,825979,13597,168898,857910,858942,854696,73235,857909,NA,Sternberg task,110,114704,114,yes,1024
96.52173913,96.52173913,1004.565217,1004.565217,black,experiment,legacy,legacy,legacy,0,uniform,1,undefined,1,left,114,114,114,0,0,114,114,0,0,114,114,114,0,114,0,10/25/19 17:35,The main experiment item,yes,Sternbergtask.osexp,C:\Users\Edgar\Documents\Edgar School\Fall 2019\Lab 3-1,no,mono,no,18,no,white,no,yes,768,legacy,102,11,C:/Users/Edgar/Documents/Edgar School/Fall 2019/Lab 3-1/MJ-subject-2.csv,legacy,3 9 6 2,Kafkaesque Koffka,3.2.8,4,y,0,left,right,right,left,NA,821,59634,13838,821,NA,2,legacy,4,1024,2,48000,-16,experiment,2,even,2,862587,859015,860365,13588,182739,860374,825979,13597,168898,864593,865419,861380,73235,864593,NA,Sternberg task,111,115525,115,yes,1024
96.55172414,96.55172414,1004.051724,1004.051724,black,experiment,legacy,legacy,legacy,0,uniform,1,undefined,1,left,115,115,115,0,0,115,115,0,0,115,115,115,0,115,0,10/25/19 17:35,The main experiment item,yes,Sternbergtask.osexp,C:\Users\Edgar\Documents\Edgar School\Fall 2019\Lab 3-1,no,mono,no,18,no,white,no,yes,768,legacy,103,11,C:/Users/Edgar/Documents/Edgar School/Fall 2019/Lab 3-1/MJ-subject-2.csv,legacy,9 1 7 2,Kafkaesque Koffka,3.2.8,2,y,0,left,right,right,left,NA,945,59634,13838,945,NA,2,legacy,4,1024,2,48000,-16,experiment,2,even,1,869036,865455,866808,13588,182739,866816,825979,13597,168898,871043,871993,867821,73235,871043,NA,Sternberg task,112,116470,116,yes,1024
96.58119658,96.58119658,1002.623932,1002.623932,black,experiment,legacy,legacy,legacy,0,uniform,1,undefined,1,right,116,116,116,0,0,116,116,0,0,116,116,116,0,116,0,10/25/19 17:35,The main experiment item,yes,Sternbergtask.osexp,C:\Users\Edgar\Documents\Edgar School\Fall 2019\Lab 3-1,no,mono,no,18,no,white,no,yes,768,legacy,104,11,C:/Users/Edgar/Documents/Edgar School/Fall 2019/Lab 3-1/MJ-subject-2.csv,legacy,9 5 3 2 8 6,Kafkaesque Koffka,3.2.8,0,n,0,right,right,right,right,NA,837,59634,13838,837,NA,2,legacy,6,1024,2,48000,-16,experiment,2,even,7,875615,872056,873393,13588,182739,873401,825979,13597,168898,877622,878466,874408,73235,877622,NA,Sternberg task,113,117307,117,yes,1024
96.61016949,96.61016949,1001.872881,1001.872881,black,experiment,legacy,legacy,legacy,0,uniform,1,undefined,1,right,117,117,117,0,0,117,117,0,0,117,117,117,0,117,0,10/25/19 17:35,The main experiment item,yes,Sternbergtask.osexp,C:\Users\Edgar\Documents\Edgar School\Fall 2019\Lab 3-1,no,mono,no,18,no,white,no,yes,768,legacy,105,11,C:/Users/Edgar/Documents/Edgar School/Fall 2019/Lab 3-1/MJ-subject-2.csv,legacy,1,Kafkaesque Koffka,3.2.8,0,n,0,right,right,right,right,NA,914,59634,13838,914,NA,2,legacy,1,1024,2,48000,-16,experiment,2,even,7,882123,878522,879902,13588,182739,879909,825979,13597,168898,884129,885053,880915,73235,884129,NA,Sternberg task,114,118221,118,yes,1024
96.63865546,96.63865546,1001.226891,1001.226891,black,experiment,legacy,legacy,legacy,0,uniform,1,undefined,1,left,118,118,118,0,0,118,118,0,0,118,118,118,0,118,0,10/25/19 17:35,The main experiment item,yes,Sternbergtask.osexp,C:\Users\Edgar\Documents\Edgar School\Fall 2019\Lab 3-1,no,mono,no,18,no,white,no,yes,768,legacy,106,11,C:/Users/Edgar/Documents/Edgar School/Fall 2019/Lab 3-1/MJ-subject-2.csv,legacy,8 3,Kafkaesque Koffka,3.2.8,2,y,0,left,right,right,left,NA,925,59634,13838,925,NA,2,legacy,2,1024,2,48000,-16,experiment,2,even,3,888683,885107,886462,13588,182739,886469,825979,13597,168898,890689,891621,887475,73235,890688,NA,Sternberg task,115,119146,119,yes,1024
96.66666667,96.66666667,999.8916667,999.8916667,black,experiment,legacy,legacy,legacy,0,uniform,1,undefined,1,right,119,119,119,0,0,119,119,0,0,119,119,119,0,119,0,10/25/19 17:35,The main experiment item,yes,Sternbergtask.osexp,C:\Users\Edgar\Documents\Edgar School\Fall 2019\Lab 3-1,no,mono,no,18,no,white,no,yes,768,legacy,107,11,C:/Users/Edgar/Documents/Edgar School/Fall 2019/Lab 3-1/MJ-subject-2.csv,legacy,1 7 5 2,Kafkaesque Koffka,3.2.8,0,n,0,right,right,right,right,NA,841,59634,13838,841,NA,2,legacy,4,1024,2,48000,-16,experiment,2,even,3,895253,891691,893034,13588,182739,893041,825979,13597,168898,897259,898106,894047,73235,897259,NA,Sternberg task,116,119987,120,yes,1024
96.69421488,96.69421488,998.2892562,998.2892562,black,experiment,legacy,legacy,legacy,0,uniform,1,undefined,1,right,120,120,120,0,0,120,120,0,0,120,120,120,0,120,0,10/25/19 17:35,The main experiment item,yes,Sternbergtask.osexp,C:\Users\Edgar\Documents\Edgar School\Fall 2019\Lab 3-1,no,mono,no,18,no,white,no,yes,768,legacy,108,11,C:/Users/Edgar/Documents/Edgar School/Fall 2019/Lab 3-1/MJ-subject-2.csv,legacy,6 9 4 5 2,Kafkaesque Koffka,3.2.8,0,n,0,right,right,right,right,NA,806,59634,13838,806,NA,2,legacy,5,1024,2,48000,-16,experiment,2,even,1,901740,898159,899518,13588,182739,899526,825979,13597,168898,903748,904560,900533,73235,903748,NA,Sternberg task,117,120793,121,yes,1024
96.72131148,96.72131148,996.6229508,996.6229508,black,experiment,legacy,legacy,legacy,0,uniform,1,undefined,1,left,121,121,121,0,0,121,121,0,0,121,121,121,0,121,0,10/25/19 17:35,The main experiment item,yes,Sternbergtask.osexp,C:\Users\Edgar\Documents\Edgar School\Fall 2019\Lab 3-1,no,mono,no,18,no,white,no,yes,768,legacy,109,11,C:/Users/Edgar/Documents/Edgar School/Fall 2019/Lab 3-1/MJ-subject-2.csv,legacy,6 8 9 3 4 9,Kafkaesque Koffka,3.2.8,5,y,0,left,right,right,left,NA,795,59634,13838,795,NA,2,legacy,6,1024,2,48000,-16,experiment,2,even,4,908203,904617,905983,13588,182739,905990,825979,13597,168898,910209,911012,906995,73235,910209,NA,Sternberg task,118,121588,122,yes,1024
96.74796748,96.74796748,997.203252,997.203252,black,experiment,legacy,legacy,legacy,0,uniform,1,undefined,1,left,122,122,122,0,0,122,122,0,0,122,122,122,0,122,0,10/25/19 17:35,The main experiment item,yes,Sternbergtask.osexp,C:\Users\Edgar\Documents\Edgar School\Fall 2019\Lab 3-1,no,mono,no,18,no,white,no,yes,768,legacy,110,11,C:/Users/Edgar/Documents/Edgar School/Fall 2019/Lab 3-1/MJ-subject-2.csv,legacy,4 3 2 5 8,Kafkaesque Koffka,3.2.8,2,y,0,left,right,right,left,NA,1068,59634,13838,1068,NA,2,legacy,5,1024,2,48000,-16,experiment,2,even,3,914639,911067,912418,13588,182739,912426,825979,13597,168898,916646,917721,913433,73235,916646,NA,Sternberg task,119,122656,123,yes,1024
96.77419355,96.77419355,995.9112903,995.9112903,black,experiment,legacy,legacy,legacy,0,uniform,1,undefined,1,right,123,123,123,0,0,123,123,0,0,123,123,123,0,123,0,10/25/19 17:35,The main experiment item,yes,Sternbergtask.osexp,C:\Users\Edgar\Documents\Edgar School\Fall 2019\Lab 3-1,no,mono,no,18,no,white,no,yes,768,legacy,111,11,C:/Users/Edgar/Documents/Edgar School/Fall 2019/Lab 3-1/MJ-subject-2.csv,legacy,7 1 8 4 9 3,Kafkaesque Koffka,3.2.8,0,n,0,right,right,right,right,NA,837,59634,13838,837,NA,2,legacy,6,1024,2,48000,-16,experiment,2,even,6,921352,917786,919132,13588,182739,919139,825979,13597,168898,923359,924202,920144,73235,923358,NA,Sternberg task,120,123493,124,yes,1024
96.8,96.8,994.072,994.072,black,experiment,legacy,legacy,legacy,0,uniform,1,undefined,1,right,124,124,124,0,0,124,124,0,0,124,124,124,0,124,0,10/25/19 17:35,The main experiment item,yes,Sternbergtask.osexp,C:\Users\Edgar\Documents\Edgar School\Fall 2019\Lab 3-1,no,mono,no,18,no,white,no,yes,768,legacy,112,11,C:/Users/Edgar/Documents/Edgar School/Fall 2019/Lab 3-1/MJ-subject-2.csv,legacy,9,Kafkaesque Koffka,3.2.8,0,n,0,right,right,right,right,NA,766,59634,13838,766,NA,2,legacy,1,1024,2,48000,-16,experiment,2,even,6,927836,924266,925615,13588,182739,925622,825979,13597,168898,929843,930615,926630,73235,929842,NA,Sternberg task,121,124259,125,yes,1024
96.82539683,96.82539683,992.2222222,992.2222222,black,experiment,legacy,legacy,legacy,0,uniform,1,undefined,1,right,125,125,125,0,0,125,125,0,0,125,125,125,0,125,0,10/25/19 17:35,The main experiment item,yes,Sternbergtask.osexp,C:\Users\Edgar\Documents\Edgar School\Fall 2019\Lab 3-1,no,mono,no,18,no,white,no,yes,768,legacy,113,11,C:/Users/Edgar/Documents/Edgar School/Fall 2019/Lab 3-1/MJ-subject-2.csv,legacy,8 5 4 2 9 6,Kafkaesque Koffka,3.2.8,0,n,0,right,right,right,right,NA,761,59634,13838,761,NA,2,legacy,6,1024,2,48000,-16,experiment,2,even,3,934308,930727,932086,13588,182739,932094,825979,13597,168898,936315,937084,933101,73235,936315,NA,Sternberg task,122,125020,126,yes,1024
96.8503937,96.8503937,990.5354331,990.5354331,black,experiment,legacy,legacy,legacy,0,uniform,1,undefined,1,left,126,126,126,0,0,126,126,0,0,126,126,126,0,126,0,10/25/19 17:35,The main experiment item,yes,Sternbergtask.osexp,C:\Users\Edgar\Documents\Edgar School\Fall 2019\Lab 3-1,no,mono,no,18,no,white,no,yes,768,legacy,114,11,C:/Users/Edgar/Documents/Edgar School/Fall 2019/Lab 3-1/MJ-subject-2.csv,legacy,4,Kafkaesque Koffka,3.2.8,1,y,0,left,right,right,left,NA,778,59634,13838,778,NA,2,legacy,1,1024,2,48000,-16,experiment,2,even,4,940717,937147,938497,13588,182739,938504,825979,13597,168898,942723,943510,939509,73235,942722,NA,Sternberg task,123,125798,127,yes,1024
96.875,96.875,989.25,989.25,black,experiment,legacy,legacy,legacy,0,uniform,1,undefined,1,right,127,127,127,0,0,127,127,0,0,127,127,127,0,127,0,10/25/19 17:35,The main experiment item,yes,Sternbergtask.osexp,C:\Users\Edgar\Documents\Edgar School\Fall 2019\Lab 3-1,no,mono,no,18,no,white,no,yes,768,legacy,115,11,C:/Users/Edgar/Documents/Edgar School/Fall 2019/Lab 3-1/MJ-subject-2.csv,legacy,6 9 7 3 8 2,Kafkaesque Koffka,3.2.8,0,n,0,right,right,right,right,NA,826,59634,13838,826,NA,2,legacy,6,1024,2,48000,-16,experiment,2,even,5,947180,943592,944960,13588,182739,944968,825979,13597,168898,949188,950022,945973,73235,949188,NA,Sternberg task,124,126624,128,yes,1024
96.89922481,96.89922481,989.3875969,989.3875969,black,experiment,legacy,legacy,legacy,0,uniform,1,undefined,1,left,128,128,128,0,0,128,128,0,0,128,128,128,0,128,0,10/25/19 17:35,The main experiment item,yes,Sternbergtask.osexp,C:\Users\Edgar\Documents\Edgar School\Fall 2019\Lab 3-1,no,mono,no,18,no,white,no,yes,768,legacy,116,11,C:/Users/Edgar/Documents/Edgar School/Fall 2019/Lab 3-1/MJ-subject-2.csv,legacy,5 2 9 6 1 7,Kafkaesque Koffka,3.2.8,3,y,0,left,right,right,left,NA,1007,59634,13838,1007,NA,2,legacy,6,1024,2,48000,-16,experiment,2,even,9,953661,950089,951442,13588,182739,951449,825979,13597,168898,955667,956682,952455,73235,955666,NA,Sternberg task,125,127631,129,yes,1024
96.92307692,96.92307692,988,988,black,experiment,legacy,legacy,legacy,0,uniform,1,undefined,1,left,129,129,129,0,0,129,129,0,0,129,129,129,0,129,0,10/25/19 17:35,The main experiment item,yes,Sternbergtask.osexp,C:\Users\Edgar\Documents\Edgar School\Fall 2019\Lab 3-1,no,mono,no,18,no,white,no,yes,768,legacy,117,11,C:/Users/Edgar/Documents/Edgar School/Fall 2019/Lab 3-1/MJ-subject-2.csv,legacy,7 2 3,Kafkaesque Koffka,3.2.8,3,y,0,left,right,right,left,NA,809,59634,13838,809,NA,2,legacy,3,1024,2,48000,-16,experiment,2,even,3,960302,956717,958081,13588,182739,958091,825979,13597,168898,962310,963128,959096,73235,962310,NA,Sternberg task,126,128440,130,yes,1024
96.94656489,96.94656489,986.5267176,986.5267176,black,experiment,legacy,legacy,legacy,0,uniform,1,undefined,1,right,130,130,130,0,0,130,130,0,0,130,130,130,0,130,0,10/25/19 17:35,The main experiment item,yes,Sternbergtask.osexp,C:\Users\Edgar\Documents\Edgar School\Fall 2019\Lab 3-1,no,mono,no,18,no,white,no,yes,768,legacy,118,11,C:/Users/Edgar/Documents/Edgar School/Fall 2019/Lab 3-1/MJ-subject-2.csv,legacy,2 7 5,Kafkaesque Koffka,3.2.8,0,n,0,right,right,right,right,NA,795,59634,13838,795,NA,2,legacy,3,1024,2,48000,-16,experiment,2,even,8,966763,963194,964540,13588,182739,964549,825979,13597,168898,968771,969576,965556,73235,968770,NA,Sternberg task,127,129235,131,yes,1024
96.96969697,96.96969697,985.3636364,985.3636364,black,experiment,legacy,legacy,legacy,0,uniform,1,undefined,1,left,131,131,131,0,0,131,131,0,0,131,131,131,0,131,0,10/25/19 17:35,The main experiment item,yes,Sternbergtask.osexp,C:\Users\Edgar\Documents\Edgar School\Fall 2019\Lab 3-1,no,mono,no,18,no,white,no,yes,768,legacy,119,11,C:/Users/Edgar/Documents/Edgar School/Fall 2019/Lab 3-1/MJ-subject-2.csv,legacy,8 9 5 7 1 6,Kafkaesque Koffka,3.2.8,4,y,0,left,right,right,left,NA,833,59634,13838,833,NA,2,legacy,6,1024,2,48000,-16,experiment,2,even,7,973331,969704,971110,13588,182739,971117,825979,13597,168898,975339,976181,972124,73235,975339,NA,Sternberg task,128,130068,132,yes,1024
96.9924812,96.9924812,984.3007519,984.3007519,black,experiment,legacy,legacy,legacy,0,uniform,1,undefined,1,left,132,132,132,0,0,132,132,0,0,132,132,132,0,132,0,10/25/19 17:35,The main experiment item,yes,Sternbergtask.osexp,C:\Users\Edgar\Documents\Edgar School\Fall 2019\Lab 3-1,no,mono,no,18,no,white,no,yes,768,legacy,120,11,C:/Users/Edgar/Documents/Edgar School/Fall 2019/Lab 3-1/MJ-subject-2.csv,legacy,6 5,Kafkaesque Koffka,3.2.8,2,y,0,left,right,right,left,NA,844,59634,13838,844,NA,2,legacy,2,1024,2,48000,-16,experiment,2,even,5,979814,976247,977593,13588,182739,977601,825979,13597,168898,981820,982674,978606,73235,981819,NA,Sternberg task,129,130912,133,yes,1024
97.01492537,97.01492537,983.0149254,983.0149254,black,experiment,legacy,legacy,legacy,0,uniform,1,undefined,1,right,133,133,133,0,0,133,133,0,0,133,133,133,0,133,0,10/25/19 17:35,The main experiment item,yes,Sternbergtask.osexp,C:\Users\Edgar\Documents\Edgar School\Fall 2019\Lab 3-1,no,mono,no,18,no,white,no,yes,768,legacy,121,11,C:/Users/Edgar/Documents/Edgar School/Fall 2019/Lab 3-1/MJ-subject-2.csv,legacy,7 3 2 8,Kafkaesque Koffka,3.2.8,0,n,0,right,right,right,right,NA,812,59634,13838,812,NA,2,legacy,4,1024,2,48000,-16,experiment,2,even,4,986315,982733,984095,13588,182739,984102,825979,13597,168898,988322,989142,985108,73235,988322,NA,Sternberg task,130,131724,134,yes,1024
97.03703704,97.03703704,981.0740741,981.0740741,black,experiment,legacy,legacy,legacy,0,uniform,1,undefined,1,right,134,134,134,0,0,134,134,0,0,134,134,134,0,134,0,10/25/19 17:35,The main experiment item,yes,Sternbergtask.osexp,C:\Users\Edgar\Documents\Edgar School\Fall 2019\Lab 3-1,no,mono,no,18,no,white,no,yes,768,legacy,122,11,C:/Users/Edgar/Documents/Edgar School/Fall 2019/Lab 3-1/MJ-subject-2.csv,legacy,1 4 9 3,Kafkaesque Koffka,3.2.8,0,n,0,right,right,right,right,NA,721,59634,13838,721,NA,2,legacy,4,1024,2,48000,-16,experiment,2,even,5,992788,989199,990569,13588,182739,990576,825979,13597,168898,994794,995522,991581,73235,994794,NA,Sternberg task,131,132445,135,yes,1024
97.05882353,97.05882353,980.0294118,980.0294118,black,experiment,legacy,legacy,legacy,0,uniform,1,undefined,1,left,135,135,135,0,0,135,135,0,0,135,135,135,0,135,0,10/25/19 17:35,The main experiment item,yes,Sternbergtask.osexp,C:\Users\Edgar\Documents\Edgar School\Fall 2019\Lab 3-1,no,mono,no,18,no,white,no,yes,768,legacy,123,11,C:/Users/Edgar/Documents/Edgar School/Fall 2019/Lab 3-1/MJ-subject-2.csv,legacy,9 1 6 7 8,Kafkaesque Koffka,3.2.8,1,y,0,left,right,right,left,NA,839,59634,13838,839,NA,2,legacy,5,1024,2,48000,-16,experiment,2,even,9,999193,995587,996974,13588,182739,996983,825979,13597,168898,1001201,1002049,997988,73235,1001201,NA,Sternberg task,132,133284,136,yes,1024
97.08029197,97.08029197,978.5255474,978.5255474,black,experiment,legacy,legacy,legacy,0,uniform,1,undefined,1,left,136,136,136,0,0,136,136,0,0,136,136,136,0,136,0,10/25/19 17:35,The main experiment item,yes,Sternbergtask.osexp,C:\Users\Edgar\Documents\Edgar School\Fall 2019\Lab 3-1,no,mono,no,18,no,white,no,yes,768,legacy,124,11,C:/Users/Edgar/Documents/Edgar School/Fall 2019/Lab 3-1/MJ-subject-2.csv,legacy,2 5 4 8 7,Kafkaesque Koffka,3.2.8,3,y,0,left,right,right,left,NA,774,59634,13838,774,NA,2,legacy,5,1024,2,48000,-16,experiment,2,even,4,1005689,1002115,1003470,13588,182739,1003477,825979,13597,168898,1007695,1008475,1004483,73235,1007695,NA,Sternberg task,133,134058,137,yes,1024
97.10144928,97.10144928,978.3768116,978.3768116,black,experiment,legacy,legacy,legacy,0,uniform,1,undefined,1,left,137,137,137,0,0,137,137,0,0,137,137,137,0,137,0,10/25/19 17:35,The main experiment item,yes,Sternbergtask.osexp,C:\Users\Edgar\Documents\Edgar School\Fall 2019\Lab 3-1,no,mono,no,18,no,white,no,yes,768,legacy,125,11,C:/Users/Edgar/Documents/Edgar School/Fall 2019/Lab 3-1/MJ-subject-2.csv,legacy,3 5 7 1,Kafkaesque Koffka,3.2.8,3,y,0,left,right,right,left,NA,958,59634,13838,958,NA,2,legacy,4,1024,2,48000,-16,experiment,2,even,7,1012120,1008529,1009883,13588,182739,1009896,825979,13597,168898,1014128,1015097,1010903,73235,1014128,NA,Sternberg task,134,135016,138,yes,1024