acc,accuracy,average_response_time,avg_rt,background,block,canvas_backend,clock_backend,color_backend,compensation,coordinates,correct,correct_instruction1,correct_new_keyboard_response,correct_response,count_ISI,count_correctFeedback,count_expSequence,count_experiment,count_experimentLoop,count_fixation,count_getting_started,count_incorrectFeeback,count_instruction1,count_instructions2,count_logger,count_memorySet,count_new_keyboard_response,count_practiceLoop,count_probe,count_thankYou,count_welcome,datetime,description,disable_garbage_collection,experiment_file,experiment_path,font_bold,font_family,font_italic,font_size,font_underline,foreground,form_clicks,fullscreen,height,keyboard_backend,live_row,live_row_practiceLoop,logfile,mouse_backend,numberSet,opensesame_codename,opensesame_version,posInSet,present,repeat_cycle,response,response_instruction1,response_instructions2,response_new_keyboard_response,response_thankYou,response_time,response_time_instruction1,response_time_instructions2,response_time_new_keyboard_response,response_time_thankYou,response_time_welcome,response_welcome,round_decimals,sampler_backend,setSize,sound_buf_size,sound_channels,sound_freq,sound_sample_size,start,subject_nr,subject_parity,target,time_ISI,time_correctFeedback,time_expSequence,time_experiment,time_experimentLoop,time_fixation,time_getting_started,time_incorrectFeeback,time_instruction1,time_instructions2,time_logger,time_memorySet,time_new_keyboard_response,time_practiceLoop,time_probe,time_thankYou,time_welcome,title,total_correct,total_response_time,total_responses,uniform_coordinates,width
100,100,1418,1418,black,practice,legacy,legacy,legacy,0,uniform,1,undefined,1,right,0,0,0,0,0,0,NA,0,0,0,0,0,0,0,0,0,NA,Fri Oct 25 19:03:25 2019,The main experiment item,yes,SternbergTask.osexp,/Users/juancastaneda/Documents/Grad School /Advanced Quantitative Methods & Experimental Design,no,mono,no,18,no,white,no,yes,768,legacy,0,0,/Users/juancastaneda/Documents/Grad School /Advanced Quantitative Methods & Experimental Design/Sterberg Task/JC-subject-2.csv,legacy,5 7 8 4 1 2,Kafkaesque Koffka,3.2.8,0,n,0,right,left,NA,right,NA,1418,40974,NA,1418,NA,NA,NA,2,legacy,6,1024,2,48000,-16,experiment,2,even,6,46330,NA,44085,2737,NA,44097,NA,NA,2751,NA,49762,45111,48343,43737,48343,NA,NA,Sternberg Task,1,1418,1,yes,1024
100,100,1156,1156,black,practice,legacy,legacy,legacy,0,uniform,1,undefined,1,left,1,1,1,0,0,1,NA,1,0,0,1,1,1,0,1,0,NA,Fri Oct 25 19:03:25 2019,The main experiment item,yes,SternbergTask.osexp,/Users/juancastaneda/Documents/Grad School /Advanced Quantitative Methods & Experimental Design,no,mono,no,18,no,white,no,yes,768,legacy,1,1,/Users/juancastaneda/Documents/Grad School /Advanced Quantitative Methods & Experimental Design/Sterberg Task/JC-subject-2.csv,legacy,4 3 1 7 9 8,Kafkaesque Koffka,3.2.8,1,y,0,left,left,NA,left,NA,894,40974,NA,894,NA,NA,NA,2,legacy,6,1024,2,48000,-16,experiment,2,even,4,53159,49819,50915,2737,NA,50928,NA,NA,2751,NA,56068,51943,55173,43737,55172,NA,NA,Sternberg Task,2,2312,2,yes,1024
100,100,1138.666667,1138.666667,black,practice,legacy,legacy,legacy,0,uniform,1,undefined,1,right,2,2,2,0,0,2,NA,2,0,0,2,2,2,0,2,0,NA,Fri Oct 25 19:03:25 2019,The main experiment item,yes,SternbergTask.osexp,/Users/juancastaneda/Documents/Grad School /Advanced Quantitative Methods & Experimental Design,no,mono,no,18,no,white,no,yes,768,legacy,2,2,/Users/juancastaneda/Documents/Grad School /Advanced Quantitative Methods & Experimental Design/Sterberg Task/JC-subject-2.csv,legacy,3 1 9 4,Kafkaesque Koffka,3.2.8,0,n,0,right,left,NA,right,NA,1104,40974,NA,1104,NA,NA,NA,2,legacy,4,1024,2,48000,-16,experiment,2,even,6,59412,56084,57170,2737,NA,57182,NA,NA,2751,NA,62530,58196,61425,43737,61425,NA,NA,Sternberg Task,3,3416,3,yes,1024
100,100,1048,1048,black,practice,legacy,legacy,legacy,0,uniform,1,undefined,1,left,3,3,3,0,0,3,NA,3,0,0,3,3,3,0,3,0,NA,Fri Oct 25 19:03:25 2019,The main experiment item,yes,SternbergTask.osexp,/Users/juancastaneda/Documents/Grad School /Advanced Quantitative Methods & Experimental Design,no,mono,no,18,no,white,no,yes,768,legacy,3,3,/Users/juancastaneda/Documents/Grad School /Advanced Quantitative Methods & Experimental Design/Sterberg Task/JC-subject-2.csv,legacy,4 8,Kafkaesque Koffka,3.2.8,1,y,0,left,left,NA,left,NA,776,40974,NA,776,NA,NA,NA,2,legacy,2,1024,2,48000,-16,experiment,2,even,4,65873,62546,63630,2737,NA,63643,NA,NA,2751,NA,68664,64656,67886,43737,67886,NA,NA,Sternberg Task,4,4192,4,yes,1024
100,100,1003.8,1003.8,black,practice,legacy,legacy,legacy,0,uniform,1,undefined,1,right,4,4,4,0,0,4,NA,4,0,0,4,4,4,0,4,0,NA,Fri Oct 25 19:03:25 2019,The main experiment item,yes,SternbergTask.osexp,/Users/juancastaneda/Documents/Grad School /Advanced Quantitative Methods & Experimental Design,no,mono,no,18,no,white,no,yes,768,legacy,4,4,/Users/juancastaneda/Documents/Grad School /Advanced Quantitative Methods & Experimental Design/Sterberg Task/JC-subject-2.csv,legacy,4 1 5,Kafkaesque Koffka,3.2.8,0,n,0,right,left,NA,right,NA,827,40974,NA,827,NA,NA,NA,2,legacy,3,1024,2,48000,-16,experiment,2,even,2,72008,68679,69765,2737,NA,69777,NA,NA,2751,NA,74849,70791,74021,43737,74021,NA,NA,Sternberg Task,5,5019,5,yes,1024
100,100,988,988,black,practice,legacy,legacy,legacy,0,uniform,1,undefined,1,left,5,5,5,0,0,5,NA,5,0,0,5,5,5,0,5,0,NA,Fri Oct 25 19:03:25 2019,The main experiment item,yes,SternbergTask.osexp,/Users/juancastaneda/Documents/Grad School /Advanced Quantitative Methods & Experimental Design,no,mono,no,18,no,white,no,yes,768,legacy,5,5,/Users/juancastaneda/Documents/Grad School /Advanced Quantitative Methods & Experimental Design/Sterberg Task/JC-subject-2.csv,legacy,2 9 4,Kafkaesque Koffka,3.2.8,3,y,0,left,left,NA,left,NA,909,40974,NA,909,NA,NA,NA,2,legacy,3,1024,2,48000,-16,experiment,2,even,4,78195,74865,75951,2737,NA,75964,NA,NA,2751,NA,81119,76978,80209,43737,80208,NA,NA,Sternberg Task,6,5928,6,yes,1024
100,100,1033.857143,1033.857143,black,practice,legacy,legacy,legacy,0,uniform,1,undefined,1,right,6,6,6,0,0,6,NA,6,0,0,6,6,6,0,6,0,NA,Fri Oct 25 19:03:25 2019,The main experiment item,yes,SternbergTask.osexp,/Users/juancastaneda/Documents/Grad School /Advanced Quantitative Methods & Experimental Design,no,mono,no,18,no,white,no,yes,768,legacy,6,6,/Users/juancastaneda/Documents/Grad School /Advanced Quantitative Methods & Experimental Design/Sterberg Task/JC-subject-2.csv,legacy,2 1,Kafkaesque Koffka,3.2.8,0,n,0,right,left,NA,right,NA,1309,40974,NA,1309,NA,NA,NA,2,legacy,2,1024,2,48000,-16,experiment,2,even,5,84462,81134,82218,2737,NA,82231,NA,NA,2751,NA,87787,83245,86476,43737,86476,NA,NA,Sternberg Task,7,7237,7,yes,1024
87.5,87.5,1017.125,1017.125,black,practice,legacy,legacy,legacy,0,uniform,0,undefined,0,right,7,7,7,0,0,7,NA,7,0,0,7,7,7,0,7,0,NA,Fri Oct 25 19:03:25 2019,The main experiment item,yes,SternbergTask.osexp,/Users/juancastaneda/Documents/Grad School /Advanced Quantitative Methods & Experimental Design,no,mono,no,18,no,white,no,yes,768,legacy,7,7,/Users/juancastaneda/Documents/Grad School /Advanced Quantitative Methods & Experimental Design/Sterberg Task/JC-subject-2.csv,legacy,5,Kafkaesque Koffka,3.2.8,0,n,0,left,left,NA,left,NA,900,40974,NA,900,NA,NA,NA,2,legacy,1,1024,2,48000,-16,experiment,2,even,3,91130,87801,88886,2737,NA,88898,NA,NA,2751,NA,94044,89913,93143,43737,93143,NA,NA,Sternberg Task,7,8137,8,yes,1024
88.88888889,88.88888889,1101.666667,1101.666667,black,practice,legacy,legacy,legacy,0,uniform,1,undefined,1,right,8,8,8,0,0,8,NA,8,0,0,8,8,8,0,8,0,NA,Fri Oct 25 19:03:25 2019,The main experiment item,yes,SternbergTask.osexp,/Users/juancastaneda/Documents/Grad School /Advanced Quantitative Methods & Experimental Design,no,mono,no,18,no,white,no,yes,768,legacy,8,8,/Users/juancastaneda/Documents/Grad School /Advanced Quantitative Methods & Experimental Design/Sterberg Task/JC-subject-2.csv,legacy,9 6 7 4 5,Kafkaesque Koffka,3.2.8,0,n,0,right,left,NA,right,NA,1778,40974,NA,1778,NA,NA,NA,2,legacy,5,1024,2,48000,-16,experiment,2,even,3,97382,87801,95139,2737,NA,95152,NA,94058,2751,NA,101174,96166,99395,43737,99395,NA,NA,Sternberg Task,8,9915,9,yes,1024
90,90,1095.3,1095.3,black,practice,legacy,legacy,legacy,0,uniform,1,undefined,1,left,9,9,9,0,0,9,NA,9,0,0,9,9,9,0,9,0,NA,Fri Oct 25 19:03:25 2019,The main experiment item,yes,SternbergTask.osexp,/Users/juancastaneda/Documents/Grad School /Advanced Quantitative Methods & Experimental Design,no,mono,no,18,no,white,no,yes,768,legacy,9,9,/Users/juancastaneda/Documents/Grad School /Advanced Quantitative Methods & Experimental Design/Sterberg Task/JC-subject-2.csv,legacy,1 5 2 9,Kafkaesque Koffka,3.2.8,2,y,0,left,left,NA,left,NA,1038,40974,NA,1038,NA,NA,NA,2,legacy,4,1024,2,48000,-16,experiment,2,even,5,104520,101190,102275,2737,NA,102288,NA,94058,2751,NA,107574,103303,106534,43737,106533,NA,NA,Sternberg Task,9,10953,10,yes,1024
90.90909091,90.90909091,1128.090909,1128.090909,black,practice,legacy,legacy,legacy,0,uniform,1,undefined,1,left,10,10,10,0,0,10,NA,10,0,0,10,10,10,0,10,0,NA,Fri Oct 25 19:03:25 2019,The main experiment item,yes,SternbergTask.osexp,/Users/juancastaneda/Documents/Grad School /Advanced Quantitative Methods & Experimental Design,no,mono,no,18,no,white,no,yes,768,legacy,10,10,/Users/juancastaneda/Documents/Grad School /Advanced Quantitative Methods & Experimental Design/Sterberg Task/JC-subject-2.csv,legacy,1 7 9 8 5,Kafkaesque Koffka,3.2.8,4,y,0,left,left,NA,left,NA,1456,40974,NA,1456,NA,NA,NA,2,legacy,5,1024,2,48000,-16,experiment,2,even,8,110918,107589,108675,2737,NA,108687,NA,94058,2751,NA,114388,109701,112931,43737,112931,NA,NA,Sternberg Task,10,12409,11,yes,1024
91.66666667,91.66666667,1076,1076,black,practice,legacy,legacy,legacy,0,uniform,1,undefined,1,left,11,11,11,0,0,11,NA,11,0,0,11,11,11,0,11,0,NA,Fri Oct 25 19:03:25 2019,The main experiment item,yes,SternbergTask.osexp,/Users/juancastaneda/Documents/Grad School /Advanced Quantitative Methods & Experimental Design,no,mono,no,18,no,white,no,yes,768,legacy,11,11,/Users/juancastaneda/Documents/Grad School /Advanced Quantitative Methods & Experimental Design/Sterberg Task/JC-subject-2.csv,legacy,6,Kafkaesque Koffka,3.2.8,1,y,0,left,left,NA,left,NA,503,40974,NA,503,NA,NA,NA,2,legacy,1,1024,2,48000,-16,experiment,2,even,6,117730,114402,115487,2737,NA,115499,NA,94058,2751,NA,120248,116513,119744,43737,119743,NA,NA,Sternberg Task,11,12912,12,yes,1024
92.30769231,92.30769231,1085.692308,1085.692308,black,experiment,legacy,legacy,legacy,0,uniform,1,undefined,1,right,12,12,12,0,0,12,NA,12,0,0,12,12,12,0,12,0,NA,Fri Oct 25 19:03:25 2019,The main experiment item,yes,SternbergTask.osexp,/Users/juancastaneda/Documents/Grad School /Advanced Quantitative Methods & Experimental Design,no,mono,no,18,no,white,no,yes,768,legacy,0,11,/Users/juancastaneda/Documents/Grad School /Advanced Quantitative Methods & Experimental Design/Sterberg Task/JC-subject-2.csv,legacy,3 9 8 1 6 4,Kafkaesque Koffka,3.2.8,0,n,0,right,left,right,right,NA,1202,40974,66800,1202,NA,NA,NA,2,legacy,6,1024,2,48000,-16,experiment,2,even,7,190559,120263,188315,2737,188216,188328,NA,94058,2751,121299,193775,189343,192572,43737,192572,NA,NA,Sternberg Task,12,14114,13,yes,1024
92.85714286,92.85714286,1109.857143,1109.857143,black,experiment,legacy,legacy,legacy,0,uniform,1,undefined,1,left,13,13,13,0,0,13,NA,13,0,0,13,13,13,0,13,0,NA,Fri Oct 25 19:03:25 2019,The main experiment item,yes,SternbergTask.osexp,/Users/juancastaneda/Documents/Grad School /Advanced Quantitative Methods & Experimental Design,no,mono,no,18,no,white,no,yes,768,legacy,1,11,/Users/juancastaneda/Documents/Grad School /Advanced Quantitative Methods & Experimental Design/Sterberg Task/JC-subject-2.csv,legacy,5 2 6,Kafkaesque Koffka,3.2.8,2,y,0,left,left,right,left,NA,1424,40974,66800,1424,NA,NA,NA,2,legacy,3,1024,2,48000,-16,experiment,2,even,2,197119,193791,194876,2737,188216,194889,NA,94058,2751,121299,200557,195903,199132,43737,199132,NA,NA,Sternberg Task,13,15538,14,yes,1024
93.33333333,93.33333333,1112.6,1112.6,black,experiment,legacy,legacy,legacy,0,uniform,1,undefined,1,left,14,14,14,0,0,14,NA,14,0,0,14,14,14,0,14,0,NA,Fri Oct 25 19:03:25 2019,The main experiment item,yes,SternbergTask.osexp,/Users/juancastaneda/Documents/Grad School /Advanced Quantitative Methods & Experimental Design,no,mono,no,18,no,white,no,yes,768,legacy,2,11,/Users/juancastaneda/Documents/Grad School /Advanced Quantitative Methods & Experimental Design/Sterberg Task/JC-subject-2.csv,legacy,6 7 9 3 1 2,Kafkaesque Koffka,3.2.8,1,y,0,left,left,right,left,NA,1151,40974,66800,1151,NA,NA,NA,2,legacy,6,1024,2,48000,-16,experiment,2,even,6,203901,200572,201658,2737,188216,201670,NA,94058,2751,121299,207066,202684,205914,43737,205914,NA,NA,Sternberg Task,14,16689,15,yes,1024
93.75,93.75,1093.75,1093.75,black,experiment,legacy,legacy,legacy,0,uniform,1,undefined,1,right,15,15,15,0,0,15,NA,15,0,0,15,15,15,0,15,0,NA,Fri Oct 25 19:03:25 2019,The main experiment item,yes,SternbergTask.osexp,/Users/juancastaneda/Documents/Grad School /Advanced Quantitative Methods & Experimental Design,no,mono,no,18,no,white,no,yes,768,legacy,3,11,/Users/juancastaneda/Documents/Grad School /Advanced Quantitative Methods & Experimental Design/Sterberg Task/JC-subject-2.csv,legacy,2 5 1 4,Kafkaesque Koffka,3.2.8,0,n,0,right,left,right,right,NA,811,40974,66800,811,NA,NA,NA,2,legacy,4,1024,2,48000,-16,experiment,2,even,6,210410,207080,208166,2737,188216,208179,NA,94058,2751,121299,213236,209193,212423,43737,212423,NA,NA,Sternberg Task,15,17500,16,yes,1024
94.11764706,94.11764706,1088.352941,1088.352941,black,experiment,legacy,legacy,legacy,0,uniform,1,undefined,1,left,16,16,16,0,0,16,NA,16,0,0,16,16,16,0,16,0,NA,Fri Oct 25 19:03:25 2019,The main experiment item,yes,SternbergTask.osexp,/Users/juancastaneda/Documents/Grad School /Advanced Quantitative Methods & Experimental Design,no,mono,no,18,no,white,no,yes,768,legacy,4,11,/Users/juancastaneda/Documents/Grad School /Advanced Quantitative Methods & Experimental Design/Sterberg Task/JC-subject-2.csv,legacy,9 3 1 2 5,Kafkaesque Koffka,3.2.8,4,y,0,left,left,right,left,NA,1002,40974,66800,1002,NA,NA,NA,2,legacy,5,1024,2,48000,-16,experiment,2,even,2,216582,213252,214338,2737,188216,214350,NA,94058,2751,121299,219597,215365,218594,43737,218594,NA,NA,Sternberg Task,16,18502,17,yes,1024
94.44444444,94.44444444,1071.388889,1071.388889,black,experiment,legacy,legacy,legacy,0,uniform,1,undefined,1,left,17,17,17,0,0,17,NA,17,0,0,17,17,17,0,17,0,NA,Fri Oct 25 19:03:25 2019,The main experiment item,yes,SternbergTask.osexp,/Users/juancastaneda/Documents/Grad School /Advanced Quantitative Methods & Experimental Design,no,mono,no,18,no,white,no,yes,768,legacy,5,11,/Users/juancastaneda/Documents/Grad School /Advanced Quantitative Methods & Experimental Design/Sterberg Task/JC-subject-2.csv,legacy,9 8 4,Kafkaesque Koffka,3.2.8,1,y,0,left,left,right,left,NA,783,40974,66800,783,NA,NA,NA,2,legacy,3,1024,2,48000,-16,experiment,2,even,9,222938,219612,220701,2737,188216,220714,NA,94058,2751,121299,225735,221726,224950,43737,224950,NA,NA,Sternberg Task,17,19285,18,yes,1024
94.73684211,94.73684211,1078.157895,1078.157895,black,experiment,legacy,legacy,legacy,0,uniform,1,undefined,1,left,18,18,18,0,0,18,NA,18,0,0,18,18,18,0,18,0,NA,Fri Oct 25 19:03:25 2019,The main experiment item,yes,SternbergTask.osexp,/Users/juancastaneda/Documents/Grad School /Advanced Quantitative Methods & Experimental Design,no,mono,no,18,no,white,no,yes,768,legacy,6,11,/Users/juancastaneda/Documents/Grad School /Advanced Quantitative Methods & Experimental Design/Sterberg Task/JC-subject-2.csv,legacy,3 9 6 2,Kafkaesque Koffka,3.2.8,4,y,0,left,left,right,left,NA,1200,40974,66800,1200,NA,NA,NA,2,legacy,4,1024,2,48000,-16,experiment,2,even,2,229072,225750,226836,2737,188216,226848,NA,94058,2751,121299,232285,227859,231084,43737,231084,NA,NA,Sternberg Task,18,20485,19,yes,1024
95,95,1070.75,1070.75,black,experiment,legacy,legacy,legacy,0,uniform,1,undefined,1,right,19,19,19,0,0,19,NA,19,0,0,19,19,19,0,19,0,NA,Fri Oct 25 19:03:25 2019,The main experiment item,yes,SternbergTask.osexp,/Users/juancastaneda/Documents/Grad School /Advanced Quantitative Methods & Experimental Design,no,mono,no,18,no,white,no,yes,768,legacy,7,11,/Users/juancastaneda/Documents/Grad School /Advanced Quantitative Methods & Experimental Design/Sterberg Task/JC-subject-2.csv,legacy,5 9 2 3,Kafkaesque Koffka,3.2.8,0,n,0,right,left,right,right,NA,930,40974,66800,930,NA,NA,NA,2,legacy,4,1024,2,48000,-16,experiment,2,even,8,235627,232300,233390,2737,188216,233403,NA,94058,2751,121299,238571,234414,237640,43737,237640,NA,NA,Sternberg Task,19,21415,20,yes,1024
95.23809524,95.23809524,1067.380952,1067.380952,black,experiment,legacy,legacy,legacy,0,uniform,1,undefined,1,right,20,20,20,0,0,20,NA,20,0,0,20,20,20,0,20,0,NA,Fri Oct 25 19:03:25 2019,The main experiment item,yes,SternbergTask.osexp,/Users/juancastaneda/Documents/Grad School /Advanced Quantitative Methods & Experimental Design,no,mono,no,18,no,white,no,yes,768,legacy,8,11,/Users/juancastaneda/Documents/Grad School /Advanced Quantitative Methods & Experimental Design/Sterberg Task/JC-subject-2.csv,legacy,8 4 3 5,Kafkaesque Koffka,3.2.8,0,n,0,right,left,right,right,NA,1000,40974,66800,1000,NA,NA,NA,2,legacy,4,1024,2,48000,-16,experiment,2,even,6,241914,238587,239672,2737,188216,239684,NA,94058,2751,121299,244928,240698,243927,43737,243927,NA,NA,Sternberg Task,20,22415,21,yes,1024
95.45454545,95.45454545,1056.318182,1056.318182,black,experiment,legacy,legacy,legacy,0,uniform,1,undefined,1,right,21,21,21,0,0,21,NA,21,0,0,21,21,21,0,21,0,NA,Fri Oct 25 19:03:25 2019,The main experiment item,yes,SternbergTask.osexp,/Users/juancastaneda/Documents/Grad School /Advanced Quantitative Methods & Experimental Design,no,mono,no,18,no,white,no,yes,768,legacy,9,11,/Users/juancastaneda/Documents/Grad School /Advanced Quantitative Methods & Experimental Design/Sterberg Task/JC-subject-2.csv,legacy,4 1,Kafkaesque Koffka,3.2.8,0,n,0,right,left,right,right,NA,824,40974,66800,824,NA,NA,NA,2,legacy,2,1024,2,48000,-16,experiment,2,even,6,248269,244943,246027,2737,188216,246039,NA,94058,2751,121299,251107,247053,250282,43737,250282,NA,NA,Sternberg Task,21,23239,22,yes,1024
95.65217391,95.65217391,1052.086957,1052.086957,black,experiment,legacy,legacy,legacy,0,uniform,1,undefined,1,left,22,22,22,0,0,22,NA,22,0,0,22,22,22,0,22,0,NA,Fri Oct 25 19:03:25 2019,The main experiment item,yes,SternbergTask.osexp,/Users/juancastaneda/Documents/Grad School /Advanced Quantitative Methods & Experimental Design,no,mono,no,18,no,white,no,yes,768,legacy,10,11,/Users/juancastaneda/Documents/Grad School /Advanced Quantitative Methods & Experimental Design/Sterberg Task/JC-subject-2.csv,legacy,9 3 8 2 1 4,Kafkaesque Koffka,3.2.8,3,y,0,left,left,right,left,NA,959,40974,66800,959,NA,NA,NA,2,legacy,6,1024,2,48000,-16,experiment,2,even,8,254451,251122,252209,2737,188216,252221,NA,94058,2751,121299,257424,253235,256464,43737,256464,NA,NA,Sternberg Task,22,24198,23,yes,1024
95.83333333,95.83333333,1043.333333,1043.333333,black,experiment,legacy,legacy,legacy,0,uniform,1,undefined,1,left,23,23,23,0,0,23,NA,23,0,0,23,23,23,0,23,0,NA,Fri Oct 25 19:03:25 2019,The main experiment item,yes,SternbergTask.osexp,/Users/juancastaneda/Documents/Grad School /Advanced Quantitative Methods & Experimental Design,no,mono,no,18,no,white,no,yes,768,legacy,11,11,/Users/juancastaneda/Documents/Grad School /Advanced Quantitative Methods & Experimental Design/Sterberg Task/JC-subject-2.csv,legacy,8 9 6 1,Kafkaesque Koffka,3.2.8,2,y,0,left,left,right,left,NA,842,40974,66800,842,NA,NA,NA,2,legacy,4,1024,2,48000,-16,experiment,2,even,9,260767,257439,258525,2737,188216,258537,NA,94058,2751,121299,263623,259551,262780,43737,262780,NA,NA,Sternberg Task,23,25040,24,yes,1024
96,96,1032.68,1032.68,black,experiment,legacy,legacy,legacy,0,uniform,1,undefined,1,right,24,24,24,0,0,24,NA,24,0,0,24,24,24,0,24,0,NA,Fri Oct 25 19:03:25 2019,The main experiment item,yes,SternbergTask.osexp,/Users/juancastaneda/Documents/Grad School /Advanced Quantitative Methods & Experimental Design,no,mono,no,18,no,white,no,yes,768,legacy,12,11,/Users/juancastaneda/Documents/Grad School /Advanced Quantitative Methods & Experimental Design/Sterberg Task/JC-subject-2.csv,legacy,9 5 3 2 8 6,Kafkaesque Koffka,3.2.8,0,n,0,right,left,right,right,NA,777,40974,66800,777,NA,NA,NA,2,legacy,6,1024,2,48000,-16,experiment,2,even,7,266966,263637,264724,2737,188216,264736,NA,94058,2751,121299,269757,265750,268979,43737,268979,NA,NA,Sternberg Task,24,25817,25,yes,1024
96.15384615,96.15384615,1029.692308,1029.692308,black,experiment,legacy,legacy,legacy,0,uniform,1,undefined,1,left,25,25,25,0,0,25,NA,25,0,0,25,25,25,0,25,0,NA,Fri Oct 25 19:03:25 2019,The main experiment item,yes,SternbergTask.osexp,/Users/juancastaneda/Documents/Grad School /Advanced Quantitative Methods & Experimental Design,no,mono,no,18,no,white,no,yes,768,legacy,13,11,/Users/juancastaneda/Documents/Grad School /Advanced Quantitative Methods & Experimental Design/Sterberg Task/JC-subject-2.csv,legacy,6 8 9 3 4 9,Kafkaesque Koffka,3.2.8,5,y,0,left,left,right,left,NA,955,40974,66800,955,NA,NA,NA,2,legacy,6,1024,2,48000,-16,experiment,2,even,4,273102,269773,270859,2737,188216,270871,NA,94058,2751,121299,276071,271885,275115,43737,275115,NA,NA,Sternberg Task,25,26772,26,yes,1024
96.2962963,96.2962963,1030.888889,1030.888889,black,experiment,legacy,legacy,legacy,0,uniform,1,undefined,1,left,26,26,26,0,0,26,NA,26,0,0,26,26,26,0,26,0,NA,Fri Oct 25 19:03:25 2019,The main experiment item,yes,SternbergTask.osexp,/Users/juancastaneda/Documents/Grad School /Advanced Quantitative Methods & Experimental Design,no,mono,no,18,no,white,no,yes,768,legacy,14,11,/Users/juancastaneda/Documents/Grad School /Advanced Quantitative Methods & Experimental Design/Sterberg Task/JC-subject-2.csv,legacy,2 6 1 7 4,Kafkaesque Koffka,3.2.8,2,y,0,left,left,right,left,NA,1062,40974,66800,1062,NA,NA,NA,2,legacy,5,1024,2,48000,-16,experiment,2,even,6,279414,276087,277173,2737,188216,277184,NA,94058,2751,121299,282491,278198,281428,43737,281428,NA,NA,Sternberg Task,26,27834,27,yes,1024
96.42857143,96.42857143,1021.75,1021.75,black,experiment,legacy,legacy,legacy,0,uniform,1,undefined,1,right,27,27,27,0,0,27,NA,27,0,0,27,27,27,0,27,0,NA,Fri Oct 25 19:03:25 2019,The main experiment item,yes,SternbergTask.osexp,/Users/juancastaneda/Documents/Grad School /Advanced Quantitative Methods & Experimental Design,no,mono,no,18,no,white,no,yes,768,legacy,15,11,/Users/juancastaneda/Documents/Grad School /Advanced Quantitative Methods & Experimental Design/Sterberg Task/JC-subject-2.csv,legacy,9 7 4 5 8,Kafkaesque Koffka,3.2.8,0,n,0,right,left,right,right,NA,775,40974,66800,775,NA,NA,NA,2,legacy,5,1024,2,48000,-16,experiment,2,even,6,285834,282506,283592,2737,188216,283604,NA,94058,2751,121299,288623,284618,287847,43737,287847,NA,NA,Sternberg Task,27,28609,28,yes,1024
96.55172414,96.55172414,1017.965517,1017.965517,black,experiment,legacy,legacy,legacy,0,uniform,1,undefined,1,left,28,28,28,0,0,28,NA,28,0,0,28,28,28,0,28,0,NA,Fri Oct 25 19:03:25 2019,The main experiment item,yes,SternbergTask.osexp,/Users/juancastaneda/Documents/Grad School /Advanced Quantitative Methods & Experimental Design,no,mono,no,18,no,white,no,yes,768,legacy,16,11,/Users/juancastaneda/Documents/Grad School /Advanced Quantitative Methods & Experimental Design/Sterberg Task/JC-subject-2.csv,legacy,6 9 3 1,Kafkaesque Koffka,3.2.8,4,y,0,left,left,right,left,NA,912,40974,66800,912,NA,NA,NA,2,legacy,4,1024,2,48000,-16,experiment,2,even,1,291966,288639,289724,2737,188216,289736,NA,94058,2751,121299,294892,290750,293979,43737,293979,NA,NA,Sternberg Task,28,29521,29,yes,1024
96.66666667,96.66666667,1006.166667,1006.166667,black,experiment,legacy,legacy,legacy,0,uniform,1,undefined,1,right,29,29,29,0,0,29,NA,29,0,0,29,29,29,0,29,0,NA,Fri Oct 25 19:03:25 2019,The main experiment item,yes,SternbergTask.osexp,/Users/juancastaneda/Documents/Grad School /Advanced Quantitative Methods & Experimental Design,no,mono,no,18,no,white,no,yes,768,legacy,17,11,/Users/juancastaneda/Documents/Grad School /Advanced Quantitative Methods & Experimental Design/Sterberg Task/JC-subject-2.csv,legacy,3 9 1,Kafkaesque Koffka,3.2.8,0,n,0,right,left,right,right,NA,664,40974,66800,664,NA,NA,NA,2,legacy,3,1024,2,48000,-16,experiment,2,even,7,298233,294906,295992,2737,188216,296003,NA,94058,2751,121299,300911,297017,300246,43737,300246,NA,NA,Sternberg Task,29,30185,30,yes,1024
96.77419355,96.77419355,1015.612903,1015.612903,black,experiment,legacy,legacy,legacy,0,uniform,1,undefined,1,right,30,30,30,0,0,30,NA,30,0,0,30,30,30,0,30,0,NA,Fri Oct 25 19:03:25 2019,The main experiment item,yes,SternbergTask.osexp,/Users/juancastaneda/Documents/Grad School /Advanced Quantitative Methods & Experimental Design,no,mono,no,18,no,white,no,yes,768,legacy,18,11,/Users/juancastaneda/Documents/Grad School /Advanced Quantitative Methods & Experimental Design/Sterberg Task/JC-subject-2.csv,legacy,2 8 6 3 1,Kafkaesque Koffka,3.2.8,0,n,0,right,left,right,right,NA,1299,40974,66800,1299,NA,NA,NA,2,legacy,5,1024,2,48000,-16,experiment,2,even,7,304254,300926,302011,2737,188216,302023,NA,94058,2751,121299,307567,303037,306267,43737,306267,NA,NA,Sternberg Task,30,31484,31,yes,1024
96.875,96.875,1008.09375,1008.09375,black,experiment,legacy,legacy,legacy,0,uniform,1,undefined,1,left,31,31,31,0,0,31,NA,31,0,0,31,31,31,0,31,0,NA,Fri Oct 25 19:03:25 2019,The main experiment item,yes,SternbergTask.osexp,/Users/juancastaneda/Documents/Grad School /Advanced Quantitative Methods & Experimental Design,no,mono,no,18,no,white,no,yes,768,legacy,19,11,/Users/juancastaneda/Documents/Grad School /Advanced Quantitative Methods & Experimental Design/Sterberg Task/JC-subject-2.csv,legacy,6 7 8 5,Kafkaesque Koffka,3.2.8,3,y,0,left,left,right,left,NA,775,40974,66800,775,NA,NA,NA,2,legacy,4,1024,2,48000,-16,experiment,2,even,8,310909,307582,308668,2737,188216,308679,NA,94058,2751,121299,313699,309694,312923,43737,312922,NA,NA,Sternberg Task,31,32259,32,yes,1024
96.96969697,96.96969697,1010.151515,1010.151515,black,experiment,legacy,legacy,legacy,0,uniform,1,undefined,1,right,32,32,32,0,0,32,NA,32,0,0,32,32,32,0,32,0,NA,Fri Oct 25 19:03:25 2019,The main experiment item,yes,SternbergTask.osexp,/Users/juancastaneda/Documents/Grad School /Advanced Quantitative Methods & Experimental Design,no,mono,no,18,no,white,no,yes,768,legacy,20,11,/Users/juancastaneda/Documents/Grad School /Advanced Quantitative Methods & Experimental Design/Sterberg Task/JC-subject-2.csv,legacy,6 8,Kafkaesque Koffka,3.2.8,0,n,0,right,left,right,right,NA,1076,40974,66800,1076,NA,NA,NA,2,legacy,2,1024,2,48000,-16,experiment,2,even,9,317041,313714,314799,2737,188216,314811,NA,94058,2751,121299,320131,315825,319054,43737,319054,NA,NA,Sternberg Task,32,33335,33,yes,1024
97.05882353,97.05882353,1001.764706,1001.764706,black,experiment,legacy,legacy,legacy,0,uniform,1,undefined,1,right,33,33,33,0,0,33,NA,33,0,0,33,33,33,0,33,0,NA,Fri Oct 25 19:03:25 2019,The main experiment item,yes,SternbergTask.osexp,/Users/juancastaneda/Documents/Grad School /Advanced Quantitative Methods & Experimental Design,no,mono,no,18,no,white,no,yes,768,legacy,21,11,/Users/juancastaneda/Documents/Grad School /Advanced Quantitative Methods & Experimental Design/Sterberg Task/JC-subject-2.csv,legacy,6 9 7 3 8 2,Kafkaesque Koffka,3.2.8,0,n,0,right,left,right,right,NA,725,40974,66800,725,NA,NA,NA,2,legacy,6,1024,2,48000,-16,experiment,2,even,5,323476,320147,321234,2737,188216,321246,NA,94058,2751,121299,326215,322260,325489,43737,325489,NA,NA,Sternberg Task,33,34060,34,yes,1024
97.14285714,97.14285714,996.6857143,996.6857143,black,experiment,legacy,legacy,legacy,0,uniform,1,undefined,1,right,34,34,34,0,0,34,NA,34,0,0,34,34,34,0,34,0,NA,Fri Oct 25 19:03:25 2019,The main experiment item,yes,SternbergTask.osexp,/Users/juancastaneda/Documents/Grad School /Advanced Quantitative Methods & Experimental Design,no,mono,no,18,no,white,no,yes,768,legacy,22,11,/Users/juancastaneda/Documents/Grad School /Advanced Quantitative Methods & Experimental Design/Sterberg Task/JC-subject-2.csv,legacy,6 2 9 3 8 4,Kafkaesque Koffka,3.2.8,0,n,0,right,left,right,right,NA,824,40974,66800,824,NA,NA,NA,2,legacy,6,1024,2,48000,-16,experiment,2,even,1,329557,326228,327314,2737,188216,327327,NA,94058,2751,121299,332397,328341,331571,43737,331571,NA,NA,Sternberg Task,34,34884,35,yes,1024
97.22222222,97.22222222,992.25,992.25,black,experiment,legacy,legacy,legacy,0,uniform,1,undefined,1,right,35,35,35,0,0,35,NA,35,0,0,35,35,35,0,35,0,NA,Fri Oct 25 19:03:25 2019,The main experiment item,yes,SternbergTask.osexp,/Users/juancastaneda/Documents/Grad School /Advanced Quantitative Methods & Experimental Design,no,mono,no,18,no,white,no,yes,768,legacy,23,11,/Users/juancastaneda/Documents/Grad School /Advanced Quantitative Methods & Experimental Design/Sterberg Task/JC-subject-2.csv,legacy,8 2 1 4 5 9,Kafkaesque Koffka,3.2.8,0,n,0,right,left,right,right,NA,837,40974,66800,837,NA,NA,NA,2,legacy,6,1024,2,48000,-16,experiment,2,even,7,335739,332411,333497,2737,188216,333509,NA,94058,2751,121299,338591,334523,337752,43737,337752,NA,NA,Sternberg Task,35,35721,36,yes,1024
97.2972973,97.2972973,986.3513514,986.3513514,black,experiment,legacy,legacy,legacy,0,uniform,1,undefined,1,right,36,36,36,0,0,36,NA,36,0,0,36,36,36,0,36,0,NA,Fri Oct 25 19:03:25 2019,The main experiment item,yes,SternbergTask.osexp,/Users/juancastaneda/Documents/Grad School /Advanced Quantitative Methods & Experimental Design,no,mono,no,18,no,white,no,yes,768,legacy,24,11,/Users/juancastaneda/Documents/Grad School /Advanced Quantitative Methods & Experimental Design/Sterberg Task/JC-subject-2.csv,legacy,5 3 8 7 2 4,Kafkaesque Koffka,3.2.8,0,n,0,right,left,right,right,NA,774,40974,66800,774,NA,NA,NA,2,legacy,6,1024,2,48000,-16,experiment,2,even,9,341934,338606,339692,2737,188216,339704,NA,94058,2751,121299,344722,340718,343947,43737,343947,NA,NA,Sternberg Task,36,36495,37,yes,1024
97.36842105,97.36842105,976.3421053,976.3421053,black,experiment,legacy,legacy,legacy,0,uniform,1,undefined,1,right,37,37,37,0,0,37,NA,37,0,0,37,37,37,0,37,0,NA,Fri Oct 25 19:03:25 2019,The main experiment item,yes,SternbergTask.osexp,/Users/juancastaneda/Documents/Grad School /Advanced Quantitative Methods & Experimental Design,no,mono,no,18,no,white,no,yes,768,legacy,25,11,/Users/juancastaneda/Documents/Grad School /Advanced Quantitative Methods & Experimental Design/Sterberg Task/JC-subject-2.csv,legacy,2 7 5,Kafkaesque Koffka,3.2.8,0,n,0,right,left,right,right,NA,606,40974,66800,606,NA,NA,NA,2,legacy,3,1024,2,48000,-16,experiment,2,even,8,348066,344738,345823,2737,188216,345835,NA,94058,2751,121299,350687,346850,350079,43737,350079,NA,NA,Sternberg Task,37,37101,38,yes,1024
97.43589744,97.43589744,971.3846154,971.3846154,black,experiment,legacy,legacy,legacy,0,uniform,1,undefined,1,right,38,38,38,0,0,38,NA,38,0,0,38,38,38,0,38,0,NA,Fri Oct 25 19:03:25 2019,The main experiment item,yes,SternbergTask.osexp,/Users/juancastaneda/Documents/Grad School /Advanced Quantitative Methods & Experimental Design,no,mono,no,18,no,white,no,yes,768,legacy,26,11,/Users/juancastaneda/Documents/Grad School /Advanced Quantitative Methods & Experimental Design/Sterberg Task/JC-subject-2.csv,legacy,8 5 7 3 6,Kafkaesque Koffka,3.2.8,0,n,0,right,left,right,right,NA,783,40974,66800,783,NA,NA,NA,2,legacy,5,1024,2,48000,-16,experiment,2,even,9,354032,350702,351788,2737,188216,351799,NA,94058,2751,121299,356830,352816,356045,43737,356045,NA,NA,Sternberg Task,38,37884,39,yes,1024
97.5,97.5,963.4,963.4,black,experiment,legacy,legacy,legacy,0,uniform,1,undefined,1,right,39,39,39,0,0,39,NA,39,0,0,39,39,39,0,39,0,NA,Fri Oct 25 19:03:25 2019,The main experiment item,yes,SternbergTask.osexp,/Users/juancastaneda/Documents/Grad School /Advanced Quantitative Methods & Experimental Design,no,mono,no,18,no,white,no,yes,768,legacy,27,11,/Users/juancastaneda/Documents/Grad School /Advanced Quantitative Methods & Experimental Design/Sterberg Task/JC-subject-2.csv,legacy,3 4 9 6 7 8,Kafkaesque Koffka,3.2.8,0,n,0,right,left,right,right,NA,652,40974,66800,652,NA,NA,NA,2,legacy,6,1024,2,48000,-16,experiment,2,even,2,360174,356845,357932,2737,188216,357944,NA,94058,2751,121299,362840,358958,362187,43737,362187,NA,NA,Sternberg Task,39,38536,40,yes,1024
97.56097561,97.56097561,956.1707317,956.1707317,black,experiment,legacy,legacy,legacy,0,uniform,1,undefined,1,right,40,40,40,0,0,40,NA,40,0,0,40,40,40,0,40,0,NA,Fri Oct 25 19:03:25 2019,The main experiment item,yes,SternbergTask.osexp,/Users/juancastaneda/Documents/Grad School /Advanced Quantitative Methods & Experimental Design,no,mono,no,18,no,white,no,yes,768,legacy,28,11,/Users/juancastaneda/Documents/Grad School /Advanced Quantitative Methods & Experimental Design/Sterberg Task/JC-subject-2.csv,legacy,7 1 5 6 3,Kafkaesque Koffka,3.2.8,0,n,0,right,left,right,right,NA,667,40974,66800,667,NA,NA,NA,2,legacy,5,1024,2,48000,-16,experiment,2,even,8,366179,362856,363937,2737,188216,363949,NA,94058,2751,121299,368860,364963,368192,43737,368192,NA,NA,Sternberg Task,40,39203,41,yes,1024
97.61904762,97.61904762,955.8809524,955.8809524,black,experiment,legacy,legacy,legacy,0,uniform,1,undefined,1,left,41,41,41,0,0,41,NA,41,0,0,41,41,41,0,41,0,NA,Fri Oct 25 19:03:25 2019,The main experiment item,yes,SternbergTask.osexp,/Users/juancastaneda/Documents/Grad School /Advanced Quantitative Methods & Experimental Design,no,mono,no,18,no,white,no,yes,768,legacy,29,11,/Users/juancastaneda/Documents/Grad School /Advanced Quantitative Methods & Experimental Design/Sterberg Task/JC-subject-2.csv,legacy,3 4,Kafkaesque Koffka,3.2.8,1,y,0,left,left,right,left,NA,944,40974,66800,944,NA,NA,NA,2,legacy,2,1024,2,48000,-16,experiment,2,even,3,372202,368875,369960,2737,188216,369972,NA,94058,2751,121299,375160,370986,374215,43737,374215,NA,NA,Sternberg Task,41,40147,42,yes,1024
97.6744186,97.6744186,961.0930233,961.0930233,black,experiment,legacy,legacy,legacy,0,uniform,1,undefined,1,left,42,42,42,0,0,42,NA,42,0,0,42,42,42,0,42,0,NA,Fri Oct 25 19:03:25 2019,The main experiment item,yes,SternbergTask.osexp,/Users/juancastaneda/Documents/Grad School /Advanced Quantitative Methods & Experimental Design,no,mono,no,18,no,white,no,yes,768,legacy,30,11,/Users/juancastaneda/Documents/Grad School /Advanced Quantitative Methods & Experimental Design/Sterberg Task/JC-subject-2.csv,legacy,1 4 9 3 2 5,Kafkaesque Koffka,3.2.8,3,y,0,left,left,right,left,NA,1180,40974,66800,1180,NA,NA,NA,2,legacy,6,1024,2,48000,-16,experiment,2,even,9,378504,375175,376262,2737,188216,376274,NA,94058,2751,121299,381699,377288,380517,43737,380517,NA,NA,Sternberg Task,42,41327,43,yes,1024
97.72727273,97.72727273,957.9772727,957.9772727,black,experiment,legacy,legacy,legacy,0,uniform,1,undefined,1,left,43,43,43,0,0,43,NA,43,0,0,43,43,43,0,43,0,NA,Fri Oct 25 19:03:25 2019,The main experiment item,yes,SternbergTask.osexp,/Users/juancastaneda/Documents/Grad School /Advanced Quantitative Methods & Experimental Design,no,mono,no,18,no,white,no,yes,768,legacy,31,11,/Users/juancastaneda/Documents/Grad School /Advanced Quantitative Methods & Experimental Design/Sterberg Task/JC-subject-2.csv,legacy,9 6 2 4 1,Kafkaesque Koffka,3.2.8,4,y,0,left,left,right,left,NA,824,40974,66800,824,NA,NA,NA,2,legacy,5,1024,2,48000,-16,experiment,2,even,4,385044,381714,382800,2737,188216,382814,NA,94058,2751,121299,387883,383828,387057,43737,387057,NA,NA,Sternberg Task,43,42151,44,yes,1024
95.55555556,95.55555556,959.0888889,959.0888889,black,experiment,legacy,legacy,legacy,0,uniform,0,undefined,0,right,44,44,44,0,0,44,NA,44,0,0,44,44,44,0,44,0,NA,Fri Oct 25 19:03:25 2019,The main experiment item,yes,SternbergTask.osexp,/Users/juancastaneda/Documents/Grad School /Advanced Quantitative Methods & Experimental Design,no,mono,no,18,no,white,no,yes,768,legacy,32,11,/Users/juancastaneda/Documents/Grad School /Advanced Quantitative Methods & Experimental Design/Sterberg Task/JC-subject-2.csv,legacy,1 7 8 3 9,Kafkaesque Koffka,3.2.8,0,n,0,left,left,right,left,NA,1008,40974,66800,1008,NA,NA,NA,2,legacy,5,1024,2,48000,-16,experiment,2,even,2,391223,387896,388981,2737,188216,388994,NA,94058,2751,121299,394245,390007,393236,43737,393236,NA,NA,Sternberg Task,43,43159,45,yes,1024
95.65217391,95.65217391,964.5217391,964.5217391,black,experiment,legacy,legacy,legacy,0,uniform,1,undefined,1,left,45,45,45,0,0,45,NA,45,0,0,45,45,45,0,45,0,NA,Fri Oct 25 19:03:25 2019,The main experiment item,yes,SternbergTask.osexp,/Users/juancastaneda/Documents/Grad School /Advanced Quantitative Methods & Experimental Design,no,mono,no,18,no,white,no,yes,768,legacy,33,11,/Users/juancastaneda/Documents/Grad School /Advanced Quantitative Methods & Experimental Design/Sterberg Task/JC-subject-2.csv,legacy,4 9 7 8 5 3,Kafkaesque Koffka,3.2.8,4,y,0,left,left,right,left,NA,1209,40974,66800,1209,NA,NA,NA,2,legacy,6,1024,2,48000,-16,experiment,2,even,8,397588,387896,395346,2737,188216,395358,NA,394260,2751,121299,400812,396372,399601,43737,399601,NA,NA,Sternberg Task,44,44368,46,yes,1024
95.74468085,95.74468085,966.5744681,966.5744681,black,experiment,legacy,legacy,legacy,0,uniform,1,undefined,1,right,46,46,46,0,0,46,NA,46,0,0,46,46,46,0,46,0,NA,Fri Oct 25 19:03:25 2019,The main experiment item,yes,SternbergTask.osexp,/Users/juancastaneda/Documents/Grad School /Advanced Quantitative Methods & Experimental Design,no,mono,no,18,no,white,no,yes,768,legacy,34,11,/Users/juancastaneda/Documents/Grad School /Advanced Quantitative Methods & Experimental Design/Sterberg Task/JC-subject-2.csv,legacy,1 4 9 2 5,Kafkaesque Koffka,3.2.8,0,n,0,right,left,right,right,NA,1061,40974,66800,1061,NA,NA,NA,2,legacy,5,1024,2,48000,-16,experiment,2,even,7,404155,400828,401913,2737,188216,401925,NA,394260,2751,121299,407231,402939,406168,43737,406168,NA,NA,Sternberg Task,45,45429,47,yes,1024
95.83333333,95.83333333,961.0416667,961.0416667,black,experiment,legacy,legacy,legacy,0,uniform,1,undefined,1,left,47,47,47,0,0,47,NA,47,0,0,47,47,47,0,47,0,NA,Fri Oct 25 19:03:25 2019,The main experiment item,yes,SternbergTask.osexp,/Users/juancastaneda/Documents/Grad School /Advanced Quantitative Methods & Experimental Design,no,mono,no,18,no,white,no,yes,768,legacy,35,11,/Users/juancastaneda/Documents/Grad School /Advanced Quantitative Methods & Experimental Design/Sterberg Task/JC-subject-2.csv,legacy,8 1 6,Kafkaesque Koffka,3.2.8,3,y,0,left,left,right,left,NA,701,40974,66800,701,NA,NA,NA,2,legacy,3,1024,2,48000,-16,experiment,2,even,6,410573,407246,408331,2737,188216,408343,NA,394260,2751,121299,413289,409357,412586,43737,412586,NA,NA,Sternberg Task,46,46130,48,yes,1024
95.91836735,95.91836735,956.3061224,956.3061224,black,experiment,legacy,legacy,legacy,0,uniform,1,undefined,1,left,48,48,48,0,0,48,NA,48,0,0,48,48,48,0,48,0,NA,Fri Oct 25 19:03:25 2019,The main experiment item,yes,SternbergTask.osexp,/Users/juancastaneda/Documents/Grad School /Advanced Quantitative Methods & Experimental Design,no,mono,no,18,no,white,no,yes,768,legacy,36,11,/Users/juancastaneda/Documents/Grad School /Advanced Quantitative Methods & Experimental Design/Sterberg Task/JC-subject-2.csv,legacy,6 2,Kafkaesque Koffka,3.2.8,1,y,0,left,left,right,left,NA,729,40974,66800,729,NA,NA,NA,2,legacy,2,1024,2,48000,-16,experiment,2,even,6,416629,413302,414386,2737,188216,414398,NA,394260,2751,121299,419373,415412,418642,43737,418642,NA,NA,Sternberg Task,47,46859,49,yes,1024
96,96,951.52,951.52,black,experiment,legacy,legacy,legacy,0,uniform,1,undefined,1,left,49,49,49,0,0,49,NA,49,0,0,49,49,49,0,49,0,NA,Fri Oct 25 19:03:25 2019,The main experiment item,yes,SternbergTask.osexp,/Users/juancastaneda/Documents/Grad School /Advanced Quantitative Methods & Experimental Design,no,mono,no,18,no,white,no,yes,768,legacy,37,11,/Users/juancastaneda/Documents/Grad School /Advanced Quantitative Methods & Experimental Design/Sterberg Task/JC-subject-2.csv,legacy,2 5 4 8 7,Kafkaesque Koffka,3.2.8,3,y,0,left,left,right,left,NA,717,40974,66800,717,NA,NA,NA,2,legacy,5,1024,2,48000,-16,experiment,2,even,4,422711,419387,420469,2737,188216,420481,NA,394260,2751,121299,425442,421495,424724,43737,424724,NA,NA,Sternberg Task,48,47576,50,yes,1024
94.11764706,94.11764706,952.7058824,952.7058824,black,experiment,legacy,legacy,legacy,0,uniform,0,undefined,0,right,50,50,50,0,0,50,NA,50,0,0,50,50,50,0,50,0,NA,Fri Oct 25 19:03:25 2019,The main experiment item,yes,SternbergTask.osexp,/Users/juancastaneda/Documents/Grad School /Advanced Quantitative Methods & Experimental Design,no,mono,no,18,no,white,no,yes,768,legacy,38,11,/Users/juancastaneda/Documents/Grad School /Advanced Quantitative Methods & Experimental Design/Sterberg Task/JC-subject-2.csv,legacy,1 5 3 2 8,Kafkaesque Koffka,3.2.8,0,n,0,left,left,right,left,NA,1012,40974,66800,1012,NA,NA,NA,2,legacy,5,1024,2,48000,-16,experiment,2,even,4,428781,425457,426539,2737,188216,426551,NA,394260,2751,121299,431808,427565,430794,43737,430794,NA,NA,Sternberg Task,48,48588,51,yes,1024
94.23076923,94.23076923,954.2692308,954.2692308,black,experiment,legacy,legacy,legacy,0,uniform,1,undefined,1,left,51,51,51,0,0,51,NA,51,0,0,51,51,51,0,51,0,NA,Fri Oct 25 19:03:25 2019,The main experiment item,yes,SternbergTask.osexp,/Users/juancastaneda/Documents/Grad School /Advanced Quantitative Methods & Experimental Design,no,mono,no,18,no,white,no,yes,768,legacy,39,11,/Users/juancastaneda/Documents/Grad School /Advanced Quantitative Methods & Experimental Design/Sterberg Task/JC-subject-2.csv,legacy,4 6 5 8,Kafkaesque Koffka,3.2.8,1,y,0,left,left,right,left,NA,1034,40974,66800,1034,NA,NA,NA,2,legacy,4,1024,2,48000,-16,experiment,2,even,4,435151,425457,432909,2737,188216,432921,NA,431823,2751,121299,438199,433935,437164,43737,437164,NA,NA,Sternberg Task,49,49622,52,yes,1024
94.33962264,94.33962264,953.1698113,953.1698113,black,experiment,legacy,legacy,legacy,0,uniform,1,undefined,1,right,52,52,52,0,0,52,NA,52,0,0,52,52,52,0,52,0,NA,Fri Oct 25 19:03:25 2019,The main experiment item,yes,SternbergTask.osexp,/Users/juancastaneda/Documents/Grad School /Advanced Quantitative Methods & Experimental Design,no,mono,no,18,no,white,no,yes,768,legacy,40,11,/Users/juancastaneda/Documents/Grad School /Advanced Quantitative Methods & Experimental Design/Sterberg Task/JC-subject-2.csv,legacy,7 6 4 8 1 2,Kafkaesque Koffka,3.2.8,0,n,0,right,left,right,right,NA,896,40974,66800,896,NA,NA,NA,2,legacy,6,1024,2,48000,-16,experiment,2,even,9,441543,438215,439301,2737,188216,439313,NA,431823,2751,121299,444455,440327,443556,43737,443555,NA,NA,Sternberg Task,50,50518,53,yes,1024
94.44444444,94.44444444,952.9814815,952.9814815,black,experiment,legacy,legacy,legacy,0,uniform,1,undefined,1,right,53,53,53,0,0,53,NA,53,0,0,53,53,53,0,53,0,NA,Fri Oct 25 19:03:25 2019,The main experiment item,yes,SternbergTask.osexp,/Users/juancastaneda/Documents/Grad School /Advanced Quantitative Methods & Experimental Design,no,mono,no,18,no,white,no,yes,768,legacy,41,11,/Users/juancastaneda/Documents/Grad School /Advanced Quantitative Methods & Experimental Design/Sterberg Task/JC-subject-2.csv,legacy,4 2 6 9,Kafkaesque Koffka,3.2.8,0,n,0,right,left,right,right,NA,943,40974,66800,943,NA,NA,NA,2,legacy,4,1024,2,48000,-16,experiment,2,even,7,447790,444468,445550,2737,188216,445561,NA,431823,2751,121299,450749,446575,449804,43737,449803,NA,NA,Sternberg Task,51,51461,54,yes,1024
94.54545455,94.54545455,950.4181818,950.4181818,black,experiment,legacy,legacy,legacy,0,uniform,1,undefined,1,left,54,54,54,0,0,54,NA,54,0,0,54,54,54,0,54,0,NA,Fri Oct 25 19:03:25 2019,The main experiment item,yes,SternbergTask.osexp,/Users/juancastaneda/Documents/Grad School /Advanced Quantitative Methods & Experimental Design,no,mono,no,18,no,white,no,yes,768,legacy,42,11,/Users/juancastaneda/Documents/Grad School /Advanced Quantitative Methods & Experimental Design/Sterberg Task/JC-subject-2.csv,legacy,7 1 3,Kafkaesque Koffka,3.2.8,2,y,0,left,left,right,left,NA,812,40974,66800,812,NA,NA,NA,2,legacy,3,1024,2,48000,-16,experiment,2,even,1,454087,450764,451845,2737,188216,451857,NA,431823,2751,121299,456914,452871,456100,43737,456100,NA,NA,Sternberg Task,52,52273,55,yes,1024
94.64285714,94.64285714,945.5714286,945.5714286,black,experiment,legacy,legacy,legacy,0,uniform,1,undefined,1,left,55,55,55,0,0,55,NA,55,0,0,55,55,55,0,55,0,NA,Fri Oct 25 19:03:25 2019,The main experiment item,yes,SternbergTask.osexp,/Users/juancastaneda/Documents/Grad School /Advanced Quantitative Methods & Experimental Design,no,mono,no,18,no,white,no,yes,768,legacy,43,11,/Users/juancastaneda/Documents/Grad School /Advanced Quantitative Methods & Experimental Design/Sterberg Task/JC-subject-2.csv,legacy,8,Kafkaesque Koffka,3.2.8,1,y,0,left,left,right,left,NA,679,40974,66800,679,NA,NA,NA,2,legacy,1,1024,2,48000,-16,experiment,2,even,8,460251,456929,458009,2737,188216,458021,NA,431823,2751,121299,462945,459035,462264,43737,462264,NA,NA,Sternberg Task,53,52952,56,yes,1024
94.73684211,94.73684211,946.3333333,946.3333333,black,experiment,legacy,legacy,legacy,0,uniform,1,undefined,1,left,56,56,56,0,0,56,NA,56,0,0,56,56,56,0,56,0,NA,Fri Oct 25 19:03:25 2019,The main experiment item,yes,SternbergTask.osexp,/Users/juancastaneda/Documents/Grad School /Advanced Quantitative Methods & Experimental Design,no,mono,no,18,no,white,no,yes,768,legacy,44,11,/Users/juancastaneda/Documents/Grad School /Advanced Quantitative Methods & Experimental Design/Sterberg Task/JC-subject-2.csv,legacy,9 4 2,Kafkaesque Koffka,3.2.8,1,y,0,left,left,right,left,NA,989,40974,66800,989,NA,NA,NA,2,legacy,3,1024,2,48000,-16,experiment,2,even,9,466287,462960,464044,2737,188216,464057,NA,431823,2751,121299,469291,465071,468300,43737,468300,NA,NA,Sternberg Task,54,53941,57,yes,1024
94.82758621,94.82758621,944.2241379,944.2241379,black,experiment,legacy,legacy,legacy,0,uniform,1,undefined,1,left,57,57,57,0,0,57,NA,57,0,0,57,57,57,0,57,0,NA,Fri Oct 25 19:03:25 2019,The main experiment item,yes,SternbergTask.osexp,/Users/juancastaneda/Documents/Grad School /Advanced Quantitative Methods & Experimental Design,no,mono,no,18,no,white,no,yes,768,legacy,45,11,/Users/juancastaneda/Documents/Grad School /Advanced Quantitative Methods & Experimental Design/Sterberg Task/JC-subject-2.csv,legacy,2 3 7 4,Kafkaesque Koffka,3.2.8,1,y,0,left,left,right,left,NA,824,40974,66800,824,NA,NA,NA,2,legacy,4,1024,2,48000,-16,experiment,2,even,2,472634,469306,470392,2737,188216,470404,NA,431823,2751,121299,475474,471418,474648,43737,474647,NA,NA,Sternberg Task,55,54765,58,yes,1024
94.91525424,94.91525424,948.5932203,948.5932203,black,experiment,legacy,legacy,legacy,0,uniform,1,undefined,1,left,58,58,58,0,0,58,NA,58,0,0,58,58,58,0,58,0,NA,Fri Oct 25 19:03:25 2019,The main experiment item,yes,SternbergTask.osexp,/Users/juancastaneda/Documents/Grad School /Advanced Quantitative Methods & Experimental Design,no,mono,no,18,no,white,no,yes,768,legacy,46,11,/Users/juancastaneda/Documents/Grad School /Advanced Quantitative Methods & Experimental Design/Sterberg Task/JC-subject-2.csv,legacy,4 7 6 8 2 3,Kafkaesque Koffka,3.2.8,6,y,0,left,left,right,left,NA,1202,40974,66800,1202,NA,NA,NA,2,legacy,6,1024,2,48000,-16,experiment,2,even,3,478815,475487,476573,2737,188216,476585,NA,431823,2751,121299,482032,477599,480828,43737,480828,NA,NA,Sternberg Task,56,55967,59,yes,1024
95,95,946.8666667,946.8666667,black,experiment,legacy,legacy,legacy,0,uniform,1,undefined,1,right,59,59,59,0,0,59,NA,59,0,0,59,59,59,0,59,0,NA,Fri Oct 25 19:03:25 2019,The main experiment item,yes,SternbergTask.osexp,/Users/juancastaneda/Documents/Grad School /Advanced Quantitative Methods & Experimental Design,no,mono,no,18,no,white,no,yes,768,legacy,47,11,/Users/juancastaneda/Documents/Grad School /Advanced Quantitative Methods & Experimental Design/Sterberg Task/JC-subject-2.csv,legacy,7 4 2 8 1 9,Kafkaesque Koffka,3.2.8,0,n,0,right,left,right,right,NA,845,40974,66800,845,NA,NA,NA,2,legacy,6,1024,2,48000,-16,experiment,2,even,5,485376,482047,483133,2737,188216,483145,NA,431823,2751,121299,488236,484159,487389,43737,487389,NA,NA,Sternberg Task,57,56812,60,yes,1024
95.08196721,95.08196721,948.557377,948.557377,black,experiment,legacy,legacy,legacy,0,uniform,1,undefined,1,left,60,60,60,0,0,60,NA,60,0,0,60,60,60,0,60,0,NA,Fri Oct 25 19:03:25 2019,The main experiment item,yes,SternbergTask.osexp,/Users/juancastaneda/Documents/Grad School /Advanced Quantitative Methods & Experimental Design,no,mono,no,18,no,white,no,yes,768,legacy,48,11,/Users/juancastaneda/Documents/Grad School /Advanced Quantitative Methods & Experimental Design/Sterberg Task/JC-subject-2.csv,legacy,8 5 3 7 4 6,Kafkaesque Koffka,3.2.8,6,y,0,left,left,right,left,NA,1050,40974,66800,1050,NA,NA,NA,2,legacy,6,1024,2,48000,-16,experiment,2,even,6,491579,488251,489337,2737,188216,489349,NA,431823,2751,121299,494643,490363,493592,43737,493592,NA,NA,Sternberg Task,58,57862,61,yes,1024
95.16129032,95.16129032,955.983871,955.983871,black,experiment,legacy,legacy,legacy,0,uniform,1,undefined,1,right,61,61,61,0,0,61,NA,61,0,0,61,61,61,0,61,0,NA,Fri Oct 25 19:03:25 2019,The main experiment item,yes,SternbergTask.osexp,/Users/juancastaneda/Documents/Grad School /Advanced Quantitative Methods & Experimental Design,no,mono,no,18,no,white,no,yes,768,legacy,49,11,/Users/juancastaneda/Documents/Grad School /Advanced Quantitative Methods & Experimental Design/Sterberg Task/JC-subject-2.csv,legacy,1 7 5 2,Kafkaesque Koffka,3.2.8,0,n,0,right,left,right,right,NA,1409,40974,66800,1409,NA,NA,NA,2,legacy,4,1024,2,48000,-16,experiment,2,even,3,497985,494659,495744,2737,188216,495756,NA,431823,2751,121299,501410,496769,499999,43737,499999,NA,NA,Sternberg Task,59,59271,62,yes,1024
95.23809524,95.23809524,955.5714286,955.5714286,black,experiment,legacy,legacy,legacy,0,uniform,1,undefined,1,right,62,62,62,0,0,62,NA,62,0,0,62,62,62,0,62,0,NA,Fri Oct 25 19:03:25 2019,The main experiment item,yes,SternbergTask.osexp,/Users/juancastaneda/Documents/Grad School /Advanced Quantitative Methods & Experimental Design,no,mono,no,18,no,white,no,yes,768,legacy,50,11,/Users/juancastaneda/Documents/Grad School /Advanced Quantitative Methods & Experimental Design/Sterberg Task/JC-subject-2.csv,legacy,2 3 8 5 6 7,Kafkaesque Koffka,3.2.8,0,n,0,right,left,right,right,NA,930,40974,66800,930,NA,NA,NA,2,legacy,6,1024,2,48000,-16,experiment,2,even,1,504750,501425,502508,2737,188216,502519,NA,431823,2751,121299,507695,503534,506763,43737,506763,NA,NA,Sternberg Task,60,60201,63,yes,1024
95.3125,95.3125,960.734375,960.734375,black,experiment,legacy,legacy,legacy,0,uniform,1,undefined,1,right,63,63,63,0,0,63,NA,63,0,0,63,63,63,0,63,0,NA,Fri Oct 25 19:03:25 2019,The main experiment item,yes,SternbergTask.osexp,/Users/juancastaneda/Documents/Grad School /Advanced Quantitative Methods & Experimental Design,no,mono,no,18,no,white,no,yes,768,legacy,51,11,/Users/juancastaneda/Documents/Grad School /Advanced Quantitative Methods & Experimental Design/Sterberg Task/JC-subject-2.csv,legacy,5 2,Kafkaesque Koffka,3.2.8,0,n,0,right,left,right,right,NA,1286,40974,66800,1286,NA,NA,NA,2,legacy,2,1024,2,48000,-16,experiment,2,even,7,511033,507710,508791,2737,188216,508802,NA,431823,2751,121299,514334,509816,513046,43737,513046,NA,NA,Sternberg Task,61,61487,64,yes,1024
93.84615385,93.84615385,965.2615385,965.2615385,black,experiment,legacy,legacy,legacy,0,uniform,0,undefined,0,left,64,64,64,0,0,64,NA,64,0,0,64,64,64,0,64,0,NA,Fri Oct 25 19:03:25 2019,The main experiment item,yes,SternbergTask.osexp,/Users/juancastaneda/Documents/Grad School /Advanced Quantitative Methods & Experimental Design,no,mono,no,18,no,white,no,yes,768,legacy,52,11,/Users/juancastaneda/Documents/Grad School /Advanced Quantitative Methods & Experimental Design/Sterberg Task/JC-subject-2.csv,legacy,7 6,Kafkaesque Koffka,3.2.8,2,y,0,right,left,right,right,NA,1255,40974,66800,1255,NA,NA,NA,2,legacy,2,1024,2,48000,-16,experiment,2,even,6,517676,514353,515433,2737,188216,515445,NA,431823,2751,121299,520945,516459,519689,43737,519688,NA,NA,Sternberg Task,61,62742,65,yes,1024
93.93939394,93.93939394,969.6060606,969.6060606,black,experiment,legacy,legacy,legacy,0,uniform,1,undefined,1,left,65,65,65,0,0,65,NA,65,0,0,65,65,65,0,65,0,NA,Fri Oct 25 19:03:25 2019,The main experiment item,yes,SternbergTask.osexp,/Users/juancastaneda/Documents/Grad School /Advanced Quantitative Methods & Experimental Design,no,mono,no,18,no,white,no,yes,768,legacy,53,11,/Users/juancastaneda/Documents/Grad School /Advanced Quantitative Methods & Experimental Design/Sterberg Task/JC-subject-2.csv,legacy,7 4 2 6 3 5,Kafkaesque Koffka,3.2.8,6,y,0,left,left,right,left,NA,1252,40974,66800,1252,NA,NA,NA,2,legacy,6,1024,2,48000,-16,experiment,2,even,5,524285,514353,522043,2737,188216,522055,NA,520961,2751,121299,527552,523069,526298,43737,526298,NA,NA,Sternberg Task,62,63994,66,yes,1024
94.02985075,94.02985075,967.9104478,967.9104478,black,experiment,legacy,legacy,legacy,0,uniform,1,undefined,1,right,66,66,66,0,0,66,NA,66,0,0,66,66,66,0,66,0,NA,Fri Oct 25 19:03:25 2019,The main experiment item,yes,SternbergTask.osexp,/Users/juancastaneda/Documents/Grad School /Advanced Quantitative Methods & Experimental Design,no,mono,no,18,no,white,no,yes,768,legacy,54,11,/Users/juancastaneda/Documents/Grad School /Advanced Quantitative Methods & Experimental Design/Sterberg Task/JC-subject-2.csv,legacy,6 9 5,Kafkaesque Koffka,3.2.8,0,n,0,right,left,right,right,NA,856,40974,66800,856,NA,NA,NA,2,legacy,3,1024,2,48000,-16,experiment,2,even,8,530893,527566,528651,2737,188216,528663,NA,520961,2751,121299,533764,529677,532906,43737,532906,NA,NA,Sternberg Task,63,64850,67,yes,1024
94.11764706,94.11764706,964.1764706,964.1764706,black,experiment,legacy,legacy,legacy,0,uniform,1,undefined,1,left,67,67,67,0,0,67,NA,67,0,0,67,67,67,0,67,0,NA,Fri Oct 25 19:03:25 2019,The main experiment item,yes,SternbergTask.osexp,/Users/juancastaneda/Documents/Grad School /Advanced Quantitative Methods & Experimental Design,no,mono,no,18,no,white,no,yes,768,legacy,55,11,/Users/juancastaneda/Documents/Grad School /Advanced Quantitative Methods & Experimental Design/Sterberg Task/JC-subject-2.csv,legacy,9 1 6 7 8,Kafkaesque Koffka,3.2.8,1,y,0,left,left,right,left,NA,714,40974,66800,714,NA,NA,NA,2,legacy,5,1024,2,48000,-16,experiment,2,even,9,537106,533778,534864,2737,188216,534876,NA,520961,2751,121299,539835,535890,539119,43737,539119,NA,NA,Sternberg Task,64,65564,68,yes,1024
94.20289855,94.20289855,962.2753623,962.2753623,black,experiment,legacy,legacy,legacy,0,uniform,1,undefined,1,right,68,68,68,0,0,68,NA,68,0,0,68,68,68,0,68,0,NA,Fri Oct 25 19:03:25 2019,The main experiment item,yes,SternbergTask.osexp,/Users/juancastaneda/Documents/Grad School /Advanced Quantitative Methods & Experimental Design,no,mono,no,18,no,white,no,yes,768,legacy,56,11,/Users/juancastaneda/Documents/Grad School /Advanced Quantitative Methods & Experimental Design/Sterberg Task/JC-subject-2.csv,legacy,6 8 4,Kafkaesque Koffka,3.2.8,0,n,0,right,left,right,right,NA,833,40974,66800,833,NA,NA,NA,2,legacy,3,1024,2,48000,-16,experiment,2,even,1,543177,539850,540935,2737,188216,540947,NA,520961,2751,121299,546025,541961,545190,43737,545190,NA,NA,Sternberg Task,65,66397,69,yes,1024
92.85714286,92.85714286,966.2428571,966.2428571,black,experiment,legacy,legacy,legacy,0,uniform,0,undefined,0,right,69,69,69,0,0,69,NA,69,0,0,69,69,69,0,69,0,NA,Fri Oct 25 19:03:25 2019,The main experiment item,yes,SternbergTask.osexp,/Users/juancastaneda/Documents/Grad School /Advanced Quantitative Methods & Experimental Design,no,mono,no,18,no,white,no,yes,768,legacy,57,11,/Users/juancastaneda/Documents/Grad School /Advanced Quantitative Methods & Experimental Design/Sterberg Task/JC-subject-2.csv,legacy,6 3 1 7 9 8,Kafkaesque Koffka,3.2.8,0,n,0,left,left,right,left,NA,1240,40974,66800,1240,NA,NA,NA,2,legacy,6,1024,2,48000,-16,experiment,2,even,4,549368,546040,547126,2737,188216,547138,NA,520961,2751,121299,552624,548152,551382,43737,551382,NA,NA,Sternberg Task,65,67637,70,yes,1024
92.95774648,92.95774648,966.0704225,966.0704225,black,experiment,legacy,legacy,legacy,0,uniform,1,undefined,1,right,70,70,70,0,0,70,NA,70,0,0,70,70,70,0,70,0,NA,Fri Oct 25 19:03:25 2019,The main experiment item,yes,SternbergTask.osexp,/Users/juancastaneda/Documents/Grad School /Advanced Quantitative Methods & Experimental Design,no,mono,no,18,no,white,no,yes,768,legacy,58,11,/Users/juancastaneda/Documents/Grad School /Advanced Quantitative Methods & Experimental Design/Sterberg Task/JC-subject-2.csv,legacy,8 5 4 2 9 6,Kafkaesque Koffka,3.2.8,0,n,0,right,left,right,right,NA,954,40974,66800,954,NA,NA,NA,2,legacy,6,1024,2,48000,-16,experiment,2,even,3,555963,546040,553721,2737,188216,553733,NA,552639,2751,121299,558931,554747,557976,43737,557975,NA,NA,Sternberg Task,66,68591,71,yes,1024
93.05555556,93.05555556,966.1805556,966.1805556,black,experiment,legacy,legacy,legacy,0,uniform,1,undefined,1,right,71,71,71,0,0,71,NA,71,0,0,71,71,71,0,71,0,NA,Fri Oct 25 19:03:25 2019,The main experiment item,yes,SternbergTask.osexp,/Users/juancastaneda/Documents/Grad School /Advanced Quantitative Methods & Experimental Design,no,mono,no,18,no,white,no,yes,768,legacy,59,11,/Users/juancastaneda/Documents/Grad School /Advanced Quantitative Methods & Experimental Design/Sterberg Task/JC-subject-2.csv,legacy,1 4 3 6 5,Kafkaesque Koffka,3.2.8,0,n,0,right,left,right,right,NA,974,40974,66800,974,NA,NA,NA,2,legacy,5,1024,2,48000,-16,experiment,2,even,8,562271,558947,560029,2737,188216,560040,NA,552639,2751,121299,565259,561054,564284,43737,564284,NA,NA,Sternberg Task,67,69565,72,yes,1024
93.15068493,93.15068493,966.5068493,966.5068493,black,experiment,legacy,legacy,legacy,0,uniform,1,undefined,1,left,72,72,72,0,0,72,NA,72,0,0,72,72,72,0,72,0,NA,Fri Oct 25 19:03:25 2019,The main experiment item,yes,SternbergTask.osexp,/Users/juancastaneda/Documents/Grad School /Advanced Quantitative Methods & Experimental Design,no,mono,no,18,no,white,no,yes,768,legacy,60,11,/Users/juancastaneda/Documents/Grad School /Advanced Quantitative Methods & Experimental Design/Sterberg Task/JC-subject-2.csv,legacy,6 1 2,Kafkaesque Koffka,3.2.8,3,y,0,left,left,right,left,NA,990,40974,66800,990,NA,NA,NA,2,legacy,3,1024,2,48000,-16,experiment,2,even,2,568596,565273,566353,2737,188216,566365,NA,552639,2751,121299,571600,567379,570609,43737,570609,NA,NA,Sternberg Task,68,70555,73,yes,1024
93.24324324,93.24324324,965.9189189,965.9189189,black,experiment,legacy,legacy,legacy,0,uniform,1,undefined,1,right,73,73,73,0,0,73,NA,73,0,0,73,73,73,0,73,0,NA,Fri Oct 25 19:03:25 2019,The main experiment item,yes,SternbergTask.osexp,/Users/juancastaneda/Documents/Grad School /Advanced Quantitative Methods & Experimental Design,no,mono,no,18,no,white,no,yes,768,legacy,61,11,/Users/juancastaneda/Documents/Grad School /Advanced Quantitative Methods & Experimental Design/Sterberg Task/JC-subject-2.csv,legacy,1 6 4 3 9 7,Kafkaesque Koffka,3.2.8,0,n,0,right,left,right,right,NA,923,40974,66800,923,NA,NA,NA,2,legacy,6,1024,2,48000,-16,experiment,2,even,8,574940,571616,572698,2737,188216,572710,NA,552639,2751,121299,577878,573724,576953,43737,576953,NA,NA,Sternberg Task,69,71478,74,yes,1024
93.33333333,93.33333333,965.16,965.16,black,experiment,legacy,legacy,legacy,0,uniform,1,undefined,1,left,74,74,74,0,0,74,NA,74,0,0,74,74,74,0,74,0,NA,Fri Oct 25 19:03:25 2019,The main experiment item,yes,SternbergTask.osexp,/Users/juancastaneda/Documents/Grad School /Advanced Quantitative Methods & Experimental Design,no,mono,no,18,no,white,no,yes,768,legacy,62,11,/Users/juancastaneda/Documents/Grad School /Advanced Quantitative Methods & Experimental Design/Sterberg Task/JC-subject-2.csv,legacy,3 2 1 4 7,Kafkaesque Koffka,3.2.8,2,y,0,left,left,right,left,NA,909,40974,66800,909,NA,NA,NA,2,legacy,5,1024,2,48000,-16,experiment,2,even,2,581217,577893,578974,2737,188216,578986,NA,552639,2751,121299,584141,580001,583230,43737,583230,NA,NA,Sternberg Task,70,72387,75,yes,1024
93.42105263,93.42105263,963.5657895,963.5657895,black,experiment,legacy,legacy,legacy,0,uniform,1,undefined,1,left,75,75,75,0,0,75,NA,75,0,0,75,75,75,0,75,0,NA,Fri Oct 25 19:03:25 2019,The main experiment item,yes,SternbergTask.osexp,/Users/juancastaneda/Documents/Grad School /Advanced Quantitative Methods & Experimental Design,no,mono,no,18,no,white,no,yes,768,legacy,63,11,/Users/juancastaneda/Documents/Grad School /Advanced Quantitative Methods & Experimental Design/Sterberg Task/JC-subject-2.csv,legacy,5 2 9 6 1 7,Kafkaesque Koffka,3.2.8,3,y,0,left,left,right,left,NA,844,40974,66800,844,NA,NA,NA,2,legacy,6,1024,2,48000,-16,experiment,2,even,9,587481,584156,585239,2737,188216,585250,NA,552639,2751,121299,590340,586264,589494,43737,589494,NA,NA,Sternberg Task,71,73231,76,yes,1024
93.50649351,93.50649351,963.5584416,963.5584416,black,experiment,legacy,legacy,legacy,0,uniform,1,undefined,1,left,76,76,76,0,0,76,NA,76,0,0,76,76,76,0,76,0,NA,Fri Oct 25 19:03:25 2019,The main experiment item,yes,SternbergTask.osexp,/Users/juancastaneda/Documents/Grad School /Advanced Quantitative Methods & Experimental Design,no,mono,no,18,no,white,no,yes,768,legacy,64,11,/Users/juancastaneda/Documents/Grad School /Advanced Quantitative Methods & Experimental Design/Sterberg Task/JC-subject-2.csv,legacy,8 5 1 3 9,Kafkaesque Koffka,3.2.8,4,y,0,left,left,right,left,NA,963,40974,66800,963,NA,NA,NA,2,legacy,5,1024,2,48000,-16,experiment,2,even,3,593679,590356,591437,2737,188216,591449,NA,552639,2751,121299,596656,592463,595692,43737,595692,NA,NA,Sternberg Task,72,74194,77,yes,1024
93.58974359,93.58974359,963.4102564,963.4102564,black,experiment,legacy,legacy,legacy,0,uniform,1,undefined,1,right,77,77,77,0,0,77,NA,77,0,0,77,77,77,0,77,0,NA,Fri Oct 25 19:03:25 2019,The main experiment item,yes,SternbergTask.osexp,/Users/juancastaneda/Documents/Grad School /Advanced Quantitative Methods & Experimental Design,no,mono,no,18,no,white,no,yes,768,legacy,65,11,/Users/juancastaneda/Documents/Grad School /Advanced Quantitative Methods & Experimental Design/Sterberg Task/JC-subject-2.csv,legacy,4 2 7 6 1 3,Kafkaesque Koffka,3.2.8,0,n,0,right,left,right,right,NA,952,40974,66800,952,NA,NA,NA,2,legacy,6,1024,2,48000,-16,experiment,2,even,8,599996,596671,597753,2737,188216,597765,NA,552639,2751,121299,602962,598779,602008,43737,602008,NA,NA,Sternberg Task,73,75146,78,yes,1024
93.67088608,93.67088608,962.5822785,962.5822785,black,experiment,legacy,legacy,legacy,0,uniform,1,undefined,1,left,78,78,78,0,0,78,NA,78,0,0,78,78,78,0,78,0,NA,Fri Oct 25 19:03:25 2019,The main experiment item,yes,SternbergTask.osexp,/Users/juancastaneda/Documents/Grad School /Advanced Quantitative Methods & Experimental Design,no,mono,no,18,no,white,no,yes,768,legacy,66,11,/Users/juancastaneda/Documents/Grad School /Advanced Quantitative Methods & Experimental Design/Sterberg Task/JC-subject-2.csv,legacy,2 3,Kafkaesque Koffka,3.2.8,1,y,0,left,left,right,left,NA,898,40974,66800,898,NA,NA,NA,2,legacy,2,1024,2,48000,-16,experiment,2,even,2,606300,602977,604058,2737,188216,604070,NA,552639,2751,121299,609213,605084,608313,43737,608313,NA,NA,Sternberg Task,74,76044,79,yes,1024
93.75,93.75,961.575,961.575,black,experiment,legacy,legacy,legacy,0,uniform,1,undefined,1,left,79,79,79,0,0,79,NA,79,0,0,79,79,79,0,79,0,NA,Fri Oct 25 19:03:25 2019,The main experiment item,yes,SternbergTask.osexp,/Users/juancastaneda/Documents/Grad School /Advanced Quantitative Methods & Experimental Design,no,mono,no,18,no,white,no,yes,768,legacy,67,11,/Users/juancastaneda/Documents/Grad School /Advanced Quantitative Methods & Experimental Design/Sterberg Task/JC-subject-2.csv,legacy,3 5 9 6 2 4,Kafkaesque Koffka,3.2.8,1,y,0,left,left,right,left,NA,882,40974,66800,882,NA,NA,NA,2,legacy,6,1024,2,48000,-16,experiment,2,even,3,612552,609228,610310,2737,188216,610322,NA,552639,2751,121299,615448,611336,614565,43737,614565,NA,NA,Sternberg Task,75,76926,80,yes,1024
93.82716049,93.82716049,962.8271605,962.8271605,black,experiment,legacy,legacy,legacy,0,uniform,1,undefined,1,left,80,80,80,0,0,80,NA,80,0,0,80,80,80,0,80,0,NA,Fri Oct 25 19:03:25 2019,The main experiment item,yes,SternbergTask.osexp,/Users/juancastaneda/Documents/Grad School /Advanced Quantitative Methods & Experimental Design,no,mono,no,18,no,white,no,yes,768,legacy,68,11,/Users/juancastaneda/Documents/Grad School /Advanced Quantitative Methods & Experimental Design/Sterberg Task/JC-subject-2.csv,legacy,2 8 5 1,Kafkaesque Koffka,3.2.8,4,y,0,left,left,right,left,NA,1063,40974,66800,1063,NA,NA,NA,2,legacy,4,1024,2,48000,-16,experiment,2,even,1,618787,615464,616545,2737,188216,616557,NA,552639,2751,121299,621864,617571,620800,43737,620800,NA,NA,Sternberg Task,76,77989,81,yes,1024
93.90243902,93.90243902,959.8902439,959.8902439,black,experiment,legacy,legacy,legacy,0,uniform,1,undefined,1,left,81,81,81,0,0,81,NA,81,0,0,81,81,81,0,81,0,NA,Fri Oct 25 19:03:25 2019,The main experiment item,yes,SternbergTask.osexp,/Users/juancastaneda/Documents/Grad School /Advanced Quantitative Methods & Experimental Design,no,mono,no,18,no,white,no,yes,768,legacy,69,11,/Users/juancastaneda/Documents/Grad School /Advanced Quantitative Methods & Experimental Design/Sterberg Task/JC-subject-2.csv,legacy,9 1 7 2,Kafkaesque Koffka,3.2.8,2,y,0,left,left,right,left,NA,722,40974,66800,722,NA,NA,NA,2,legacy,4,1024,2,48000,-16,experiment,2,even,1,625202,621880,622960,2737,188216,622972,NA,552639,2751,121299,627938,623986,627215,43737,627215,NA,NA,Sternberg Task,77,78711,82,yes,1024
93.97590361,93.97590361,956.6385542,956.6385542,black,experiment,legacy,legacy,legacy,0,uniform,1,undefined,1,left,82,82,82,0,0,82,NA,82,0,0,82,82,82,0,82,0,NA,Fri Oct 25 19:03:25 2019,The main experiment item,yes,SternbergTask.osexp,/Users/juancastaneda/Documents/Grad School /Advanced Quantitative Methods & Experimental Design,no,mono,no,18,no,white,no,yes,768,legacy,70,11,/Users/juancastaneda/Documents/Grad School /Advanced Quantitative Methods & Experimental Design/Sterberg Task/JC-subject-2.csv,legacy,7 8 6 3 1,Kafkaesque Koffka,3.2.8,5,y,0,left,left,right,left,NA,690,40974,66800,690,NA,NA,NA,2,legacy,5,1024,2,48000,-16,experiment,2,even,1,631291,627954,629043,2737,188216,629061,NA,552639,2751,121299,633996,630075,633304,43737,633304,NA,NA,Sternberg Task,78,79401,83,yes,1024
94.04761905,94.04761905,955.9285714,955.9285714,black,experiment,legacy,legacy,legacy,0,uniform,1,undefined,1,right,83,83,83,0,0,83,NA,83,0,0,83,83,83,0,83,0,NA,Fri Oct 25 19:03:25 2019,The main experiment item,yes,SternbergTask.osexp,/Users/juancastaneda/Documents/Grad School /Advanced Quantitative Methods & Experimental Design,no,mono,no,18,no,white,no,yes,768,legacy,71,11,/Users/juancastaneda/Documents/Grad School /Advanced Quantitative Methods & Experimental Design/Sterberg Task/JC-subject-2.csv,legacy,5 3 2 6 9 8,Kafkaesque Koffka,3.2.8,0,n,0,right,left,right,right,NA,897,40974,66800,897,NA,NA,NA,2,legacy,6,1024,2,48000,-16,experiment,2,even,4,637339,634011,635098,2737,188216,635109,NA,552639,2751,121299,640251,636123,639352,43737,639352,NA,NA,Sternberg Task,79,80298,84,yes,1024
94.11764706,94.11764706,960.8588235,960.8588235,black,experiment,legacy,legacy,legacy,0,uniform,1,undefined,1,right,84,84,84,0,0,84,NA,84,0,0,84,84,84,0,84,0,NA,Fri Oct 25 19:03:25 2019,The main experiment item,yes,SternbergTask.osexp,/Users/juancastaneda/Documents/Grad School /Advanced Quantitative Methods & Experimental Design,no,mono,no,18,no,white,no,yes,768,legacy,72,11,/Users/juancastaneda/Documents/Grad School /Advanced Quantitative Methods & Experimental Design/Sterberg Task/JC-subject-2.csv,legacy,3 4 2,Kafkaesque Koffka,3.2.8,0,n,0,right,left,right,right,NA,1375,40974,66800,1375,NA,NA,NA,2,legacy,3,1024,2,48000,-16,experiment,2,even,5,643594,640266,641351,2737,188216,641363,NA,552639,2751,121299,646984,642377,645607,43737,645607,NA,NA,Sternberg Task,80,81673,85,yes,1024
94.18604651,94.18604651,962,962,black,experiment,legacy,legacy,legacy,0,uniform,1,undefined,1,right,85,85,85,0,0,85,NA,85,0,0,85,85,85,0,85,0,NA,Fri Oct 25 19:03:25 2019,The main experiment item,yes,SternbergTask.osexp,/Users/juancastaneda/Documents/Grad School /Advanced Quantitative Methods & Experimental Design,no,mono,no,18,no,white,no,yes,768,legacy,73,11,/Users/juancastaneda/Documents/Grad School /Advanced Quantitative Methods & Experimental Design/Sterberg Task/JC-subject-2.csv,legacy,7 9 1 6,Kafkaesque Koffka,3.2.8,0,n,0,right,left,right,right,NA,1059,40974,66800,1059,NA,NA,NA,2,legacy,4,1024,2,48000,-16,experiment,2,even,4,650327,647000,648085,2737,188216,648097,NA,552639,2751,121299,653401,649111,652340,43737,652340,NA,NA,Sternberg Task,81,82732,86,yes,1024
94.25287356,94.25287356,962.1494253,962.1494253,black,experiment,legacy,legacy,legacy,0,uniform,1,undefined,1,left,86,86,86,0,0,86,NA,86,0,0,86,86,86,0,86,0,NA,Fri Oct 25 19:03:25 2019,The main experiment item,yes,SternbergTask.osexp,/Users/juancastaneda/Documents/Grad School /Advanced Quantitative Methods & Experimental Design,no,mono,no,18,no,white,no,yes,768,legacy,74,11,/Users/juancastaneda/Documents/Grad School /Advanced Quantitative Methods & Experimental Design/Sterberg Task/JC-subject-2.csv,legacy,5 7 8 2 3 8,Kafkaesque Koffka,3.2.8,5,y,0,left,left,right,left,NA,975,40974,66800,975,NA,NA,NA,2,legacy,6,1024,2,48000,-16,experiment,2,even,3,656742,653415,654500,2737,188216,654512,NA,552639,2751,121299,659732,655526,658755,43737,658755,NA,NA,Sternberg Task,82,83707,87,yes,1024
94.31818182,94.31818182,960.2954545,960.2954545,black,experiment,legacy,legacy,legacy,0,uniform,1,undefined,1,right,87,87,87,0,0,87,NA,87,0,0,87,87,87,0,87,0,NA,Fri Oct 25 19:03:25 2019,The main experiment item,yes,SternbergTask.osexp,/Users/juancastaneda/Documents/Grad School /Advanced Quantitative Methods & Experimental Design,no,mono,no,18,no,white,no,yes,768,legacy,75,11,/Users/juancastaneda/Documents/Grad School /Advanced Quantitative Methods & Experimental Design/Sterberg Task/JC-subject-2.csv,legacy,7 1,Kafkaesque Koffka,3.2.8,0,n,0,right,left,right,right,NA,799,40974,66800,799,NA,NA,NA,2,legacy,2,1024,2,48000,-16,experiment,2,even,8,663076,659748,660834,2737,188216,660846,NA,552639,2751,121299,665890,661860,665089,43737,665089,NA,NA,Sternberg Task,83,84506,88,yes,1024
94.38202247,94.38202247,959.1573034,959.1573034,black,experiment,legacy,legacy,legacy,0,uniform,1,undefined,1,left,88,88,88,0,0,88,NA,88,0,0,88,88,88,0,88,0,NA,Fri Oct 25 19:03:25 2019,The main experiment item,yes,SternbergTask.osexp,/Users/juancastaneda/Documents/Grad School /Advanced Quantitative Methods & Experimental Design,no,mono,no,18,no,white,no,yes,768,legacy,76,11,/Users/juancastaneda/Documents/Grad School /Advanced Quantitative Methods & Experimental Design/Sterberg Task/JC-subject-2.csv,legacy,4 1 8 7 5,Kafkaesque Koffka,3.2.8,3,y,0,left,left,right,left,NA,859,40974,66800,859,NA,NA,NA,2,legacy,5,1024,2,48000,-16,experiment,2,even,8,669233,665905,666992,2737,188216,667003,NA,552639,2751,121299,672107,668017,671246,43737,671246,NA,NA,Sternberg Task,84,85365,89,yes,1024
94.44444444,94.44444444,955.9,955.9,black,experiment,legacy,legacy,legacy,0,uniform,1,undefined,1,left,89,89,89,0,0,89,NA,89,0,0,89,89,89,0,89,0,NA,Fri Oct 25 19:03:25 2019,The main experiment item,yes,SternbergTask.osexp,/Users/juancastaneda/Documents/Grad School /Advanced Quantitative Methods & Experimental Design,no,mono,no,18,no,white,no,yes,768,legacy,77,11,/Users/juancastaneda/Documents/Grad School /Advanced Quantitative Methods & Experimental Design/Sterberg Task/JC-subject-2.csv,legacy,7,Kafkaesque Koffka,3.2.8,1,y,0,left,left,right,left,NA,666,40974,66800,666,NA,NA,NA,2,legacy,1,1024,2,48000,-16,experiment,2,even,7,675449,672123,673207,2737,188216,673219,NA,552639,2751,121299,678130,674233,677462,43737,677462,NA,NA,Sternberg Task,85,86031,90,yes,1024
94.50549451,94.50549451,955.3186813,955.3186813,black,experiment,legacy,legacy,legacy,0,uniform,1,undefined,1,left,90,90,90,0,0,90,NA,90,0,0,90,90,90,0,90,0,NA,Fri Oct 25 19:03:25 2019,The main experiment item,yes,SternbergTask.osexp,/Users/juancastaneda/Documents/Grad School /Advanced Quantitative Methods & Experimental Design,no,mono,no,18,no,white,no,yes,768,legacy,78,11,/Users/juancastaneda/Documents/Grad School /Advanced Quantitative Methods & Experimental Design/Sterberg Task/JC-subject-2.csv,legacy,8 9 5 7 1 6,Kafkaesque Koffka,3.2.8,4,y,0,left,left,right,left,NA,903,40974,66800,903,NA,NA,NA,2,legacy,6,1024,2,48000,-16,experiment,2,even,7,681474,678146,679232,2737,188216,679243,NA,552639,2751,121299,684392,680258,683487,43737,683487,NA,NA,Sternberg Task,86,86934,91,yes,1024
94.56521739,94.56521739,954.7173913,954.7173913,black,experiment,legacy,legacy,legacy,0,uniform,1,undefined,1,left,91,91,91,0,0,91,NA,91,0,0,91,91,91,0,91,0,NA,Fri Oct 25 19:03:25 2019,The main experiment item,yes,SternbergTask.osexp,/Users/juancastaneda/Documents/Grad School /Advanced Quantitative Methods & Experimental Design,no,mono,no,18,no,white,no,yes,768,legacy,79,11,/Users/juancastaneda/Documents/Grad School /Advanced Quantitative Methods & Experimental Design/Sterberg Task/JC-subject-2.csv,legacy,4 3 2 5 8,Kafkaesque Koffka,3.2.8,2,y,0,left,left,right,left,NA,900,40974,66800,900,NA,NA,NA,2,legacy,5,1024,2,48000,-16,experiment,2,even,3,687733,684405,685491,2737,188216,685503,NA,552639,2751,121299,690648,686517,689746,43737,689746,NA,NA,Sternberg Task,87,87834,92,yes,1024
94.62365591,94.62365591,952.7204301,952.7204301,black,experiment,legacy,legacy,legacy,0,uniform,1,undefined,1,left,92,92,92,0,0,92,NA,92,0,0,92,92,92,0,92,0,NA,Fri Oct 25 19:03:25 2019,The main experiment item,yes,SternbergTask.osexp,/Users/juancastaneda/Documents/Grad School /Advanced Quantitative Methods & Experimental Design,no,mono,no,18,no,white,no,yes,768,legacy,80,11,/Users/juancastaneda/Documents/Grad School /Advanced Quantitative Methods & Experimental Design/Sterberg Task/JC-subject-2.csv,legacy,4 1 5,Kafkaesque Koffka,3.2.8,2,y,0,left,left,right,left,NA,769,40974,66800,769,NA,NA,NA,2,legacy,3,1024,2,48000,-16,experiment,2,even,1,693992,690663,691749,2737,188216,691761,NA,552639,2751,121299,696775,692775,696004,43737,696004,NA,NA,Sternberg Task,88,88603,93,yes,1024
94.68085106,94.68085106,963.212766,963.212766,black,experiment,legacy,legacy,legacy,0,uniform,1,undefined,1,left,93,93,93,0,0,93,NA,93,0,0,93,93,93,0,93,0,NA,Fri Oct 25 19:03:25 2019,The main experiment item,yes,SternbergTask.osexp,/Users/juancastaneda/Documents/Grad School /Advanced Quantitative Methods & Experimental Design,no,mono,no,18,no,white,no,yes,768,legacy,81,11,/Users/juancastaneda/Documents/Grad School /Advanced Quantitative Methods & Experimental Design/Sterberg Task/JC-subject-2.csv,legacy,8 5 4 7 3 1,Kafkaesque Koffka,3.2.8,2,y,0,left,left,right,left,NA,1939,40974,66800,1939,NA,NA,NA,2,legacy,6,1024,2,48000,-16,experiment,2,even,5,700119,696790,697876,2737,188216,697888,NA,552639,2751,121299,704074,698903,702132,43737,702132,NA,NA,Sternberg Task,89,90542,94,yes,1024
94.73684211,94.73684211,963.2315789,963.2315789,black,experiment,legacy,legacy,legacy,0,uniform,1,undefined,1,right,94,94,94,0,0,94,NA,94,0,0,94,94,94,0,94,0,NA,Fri Oct 25 19:03:25 2019,The main experiment item,yes,SternbergTask.osexp,/Users/juancastaneda/Documents/Grad School /Advanced Quantitative Methods & Experimental Design,no,mono,no,18,no,white,no,yes,768,legacy,82,11,/Users/juancastaneda/Documents/Grad School /Advanced Quantitative Methods & Experimental Design/Sterberg Task/JC-subject-2.csv,legacy,2 8 7 9 5 3,Kafkaesque Koffka,3.2.8,0,n,0,right,left,right,right,NA,965,40974,66800,965,NA,NA,NA,2,legacy,6,1024,2,48000,-16,experiment,2,even,6,707412,704088,705170,2737,188216,705182,NA,552639,2751,121299,710391,706196,709425,43737,709425,NA,NA,Sternberg Task,90,91507,95,yes,1024
94.79166667,94.79166667,964.9375,964.9375,black,experiment,legacy,legacy,legacy,0,uniform,1,undefined,1,right,95,95,95,0,0,95,NA,95,0,0,95,95,95,0,95,0,NA,Fri Oct 25 19:03:25 2019,The main experiment item,yes,SternbergTask.osexp,/Users/juancastaneda/Documents/Grad School /Advanced Quantitative Methods & Experimental Design,no,mono,no,18,no,white,no,yes,768,legacy,83,11,/Users/juancastaneda/Documents/Grad School /Advanced Quantitative Methods & Experimental Design/Sterberg Task/JC-subject-2.csv,legacy,2 8 9 4 1,Kafkaesque Koffka,3.2.8,0,n,0,right,left,right,right,NA,1127,40974,66800,1127,NA,NA,NA,2,legacy,5,1024,2,48000,-16,experiment,2,even,5,713735,710407,711493,2737,188216,711505,NA,552639,2751,121299,716878,712519,715748,43737,715748,NA,NA,Sternberg Task,91,92634,96,yes,1024
94.84536082,94.84536082,964.2268041,964.2268041,black,experiment,legacy,legacy,legacy,0,uniform,1,undefined,1,left,96,96,96,0,0,96,NA,96,0,0,96,96,96,0,96,0,NA,Fri Oct 25 19:03:25 2019,The main experiment item,yes,SternbergTask.osexp,/Users/juancastaneda/Documents/Grad School /Advanced Quantitative Methods & Experimental Design,no,mono,no,18,no,white,no,yes,768,legacy,84,11,/Users/juancastaneda/Documents/Grad School /Advanced Quantitative Methods & Experimental Design/Sterberg Task/JC-subject-2.csv,legacy,8 3,Kafkaesque Koffka,3.2.8,2,y,0,left,left,right,left,NA,896,40974,66800,896,NA,NA,NA,2,legacy,2,1024,2,48000,-16,experiment,2,even,3,720220,716892,717977,2737,188216,717990,NA,552639,2751,121299,723131,719003,722233,43737,722233,NA,NA,Sternberg Task,92,93530,97,yes,1024
94.89795918,94.89795918,963.622449,963.622449,black,experiment,legacy,legacy,legacy,0,uniform,1,undefined,1,left,97,97,97,0,0,97,NA,97,0,0,97,97,97,0,97,0,NA,Fri Oct 25 19:03:25 2019,The main experiment item,yes,SternbergTask.osexp,/Users/juancastaneda/Documents/Grad School /Advanced Quantitative Methods & Experimental Design,no,mono,no,18,no,white,no,yes,768,legacy,85,11,/Users/juancastaneda/Documents/Grad School /Advanced Quantitative Methods & Experimental Design/Sterberg Task/JC-subject-2.csv,legacy,8 7 3,Kafkaesque Koffka,3.2.8,1,y,0,left,left,right,left,NA,905,40974,66800,905,NA,NA,NA,2,legacy,3,1024,2,48000,-16,experiment,2,even,8,726474,723146,724232,2737,188216,724243,NA,552639,2751,121299,729394,725257,728487,43737,728487,NA,NA,Sternberg Task,93,94435,98,yes,1024
94.94949495,94.94949495,965.8282828,965.8282828,black,experiment,legacy,legacy,legacy,0,uniform,1,undefined,1,left,98,98,98,0,0,98,NA,98,0,0,98,98,98,0,98,0,NA,Fri Oct 25 19:03:25 2019,The main experiment item,yes,SternbergTask.osexp,/Users/juancastaneda/Documents/Grad School /Advanced Quantitative Methods & Experimental Design,no,mono,no,18,no,white,no,yes,768,legacy,86,11,/Users/juancastaneda/Documents/Grad School /Advanced Quantitative Methods & Experimental Design/Sterberg Task/JC-subject-2.csv,legacy,2 4 8 5 1 3,Kafkaesque Koffka,3.2.8,1,y,0,left,left,right,left,NA,1182,40974,66800,1182,NA,NA,NA,2,legacy,6,1024,2,48000,-16,experiment,2,even,2,732736,729409,730494,2737,188216,730506,NA,552639,2751,121299,735933,731520,734749,43737,734749,NA,NA,Sternberg Task,94,95617,99,yes,1024
95,95,964.6,964.6,black,experiment,legacy,legacy,legacy,0,uniform,1,undefined,1,left,99,99,99,0,0,99,NA,99,0,0,99,99,99,0,99,0,NA,Fri Oct 25 19:03:25 2019,The main experiment item,yes,SternbergTask.osexp,/Users/juancastaneda/Documents/Grad School /Advanced Quantitative Methods & Experimental Design,no,mono,no,18,no,white,no,yes,768,legacy,87,11,/Users/juancastaneda/Documents/Grad School /Advanced Quantitative Methods & Experimental Design/Sterberg Task/JC-subject-2.csv,legacy,9 5 8 1,Kafkaesque Koffka,3.2.8,2,y,0,left,left,right,left,NA,843,40974,66800,843,NA,NA,NA,2,legacy,4,1024,2,48000,-16,experiment,2,even,5,739275,735948,737033,2737,188216,737045,NA,552639,2751,121299,742133,738059,741288,43737,741288,NA,NA,Sternberg Task,95,96460,100,yes,1024
95.04950495,95.04950495,966.3267327,966.3267327,black,experiment,legacy,legacy,legacy,0,uniform,1,undefined,1,right,100,100,100,0,0,100,NA,100,0,0,100,100,100,0,100,0,NA,Fri Oct 25 19:03:25 2019,The main experiment item,yes,SternbergTask.osexp,/Users/juancastaneda/Documents/Grad School /Advanced Quantitative Methods & Experimental Design,no,mono,no,18,no,white,no,yes,768,legacy,88,11,/Users/juancastaneda/Documents/Grad School /Advanced Quantitative Methods & Experimental Design/Sterberg Task/JC-subject-2.csv,legacy,8 4 3 9,Kafkaesque Koffka,3.2.8,0,n,0,right,left,right,right,NA,1139,40974,66800,1139,NA,NA,NA,2,legacy,4,1024,2,48000,-16,experiment,2,even,5,745477,742149,743235,2737,188216,743247,NA,552639,2751,121299,748632,744261,747491,43737,747491,NA,NA,Sternberg Task,96,97599,101,yes,1024
95.09803922,95.09803922,966.5686275,966.5686275,black,experiment,legacy,legacy,legacy,0,uniform,1,undefined,1,left,101,101,101,0,0,101,NA,101,0,0,101,101,101,0,101,0,NA,Fri Oct 25 19:03:25 2019,The main experiment item,yes,SternbergTask.osexp,/Users/juancastaneda/Documents/Grad School /Advanced Quantitative Methods & Experimental Design,no,mono,no,18,no,white,no,yes,768,legacy,89,11,/Users/juancastaneda/Documents/Grad School /Advanced Quantitative Methods & Experimental Design/Sterberg Task/JC-subject-2.csv,legacy,7 1 8 5 6 2,Kafkaesque Koffka,3.2.8,2,y,0,left,left,right,left,NA,991,40974,66800,991,NA,NA,NA,2,legacy,6,1024,2,48000,-16,experiment,2,even,1,751975,748647,749733,2737,188216,749744,NA,552639,2751,121299,754982,750759,753989,43737,753987,NA,NA,Sternberg Task,97,98590,102,yes,1024
95.14563107,95.14563107,964.8349515,964.8349515,black,experiment,legacy,legacy,legacy,0,uniform,1,undefined,1,left,102,102,102,0,0,102,NA,102,0,0,102,102,102,0,102,0,NA,Fri Oct 25 19:03:25 2019,The main experiment item,yes,SternbergTask.osexp,/Users/juancastaneda/Documents/Grad School /Advanced Quantitative Methods & Experimental Design,no,mono,no,18,no,white,no,yes,768,legacy,90,11,/Users/juancastaneda/Documents/Grad School /Advanced Quantitative Methods & Experimental Design/Sterberg Task/JC-subject-2.csv,legacy,8 9 5 6 7,Kafkaesque Koffka,3.2.8,1,y,0,left,left,right,left,NA,788,40974,66800,788,NA,NA,NA,2,legacy,5,1024,2,48000,-16,experiment,2,even,8,758325,754998,756083,2737,188216,756095,NA,552639,2751,121299,761128,757109,760338,43737,760338,NA,NA,Sternberg Task,98,99378,103,yes,1024
95.19230769,95.19230769,962.9423077,962.9423077,black,experiment,legacy,legacy,legacy,0,uniform,1,undefined,1,left,103,103,103,0,0,103,NA,103,0,0,103,103,103,0,103,0,NA,Fri Oct 25 19:03:25 2019,The main experiment item,yes,SternbergTask.osexp,/Users/juancastaneda/Documents/Grad School /Advanced Quantitative Methods & Experimental Design,no,mono,no,18,no,white,no,yes,768,legacy,91,11,/Users/juancastaneda/Documents/Grad School /Advanced Quantitative Methods & Experimental Design/Sterberg Task/JC-subject-2.csv,legacy,5 7 3 6 2,Kafkaesque Koffka,3.2.8,5,y,0,left,left,right,left,NA,768,40974,66800,768,NA,NA,NA,2,legacy,5,1024,2,48000,-16,experiment,2,even,2,764471,761143,762229,2737,188216,762241,NA,552639,2751,121299,767254,763255,766484,43737,766484,NA,NA,Sternberg Task,99,100146,104,yes,1024
95.23809524,95.23809524,961.6095238,961.6095238,black,experiment,legacy,legacy,legacy,0,uniform,1,undefined,1,right,104,104,104,0,0,104,NA,104,0,0,104,104,104,0,104,0,NA,Fri Oct 25 19:03:25 2019,The main experiment item,yes,SternbergTask.osexp,/Users/juancastaneda/Documents/Grad School /Advanced Quantitative Methods & Experimental Design,no,mono,no,18,no,white,no,yes,768,legacy,92,11,/Users/juancastaneda/Documents/Grad School /Advanced Quantitative Methods & Experimental Design/Sterberg Task/JC-subject-2.csv,legacy,9,Kafkaesque Koffka,3.2.8,0,n,0,right,left,right,right,NA,823,40974,66800,823,NA,NA,NA,2,legacy,1,1024,2,48000,-16,experiment,2,even,6,770595,767269,768354,2737,188216,768366,NA,552639,2751,121299,773433,769379,772608,43737,772608,NA,NA,Sternberg Task,100,100969,105,yes,1024
95.28301887,95.28301887,960.3113208,960.3113208,black,experiment,legacy,legacy,legacy,0,uniform,1,undefined,1,right,105,105,105,0,0,105,NA,105,0,0,105,105,105,0,105,0,NA,Fri Oct 25 19:03:25 2019,The main experiment item,yes,SternbergTask.osexp,/Users/juancastaneda/Documents/Grad School /Advanced Quantitative Methods & Experimental Design,no,mono,no,18,no,white,no,yes,768,legacy,93,11,/Users/juancastaneda/Documents/Grad School /Advanced Quantitative Methods & Experimental Design/Sterberg Task/JC-subject-2.csv,legacy,8 9,Kafkaesque Koffka,3.2.8,0,n,0,right,left,right,right,NA,824,40974,66800,824,NA,NA,NA,2,legacy,2,1024,2,48000,-16,experiment,2,even,5,776773,773446,774531,2737,188216,774543,NA,552639,2751,121299,779612,775557,778786,43737,778786,NA,NA,Sternberg Task,101,101793,106,yes,1024
95.3271028,95.3271028,959.5233645,959.5233645,black,experiment,legacy,legacy,legacy,0,uniform,1,undefined,1,right,106,106,106,0,0,106,NA,106,0,0,106,106,106,0,106,0,NA,Fri Oct 25 19:03:25 2019,The main experiment item,yes,SternbergTask.osexp,/Users/juancastaneda/Documents/Grad School /Advanced Quantitative Methods & Experimental Design,no,mono,no,18,no,white,no,yes,768,legacy,94,11,/Users/juancastaneda/Documents/Grad School /Advanced Quantitative Methods & Experimental Design/Sterberg Task/JC-subject-2.csv,legacy,6 7 5 9,Kafkaesque Koffka,3.2.8,0,n,0,right,left,right,right,NA,876,40974,66800,876,NA,NA,NA,2,legacy,4,1024,2,48000,-16,experiment,2,even,2,782951,779627,780709,2737,188216,780721,NA,552639,2751,121299,785842,781735,784964,43737,784964,NA,NA,Sternberg Task,102,102669,107,yes,1024
95.37037037,95.37037037,958.712963,958.712963,black,experiment,legacy,legacy,legacy,0,uniform,1,undefined,1,left,107,107,107,0,0,107,NA,107,0,0,107,107,107,0,107,0,NA,Fri Oct 25 19:03:25 2019,The main experiment item,yes,SternbergTask.osexp,/Users/juancastaneda/Documents/Grad School /Advanced Quantitative Methods & Experimental Design,no,mono,no,18,no,white,no,yes,768,legacy,95,11,/Users/juancastaneda/Documents/Grad School /Advanced Quantitative Methods & Experimental Design/Sterberg Task/JC-subject-2.csv,legacy,3 5 4 7,Kafkaesque Koffka,3.2.8,1,y,0,left,left,right,left,NA,872,40974,66800,872,NA,NA,NA,2,legacy,4,1024,2,48000,-16,experiment,2,even,3,789186,785857,786944,2737,188216,786956,NA,552639,2751,121299,792074,787970,791199,43737,791199,NA,NA,Sternberg Task,103,103541,108,yes,1024
95.41284404,95.41284404,959.1284404,959.1284404,black,experiment,legacy,legacy,legacy,0,uniform,1,undefined,1,left,108,108,108,0,0,108,NA,108,0,0,108,108,108,0,108,0,NA,Fri Oct 25 19:03:25 2019,The main experiment item,yes,SternbergTask.osexp,/Users/juancastaneda/Documents/Grad School /Advanced Quantitative Methods & Experimental Design,no,mono,no,18,no,white,no,yes,768,legacy,96,11,/Users/juancastaneda/Documents/Grad School /Advanced Quantitative Methods & Experimental Design/Sterberg Task/JC-subject-2.csv,legacy,4 6 2 5 1,Kafkaesque Koffka,3.2.8,5,y,0,left,left,right,left,NA,1004,40974,66800,1004,NA,NA,NA,2,legacy,5,1024,2,48000,-16,experiment,2,even,1,795417,792089,793175,2737,188216,793187,NA,552639,2751,121299,798436,794201,797430,43737,797430,NA,NA,Sternberg Task,104,104545,109,yes,1024
95.45454545,95.45454545,963.5090909,963.5090909,black,experiment,legacy,legacy,legacy,0,uniform,1,undefined,1,left,109,109,109,0,0,109,NA,109,0,0,109,109,109,0,109,0,NA,Fri Oct 25 19:03:25 2019,The main experiment item,yes,SternbergTask.osexp,/Users/juancastaneda/Documents/Grad School /Advanced Quantitative Methods & Experimental Design,no,mono,no,18,no,white,no,yes,768,legacy,97,11,/Users/juancastaneda/Documents/Grad School /Advanced Quantitative Methods & Experimental Design/Sterberg Task/JC-subject-2.csv,legacy,3 9 7 6 4,Kafkaesque Koffka,3.2.8,3,y,0,left,left,right,left,NA,1441,40974,66800,1441,NA,NA,NA,2,legacy,5,1024,2,48000,-16,experiment,2,even,7,801779,798451,799537,2737,188216,799549,NA,552639,2751,121299,805235,800563,803792,43737,803792,NA,NA,Sternberg Task,105,105986,110,yes,1024
95.4954955,95.4954955,960.8738739,960.8738739,black,experiment,legacy,legacy,legacy,0,uniform,1,undefined,1,left,110,110,110,0,0,110,NA,110,0,0,110,110,110,0,110,0,NA,Fri Oct 25 19:03:25 2019,The main experiment item,yes,SternbergTask.osexp,/Users/juancastaneda/Documents/Grad School /Advanced Quantitative Methods & Experimental Design,no,mono,no,18,no,white,no,yes,768,legacy,98,11,/Users/juancastaneda/Documents/Grad School /Advanced Quantitative Methods & Experimental Design/Sterberg Task/JC-subject-2.csv,legacy,4,Kafkaesque Koffka,3.2.8,1,y,0,left,left,right,left,NA,671,40974,66800,671,NA,NA,NA,2,legacy,1,1024,2,48000,-16,experiment,2,even,4,808575,805252,806333,2737,188216,806345,NA,552639,2751,121299,811261,807359,810588,43737,810588,NA,NA,Sternberg Task,106,106657,111,yes,1024
95.53571429,95.53571429,959.4285714,959.4285714,black,experiment,legacy,legacy,legacy,0,uniform,1,undefined,1,right,111,111,111,0,0,111,NA,111,0,0,111,111,111,0,111,0,NA,Fri Oct 25 19:03:25 2019,The main experiment item,yes,SternbergTask.osexp,/Users/juancastaneda/Documents/Grad School /Advanced Quantitative Methods & Experimental Design,no,mono,no,18,no,white,no,yes,768,legacy,99,11,/Users/juancastaneda/Documents/Grad School /Advanced Quantitative Methods & Experimental Design/Sterberg Task/JC-subject-2.csv,legacy,5 7 3,Kafkaesque Koffka,3.2.8,0,n,0,right,left,right,right,NA,799,40974,66800,799,NA,NA,NA,2,legacy,3,1024,2,48000,-16,experiment,2,even,9,814603,811275,812361,2737,188216,812373,NA,552639,2751,121299,817418,813387,816617,43737,816617,NA,NA,Sternberg Task,107,107456,112,yes,1024
95.57522124,95.57522124,957.5309735,957.5309735,black,experiment,legacy,legacy,legacy,0,uniform,1,undefined,1,right,112,112,112,0,0,112,NA,112,0,0,112,112,112,0,112,0,NA,Fri Oct 25 19:03:25 2019,The main experiment item,yes,SternbergTask.osexp,/Users/juancastaneda/Documents/Grad School /Advanced Quantitative Methods & Experimental Design,no,mono,no,18,no,white,no,yes,768,legacy,100,11,/Users/juancastaneda/Documents/Grad School /Advanced Quantitative Methods & Experimental Design/Sterberg Task/JC-subject-2.csv,legacy,7 9,Kafkaesque Koffka,3.2.8,0,n,0,right,left,right,right,NA,745,40974,66800,745,NA,NA,NA,2,legacy,2,1024,2,48000,-16,experiment,2,even,1,820761,817434,818519,2737,188216,818531,NA,552639,2751,121299,823522,819545,822775,43737,822775,NA,NA,Sternberg Task,108,108201,113,yes,1024
95.61403509,95.61403509,956.8684211,956.8684211,black,experiment,legacy,legacy,legacy,0,uniform,1,undefined,1,right,113,113,113,0,0,113,NA,113,0,0,113,113,113,0,113,0,NA,Fri Oct 25 19:03:25 2019,The main experiment item,yes,SternbergTask.osexp,/Users/juancastaneda/Documents/Grad School /Advanced Quantitative Methods & Experimental Design,no,mono,no,18,no,white,no,yes,768,legacy,101,11,/Users/juancastaneda/Documents/Grad School /Advanced Quantitative Methods & Experimental Design/Sterberg Task/JC-subject-2.csv,legacy,1 7 5 2 9,Kafkaesque Koffka,3.2.8,0,n,0,right,left,right,right,NA,882,40974,66800,882,NA,NA,NA,2,legacy,5,1024,2,48000,-16,experiment,2,even,3,826865,823538,824623,2737,188216,824635,NA,552639,2751,121299,829762,825649,828878,43737,828878,NA,NA,Sternberg Task,109,109083,114,yes,1024
95.65217391,95.65217391,955,955,black,experiment,legacy,legacy,legacy,0,uniform,1,undefined,1,right,114,114,114,0,0,114,NA,114,0,0,114,114,114,0,114,0,NA,Fri Oct 25 19:03:25 2019,The main experiment item,yes,SternbergTask.osexp,/Users/juancastaneda/Documents/Grad School /Advanced Quantitative Methods & Experimental Design,no,mono,no,18,no,white,no,yes,768,legacy,102,11,/Users/juancastaneda/Documents/Grad School /Advanced Quantitative Methods & Experimental Design/Sterberg Task/JC-subject-2.csv,legacy,1,Kafkaesque Koffka,3.2.8,0,n,0,right,left,right,right,NA,742,40974,66800,742,NA,NA,NA,2,legacy,1,1024,2,48000,-16,experiment,2,even,7,833104,829777,830862,2737,188216,830874,NA,552639,2751,121299,835861,831888,835117,43737,835117,NA,NA,Sternberg Task,110,109825,115,yes,1024
94.82758621,94.82758621,959.612069,959.612069,black,experiment,legacy,legacy,legacy,0,uniform,0,undefined,0,left,115,115,115,0,0,115,NA,115,0,0,115,115,115,0,115,0,NA,Fri Oct 25 19:03:25 2019,The main experiment item,yes,SternbergTask.osexp,/Users/juancastaneda/Documents/Grad School /Advanced Quantitative Methods & Experimental Design,no,mono,no,18,no,white,no,yes,768,legacy,103,11,/Users/juancastaneda/Documents/Grad School /Advanced Quantitative Methods & Experimental Design/Sterberg Task/JC-subject-2.csv,legacy,7 2 3,Kafkaesque Koffka,3.2.8,3,y,0,right,left,right,right,NA,1490,40974,66800,1490,NA,NA,NA,2,legacy,3,1024,2,48000,-16,experiment,2,even,3,839204,835876,836962,2737,188216,836974,NA,552639,2751,121299,842709,837989,841217,43737,841217,NA,NA,Sternberg Task,110,111315,116,yes,1024
94.87179487,94.87179487,961.4444444,961.4444444,black,experiment,legacy,legacy,legacy,0,uniform,1,undefined,1,left,116,116,116,0,0,116,NA,116,0,0,116,116,116,0,116,0,NA,Fri Oct 25 19:03:25 2019,The main experiment item,yes,SternbergTask.osexp,/Users/juancastaneda/Documents/Grad School /Advanced Quantitative Methods & Experimental Design,no,mono,no,18,no,white,no,yes,768,legacy,104,11,/Users/juancastaneda/Documents/Grad School /Advanced Quantitative Methods & Experimental Design/Sterberg Task/JC-subject-2.csv,legacy,3 4 9 6 2 9,Kafkaesque Koffka,3.2.8,5,y,0,left,left,right,left,NA,1174,40974,66800,1174,NA,NA,NA,2,legacy,6,1024,2,48000,-16,experiment,2,even,2,846052,835876,843810,2737,188216,843821,NA,842724,2751,121299,849241,844836,848065,43737,848065,NA,NA,Sternberg Task,111,112489,117,yes,1024
94.91525424,94.91525424,959.279661,959.279661,black,experiment,legacy,legacy,legacy,0,uniform,1,undefined,1,right,117,117,117,0,0,117,NA,117,0,0,117,117,117,0,117,0,NA,Fri Oct 25 19:03:25 2019,The main experiment item,yes,SternbergTask.osexp,/Users/juancastaneda/Documents/Grad School /Advanced Quantitative Methods & Experimental Design,no,mono,no,18,no,white,no,yes,768,legacy,105,11,/Users/juancastaneda/Documents/Grad School /Advanced Quantitative Methods & Experimental Design/Sterberg Task/JC-subject-2.csv,legacy,2 8 9,Kafkaesque Koffka,3.2.8,0,n,0,right,left,right,right,NA,706,40974,66800,706,NA,NA,NA,2,legacy,3,1024,2,48000,-16,experiment,2,even,6,852588,849260,850345,2737,188216,850357,NA,842724,2751,121299,855309,851371,854601,43737,854601,NA,NA,Sternberg Task,112,113195,118,yes,1024
94.95798319,94.95798319,960.2436975,960.2436975,black,experiment,legacy,legacy,legacy,0,uniform,1,undefined,1,left,118,118,118,0,0,118,NA,118,0,0,118,118,118,0,118,0,NA,Fri Oct 25 19:03:25 2019,The main experiment item,yes,SternbergTask.osexp,/Users/juancastaneda/Documents/Grad School /Advanced Quantitative Methods & Experimental Design,no,mono,no,18,no,white,no,yes,768,legacy,106,11,/Users/juancastaneda/Documents/Grad School /Advanced Quantitative Methods & Experimental Design/Sterberg Task/JC-subject-2.csv,legacy,6 9 7 4 5 1,Kafkaesque Koffka,3.2.8,2,y,0,left,left,right,left,NA,1074,40974,66800,1074,NA,NA,NA,2,legacy,6,1024,2,48000,-16,experiment,2,even,9,858652,855324,856410,2737,188216,856422,NA,842724,2751,121299,861741,857436,860665,43737,860665,NA,NA,Sternberg Task,113,114269,119,yes,1024
95,95,961.6166667,961.6166667,black,experiment,legacy,legacy,legacy,0,uniform,1,undefined,1,right,119,119,119,0,0,119,NA,119,0,0,119,119,119,0,119,0,NA,Fri Oct 25 19:03:25 2019,The main experiment item,yes,SternbergTask.osexp,/Users/juancastaneda/Documents/Grad School /Advanced Quantitative Methods & Experimental Design,no,mono,no,18,no,white,no,yes,768,legacy,107,11,/Users/juancastaneda/Documents/Grad School /Advanced Quantitative Methods & Experimental Design/Sterberg Task/JC-subject-2.csv,legacy,7 3 2 8,Kafkaesque Koffka,3.2.8,0,n,0,right,left,right,right,NA,1125,40974,66800,1125,NA,NA,NA,2,legacy,4,1024,2,48000,-16,experiment,2,even,4,865095,861756,862851,2737,188216,862865,NA,842724,2751,121299,868235,863879,867108,43737,867108,NA,NA,Sternberg Task,114,115394,120,yes,1024
95.04132231,95.04132231,965.3057851,965.3057851,black,experiment,legacy,legacy,legacy,0,uniform,1,undefined,1,right,120,120,120,0,0,120,NA,120,0,0,120,120,120,0,120,0,NA,Fri Oct 25 19:03:25 2019,The main experiment item,yes,SternbergTask.osexp,/Users/juancastaneda/Documents/Grad School /Advanced Quantitative Methods & Experimental Design,no,mono,no,18,no,white,no,yes,768,legacy,108,11,/Users/juancastaneda/Documents/Grad School /Advanced Quantitative Methods & Experimental Design/Sterberg Task/JC-subject-2.csv,legacy,1 6 4,Kafkaesque Koffka,3.2.8,0,n,0,right,left,right,right,NA,1408,40974,66800,1408,NA,NA,NA,2,legacy,3,1024,2,48000,-16,experiment,2,even,7,871578,868251,869336,2737,188216,869348,NA,842724,2751,121299,875000,870362,873591,43737,873591,NA,NA,Sternberg Task,115,116802,121,yes,1024
95.08196721,95.08196721,966.7868852,966.7868852,black,experiment,legacy,legacy,legacy,0,uniform,1,undefined,1,left,121,121,121,0,0,121,NA,121,0,0,121,121,121,0,121,0,NA,Fri Oct 25 19:03:25 2019,The main experiment item,yes,SternbergTask.osexp,/Users/juancastaneda/Documents/Grad School /Advanced Quantitative Methods & Experimental Design,no,mono,no,18,no,white,no,yes,768,legacy,109,11,/Users/juancastaneda/Documents/Grad School /Advanced Quantitative Methods & Experimental Design/Sterberg Task/JC-subject-2.csv,legacy,9 5 3 8 4,Kafkaesque Koffka,3.2.8,1,y,0,left,left,right,left,NA,1146,40974,66800,1146,NA,NA,NA,2,legacy,5,1024,2,48000,-16,experiment,2,even,9,878344,875016,876102,2737,188216,876113,NA,842724,2751,121299,881506,877128,880357,43737,880357,NA,NA,Sternberg Task,116,117948,122,yes,1024
95.12195122,95.12195122,968.0569106,968.0569106,black,experiment,legacy,legacy,legacy,0,uniform,1,undefined,1,left,122,122,122,0,0,122,NA,122,0,0,122,122,122,0,122,0,NA,Fri Oct 25 19:03:25 2019,The main experiment item,yes,SternbergTask.osexp,/Users/juancastaneda/Documents/Grad School /Advanced Quantitative Methods & Experimental Design,no,mono,no,18,no,white,no,yes,768,legacy,110,11,/Users/juancastaneda/Documents/Grad School /Advanced Quantitative Methods & Experimental Design/Sterberg Task/JC-subject-2.csv,legacy,2 4 6 9,Kafkaesque Koffka,3.2.8,3,y,0,left,left,right,left,NA,1123,40974,66800,1123,NA,NA,NA,2,legacy,4,1024,2,48000,-16,experiment,2,even,6,884849,881521,882606,2737,188216,882619,NA,842724,2751,121299,887989,883633,886862,43737,886862,NA,NA,Sternberg Task,117,119071,123,yes,1024
95.16129032,95.16129032,967.7822581,967.7822581,black,experiment,legacy,legacy,legacy,0,uniform,1,undefined,1,right,123,123,123,0,0,123,NA,123,0,0,123,123,123,0,123,0,NA,Fri Oct 25 19:03:25 2019,The main experiment item,yes,SternbergTask.osexp,/Users/juancastaneda/Documents/Grad School /Advanced Quantitative Methods & Experimental Design,no,mono,no,18,no,white,no,yes,768,legacy,111,11,/Users/juancastaneda/Documents/Grad School /Advanced Quantitative Methods & Experimental Design/Sterberg Task/JC-subject-2.csv,legacy,6 9 4 5 2,Kafkaesque Koffka,3.2.8,0,n,0,right,left,right,right,NA,934,40974,66800,934,NA,NA,NA,2,legacy,5,1024,2,48000,-16,experiment,2,even,1,891333,888004,889091,2737,188216,889102,NA,842724,2751,121299,894282,890117,893346,43737,893346,NA,NA,Sternberg Task,118,120005,124,yes,1024
95.2,95.2,971.04,971.04,black,experiment,legacy,legacy,legacy,0,uniform,1,undefined,1,left,124,124,124,0,0,124,NA,124,0,0,124,124,124,0,124,0,NA,Fri Oct 25 19:03:25 2019,The main experiment item,yes,SternbergTask.osexp,/Users/juancastaneda/Documents/Grad School /Advanced Quantitative Methods & Experimental Design,no,mono,no,18,no,white,no,yes,768,legacy,112,11,/Users/juancastaneda/Documents/Grad School /Advanced Quantitative Methods & Experimental Design/Sterberg Task/JC-subject-2.csv,legacy,3 5 7 1,Kafkaesque Koffka,3.2.8,3,y,0,left,left,right,left,NA,1375,40974,66800,1375,NA,NA,NA,2,legacy,4,1024,2,48000,-16,experiment,2,even,7,897624,894296,895381,2737,188216,895393,NA,842724,2751,121299,901014,896408,899637,43737,899637,NA,NA,Sternberg Task,119,121380,125,yes,1024
