acc,accuracy,average_response_time,avg_rt,background,block,canvas_backend,clock_backend,color_backend,compensation,coordinates,correct,correct_Keyboard_response,correct_instruction1,correct_response,count_ISI,count_Keyboard_response,count_PracticeLoop,count_correctFeedback,count_exp_sequence,count_experiment,count_experimentLoop,count_fixation,count_incorrectFeedback,count_instruction1,count_instructions2,count_logger,count_memorySet,count_probe,count_thankYou,datetime,description,disable_garbage_collection,experiment_file,experiment_path,font_bold,font_family,font_italic,font_size,font_underline,foreground,form_clicks,fullscreen,height,keyboard_backend,live_row,live_row_PracticeLoop,logfile,mouse_backend,numberSet,opensesame_codename,opensesame_version,posInSet,present,repeat_cycle,response,response_Keyboard_response,response_instruction1,response_instructions2,response_thankYou,response_time,response_time_Keyboard_response,response_time_instruction1,response_time_instructions2,response_time_thankYou,round_decimals,sampler_backend,setSize,sound_buf_size,sound_channels,sound_freq,sound_sample_size,start,subject_nr,subject_parity,target,time_ISI,time_Keyboard_response,time_PracticeLoop,time_correctFeedback,time_exp_sequence,time_experiment,time_experimentLoop,time_fixation,time_incorrectFeedback,time_instruction1,time_instructions2,time_logger,time_memorySet,time_probe,time_thankYou,title,total_correct,total_response_time,total_responses,uniform_coordinates,width
0,0,2000,2000,black,practice,legacy,legacy,legacy,0,uniform,0,0,undefined,left,0,0,0,0,0,0,0,0,0,0,0,0,0,0,0,10/27/19 8:33,The main experiment item,yes,SternbergTask.osexp,C:\Users\hosan\Desktop,no,mono,no,18,no,white,no,yes,768,legacy,0,0,C:/Users/hosan/Desktop/TB-subject-3.csv,legacy,4 8,Kafkaesque Koffka,3.2.8,1,y,0,None,None,right,NA,NA,2000,2000,211857,NA,NA,2,legacy,2,1024,2,48000,-16,experiment,3,odd,4,217497,219503,214526,NA,215281,2660,NA,215284,NA,2667,NA,221503,216290,219503,NA,Sternberg Task,0,2000,1,yes,1024
50,50,1421.5,1421.5,black,practice,legacy,legacy,legacy,0,uniform,1,1,undefined,right,1,1,0,1,1,0,0,1,1,0,0,1,1,1,0,10/27/19 8:33,The main experiment item,yes,SternbergTask.osexp,C:\Users\hosan\Desktop,no,mono,no,18,no,white,no,yes,768,legacy,1,1,C:/Users/hosan/Desktop/TB-subject-3.csv,legacy,2 1,Kafkaesque Koffka,3.2.8,0,n,0,right,right,right,NA,NA,843,843,211857,NA,NA,2,legacy,2,1024,2,48000,-16,experiment,3,odd,5,225004,227012,214526,NA,222789,2660,NA,222792,221642,2667,NA,227855,223797,227011,NA,Sternberg Task,1,2843,2,yes,1024
33.33333333,33.33333333,1104.333333,1104.333333,black,practice,legacy,legacy,legacy,0,uniform,0,0,undefined,right,2,2,0,2,2,0,0,2,2,0,0,2,2,2,0,10/27/19 8:33,The main experiment item,yes,SternbergTask.osexp,C:\Users\hosan\Desktop,no,mono,no,18,no,white,no,yes,768,legacy,2,2,C:/Users/hosan/Desktop/TB-subject-3.csv,legacy,5 7 8 4 1 2,Kafkaesque Koffka,3.2.8,0,n,0,left,left,right,NA,NA,470,470,211857,NA,NA,2,legacy,6,1024,2,48000,-16,experiment,3,odd,6,231315,233321,214526,227915,229103,2660,NA,229106,221642,2667,NA,233791,230109,233321,NA,Sternberg Task,1,3313,3,yes,1024
50,50,953.25,953.25,black,practice,legacy,legacy,legacy,0,uniform,1,1,undefined,right,3,3,0,3,3,0,0,3,3,0,0,3,3,3,0,10/27/19 8:33,The main experiment item,yes,SternbergTask.osexp,C:\Users\hosan\Desktop,no,mono,no,18,no,white,no,yes,768,legacy,3,3,C:/Users/hosan/Desktop/TB-subject-3.csv,legacy,9 6 7 4 5,Kafkaesque Koffka,3.2.8,0,n,0,right,right,right,NA,NA,500,500,211857,NA,NA,2,legacy,5,1024,2,48000,-16,experiment,3,odd,3,237196,239200,214526,227915,234982,2660,NA,234985,233855,2667,NA,239701,235990,239199,NA,Sternberg Task,2,3813,4,yes,1024
60,60,976,976,black,practice,legacy,legacy,legacy,0,uniform,1,1,undefined,left,4,4,0,4,4,0,0,4,4,0,0,4,4,4,0,10/27/19 8:33,The main experiment item,yes,SternbergTask.osexp,C:\Users\hosan\Desktop,no,mono,no,18,no,white,no,yes,768,legacy,4,4,C:/Users/hosan/Desktop/TB-subject-3.csv,legacy,1 7 9 8 5,Kafkaesque Koffka,3.2.8,4,y,0,left,left,right,NA,NA,1067,1067,211857,NA,NA,2,legacy,5,1024,2,48000,-16,experiment,3,odd,8,243121,245127,214526,239774,240905,2660,NA,240908,233855,2667,NA,246194,241915,245127,NA,Sternberg Task,3,4880,5,yes,1024
66.66666667,66.66666667,921.3333333,921.3333333,black,practice,legacy,legacy,legacy,0,uniform,1,1,undefined,left,5,5,0,5,5,0,0,5,5,0,0,5,5,5,0,10/27/19 8:33,The main experiment item,yes,SternbergTask.osexp,C:\Users\hosan\Desktop,no,mono,no,18,no,white,no,yes,768,legacy,5,5,C:/Users/hosan/Desktop/TB-subject-3.csv,legacy,4 3 1 7 9 8,Kafkaesque Koffka,3.2.8,1,y,0,left,left,right,NA,NA,648,648,211857,NA,NA,2,legacy,6,1024,2,48000,-16,experiment,3,odd,4,249579,251583,214526,246215,247365,2660,NA,247368,233855,2667,NA,252232,248374,251582,NA,Sternberg Task,4,5528,6,yes,1024
71.42857143,71.42857143,964.5714286,964.5714286,black,practice,legacy,legacy,legacy,0,uniform,1,1,undefined,left,6,6,0,6,6,0,0,6,6,0,0,6,6,6,0,10/27/19 8:33,The main experiment item,yes,SternbergTask.osexp,C:\Users\hosan\Desktop,no,mono,no,18,no,white,no,yes,768,legacy,6,6,C:/Users/hosan/Desktop/TB-subject-3.csv,legacy,1 5 2 9,Kafkaesque Koffka,3.2.8,2,y,0,left,left,right,NA,NA,1224,1224,211857,NA,NA,2,legacy,4,1024,2,48000,-16,experiment,3,odd,5,255705,257712,214526,252300,253491,2660,NA,253493,233855,2667,NA,258937,254498,257711,NA,Sternberg Task,5,6752,7,yes,1024
75,75,908,908,black,practice,legacy,legacy,legacy,0,uniform,1,1,undefined,right,7,7,0,7,7,0,0,7,7,0,0,7,7,7,0,10/27/19 8:33,The main experiment item,yes,SternbergTask.osexp,C:\Users\hosan\Desktop,no,mono,no,18,no,white,no,yes,768,legacy,7,7,C:/Users/hosan/Desktop/TB-subject-3.csv,legacy,4 1 5,Kafkaesque Koffka,3.2.8,0,n,0,right,right,right,NA,NA,512,512,211857,NA,NA,2,legacy,3,1024,2,48000,-16,experiment,3,odd,2,262337,264344,214526,258957,260122,2660,NA,260124,233855,2667,NA,264857,261131,264343,NA,Sternberg Task,6,7264,8,yes,1024
77.77777778,77.77777778,907.1111111,907.1111111,black,practice,legacy,legacy,legacy,0,uniform,1,1,undefined,left,8,8,0,8,8,0,0,8,8,0,0,8,8,8,0,10/27/19 8:33,The main experiment item,yes,SternbergTask.osexp,C:\Users\hosan\Desktop,no,mono,no,18,no,white,no,yes,768,legacy,8,8,C:/Users/hosan/Desktop/TB-subject-3.csv,legacy,6,Kafkaesque Koffka,3.2.8,1,y,0,left,left,right,NA,NA,900,900,211857,NA,NA,2,legacy,1,1024,2,48000,-16,experiment,3,odd,6,268271,270278,214526,264919,266060,2660,NA,266062,233855,2667,NA,271179,267065,270277,NA,Sternberg Task,7,8164,9,yes,1024
80,80,909.7,909.7,black,practice,legacy,legacy,legacy,0,uniform,1,1,undefined,right,9,9,0,9,9,0,0,9,9,0,0,9,9,9,0,10/27/19 8:33,The main experiment item,yes,SternbergTask.osexp,C:\Users\hosan\Desktop,no,mono,no,18,no,white,no,yes,768,legacy,9,9,C:/Users/hosan/Desktop/TB-subject-3.csv,legacy,5,Kafkaesque Koffka,3.2.8,0,n,0,right,right,right,NA,NA,933,933,211857,NA,NA,2,legacy,1,1024,2,48000,-16,experiment,3,odd,3,274568,276576,214526,271236,272358,2660,NA,272360,233855,2667,NA,277510,273363,276575,NA,Sternberg Task,8,9097,10,yes,1024
81.81818182,81.81818182,896,896,black,practice,legacy,legacy,legacy,0,uniform,1,1,undefined,left,10,10,0,10,10,0,0,10,10,0,0,10,10,10,0,10/27/19 8:33,The main experiment item,yes,SternbergTask.osexp,C:\Users\hosan\Desktop,no,mono,no,18,no,white,no,yes,768,legacy,10,10,C:/Users/hosan/Desktop/TB-subject-3.csv,legacy,2 9 4,Kafkaesque Koffka,3.2.8,3,y,0,left,left,right,NA,NA,759,759,211857,NA,NA,2,legacy,3,1024,2,48000,-16,experiment,3,odd,4,280956,282962,214526,277595,278742,2660,NA,278745,233855,2667,NA,283721,279751,282961,NA,Sternberg Task,9,9856,11,yes,1024
83.33333333,83.33333333,867.9166667,867.9166667,black,practice,legacy,legacy,legacy,0,uniform,1,1,undefined,right,11,11,0,11,11,0,0,11,11,0,0,11,11,11,0,10/27/19 8:33,The main experiment item,yes,SternbergTask.osexp,C:\Users\hosan\Desktop,no,mono,no,18,no,white,no,yes,768,legacy,11,11,C:/Users/hosan/Desktop/TB-subject-3.csv,legacy,3 1 9 4,Kafkaesque Koffka,3.2.8,0,n,0,right,right,right,NA,NA,559,559,211857,NA,NA,2,legacy,4,1024,2,48000,-16,experiment,3,odd,6,287126,289133,214526,283781,284914,2660,NA,284917,233855,2667,NA,289693,285923,289132,NA,Sternberg Task,10,10415,12,yes,1024
84.61538462,84.61538462,848.6153846,848.6153846,black,experiment,legacy,legacy,legacy,0,uniform,1,1,undefined,left,12,12,0,12,12,0,0,12,12,0,0,12,12,12,0,10/27/19 8:33,The main experiment item,yes,SternbergTask.osexp,C:\Users\hosan\Desktop,no,mono,no,18,no,white,no,yes,768,legacy,0,11,C:/Users/hosan/Desktop/TB-subject-3.csv,legacy,3 5 9 6 2 4,Kafkaesque Koffka,3.2.8,1,y,0,left,left,right,right,NA,617,617,211857,8913,NA,2,legacy,6,1024,2,48000,-16,experiment,3,odd,3,302092,304099,214526,289762,299877,2660,299736,299880,233855,2667,290822,304716,300885,304098,NA,Sternberg Task,11,11032,13,yes,1024
85.71428571,85.71428571,831.9285714,831.9285714,black,experiment,legacy,legacy,legacy,0,uniform,1,1,undefined,left,13,13,0,13,13,0,0,13,13,0,0,13,13,13,0,10/27/19 8:33,The main experiment item,yes,SternbergTask.osexp,C:\Users\hosan\Desktop,no,mono,no,18,no,white,no,yes,768,legacy,1,11,C:/Users/hosan/Desktop/TB-subject-3.csv,legacy,6 8 9 3 4 9,Kafkaesque Koffka,3.2.8,5,y,0,left,left,right,right,NA,615,615,211857,8913,NA,2,legacy,6,1024,2,48000,-16,experiment,3,odd,4,308134,310141,214526,304784,305921,2660,299736,305924,233855,2667,290822,310756,306929,310140,NA,Sternberg Task,12,11647,14,yes,1024
86.66666667,86.66666667,816.7333333,816.7333333,black,experiment,legacy,legacy,legacy,0,uniform,1,1,undefined,right,14,14,0,14,14,0,0,14,14,0,0,14,14,14,0,10/27/19 8:33,The main experiment item,yes,SternbergTask.osexp,C:\Users\hosan\Desktop,no,mono,no,18,no,white,no,yes,768,legacy,2,11,C:/Users/hosan/Desktop/TB-subject-3.csv,legacy,2 8 6 3 1,Kafkaesque Koffka,3.2.8,0,n,0,right,right,right,right,NA,604,604,211857,8913,NA,2,legacy,5,1024,2,48000,-16,experiment,3,odd,7,314159,316166,214526,310812,311944,2660,299736,311947,233855,2667,290822,316770,312953,316165,NA,Sternberg Task,13,12251,15,yes,1024
81.25,81.25,798.1875,798.1875,black,experiment,legacy,legacy,legacy,0,uniform,0,0,undefined,right,15,15,0,15,15,0,0,15,15,0,0,15,15,15,0,10/27/19 8:33,The main experiment item,yes,SternbergTask.osexp,C:\Users\hosan\Desktop,no,mono,no,18,no,white,no,yes,768,legacy,3,11,C:/Users/hosan/Desktop/TB-subject-3.csv,legacy,6 3 1 7 9 8,Kafkaesque Koffka,3.2.8,0,n,0,left,left,right,right,NA,520,520,211857,8913,NA,2,legacy,6,1024,2,48000,-16,experiment,3,odd,4,320183,322187,214526,316834,317968,2660,299736,317971,233855,2667,290822,322707,318977,322186,NA,Sternberg Task,13,12771,16,yes,1024
82.35294118,82.35294118,780.8823529,780.8823529,black,experiment,legacy,legacy,legacy,0,uniform,1,1,undefined,right,16,16,0,16,16,0,0,16,16,0,0,16,16,16,0,10/27/19 8:33,The main experiment item,yes,SternbergTask.osexp,C:\Users\hosan\Desktop,no,mono,no,18,no,white,no,yes,768,legacy,4,11,C:/Users/hosan/Desktop/TB-subject-3.csv,legacy,9 5 3 2 8 6,Kafkaesque Koffka,3.2.8,0,n,0,right,right,right,right,NA,504,504,211857,8913,NA,2,legacy,6,1024,2,48000,-16,experiment,3,odd,7,326123,328131,214526,316834,323912,2660,299736,323915,322770,2667,290822,328636,324918,328130,NA,Sternberg Task,14,13275,17,yes,1024
83.33333333,83.33333333,769.2777778,769.2777778,black,experiment,legacy,legacy,legacy,0,uniform,1,1,undefined,right,17,17,0,17,17,0,0,17,17,0,0,17,17,17,0,10/27/19 8:33,The main experiment item,yes,SternbergTask.osexp,C:\Users\hosan\Desktop,no,mono,no,18,no,white,no,yes,768,legacy,5,11,C:/Users/hosan/Desktop/TB-subject-3.csv,legacy,1 7 5 2,Kafkaesque Koffka,3.2.8,0,n,0,right,right,right,right,NA,572,572,211857,8913,NA,2,legacy,4,1024,2,48000,-16,experiment,3,odd,3,332069,334077,214526,328705,329855,2660,299736,329858,322770,2667,290822,334650,330864,334076,NA,Sternberg Task,15,13847,18,yes,1024
84.21052632,84.21052632,768.3684211,768.3684211,black,experiment,legacy,legacy,legacy,0,uniform,1,1,undefined,right,18,18,0,18,18,0,0,18,18,0,0,18,18,18,0,10/27/19 8:33,The main experiment item,yes,SternbergTask.osexp,C:\Users\hosan\Desktop,no,mono,no,18,no,white,no,yes,768,legacy,6,11,C:/Users/hosan/Desktop/TB-subject-3.csv,legacy,1 7 8 3 9,Kafkaesque Koffka,3.2.8,0,n,0,right,right,right,right,NA,752,752,211857,8913,NA,2,legacy,5,1024,2,48000,-16,experiment,3,odd,2,338114,340121,214526,334716,335905,2660,299736,335908,322770,2667,290822,340873,336911,340121,NA,Sternberg Task,16,14599,19,yes,1024
85,85,762.85,762.85,black,experiment,legacy,legacy,legacy,0,uniform,1,1,undefined,right,19,19,0,19,19,0,0,19,19,0,0,19,19,19,0,10/27/19 8:33,The main experiment item,yes,SternbergTask.osexp,C:\Users\hosan\Desktop,no,mono,no,18,no,white,no,yes,768,legacy,7,11,C:/Users/hosan/Desktop/TB-subject-3.csv,legacy,1 5 3 2 8,Kafkaesque Koffka,3.2.8,0,n,0,right,right,right,right,NA,658,658,211857,8913,NA,2,legacy,5,1024,2,48000,-16,experiment,3,odd,4,344317,346323,214526,340938,342102,2660,299736,342105,322770,2667,290822,346982,343111,346322,NA,Sternberg Task,17,15257,20,yes,1024
85.71428571,85.71428571,757.7619048,757.7619048,black,experiment,legacy,legacy,legacy,0,uniform,1,1,undefined,left,20,20,0,20,20,0,0,20,20,0,0,20,20,20,0,10/27/19 8:33,The main experiment item,yes,SternbergTask.osexp,C:\Users\hosan\Desktop,no,mono,no,18,no,white,no,yes,768,legacy,8,11,C:/Users/hosan/Desktop/TB-subject-3.csv,legacy,8 9 6 1,Kafkaesque Koffka,3.2.8,2,y,0,left,left,right,right,NA,656,656,211857,8913,NA,2,legacy,4,1024,2,48000,-16,experiment,3,odd,9,350382,352389,214526,347048,348173,2660,299736,348176,322770,2667,290822,353045,349179,352388,NA,Sternberg Task,18,15913,21,yes,1024
81.81818182,81.81818182,761.2727273,761.2727273,black,experiment,legacy,legacy,legacy,0,uniform,0,0,undefined,right,21,21,0,21,21,0,0,21,21,0,0,21,21,21,0,10/27/19 8:33,The main experiment item,yes,SternbergTask.osexp,C:\Users\hosan\Desktop,no,mono,no,18,no,white,no,yes,768,legacy,9,11,C:/Users/hosan/Desktop/TB-subject-3.csv,legacy,2 8 7 9 5 3,Kafkaesque Koffka,3.2.8,0,n,0,left,left,right,right,NA,835,835,211857,8913,NA,2,legacy,6,1024,2,48000,-16,experiment,3,odd,6,356526,358533,214526,353116,354311,2660,299736,354314,322770,2667,290822,359368,355320,358532,NA,Sternberg Task,18,16748,22,yes,1024
82.60869565,82.60869565,759.5217391,759.5217391,black,experiment,legacy,legacy,legacy,0,uniform,1,1,undefined,left,22,22,0,22,22,0,0,22,22,0,0,22,22,22,0,10/27/19 8:33,The main experiment item,yes,SternbergTask.osexp,C:\Users\hosan\Desktop,no,mono,no,18,no,white,no,yes,768,legacy,10,11,C:/Users/hosan/Desktop/TB-subject-3.csv,legacy,8 1 6,Kafkaesque Koffka,3.2.8,3,y,0,left,left,right,right,NA,721,721,211857,8913,NA,2,legacy,3,1024,2,48000,-16,experiment,3,odd,6,362771,364780,214526,353116,360557,2660,299736,360559,359436,2667,290822,365502,361566,364778,NA,Sternberg Task,19,17469,23,yes,1024
83.33333333,83.33333333,757.2916667,757.2916667,black,experiment,legacy,legacy,legacy,0,uniform,1,1,undefined,left,23,23,0,23,23,0,0,23,23,0,0,23,23,23,0,10/27/19 8:33,The main experiment item,yes,SternbergTask.osexp,C:\Users\hosan\Desktop,no,mono,no,18,no,white,no,yes,768,legacy,11,11,C:/Users/hosan/Desktop/TB-subject-3.csv,legacy,6 9 3 1,Kafkaesque Koffka,3.2.8,4,y,0,left,left,right,right,NA,706,706,211857,8913,NA,2,legacy,4,1024,2,48000,-16,experiment,3,odd,1,368864,370871,214526,365531,366654,2660,299736,366656,359436,2667,290822,371578,367658,370871,NA,Sternberg Task,20,18175,24,yes,1024
84,84,748.48,748.48,black,experiment,legacy,legacy,legacy,0,uniform,1,1,undefined,right,24,24,0,24,24,0,0,24,24,0,0,24,24,24,0,10/27/19 8:33,The main experiment item,yes,SternbergTask.osexp,C:\Users\hosan\Desktop,no,mono,no,18,no,white,no,yes,768,legacy,12,11,C:/Users/hosan/Desktop/TB-subject-3.csv,legacy,6 8 4,Kafkaesque Koffka,3.2.8,0,n,0,right,right,right,right,NA,537,537,211857,8913,NA,2,legacy,3,1024,2,48000,-16,experiment,3,odd,1,375003,377007,214526,371647,372789,2660,299736,372791,359436,2667,290822,377544,373797,377007,NA,Sternberg Task,21,18712,25,yes,1024
84.61538462,84.61538462,755.6153846,755.6153846,black,experiment,legacy,legacy,legacy,0,uniform,1,1,undefined,right,25,25,0,25,25,0,0,25,25,0,0,25,25,25,0,10/27/19 8:33,The main experiment item,yes,SternbergTask.osexp,C:\Users\hosan\Desktop,no,mono,no,18,no,white,no,yes,768,legacy,13,11,C:/Users/hosan/Desktop/TB-subject-3.csv,legacy,8 4 3 9,Kafkaesque Koffka,3.2.8,0,n,0,right,right,right,right,NA,934,934,211857,8913,NA,2,legacy,4,1024,2,48000,-16,experiment,3,odd,5,380976,382984,214526,377614,378762,2660,299736,378765,359436,2667,290822,383919,379770,382983,NA,Sternberg Task,22,19646,26,yes,1024
85.18518519,85.18518519,760.6296296,760.6296296,black,experiment,legacy,legacy,legacy,0,uniform,1,1,undefined,right,26,26,0,26,26,0,0,26,26,0,0,26,26,26,0,10/27/19 8:33,The main experiment item,yes,SternbergTask.osexp,C:\Users\hosan\Desktop,no,mono,no,18,no,white,no,yes,768,legacy,14,11,C:/Users/hosan/Desktop/TB-subject-3.csv,legacy,6 8,Kafkaesque Koffka,3.2.8,0,n,0,right,right,right,right,NA,891,891,211857,8913,NA,2,legacy,2,1024,2,48000,-16,experiment,3,odd,9,387352,389356,214526,383991,385136,2660,299736,385139,359436,2667,290822,390248,386145,389356,NA,Sternberg Task,23,20537,27,yes,1024
85.71428571,85.71428571,756.3571429,756.3571429,black,experiment,legacy,legacy,legacy,0,uniform,1,1,undefined,right,27,27,0,27,27,0,0,27,27,0,0,27,27,27,0,10/27/19 8:33,The main experiment item,yes,SternbergTask.osexp,C:\Users\hosan\Desktop,no,mono,no,18,no,white,no,yes,768,legacy,15,11,C:/Users/hosan/Desktop/TB-subject-3.csv,legacy,6 9 5,Kafkaesque Koffka,3.2.8,0,n,0,right,right,right,right,NA,641,641,211857,8913,NA,2,legacy,3,1024,2,48000,-16,experiment,3,odd,8,393720,395727,214526,390318,391506,2660,299736,391509,359436,2667,290822,396369,392514,395726,NA,Sternberg Task,24,21178,28,yes,1024
86.20689655,86.20689655,763.6896552,763.6896552,black,experiment,legacy,legacy,legacy,0,uniform,1,1,undefined,right,28,28,0,28,28,0,0,28,28,0,0,28,28,28,0,10/27/19 8:33,The main experiment item,yes,SternbergTask.osexp,C:\Users\hosan\Desktop,no,mono,no,18,no,white,no,yes,768,legacy,16,11,C:/Users/hosan/Desktop/TB-subject-3.csv,legacy,1 4 9 3,Kafkaesque Koffka,3.2.8,0,n,0,right,right,right,right,NA,969,969,211857,8913,NA,2,legacy,4,1024,2,48000,-16,experiment,3,odd,5,399808,401812,214526,396443,397594,2660,299736,397597,359436,2667,290822,402781,398602,401812,NA,Sternberg Task,25,22147,29,yes,1024
86.66666667,86.66666667,760.8333333,760.8333333,black,experiment,legacy,legacy,legacy,0,uniform,1,1,undefined,right,29,29,0,29,29,0,0,29,29,0,0,29,29,29,0,10/27/19 8:33,The main experiment item,yes,SternbergTask.osexp,C:\Users\hosan\Desktop,no,mono,no,18,no,white,no,yes,768,legacy,17,11,C:/Users/hosan/Desktop/TB-subject-3.csv,legacy,3 4 9 6 7 8,Kafkaesque Koffka,3.2.8,0,n,0,right,right,right,right,NA,678,678,211857,8913,NA,2,legacy,6,1024,2,48000,-16,experiment,3,odd,2,406222,408231,214526,402850,404008,2660,299736,404010,359436,2667,290822,408910,405015,408230,NA,Sternberg Task,26,22825,30,yes,1024
83.87096774,83.87096774,774.2903226,774.2903226,black,experiment,legacy,legacy,legacy,0,uniform,0,0,undefined,left,30,30,0,30,30,0,0,30,30,0,0,30,30,30,0,10/27/19 8:33,The main experiment item,yes,SternbergTask.osexp,C:\Users\hosan\Desktop,no,mono,no,18,no,white,no,yes,768,legacy,18,11,C:/Users/hosan/Desktop/TB-subject-3.csv,legacy,4 9 7 8 5 3,Kafkaesque Koffka,3.2.8,4,y,0,right,right,right,right,NA,1178,1178,211857,8913,NA,2,legacy,6,1024,2,48000,-16,experiment,3,odd,8,412341,414348,214526,408949,410129,2660,299736,410132,359436,2667,290822,415527,411136,414348,NA,Sternberg Task,26,24003,31,yes,1024
84.375,84.375,768.6875,768.6875,black,experiment,legacy,legacy,legacy,0,uniform,1,1,undefined,left,31,31,0,31,31,0,0,31,31,0,0,31,31,31,0,10/27/19 8:33,The main experiment item,yes,SternbergTask.osexp,C:\Users\hosan\Desktop,no,mono,no,18,no,white,no,yes,768,legacy,19,11,C:/Users/hosan/Desktop/TB-subject-3.csv,legacy,3 9 7 6 4,Kafkaesque Koffka,3.2.8,3,y,0,left,left,right,right,NA,595,595,211857,8913,NA,2,legacy,5,1024,2,48000,-16,experiment,3,odd,7,418998,421003,214526,408949,416787,2660,299736,416790,415611,2667,290822,421599,417792,421002,NA,Sternberg Task,27,24598,32,yes,1024
84.84848485,84.84848485,762.4545455,762.4545455,black,experiment,legacy,legacy,legacy,0,uniform,1,1,undefined,left,32,32,0,32,32,0,0,32,32,0,0,32,32,32,0,10/27/19 8:33,The main experiment item,yes,SternbergTask.osexp,C:\Users\hosan\Desktop,no,mono,no,18,no,white,no,yes,768,legacy,20,11,C:/Users/hosan/Desktop/TB-subject-3.csv,legacy,3 5 4 7,Kafkaesque Koffka,3.2.8,1,y,0,left,left,right,right,NA,563,563,211857,8913,NA,2,legacy,4,1024,2,48000,-16,experiment,3,odd,3,425000,427005,214526,421659,422785,2660,299736,422788,415611,2667,290822,427569,423794,427004,NA,Sternberg Task,28,25161,33,yes,1024
85.29411765,85.29411765,756.0882353,756.0882353,black,experiment,legacy,legacy,legacy,0,uniform,1,1,undefined,right,33,33,0,33,33,0,0,33,33,0,0,33,33,33,0,10/27/19 8:33,The main experiment item,yes,SternbergTask.osexp,C:\Users\hosan\Desktop,no,mono,no,18,no,white,no,yes,768,legacy,21,11,C:/Users/hosan/Desktop/TB-subject-3.csv,legacy,6 2 9 3 8 4,Kafkaesque Koffka,3.2.8,0,n,0,right,right,right,right,NA,546,546,211857,8913,NA,2,legacy,6,1024,2,48000,-16,experiment,3,odd,1,431005,433012,214526,427639,428794,2660,299736,428797,415611,2667,290822,433558,429802,433011,NA,Sternberg Task,29,25707,34,yes,1024
85.71428571,85.71428571,753.5428571,753.5428571,black,experiment,legacy,legacy,legacy,0,uniform,1,1,undefined,right,34,34,0,34,34,0,0,34,34,0,0,34,34,34,0,10/27/19 8:33,The main experiment item,yes,SternbergTask.osexp,C:\Users\hosan\Desktop,no,mono,no,18,no,white,no,yes,768,legacy,22,11,C:/Users/hosan/Desktop/TB-subject-3.csv,legacy,2 6 4 3 9,Kafkaesque Koffka,3.2.8,0,n,0,right,right,right,right,NA,667,667,211857,8913,NA,2,legacy,5,1024,2,48000,-16,experiment,3,odd,1,436981,438988,214526,433628,434766,2660,299736,434768,415611,2667,290822,439656,435774,438987,NA,Sternberg Task,30,26374,35,yes,1024
86.11111111,86.11111111,749.3055556,749.3055556,black,experiment,legacy,legacy,legacy,0,uniform,1,1,undefined,right,35,35,0,35,35,0,0,35,35,0,0,35,35,35,0,10/27/19 8:33,The main experiment item,yes,SternbergTask.osexp,C:\Users\hosan\Desktop,no,mono,no,18,no,white,no,yes,768,legacy,23,11,C:/Users/hosan/Desktop/TB-subject-3.csv,legacy,1 8 7,Kafkaesque Koffka,3.2.8,0,n,0,right,right,right,right,NA,601,601,211857,8913,NA,2,legacy,3,1024,2,48000,-16,experiment,3,odd,4,443145,445153,214526,439727,440928,2660,299736,440931,415611,2667,290822,445755,441938,445152,NA,Sternberg Task,31,26975,36,yes,1024
86.48648649,86.48648649,748.6486486,748.6486486,black,experiment,legacy,legacy,legacy,0,uniform,1,1,undefined,left,36,36,0,36,36,0,0,36,36,0,0,36,36,36,0,10/27/19 8:33,The main experiment item,yes,SternbergTask.osexp,C:\Users\hosan\Desktop,no,mono,no,18,no,white,no,yes,768,legacy,24,11,C:/Users/hosan/Desktop/TB-subject-3.csv,legacy,2 6 1 7 4,Kafkaesque Koffka,3.2.8,2,y,0,left,left,right,right,NA,725,725,211857,8913,NA,2,legacy,5,1024,2,48000,-16,experiment,3,odd,6,449142,451146,214526,445794,446926,2660,299736,446929,415611,2667,290822,451872,447934,451145,NA,Sternberg Task,32,27700,37,yes,1024
86.84210526,86.84210526,746.4736842,746.4736842,black,experiment,legacy,legacy,legacy,0,uniform,1,1,undefined,right,37,37,0,37,37,0,0,37,37,0,0,37,37,37,0,10/27/19 8:33,The main experiment item,yes,SternbergTask.osexp,C:\Users\hosan\Desktop,no,mono,no,18,no,white,no,yes,768,legacy,25,11,C:/Users/hosan/Desktop/TB-subject-3.csv,legacy,7 6 4 8 1 2,Kafkaesque Koffka,3.2.8,0,n,0,right,right,right,right,NA,666,666,211857,8913,NA,2,legacy,6,1024,2,48000,-16,experiment,3,odd,9,455299,457303,214526,451938,453087,2660,299736,453090,415611,2667,290822,457969,454096,457302,NA,Sternberg Task,33,28366,38,yes,1024
87.17948718,87.17948718,739.6410256,739.6410256,black,experiment,legacy,legacy,legacy,0,uniform,1,1,undefined,right,38,38,0,38,38,0,0,38,38,0,0,38,38,38,0,10/27/19 8:33,The main experiment item,yes,SternbergTask.osexp,C:\Users\hosan\Desktop,no,mono,no,18,no,white,no,yes,768,legacy,26,11,C:/Users/hosan/Desktop/TB-subject-3.csv,legacy,7 3 2 8,Kafkaesque Koffka,3.2.8,0,n,0,right,right,right,right,NA,480,480,211857,8913,NA,2,legacy,4,1024,2,48000,-16,experiment,3,odd,4,461402,463406,214526,458037,459191,2660,299736,459194,415611,2667,290822,463887,460197,463405,NA,Sternberg Task,34,28846,39,yes,1024
87.5,87.5,740.925,740.925,black,experiment,legacy,legacy,legacy,0,uniform,1,1,undefined,left,39,39,0,39,39,0,0,39,39,0,0,39,39,39,0,10/27/19 8:33,The main experiment item,yes,SternbergTask.osexp,C:\Users\hosan\Desktop,no,mono,no,18,no,white,no,yes,768,legacy,27,11,C:/Users/hosan/Desktop/TB-subject-3.csv,legacy,3 4 9 6 2 9,Kafkaesque Koffka,3.2.8,5,y,0,left,left,right,right,NA,791,791,211857,8913,NA,2,legacy,6,1024,2,48000,-16,experiment,3,odd,2,467318,469327,214526,463948,465103,2660,299736,465106,415611,2667,290822,470119,466112,469325,NA,Sternberg Task,35,29637,40,yes,1024
87.80487805,87.80487805,735.2195122,735.2195122,black,experiment,legacy,legacy,legacy,0,uniform,1,1,undefined,left,40,40,0,40,40,0,0,40,40,0,0,40,40,40,0,10/27/19 8:33,The main experiment item,yes,SternbergTask.osexp,C:\Users\hosan\Desktop,no,mono,no,18,no,white,no,yes,768,legacy,28,11,C:/Users/hosan/Desktop/TB-subject-3.csv,legacy,4 3 2 5 8,Kafkaesque Koffka,3.2.8,2,y,0,left,left,right,right,NA,507,507,211857,8913,NA,2,legacy,5,1024,2,48000,-16,experiment,3,odd,3,473566,475568,214526,470189,471351,2660,299736,471353,415611,2667,290822,476076,472360,475568,NA,Sternberg Task,36,30144,41,yes,1024
88.0952381,88.0952381,730.0714286,730.0714286,black,experiment,legacy,legacy,legacy,0,uniform,1,1,undefined,left,41,41,0,41,41,0,0,41,41,0,0,41,41,41,0,10/27/19 8:33,The main experiment item,yes,SternbergTask.osexp,C:\Users\hosan\Desktop,no,mono,no,18,no,white,no,yes,768,legacy,29,11,C:/Users/hosan/Desktop/TB-subject-3.csv,legacy,8 9 5 6 7,Kafkaesque Koffka,3.2.8,1,y,0,left,left,right,right,NA,519,519,211857,8913,NA,2,legacy,5,1024,2,48000,-16,experiment,3,odd,8,479508,481516,214526,476137,477293,2660,299736,477296,415611,2667,290822,482036,478302,481515,NA,Sternberg Task,37,30663,42,yes,1024
88.37209302,88.37209302,723.5813953,723.5813953,black,experiment,legacy,legacy,legacy,0,uniform,1,1,undefined,right,42,42,0,42,42,0,0,42,42,0,0,42,42,42,0,10/27/19 8:33,The main experiment item,yes,SternbergTask.osexp,C:\Users\hosan\Desktop,no,mono,no,18,no,white,no,yes,768,legacy,30,11,C:/Users/hosan/Desktop/TB-subject-3.csv,legacy,5 2,Kafkaesque Koffka,3.2.8,0,n,0,right,right,right,right,NA,451,451,211857,8913,NA,2,legacy,2,1024,2,48000,-16,experiment,3,odd,7,485445,487452,214526,482105,483230,2660,299736,483233,415611,2667,290822,487904,484238,487451,NA,Sternberg Task,38,31114,43,yes,1024
88.63636364,88.63636364,720.5227273,720.5227273,black,experiment,legacy,legacy,legacy,0,uniform,1,1,undefined,right,43,43,0,43,43,0,0,43,43,0,0,43,43,43,0,10/27/19 8:33,The main experiment item,yes,SternbergTask.osexp,C:\Users\hosan\Desktop,no,mono,no,18,no,white,no,yes,768,legacy,31,11,C:/Users/hosan/Desktop/TB-subject-3.csv,legacy,2 8 9,Kafkaesque Koffka,3.2.8,0,n,0,right,right,right,right,NA,589,589,211857,8913,NA,2,legacy,3,1024,2,48000,-16,experiment,3,odd,6,491270,493277,214526,487920,489055,2660,299736,489058,415611,2667,290822,493867,490063,493276,NA,Sternberg Task,39,31703,44,yes,1024
88.88888889,88.88888889,716.6666667,716.6666667,black,experiment,legacy,legacy,legacy,0,uniform,1,1,undefined,left,44,44,0,44,44,0,0,44,44,0,0,44,44,44,0,10/27/19 8:33,The main experiment item,yes,SternbergTask.osexp,C:\Users\hosan\Desktop,no,mono,no,18,no,white,no,yes,768,legacy,32,11,C:/Users/hosan/Desktop/TB-subject-3.csv,legacy,5 7 8 2 3 8,Kafkaesque Koffka,3.2.8,5,y,0,left,left,right,right,NA,547,547,211857,8913,NA,2,legacy,6,1024,2,48000,-16,experiment,3,odd,3,497294,499297,214526,493923,495078,2660,299736,495082,415611,2667,290822,499845,496087,499297,NA,Sternberg Task,40,32250,45,yes,1024
89.13043478,89.13043478,713.1086957,713.1086957,black,experiment,legacy,legacy,legacy,0,uniform,1,1,undefined,left,45,45,0,45,45,0,0,45,45,0,0,45,45,45,0,10/27/19 8:33,The main experiment item,yes,SternbergTask.osexp,C:\Users\hosan\Desktop,no,mono,no,18,no,white,no,yes,768,legacy,33,11,C:/Users/hosan/Desktop/TB-subject-3.csv,legacy,9 4 2,Kafkaesque Koffka,3.2.8,1,y,0,left,left,right,right,NA,553,553,211857,8913,NA,2,legacy,3,1024,2,48000,-16,experiment,3,odd,9,503285,505292,214526,499900,501070,2660,299736,501073,415611,2667,290822,505846,502079,505291,NA,Sternberg Task,41,32803,46,yes,1024
89.36170213,89.36170213,709.8085106,709.8085106,black,experiment,legacy,legacy,legacy,0,uniform,1,1,undefined,left,46,46,0,46,46,0,0,46,46,0,0,46,46,46,0,10/27/19 8:33,The main experiment item,yes,SternbergTask.osexp,C:\Users\hosan\Desktop,no,mono,no,18,no,white,no,yes,768,legacy,34,11,C:/Users/hosan/Desktop/TB-subject-3.csv,legacy,3 2 1 4 7,Kafkaesque Koffka,3.2.8,2,y,0,left,left,right,right,NA,558,558,211857,8913,NA,2,legacy,5,1024,2,48000,-16,experiment,3,odd,2,509293,511301,214526,505915,507083,2660,299736,507086,415611,2667,290822,511860,508088,511300,NA,Sternberg Task,42,33361,47,yes,1024
89.58333333,89.58333333,707.375,707.375,black,experiment,legacy,legacy,legacy,0,uniform,1,1,undefined,left,47,47,0,47,47,0,0,47,47,0,0,47,47,47,0,10/27/19 8:33,The main experiment item,yes,SternbergTask.osexp,C:\Users\hosan\Desktop,no,mono,no,18,no,white,no,yes,768,legacy,35,11,C:/Users/hosan/Desktop/TB-subject-3.csv,legacy,9 1 7 2,Kafkaesque Koffka,3.2.8,2,y,0,left,left,right,right,NA,593,593,211857,8913,NA,2,legacy,4,1024,2,48000,-16,experiment,3,odd,1,515263,517271,214526,511924,513046,2660,299736,513049,415611,2667,290822,517865,514055,517271,NA,Sternberg Task,43,33954,48,yes,1024
89.79591837,89.79591837,701.5102041,701.5102041,black,experiment,legacy,legacy,legacy,0,uniform,1,1,undefined,left,48,48,0,48,48,0,0,48,48,0,0,48,48,48,0,10/27/19 8:33,The main experiment item,yes,SternbergTask.osexp,C:\Users\hosan\Desktop,no,mono,no,18,no,white,no,yes,768,legacy,36,11,C:/Users/hosan/Desktop/TB-subject-3.csv,legacy,2 4 8 5 1 3,Kafkaesque Koffka,3.2.8,1,y,0,left,left,right,right,NA,420,420,211857,8913,NA,2,legacy,6,1024,2,48000,-16,experiment,3,odd,2,521250,523258,214526,517913,519035,2660,299736,519038,415611,2667,290822,523679,520044,523257,NA,Sternberg Task,44,34374,49,yes,1024
88,88,699.8,699.8,black,experiment,legacy,legacy,legacy,0,uniform,0,0,undefined,left,49,49,0,49,49,0,0,49,49,0,0,49,49,49,0,10/27/19 8:33,The main experiment item,yes,SternbergTask.osexp,C:\Users\hosan\Desktop,no,mono,no,18,no,white,no,yes,768,legacy,37,11,C:/Users/hosan/Desktop/TB-subject-3.csv,legacy,7 4 2 6 3 5,Kafkaesque Koffka,3.2.8,6,y,0,right,right,right,right,NA,616,616,211857,8913,NA,2,legacy,6,1024,2,48000,-16,experiment,3,odd,5,527147,529152,214526,523749,524934,2660,299736,524937,415611,2667,290822,529769,525942,529152,NA,Sternberg Task,44,34990,50,yes,1024
88.23529412,88.23529412,698.8235294,698.8235294,black,experiment,legacy,legacy,legacy,0,uniform,1,1,undefined,right,50,50,0,50,50,0,0,50,50,0,0,50,50,50,0,10/27/19 8:33,The main experiment item,yes,SternbergTask.osexp,C:\Users\hosan\Desktop,no,mono,no,18,no,white,no,yes,768,legacy,38,11,C:/Users/hosan/Desktop/TB-subject-3.csv,legacy,8 5 4 2 9 6,Kafkaesque Koffka,3.2.8,0,n,0,right,right,right,right,NA,650,650,211857,8913,NA,2,legacy,6,1024,2,48000,-16,experiment,3,odd,3,533268,535275,214526,523749,531052,2660,299736,531056,529834,2667,290822,535925,532061,535275,NA,Sternberg Task,45,35640,51,yes,1024
88.46153846,88.46153846,694.4230769,694.4230769,black,experiment,legacy,legacy,legacy,0,uniform,1,1,undefined,right,51,51,0,51,51,0,0,51,51,0,0,51,51,51,0,10/27/19 8:33,The main experiment item,yes,SternbergTask.osexp,C:\Users\hosan\Desktop,no,mono,no,18,no,white,no,yes,768,legacy,39,11,C:/Users/hosan/Desktop/TB-subject-3.csv,legacy,9,Kafkaesque Koffka,3.2.8,0,n,0,right,right,right,right,NA,470,470,211857,8913,NA,2,legacy,1,1024,2,48000,-16,experiment,3,odd,6,539346,541354,214526,535991,537133,2660,299736,537136,529834,2667,290822,541825,538142,541353,NA,Sternberg Task,46,36110,52,yes,1024
88.67924528,88.67924528,692.5471698,692.5471698,black,experiment,legacy,legacy,legacy,0,uniform,1,1,undefined,left,52,52,0,52,52,0,0,52,52,0,0,52,52,52,0,10/27/19 8:33,The main experiment item,yes,SternbergTask.osexp,C:\Users\hosan\Desktop,no,mono,no,18,no,white,no,yes,768,legacy,40,11,C:/Users/hosan/Desktop/TB-subject-3.csv,legacy,7 1 3,Kafkaesque Koffka,3.2.8,2,y,0,left,left,right,right,NA,595,595,211857,8913,NA,2,legacy,3,1024,2,48000,-16,experiment,3,odd,1,545262,547270,214526,541891,543051,2660,299736,543053,529834,2667,290822,547866,544059,547269,NA,Sternberg Task,47,36705,53,yes,1024
88.88888889,88.88888889,691.9259259,691.9259259,black,experiment,legacy,legacy,legacy,0,uniform,1,1,undefined,right,53,53,0,53,53,0,0,53,53,0,0,53,53,53,0,10/27/19 8:33,The main experiment item,yes,SternbergTask.osexp,C:\Users\hosan\Desktop,no,mono,no,18,no,white,no,yes,768,legacy,41,11,C:/Users/hosan/Desktop/TB-subject-3.csv,legacy,2 5 1 4,Kafkaesque Koffka,3.2.8,0,n,0,right,right,right,right,NA,659,659,211857,8913,NA,2,legacy,4,1024,2,48000,-16,experiment,3,odd,6,551269,553273,214526,547929,549055,2660,299736,549058,529834,2667,290822,553933,550064,553272,NA,Sternberg Task,48,37364,54,yes,1024
89.09090909,89.09090909,688.8,688.8,black,experiment,legacy,legacy,legacy,0,uniform,1,1,undefined,right,54,54,0,54,54,0,0,54,54,0,0,54,54,54,0,10/27/19 8:33,The main experiment item,yes,SternbergTask.osexp,C:\Users\hosan\Desktop,no,mono,no,18,no,white,no,yes,768,legacy,42,11,C:/Users/hosan/Desktop/TB-subject-3.csv,legacy,7 9 1 6,Kafkaesque Koffka,3.2.8,0,n,0,right,right,right,right,NA,520,520,211857,8913,NA,2,legacy,4,1024,2,48000,-16,experiment,3,odd,4,557347,559354,214526,554001,555133,2660,299736,555136,529834,2667,290822,559875,556142,559353,NA,Sternberg Task,49,37884,55,yes,1024
89.28571429,89.28571429,687.7321429,687.7321429,black,experiment,legacy,legacy,legacy,0,uniform,1,1,undefined,right,55,55,0,55,55,0,0,55,55,0,0,55,55,55,0,10/27/19 8:33,The main experiment item,yes,SternbergTask.osexp,C:\Users\hosan\Desktop,no,mono,no,18,no,white,no,yes,768,legacy,43,11,C:/Users/hosan/Desktop/TB-subject-3.csv,legacy,4 2 7 6 1 3,Kafkaesque Koffka,3.2.8,0,n,0,right,right,right,right,NA,629,629,211857,8913,NA,2,legacy,6,1024,2,48000,-16,experiment,3,odd,8,563312,565316,214526,559938,561097,2660,299736,561100,529834,2667,290822,565946,562106,565316,NA,Sternberg Task,50,38513,56,yes,1024
87.71929825,87.71929825,691.3157895,691.3157895,black,experiment,legacy,legacy,legacy,0,uniform,0,0,undefined,left,56,56,0,56,56,0,0,56,56,0,0,56,56,56,0,10/27/19 8:33,The main experiment item,yes,SternbergTask.osexp,C:\Users\hosan\Desktop,no,mono,no,18,no,white,no,yes,768,legacy,44,11,C:/Users/hosan/Desktop/TB-subject-3.csv,legacy,8 5 3 7 4 6,Kafkaesque Koffka,3.2.8,6,y,0,right,right,right,right,NA,892,892,211857,8913,NA,2,legacy,6,1024,2,48000,-16,experiment,3,odd,6,569353,571355,214526,566014,567142,2660,299736,567145,529834,2667,290822,572248,568150,571355,NA,Sternberg Task,50,39405,57,yes,1024
87.93103448,87.93103448,693.8275862,693.8275862,black,experiment,legacy,legacy,legacy,0,uniform,1,1,undefined,right,57,57,0,57,57,0,0,57,57,0,0,57,57,57,0,10/27/19 8:33,The main experiment item,yes,SternbergTask.osexp,C:\Users\hosan\Desktop,no,mono,no,18,no,white,no,yes,768,legacy,45,11,C:/Users/hosan/Desktop/TB-subject-3.csv,legacy,7 8 6 1,Kafkaesque Koffka,3.2.8,0,n,0,right,right,right,right,NA,837,837,211857,8913,NA,2,legacy,4,1024,2,48000,-16,experiment,3,odd,3,575620,577628,214526,566014,573407,2660,299736,573410,572288,2667,290822,578466,574415,577627,NA,Sternberg Task,51,40242,58,yes,1024
88.13559322,88.13559322,691.1016949,691.1016949,black,experiment,legacy,legacy,legacy,0,uniform,1,1,undefined,right,58,58,0,58,58,0,0,58,58,0,0,58,58,58,0,10/27/19 8:33,The main experiment item,yes,SternbergTask.osexp,C:\Users\hosan\Desktop,no,mono,no,18,no,white,no,yes,768,legacy,46,11,C:/Users/hosan/Desktop/TB-subject-3.csv,legacy,8 9,Kafkaesque Koffka,3.2.8,0,n,0,right,right,right,right,NA,533,533,211857,8913,NA,2,legacy,2,1024,2,48000,-16,experiment,3,odd,5,581867,583876,214526,578523,579653,2660,299736,579656,572288,2667,290822,584411,580662,583875,NA,Sternberg Task,52,40775,59,yes,1024
88.33333333,88.33333333,686.4333333,686.4333333,black,experiment,legacy,legacy,legacy,0,uniform,1,1,undefined,left,59,59,0,59,59,0,0,59,59,0,0,59,59,59,0,10/27/19 8:33,The main experiment item,yes,SternbergTask.osexp,C:\Users\hosan\Desktop,no,mono,no,18,no,white,no,yes,768,legacy,47,11,C:/Users/hosan/Desktop/TB-subject-3.csv,legacy,4,Kafkaesque Koffka,3.2.8,1,y,0,left,left,right,right,NA,411,411,211857,8913,NA,2,legacy,1,1024,2,48000,-16,experiment,3,odd,4,587851,589858,214526,584498,585637,2660,299736,585640,572288,2667,290822,590270,586645,589857,NA,Sternberg Task,53,41186,60,yes,1024
88.52459016,88.52459016,686.2295082,686.2295082,black,experiment,legacy,legacy,legacy,0,uniform,1,1,undefined,left,60,60,0,60,60,0,0,60,60,0,0,60,60,60,0,10/27/19 8:33,The main experiment item,yes,SternbergTask.osexp,C:\Users\hosan\Desktop,no,mono,no,18,no,white,no,yes,768,legacy,48,11,C:/Users/hosan/Desktop/TB-subject-3.csv,legacy,6 1 2,Kafkaesque Koffka,3.2.8,3,y,0,left,left,right,right,NA,674,674,211857,8913,NA,2,legacy,3,1024,2,48000,-16,experiment,3,odd,2,593685,595688,214526,590336,591469,2660,299736,591472,572288,2667,290822,596364,592479,595688,NA,Sternberg Task,54,41860,61,yes,1024
88.70967742,88.70967742,683.483871,683.483871,black,experiment,legacy,legacy,legacy,0,uniform,1,1,undefined,right,61,61,0,61,61,0,0,61,61,0,0,61,61,61,0,10/27/19 8:33,The main experiment item,yes,SternbergTask.osexp,C:\Users\hosan\Desktop,no,mono,no,18,no,white,no,yes,768,legacy,49,11,C:/Users/hosan/Desktop/TB-subject-3.csv,legacy,1 3 2 6 9,Kafkaesque Koffka,3.2.8,0,n,0,right,right,right,right,NA,516,516,211857,8913,NA,2,legacy,5,1024,2,48000,-16,experiment,3,odd,5,599793,601799,214526,596424,597580,2660,299736,597582,572288,2667,290822,602316,598587,601798,NA,Sternberg Task,55,42376,62,yes,1024
88.88888889,88.88888889,680.3015873,680.3015873,black,experiment,legacy,legacy,legacy,0,uniform,1,1,undefined,left,62,62,0,62,62,0,0,62,62,0,0,62,62,62,0,10/27/19 8:33,The main experiment item,yes,SternbergTask.osexp,C:\Users\hosan\Desktop,no,mono,no,18,no,white,no,yes,768,legacy,50,11,C:/Users/hosan/Desktop/TB-subject-3.csv,legacy,9 5 3 8 4,Kafkaesque Koffka,3.2.8,1,y,0,left,left,right,right,NA,483,483,211857,8913,NA,2,legacy,5,1024,2,48000,-16,experiment,3,odd,9,605716,607723,214526,602379,603504,2660,299736,603507,572288,2667,290822,608207,604512,607722,NA,Sternberg Task,56,42859,63,yes,1024
89.0625,89.0625,680.515625,680.515625,black,experiment,legacy,legacy,legacy,0,uniform,1,1,undefined,right,63,63,0,63,63,0,0,63,63,0,0,63,63,63,0,10/27/19 8:33,The main experiment item,yes,SternbergTask.osexp,C:\Users\hosan\Desktop,no,mono,no,18,no,white,no,yes,768,legacy,51,11,C:/Users/hosan/Desktop/TB-subject-3.csv,legacy,6 9 7 3 8 2,Kafkaesque Koffka,3.2.8,0,n,0,right,right,right,right,NA,694,694,211857,8913,NA,2,legacy,6,1024,2,48000,-16,experiment,3,odd,5,611583,613591,214526,608232,609369,2660,299736,609371,572288,2667,290822,614286,610377,613589,NA,Sternberg Task,57,43553,64,yes,1024
89.23076923,89.23076923,679.0769231,679.0769231,black,experiment,legacy,legacy,legacy,0,uniform,1,1,undefined,left,64,64,0,64,64,0,0,64,64,0,0,64,64,64,0,10/27/19 8:33,The main experiment item,yes,SternbergTask.osexp,C:\Users\hosan\Desktop,no,mono,no,18,no,white,no,yes,768,legacy,52,11,C:/Users/hosan/Desktop/TB-subject-3.csv,legacy,8 5 4 7 3 1,Kafkaesque Koffka,3.2.8,2,y,0,left,left,right,right,NA,587,587,211857,8913,NA,2,legacy,6,1024,2,48000,-16,experiment,3,odd,5,617733,619739,214526,614358,615519,2660,299736,615522,572288,2667,290822,620327,616527,619739,NA,Sternberg Task,58,44140,65,yes,1024
89.39393939,89.39393939,676.0606061,676.0606061,black,experiment,legacy,legacy,legacy,0,uniform,1,1,undefined,left,65,65,0,65,65,0,0,65,65,0,0,65,65,65,0,10/27/19 8:33,The main experiment item,yes,SternbergTask.osexp,C:\Users\hosan\Desktop,no,mono,no,18,no,white,no,yes,768,legacy,53,11,C:/Users/hosan/Desktop/TB-subject-3.csv,legacy,8 3,Kafkaesque Koffka,3.2.8,2,y,0,left,left,right,right,NA,480,480,211857,8913,NA,2,legacy,2,1024,2,48000,-16,experiment,3,odd,3,623833,625839,214526,620390,621618,2660,299736,621621,572288,2667,290822,626321,622627,625838,NA,Sternberg Task,59,44620,66,yes,1024
89.55223881,89.55223881,672.119403,672.119403,black,experiment,legacy,legacy,legacy,0,uniform,1,1,undefined,right,66,66,0,66,66,0,0,66,66,0,0,66,66,66,0,10/27/19 8:33,The main experiment item,yes,SternbergTask.osexp,C:\Users\hosan\Desktop,no,mono,no,18,no,white,no,yes,768,legacy,54,11,C:/Users/hosan/Desktop/TB-subject-3.csv,legacy,4 1,Kafkaesque Koffka,3.2.8,0,n,0,right,right,right,right,NA,412,412,211857,8913,NA,2,legacy,2,1024,2,48000,-16,experiment,3,odd,6,629749,631756,214526,626380,627535,2660,299736,627538,572288,2667,290822,632169,628543,631755,NA,Sternberg Task,60,45032,67,yes,1024
89.70588235,89.70588235,669.4852941,669.4852941,black,experiment,legacy,legacy,legacy,0,uniform,1,1,undefined,right,67,67,0,67,67,0,0,67,67,0,0,67,67,67,0,10/27/19 8:33,The main experiment item,yes,SternbergTask.osexp,C:\Users\hosan\Desktop,no,mono,no,18,no,white,no,yes,768,legacy,55,11,C:/Users/hosan/Desktop/TB-subject-3.csv,legacy,7 1,Kafkaesque Koffka,3.2.8,0,n,0,right,right,right,right,NA,493,493,211857,8913,NA,2,legacy,2,1024,2,48000,-16,experiment,3,odd,8,635544,637549,214526,632187,633330,2660,299736,633333,572288,2667,290822,638045,634339,637548,NA,Sternberg Task,61,45525,68,yes,1024
89.85507246,89.85507246,670.7101449,670.7101449,black,experiment,legacy,legacy,legacy,0,uniform,1,1,undefined,right,68,68,0,68,68,0,0,68,68,0,0,68,68,68,0,10/27/19 8:33,The main experiment item,yes,SternbergTask.osexp,C:\Users\hosan\Desktop,no,mono,no,18,no,white,no,yes,768,legacy,56,11,C:/Users/hosan/Desktop/TB-subject-3.csv,legacy,6 9 4 5 3 2,Kafkaesque Koffka,3.2.8,0,n,0,right,right,right,right,NA,754,754,211857,8913,NA,2,legacy,6,1024,2,48000,-16,experiment,3,odd,8,641477,643484,214526,638112,639262,2660,299736,639265,572288,2667,290822,644240,640271,643483,NA,Sternberg Task,62,46279,69,yes,1024
88.57142857,88.57142857,667.3142857,667.3142857,black,experiment,legacy,legacy,legacy,0,uniform,0,0,undefined,right,69,69,0,69,69,0,0,69,69,0,0,69,69,69,0,10/27/19 8:33,The main experiment item,yes,SternbergTask.osexp,C:\Users\hosan\Desktop,no,mono,no,18,no,white,no,yes,768,legacy,57,11,C:/Users/hosan/Desktop/TB-subject-3.csv,legacy,1,Kafkaesque Koffka,3.2.8,0,n,0,left,left,right,right,NA,433,433,211857,8913,NA,2,legacy,1,1024,2,48000,-16,experiment,3,odd,7,647668,649675,214526,644321,645456,2660,299736,645459,572288,2667,290822,650110,646465,649674,NA,Sternberg Task,62,46712,70,yes,1024
88.73239437,88.73239437,672.7887324,672.7887324,black,experiment,legacy,legacy,legacy,0,uniform,1,1,undefined,left,70,70,0,70,70,0,0,70,70,0,0,70,70,70,0,10/27/19 8:33,The main experiment item,yes,SternbergTask.osexp,C:\Users\hosan\Desktop,no,mono,no,18,no,white,no,yes,768,legacy,58,11,C:/Users/hosan/Desktop/TB-subject-3.csv,legacy,2 5 4 8 7,Kafkaesque Koffka,3.2.8,3,y,0,left,left,right,right,NA,1056,1056,211857,8913,NA,2,legacy,5,1024,2,48000,-16,experiment,3,odd,4,653546,655550,214526,644321,651334,2660,299736,651337,650167,2667,290822,656607,652340,655549,NA,Sternberg Task,63,47768,71,yes,1024
88.88888889,88.88888889,672,672,black,experiment,legacy,legacy,legacy,0,uniform,1,1,undefined,left,71,71,0,71,71,0,0,71,71,0,0,71,71,71,0,10/27/19 8:33,The main experiment item,yes,SternbergTask.osexp,C:\Users\hosan\Desktop,no,mono,no,18,no,white,no,yes,768,legacy,59,11,C:/Users/hosan/Desktop/TB-subject-3.csv,legacy,9 3 8 2 1 4,Kafkaesque Koffka,3.2.8,3,y,0,left,left,right,right,NA,616,616,211857,8913,NA,2,legacy,6,1024,2,48000,-16,experiment,3,odd,8,660006,662010,214526,656667,657795,2660,299736,657798,650167,2667,290822,662627,658801,662009,NA,Sternberg Task,64,48384,72,yes,1024
89.04109589,89.04109589,671.8630137,671.8630137,black,experiment,legacy,legacy,legacy,0,uniform,1,1,undefined,left,72,72,0,72,72,0,0,72,72,0,0,72,72,72,0,10/27/19 8:33,The main experiment item,yes,SternbergTask.osexp,C:\Users\hosan\Desktop,no,mono,no,18,no,white,no,yes,768,legacy,60,11,C:/Users/hosan/Desktop/TB-subject-3.csv,legacy,9 1 6 7 8,Kafkaesque Koffka,3.2.8,1,y,0,left,left,right,right,NA,662,662,211857,8913,NA,2,legacy,5,1024,2,48000,-16,experiment,3,odd,9,666067,668076,214526,662690,663852,2660,299736,663855,650167,2667,290822,668739,664861,668075,NA,Sternberg Task,65,49046,73,yes,1024
89.18918919,89.18918919,670.5945946,670.5945946,black,experiment,legacy,legacy,legacy,0,uniform,1,1,undefined,right,73,73,0,73,73,0,0,73,73,0,0,73,73,73,0,10/27/19 8:33,The main experiment item,yes,SternbergTask.osexp,C:\Users\hosan\Desktop,no,mono,no,18,no,white,no,yes,768,legacy,61,11,C:/Users/hosan/Desktop/TB-subject-3.csv,legacy,1 6 4 3 9 7,Kafkaesque Koffka,3.2.8,0,n,0,right,right,right,right,NA,578,578,211857,8913,NA,2,legacy,6,1024,2,48000,-16,experiment,3,odd,8,672161,674168,214526,668797,669951,2660,299736,669953,650167,2667,290822,674747,670956,674167,NA,Sternberg Task,66,49624,74,yes,1024
89.33333333,89.33333333,669.5466667,669.5466667,black,experiment,legacy,legacy,legacy,0,uniform,1,1,undefined,left,74,74,0,74,74,0,0,74,74,0,0,74,74,74,0,10/27/19 8:33,The main experiment item,yes,SternbergTask.osexp,C:\Users\hosan\Desktop,no,mono,no,18,no,white,no,yes,768,legacy,62,11,C:/Users/hosan/Desktop/TB-subject-3.csv,legacy,3 4,Kafkaesque Koffka,3.2.8,1,y,0,left,left,right,right,NA,592,592,211857,8913,NA,2,legacy,2,1024,2,48000,-16,experiment,3,odd,3,678127,680133,214526,674776,675915,2660,299736,675918,650167,2667,290822,680727,676921,680133,NA,Sternberg Task,67,50216,75,yes,1024
89.47368421,89.47368421,669.0789474,669.0789474,black,experiment,legacy,legacy,legacy,0,uniform,1,1,undefined,right,75,75,0,75,75,0,0,75,75,0,0,75,75,75,0,10/27/19 8:33,The main experiment item,yes,SternbergTask.osexp,C:\Users\hosan\Desktop,no,mono,no,18,no,white,no,yes,768,legacy,63,11,C:/Users/hosan/Desktop/TB-subject-3.csv,legacy,5 7 3,Kafkaesque Koffka,3.2.8,0,n,0,right,right,right,right,NA,634,634,211857,8913,NA,2,legacy,3,1024,2,48000,-16,experiment,3,odd,9,684131,686138,214526,680790,681918,2660,299736,681920,650167,2667,290822,686774,682926,686137,NA,Sternberg Task,68,50850,76,yes,1024
89.61038961,89.61038961,671.9350649,671.9350649,black,experiment,legacy,legacy,legacy,0,uniform,1,1,undefined,left,76,76,0,76,76,0,0,76,76,0,0,76,76,76,0,10/27/19 8:33,The main experiment item,yes,SternbergTask.osexp,C:\Users\hosan\Desktop,no,mono,no,18,no,white,no,yes,768,legacy,64,11,C:/Users/hosan/Desktop/TB-subject-3.csv,legacy,9 6 2 4 1,Kafkaesque Koffka,3.2.8,4,y,0,left,left,right,right,NA,889,889,211857,8913,NA,2,legacy,5,1024,2,48000,-16,experiment,3,odd,4,690204,692207,214526,686842,687991,2660,299736,687994,650167,2667,290822,693097,688999,692207,NA,Sternberg Task,69,51739,77,yes,1024
89.74358974,89.74358974,670.5512821,670.5512821,black,experiment,legacy,legacy,legacy,0,uniform,1,1,undefined,right,77,77,0,77,77,0,0,77,77,0,0,77,77,77,0,10/27/19 8:33,The main experiment item,yes,SternbergTask.osexp,C:\Users\hosan\Desktop,no,mono,no,18,no,white,no,yes,768,legacy,65,11,C:/Users/hosan/Desktop/TB-subject-3.csv,legacy,9 8 2 7 4,Kafkaesque Koffka,3.2.8,0,n,0,right,right,right,right,NA,564,564,211857,8913,NA,2,legacy,5,1024,2,48000,-16,experiment,3,odd,5,696535,698543,214526,693157,694322,2660,299736,694324,650167,2667,290822,699108,695329,698542,NA,Sternberg Task,70,52303,78,yes,1024
89.87341772,89.87341772,670.7848101,670.7848101,black,experiment,legacy,legacy,legacy,0,uniform,1,1,undefined,right,78,78,0,78,78,0,0,78,78,0,0,78,78,78,0,10/27/19 8:33,The main experiment item,yes,SternbergTask.osexp,C:\Users\hosan\Desktop,no,mono,no,18,no,white,no,yes,768,legacy,66,11,C:/Users/hosan/Desktop/TB-subject-3.csv,legacy,7 9,Kafkaesque Koffka,3.2.8,0,n,0,right,right,right,right,NA,689,689,211857,8913,NA,2,legacy,2,1024,2,48000,-16,experiment,3,odd,1,702520,704527,214526,699163,700308,2660,299736,700311,650167,2667,290822,705217,701314,704526,NA,Sternberg Task,71,52992,79,yes,1024
90,90,670.8125,670.8125,black,experiment,legacy,legacy,legacy,0,uniform,1,1,undefined,right,79,79,0,79,79,0,0,79,79,0,0,79,79,79,0,10/27/19 8:33,The main experiment item,yes,SternbergTask.osexp,C:\Users\hosan\Desktop,no,mono,no,18,no,white,no,yes,768,legacy,67,11,C:/Users/hosan/Desktop/TB-subject-3.csv,legacy,1 4 3 6 5,Kafkaesque Koffka,3.2.8,0,n,0,right,right,right,right,NA,673,673,211857,8913,NA,2,legacy,5,1024,2,48000,-16,experiment,3,odd,8,708656,710664,214526,705278,706440,2660,299736,706443,650167,2667,290822,711340,707449,710663,NA,Sternberg Task,72,53665,80,yes,1024
90.12345679,90.12345679,669.1234568,669.1234568,black,experiment,legacy,legacy,legacy,0,uniform,1,1,undefined,left,80,80,0,80,80,0,0,80,80,0,0,80,80,80,0,10/27/19 8:33,The main experiment item,yes,SternbergTask.osexp,C:\Users\hosan\Desktop,no,mono,no,18,no,white,no,yes,768,legacy,68,11,C:/Users/hosan/Desktop/TB-subject-3.csv,legacy,8 5 1 3 9,Kafkaesque Koffka,3.2.8,4,y,0,left,left,right,right,NA,534,534,211857,8913,NA,2,legacy,5,1024,2,48000,-16,experiment,3,odd,3,714777,716784,214526,711406,712563,2660,299736,712566,650167,2667,290822,717320,713572,716783,NA,Sternberg Task,73,54199,81,yes,1024
90.24390244,90.24390244,667.3170732,667.3170732,black,experiment,legacy,legacy,legacy,0,uniform,1,1,undefined,left,81,81,0,81,81,0,0,81,81,0,0,81,81,81,0,10/27/19 8:33,The main experiment item,yes,SternbergTask.osexp,C:\Users\hosan\Desktop,no,mono,no,18,no,white,no,yes,768,legacy,69,11,C:/Users/hosan/Desktop/TB-subject-3.csv,legacy,4 6 2 5 1,Kafkaesque Koffka,3.2.8,5,y,0,left,left,right,right,NA,521,521,211857,8913,NA,2,legacy,5,1024,2,48000,-16,experiment,3,odd,1,720725,722732,214526,717398,718508,2660,299736,718511,650167,2667,290822,723255,719517,722731,NA,Sternberg Task,74,54720,82,yes,1024
90.36144578,90.36144578,664.2409639,664.2409639,black,experiment,legacy,legacy,legacy,0,uniform,1,1,undefined,left,82,82,0,82,82,0,0,82,82,0,0,82,82,82,0,10/27/19 8:33,The main experiment item,yes,SternbergTask.osexp,C:\Users\hosan\Desktop,no,mono,no,18,no,white,no,yes,768,legacy,70,11,C:/Users/hosan/Desktop/TB-subject-3.csv,legacy,7 8 6 3 1,Kafkaesque Koffka,3.2.8,5,y,0,left,left,right,right,NA,412,412,211857,8913,NA,2,legacy,5,1024,2,48000,-16,experiment,3,odd,1,726728,728735,214526,723322,724513,2660,299736,724516,650167,2667,290822,729150,725522,728734,NA,Sternberg Task,75,55132,83,yes,1024
90.47619048,90.47619048,662.452381,662.452381,black,experiment,legacy,legacy,legacy,0,uniform,1,1,undefined,left,83,83,0,83,83,0,0,83,83,0,0,83,83,83,0,10/27/19 8:33,The main experiment item,yes,SternbergTask.osexp,C:\Users\hosan\Desktop,no,mono,no,18,no,white,no,yes,768,legacy,71,11,C:/Users/hosan/Desktop/TB-subject-3.csv,legacy,7,Kafkaesque Koffka,3.2.8,1,y,0,left,left,right,right,NA,514,514,211857,8913,NA,2,legacy,1,1024,2,48000,-16,experiment,3,odd,7,732581,734589,214526,729220,730366,2660,299736,730368,650167,2667,290822,735104,731375,734588,NA,Sternberg Task,76,55646,84,yes,1024
90.58823529,90.58823529,663.0470588,663.0470588,black,experiment,legacy,legacy,legacy,0,uniform,1,1,undefined,right,84,84,0,84,84,0,0,84,84,0,0,84,84,84,0,10/27/19 8:33,The main experiment item,yes,SternbergTask.osexp,C:\Users\hosan\Desktop,no,mono,no,18,no,white,no,yes,768,legacy,72,11,C:/Users/hosan/Desktop/TB-subject-3.csv,legacy,3 9 1,Kafkaesque Koffka,3.2.8,0,n,0,right,right,right,right,NA,713,713,211857,8913,NA,2,legacy,3,1024,2,48000,-16,experiment,3,odd,7,738533,740540,214526,735178,736323,2660,299736,736325,650167,2667,290822,741254,737330,740540,NA,Sternberg Task,77,56359,85,yes,1024
90.69767442,90.69767442,663.5,663.5,black,experiment,legacy,legacy,legacy,0,uniform,1,1,undefined,left,85,85,0,85,85,0,0,85,85,0,0,85,85,85,0,10/27/19 8:33,The main experiment item,yes,SternbergTask.osexp,C:\Users\hosan\Desktop,no,mono,no,18,no,white,no,yes,768,legacy,73,11,C:/Users/hosan/Desktop/TB-subject-3.csv,legacy,4 7 6 8 2 3,Kafkaesque Koffka,3.2.8,6,y,0,left,left,right,right,NA,702,702,211857,8913,NA,2,legacy,6,1024,2,48000,-16,experiment,3,odd,3,744685,746694,214526,741286,742472,2660,299736,742475,650167,2667,290822,747397,743480,746693,NA,Sternberg Task,78,57061,86,yes,1024
90.8045977,90.8045977,661.2528736,661.2528736,black,experiment,legacy,legacy,legacy,0,uniform,1,1,undefined,left,86,86,0,86,86,0,0,86,86,0,0,86,86,86,0,10/27/19 8:33,The main experiment item,yes,SternbergTask.osexp,C:\Users\hosan\Desktop,no,mono,no,18,no,white,no,yes,768,legacy,74,11,C:/Users/hosan/Desktop/TB-subject-3.csv,legacy,1 4 9 3 2 5,Kafkaesque Koffka,3.2.8,3,y,0,left,left,right,right,NA,468,468,211857,8913,NA,2,legacy,6,1024,2,48000,-16,experiment,3,odd,9,750772,752780,214526,747416,748558,2660,299736,748560,650167,2667,290822,753250,749567,752779,NA,Sternberg Task,79,57529,87,yes,1024
90.90909091,90.90909091,660.4772727,660.4772727,black,experiment,legacy,legacy,legacy,0,uniform,1,1,undefined,right,87,87,0,87,87,0,0,87,87,0,0,87,87,87,0,10/27/19 8:33,The main experiment item,yes,SternbergTask.osexp,C:\Users\hosan\Desktop,no,mono,no,18,no,white,no,yes,768,legacy,75,11,C:/Users/hosan/Desktop/TB-subject-3.csv,legacy,1 6 4,Kafkaesque Koffka,3.2.8,0,n,0,right,right,right,right,NA,593,593,211857,8913,NA,2,legacy,3,1024,2,48000,-16,experiment,3,odd,7,756661,758669,214526,753308,754446,2660,299736,754449,650167,2667,290822,759263,755455,758668,NA,Sternberg Task,80,58122,88,yes,1024
91.01123596,91.01123596,658.8314607,658.8314607,black,experiment,legacy,legacy,legacy,0,uniform,1,1,undefined,left,88,88,0,88,88,0,0,88,88,0,0,88,88,88,0,10/27/19 8:33,The main experiment item,yes,SternbergTask.osexp,C:\Users\hosan\Desktop,no,mono,no,18,no,white,no,yes,768,legacy,76,11,C:/Users/hosan/Desktop/TB-subject-3.csv,legacy,9 8 4,Kafkaesque Koffka,3.2.8,1,y,0,left,left,right,right,NA,514,514,211857,8913,NA,2,legacy,3,1024,2,48000,-16,experiment,3,odd,9,762704,764711,214526,759322,760490,2660,299736,760493,650167,2667,290822,765226,761498,764711,NA,Sternberg Task,81,58636,89,yes,1024
91.11111111,91.11111111,658.7,658.7,black,experiment,legacy,legacy,legacy,0,uniform,1,1,undefined,right,89,89,0,89,89,0,0,89,89,0,0,89,89,89,0,10/27/19 8:33,The main experiment item,yes,SternbergTask.osexp,C:\Users\hosan\Desktop,no,mono,no,18,no,white,no,yes,768,legacy,77,11,C:/Users/hosan/Desktop/TB-subject-3.csv,legacy,9 7 4 5 8,Kafkaesque Koffka,3.2.8,0,n,0,right,right,right,right,NA,647,647,211857,8913,NA,2,legacy,5,1024,2,48000,-16,experiment,3,odd,6,768743,770750,214526,765285,766526,2660,299736,766531,650167,2667,290822,771398,767537,770749,NA,Sternberg Task,82,59283,90,yes,1024
91.20879121,91.20879121,659.5934066,659.5934066,black,experiment,legacy,legacy,legacy,0,uniform,1,1,undefined,right,90,90,0,90,90,0,0,90,90,0,0,90,90,90,0,10/27/19 8:33,The main experiment item,yes,SternbergTask.osexp,C:\Users\hosan\Desktop,no,mono,no,18,no,white,no,yes,768,legacy,78,11,C:/Users/hosan/Desktop/TB-subject-3.csv,legacy,7 4 2 8 1 9,Kafkaesque Koffka,3.2.8,0,n,0,right,right,right,right,NA,740,740,211857,8913,NA,2,legacy,6,1024,2,48000,-16,experiment,3,odd,5,774771,776777,214526,771416,772556,2660,299736,772559,650167,2667,290822,777518,773565,776777,NA,Sternberg Task,83,60023,91,yes,1024
91.30434783,91.30434783,660.2065217,660.2065217,black,experiment,legacy,legacy,legacy,0,uniform,1,1,undefined,right,91,91,0,91,91,0,0,91,91,0,0,91,91,91,0,10/27/19 8:33,The main experiment item,yes,SternbergTask.osexp,C:\Users\hosan\Desktop,no,mono,no,18,no,white,no,yes,768,legacy,79,11,C:/Users/hosan/Desktop/TB-subject-3.csv,legacy,5 9 2 3,Kafkaesque Koffka,3.2.8,0,n,0,right,right,right,right,NA,716,716,211857,8913,NA,2,legacy,4,1024,2,48000,-16,experiment,3,odd,8,780869,782876,214526,777538,778655,2660,299736,778658,650167,2667,290822,783594,779664,782875,NA,Sternberg Task,84,60739,92,yes,1024
91.39784946,91.39784946,659.8494624,659.8494624,black,experiment,legacy,legacy,legacy,0,uniform,1,1,undefined,right,92,92,0,92,92,0,0,92,92,0,0,92,92,92,0,10/27/19 8:33,The main experiment item,yes,SternbergTask.osexp,C:\Users\hosan\Desktop,no,mono,no,18,no,white,no,yes,768,legacy,80,11,C:/Users/hosan/Desktop/TB-subject-3.csv,legacy,6 9 4 5 2,Kafkaesque Koffka,3.2.8,0,n,0,right,right,right,right,NA,627,627,211857,8913,NA,2,legacy,5,1024,2,48000,-16,experiment,3,odd,1,787045,789052,214526,783653,784834,2660,299736,784836,650167,2667,290822,789680,785840,789051,NA,Sternberg Task,85,61366,93,yes,1024
91.4893617,91.4893617,659.2553191,659.2553191,black,experiment,legacy,legacy,legacy,0,uniform,1,1,undefined,right,93,93,0,93,93,0,0,93,93,0,0,93,93,93,0,10/27/19 8:33,The main experiment item,yes,SternbergTask.osexp,C:\Users\hosan\Desktop,no,mono,no,18,no,white,no,yes,768,legacy,81,11,C:/Users/hosan/Desktop/TB-subject-3.csv,legacy,7 1 5 6 3,Kafkaesque Koffka,3.2.8,0,n,0,right,right,right,right,NA,604,604,211857,8913,NA,2,legacy,5,1024,2,48000,-16,experiment,3,odd,8,793109,795117,214526,789741,790895,2660,299736,790897,650167,2667,290822,795722,791904,795116,NA,Sternberg Task,86,61970,94,yes,1024
91.57894737,91.57894737,656.8526316,656.8526316,black,experiment,legacy,legacy,legacy,0,uniform,1,1,undefined,left,94,94,0,94,94,0,0,94,94,0,0,94,94,94,0,10/27/19 8:33,The main experiment item,yes,SternbergTask.osexp,C:\Users\hosan\Desktop,no,mono,no,18,no,white,no,yes,768,legacy,82,11,C:/Users/hosan/Desktop/TB-subject-3.csv,legacy,6 5,Kafkaesque Koffka,3.2.8,2,y,0,left,left,right,right,NA,431,431,211857,8913,NA,2,legacy,2,1024,2,48000,-16,experiment,3,odd,5,799165,801172,214526,795789,796951,2660,299736,796954,650167,2667,290822,801605,797960,801171,NA,Sternberg Task,87,62401,95,yes,1024
91.66666667,91.66666667,659.09375,659.09375,black,experiment,legacy,legacy,legacy,0,uniform,1,1,undefined,left,95,95,0,95,95,0,0,95,95,0,0,95,95,95,0,10/27/19 8:33,The main experiment item,yes,SternbergTask.osexp,C:\Users\hosan\Desktop,no,mono,no,18,no,white,no,yes,768,legacy,83,11,C:/Users/hosan/Desktop/TB-subject-3.csv,legacy,3 5 7 1,Kafkaesque Koffka,3.2.8,3,y,0,left,left,right,right,NA,872,872,211857,8913,NA,2,legacy,4,1024,2,48000,-16,experiment,3,odd,7,805006,807010,214526,801663,802793,2660,299736,802796,650167,2667,290822,807883,803802,807009,NA,Sternberg Task,88,63273,96,yes,1024
91.75257732,91.75257732,658.7835052,658.7835052,black,experiment,legacy,legacy,legacy,0,uniform,1,1,undefined,left,96,96,0,96,96,0,0,96,96,0,0,96,96,96,0,10/27/19 8:33,The main experiment item,yes,SternbergTask.osexp,C:\Users\hosan\Desktop,no,mono,no,18,no,white,no,yes,768,legacy,84,11,C:/Users/hosan/Desktop/TB-subject-3.csv,legacy,6 7 8 5,Kafkaesque Koffka,3.2.8,3,y,0,left,left,right,right,NA,629,629,211857,8913,NA,2,legacy,4,1024,2,48000,-16,experiment,3,odd,8,811297,813303,214526,807952,809083,2660,299736,809085,650167,2667,290822,813933,810091,813303,NA,Sternberg Task,89,63902,97,yes,1024
91.83673469,91.83673469,658.3265306,658.3265306,black,experiment,legacy,legacy,legacy,0,uniform,1,1,undefined,right,97,97,0,97,97,0,0,97,97,0,0,97,97,97,0,10/27/19 8:33,The main experiment item,yes,SternbergTask.osexp,C:\Users\hosan\Desktop,no,mono,no,18,no,white,no,yes,768,legacy,85,11,C:/Users/hosan/Desktop/TB-subject-3.csv,legacy,8 6 3 4 7,Kafkaesque Koffka,3.2.8,0,n,0,right,right,right,right,NA,614,614,211857,8913,NA,2,legacy,5,1024,2,48000,-16,experiment,3,odd,1,817367,819375,214526,813994,815156,2660,299736,815159,650167,2667,290822,819991,816164,819373,NA,Sternberg Task,90,64516,98,yes,1024
91.91919192,91.91919192,655.8080808,655.8080808,black,experiment,legacy,legacy,legacy,0,uniform,1,1,undefined,right,98,98,0,98,98,0,0,98,98,0,0,98,98,98,0,10/27/19 8:33,The main experiment item,yes,SternbergTask.osexp,C:\Users\hosan\Desktop,no,mono,no,18,no,white,no,yes,768,legacy,86,11,C:/Users/hosan/Desktop/TB-subject-3.csv,legacy,5,Kafkaesque Koffka,3.2.8,0,n,0,right,right,right,right,NA,409,409,211857,8913,NA,2,legacy,1,1024,2,48000,-16,experiment,3,odd,8,823413,825417,214526,820052,821198,2660,299736,821201,650167,2667,290822,825829,822207,825417,NA,Sternberg Task,91,64925,99,yes,1024
92,92,654.8,654.8,black,experiment,legacy,legacy,legacy,0,uniform,1,1,undefined,left,99,99,0,99,99,0,0,99,99,0,0,99,99,99,0,10/27/19 8:33,The main experiment item,yes,SternbergTask.osexp,C:\Users\hosan\Desktop,no,mono,no,18,no,white,no,yes,768,legacy,87,11,C:/Users/hosan/Desktop/TB-subject-3.csv,legacy,4 1 5,Kafkaesque Koffka,3.2.8,2,y,0,left,left,right,right,NA,555,555,211857,8913,NA,2,legacy,3,1024,2,48000,-16,experiment,3,odd,1,829275,831281,214526,825896,827060,2660,299736,827063,650167,2667,290822,831838,828069,831280,NA,Sternberg Task,92,65480,100,yes,1024
92.07920792,92.07920792,656.6930693,656.6930693,black,experiment,legacy,legacy,legacy,0,uniform,1,1,undefined,right,100,100,0,100,100,0,0,100,100,0,0,100,100,100,0,10/27/19 8:33,The main experiment item,yes,SternbergTask.osexp,C:\Users\hosan\Desktop,no,mono,no,18,no,white,no,yes,768,legacy,88,11,C:/Users/hosan/Desktop/TB-subject-3.csv,legacy,2 8 9 4 1,Kafkaesque Koffka,3.2.8,0,n,0,right,right,right,right,NA,846,846,211857,8913,NA,2,legacy,5,1024,2,48000,-16,experiment,3,odd,5,835233,837236,214526,831896,833024,2660,299736,833027,650167,2667,290822,838084,834030,837235,NA,Sternberg Task,93,66326,101,yes,1024
92.15686275,92.15686275,655.4607843,655.4607843,black,experiment,legacy,legacy,legacy,0,uniform,1,1,undefined,left,101,101,0,101,101,0,0,101,101,0,0,101,101,101,0,10/27/19 8:33,The main experiment item,yes,SternbergTask.osexp,C:\Users\hosan\Desktop,no,mono,no,18,no,white,no,yes,768,legacy,89,11,C:/Users/hosan/Desktop/TB-subject-3.csv,legacy,2 8 5 1,Kafkaesque Koffka,3.2.8,4,y,0,left,left,right,right,NA,531,531,211857,8913,NA,2,legacy,4,1024,2,48000,-16,experiment,3,odd,1,841484,843490,214526,838139,839271,2660,299736,839274,650167,2667,290822,844023,840278,843490,NA,Sternberg Task,94,66857,102,yes,1024
92.23300971,92.23300971,653.6893204,653.6893204,black,experiment,legacy,legacy,legacy,0,uniform,1,1,undefined,left,102,102,0,102,102,0,0,102,102,0,0,102,102,102,0,10/27/19 8:33,The main experiment item,yes,SternbergTask.osexp,C:\Users\hosan\Desktop,no,mono,no,18,no,white,no,yes,768,legacy,90,11,C:/Users/hosan/Desktop/TB-subject-3.csv,legacy,9 5 8 1,Kafkaesque Koffka,3.2.8,2,y,0,left,left,right,right,NA,473,473,211857,8913,NA,2,legacy,4,1024,2,48000,-16,experiment,3,odd,5,847500,849508,214526,844095,845286,2660,299736,845288,650167,2667,290822,849982,846295,849507,NA,Sternberg Task,95,67330,103,yes,1024
92.30769231,92.30769231,652.2692308,652.2692308,black,experiment,legacy,legacy,legacy,0,uniform,1,1,undefined,left,103,103,0,103,103,0,0,103,103,0,0,103,103,103,0,10/27/19 8:33,The main experiment item,yes,SternbergTask.osexp,C:\Users\hosan\Desktop,no,mono,no,18,no,white,no,yes,768,legacy,91,11,C:/Users/hosan/Desktop/TB-subject-3.csv,legacy,6 9 7 4 5 1,Kafkaesque Koffka,3.2.8,2,y,0,left,left,right,right,NA,506,506,211857,8913,NA,2,legacy,6,1024,2,48000,-16,experiment,3,odd,9,853407,855413,214526,850052,851196,2660,299736,851198,650167,2667,290822,855920,852204,855412,NA,Sternberg Task,96,67836,104,yes,1024
92.38095238,92.38095238,653.9047619,653.9047619,black,experiment,legacy,legacy,legacy,0,uniform,1,1,undefined,right,104,104,0,104,104,0,0,104,104,0,0,104,104,104,0,10/27/19 8:33,The main experiment item,yes,SternbergTask.osexp,C:\Users\hosan\Desktop,no,mono,no,18,no,white,no,yes,768,legacy,92,11,C:/Users/hosan/Desktop/TB-subject-3.csv,legacy,5 3 2 6 9 8,Kafkaesque Koffka,3.2.8,0,n,0,right,right,right,right,NA,824,824,211857,8913,NA,2,legacy,6,1024,2,48000,-16,experiment,3,odd,4,859373,861381,214526,856009,857159,2660,299736,857163,650167,2667,290822,862207,858168,861380,NA,Sternberg Task,97,68660,105,yes,1024
92.45283019,92.45283019,652.8490566,652.8490566,black,experiment,legacy,legacy,legacy,0,uniform,1,1,undefined,right,105,105,0,105,105,0,0,105,105,0,0,105,105,105,0,10/27/19 8:33,The main experiment item,yes,SternbergTask.osexp,C:\Users\hosan\Desktop,no,mono,no,18,no,white,no,yes,768,legacy,93,11,C:/Users/hosan/Desktop/TB-subject-3.csv,legacy,8 2 1 4 5 9,Kafkaesque Koffka,3.2.8,0,n,0,right,right,right,right,NA,542,542,211857,8913,NA,2,legacy,6,1024,2,48000,-16,experiment,3,odd,7,865622,867630,214526,862271,863407,2660,299736,863410,650167,2667,290822,868174,864415,867630,NA,Sternberg Task,98,69202,106,yes,1024
92.52336449,92.52336449,652.4672897,652.4672897,black,experiment,legacy,legacy,legacy,0,uniform,1,1,undefined,left,106,106,0,106,106,0,0,106,106,0,0,106,106,106,0,10/27/19 8:33,The main experiment item,yes,SternbergTask.osexp,C:\Users\hosan\Desktop,no,mono,no,18,no,white,no,yes,768,legacy,94,11,C:/Users/hosan/Desktop/TB-subject-3.csv,legacy,8 7 3,Kafkaesque Koffka,3.2.8,1,y,0,left,left,right,right,NA,612,612,211857,8913,NA,2,legacy,3,1024,2,48000,-16,experiment,3,odd,8,871577,873583,214526,868241,869362,2660,299736,869365,650167,2667,290822,874197,870370,873583,NA,Sternberg Task,99,69814,107,yes,1024
92.59259259,92.59259259,651.3148148,651.3148148,black,experiment,legacy,legacy,legacy,0,uniform,1,1,undefined,left,107,107,0,107,107,0,0,107,107,0,0,107,107,107,0,10/27/19 8:33,The main experiment item,yes,SternbergTask.osexp,C:\Users\hosan\Desktop,no,mono,no,18,no,white,no,yes,768,legacy,95,11,C:/Users/hosan/Desktop/TB-subject-3.csv,legacy,5 2 6,Kafkaesque Koffka,3.2.8,2,y,0,left,left,right,right,NA,528,528,211857,8913,NA,2,legacy,3,1024,2,48000,-16,experiment,3,odd,2,877646,879653,214526,874260,875434,2660,299736,875437,650167,2667,290822,880183,876440,879652,NA,Sternberg Task,100,70342,108,yes,1024
92.66055046,92.66055046,650.7706422,650.7706422,black,experiment,legacy,legacy,legacy,0,uniform,1,1,undefined,right,108,108,0,108,108,0,0,108,108,0,0,108,108,108,0,10/27/19 8:33,The main experiment item,yes,SternbergTask.osexp,C:\Users\hosan\Desktop,no,mono,no,18,no,white,no,yes,768,legacy,96,11,C:/Users/hosan/Desktop/TB-subject-3.csv,legacy,7 1 8 4 9 3,Kafkaesque Koffka,3.2.8,0,n,0,right,right,right,right,NA,592,592,211857,8913,NA,2,legacy,6,1024,2,48000,-16,experiment,3,odd,6,883600,885607,214526,880237,881388,2660,299736,881391,650167,2667,290822,886200,882397,885607,NA,Sternberg Task,101,70934,109,yes,1024
92.72727273,92.72727273,651.9363636,651.9363636,black,experiment,legacy,legacy,legacy,0,uniform,1,1,undefined,left,109,109,0,109,109,0,0,109,109,0,0,109,109,109,0,10/27/19 8:33,The main experiment item,yes,SternbergTask.osexp,C:\Users\hosan\Desktop,no,mono,no,18,no,white,no,yes,768,legacy,97,11,C:/Users/hosan/Desktop/TB-subject-3.csv,legacy,3 9 6 2,Kafkaesque Koffka,3.2.8,4,y,0,left,left,right,right,NA,779,779,211857,8913,NA,2,legacy,4,1024,2,48000,-16,experiment,3,odd,2,889611,891618,214526,886259,887396,2660,299736,887399,650167,2667,290822,892399,888405,891618,NA,Sternberg Task,102,71713,110,yes,1024
92.79279279,92.79279279,650.5945946,650.5945946,black,experiment,legacy,legacy,legacy,0,uniform,1,1,undefined,left,110,110,0,110,110,0,0,110,110,0,0,110,110,110,0,10/27/19 8:33,The main experiment item,yes,SternbergTask.osexp,C:\Users\hosan\Desktop,no,mono,no,18,no,white,no,yes,768,legacy,98,11,C:/Users/hosan/Desktop/TB-subject-3.csv,legacy,7 1 8 5 6 2,Kafkaesque Koffka,3.2.8,2,y,0,left,left,right,right,NA,503,503,211857,8913,NA,2,legacy,6,1024,2,48000,-16,experiment,3,odd,1,895827,897833,214526,892462,893612,2660,299736,893615,650167,2667,290822,898338,894620,897832,NA,Sternberg Task,103,72216,111,yes,1024
92.85714286,92.85714286,650.3303571,650.3303571,black,experiment,legacy,legacy,legacy,0,uniform,1,1,undefined,left,111,111,0,111,111,0,0,111,111,0,0,111,111,111,0,10/27/19 8:33,The main experiment item,yes,SternbergTask.osexp,C:\Users\hosan\Desktop,no,mono,no,18,no,white,no,yes,768,legacy,99,11,C:/Users/hosan/Desktop/TB-subject-3.csv,legacy,5 2 9 6 1 7,Kafkaesque Koffka,3.2.8,3,y,0,left,left,right,right,NA,621,621,211857,8913,NA,2,legacy,6,1024,2,48000,-16,experiment,3,odd,9,901717,903724,214526,898357,899502,2660,299736,899505,650167,2667,290822,904346,900510,903723,NA,Sternberg Task,104,72837,112,yes,1024
92.92035398,92.92035398,649.2477876,649.2477876,black,experiment,legacy,legacy,legacy,0,uniform,1,1,undefined,left,112,112,0,112,112,0,0,112,112,0,0,112,112,112,0,10/27/19 8:33,The main experiment item,yes,SternbergTask.osexp,C:\Users\hosan\Desktop,no,mono,no,18,no,white,no,yes,768,legacy,100,11,C:/Users/hosan/Desktop/TB-subject-3.csv,legacy,9 3 1 2 5,Kafkaesque Koffka,3.2.8,4,y,0,left,left,right,right,NA,528,528,211857,8913,NA,2,legacy,5,1024,2,48000,-16,experiment,3,odd,2,907768,909775,214526,904381,905556,2660,299736,905559,650167,2667,290822,910304,906562,909774,NA,Sternberg Task,105,73365,113,yes,1024
92.98245614,92.98245614,648.7192982,648.7192982,black,experiment,legacy,legacy,legacy,0,uniform,1,1,undefined,right,113,113,0,113,113,0,0,113,113,0,0,113,113,113,0,10/27/19 8:33,The main experiment item,yes,SternbergTask.osexp,C:\Users\hosan\Desktop,no,mono,no,18,no,white,no,yes,768,legacy,101,11,C:/Users/hosan/Desktop/TB-subject-3.csv,legacy,1 4 9 2 5,Kafkaesque Koffka,3.2.8,0,n,0,right,right,right,right,NA,589,589,211857,8913,NA,2,legacy,5,1024,2,48000,-16,experiment,3,odd,7,913713,915720,214526,910359,911501,2660,299736,911504,650167,2667,290822,916311,912507,915719,NA,Sternberg Task,106,73954,114,yes,1024
93.04347826,93.04347826,647.9913043,647.9913043,black,experiment,legacy,legacy,legacy,0,uniform,1,1,undefined,right,114,114,0,114,114,0,0,114,114,0,0,114,114,114,0,10/27/19 8:33,The main experiment item,yes,SternbergTask.osexp,C:\Users\hosan\Desktop,no,mono,no,18,no,white,no,yes,768,legacy,102,11,C:/Users/hosan/Desktop/TB-subject-3.csv,legacy,8 5 7 3 6,Kafkaesque Koffka,3.2.8,0,n,0,right,right,right,right,NA,565,565,211857,8913,NA,2,legacy,5,1024,2,48000,-16,experiment,3,odd,9,919715,921723,214526,916371,917502,2660,299736,917504,650167,2667,290822,922290,918509,921721,NA,Sternberg Task,107,74519,115,yes,1024
92.24137931,92.24137931,646.1810345,646.1810345,black,experiment,legacy,legacy,legacy,0,uniform,0,0,undefined,right,115,115,0,115,115,0,0,115,115,0,0,115,115,115,0,10/27/19 8:33,The main experiment item,yes,SternbergTask.osexp,C:\Users\hosan\Desktop,no,mono,no,18,no,white,no,yes,768,legacy,103,11,C:/Users/hosan/Desktop/TB-subject-3.csv,legacy,4 2 6 9,Kafkaesque Koffka,3.2.8,0,n,0,left,left,right,right,NA,438,438,211857,8913,NA,2,legacy,4,1024,2,48000,-16,experiment,3,odd,7,925739,927746,214526,922361,923523,2660,299736,923526,650167,2667,290822,928186,924531,927745,NA,Sternberg Task,107,74957,116,yes,1024
92.30769231,92.30769231,646.034188,646.034188,black,experiment,legacy,legacy,legacy,0,uniform,1,1,undefined,right,116,116,0,116,116,0,0,116,116,0,0,116,116,116,0,10/27/19 8:33,The main experiment item,yes,SternbergTask.osexp,C:\Users\hosan\Desktop,no,mono,no,18,no,white,no,yes,768,legacy,104,11,C:/Users/hosan/Desktop/TB-subject-3.csv,legacy,8 4 3 5,Kafkaesque Koffka,3.2.8,0,n,0,right,right,right,right,NA,629,629,211857,8913,NA,2,legacy,4,1024,2,48000,-16,experiment,3,odd,6,931660,933668,214526,922361,929446,2660,299736,929449,928251,2667,290822,934299,930455,933667,NA,Sternberg Task,108,75586,117,yes,1024
92.37288136,92.37288136,643.8474576,643.8474576,black,experiment,legacy,legacy,legacy,0,uniform,1,1,undefined,left,117,117,0,117,117,0,0,117,117,0,0,117,117,117,0,10/27/19 8:33,The main experiment item,yes,SternbergTask.osexp,C:\Users\hosan\Desktop,no,mono,no,18,no,white,no,yes,768,legacy,105,11,C:/Users/hosan/Desktop/TB-subject-3.csv,legacy,7 8 4 6 9 5,Kafkaesque Koffka,3.2.8,4,y,0,left,left,right,right,NA,388,388,211857,8913,NA,2,legacy,6,1024,2,48000,-16,experiment,3,odd,6,937771,939778,214526,934363,935556,2660,299736,935559,928251,2667,290822,940168,936565,939778,NA,Sternberg Task,109,75974,118,yes,1024
92.43697479,92.43697479,642.4033613,642.4033613,black,experiment,legacy,legacy,legacy,0,uniform,1,1,undefined,left,118,118,0,118,118,0,0,118,118,0,0,118,118,118,0,10/27/19 8:33,The main experiment item,yes,SternbergTask.osexp,C:\Users\hosan\Desktop,no,mono,no,18,no,white,no,yes,768,legacy,106,11,C:/Users/hosan/Desktop/TB-subject-3.csv,legacy,5 7 3 6 2,Kafkaesque Koffka,3.2.8,5,y,0,left,left,right,right,NA,472,472,211857,8913,NA,2,legacy,5,1024,2,48000,-16,experiment,3,odd,2,943578,945584,214526,940237,941362,2660,299736,941365,928251,2667,290822,946058,942371,945584,NA,Sternberg Task,110,76446,119,yes,1024
92.5,92.5,641.2416667,641.2416667,black,experiment,legacy,legacy,legacy,0,uniform,1,1,undefined,right,119,119,0,119,119,0,0,119,119,0,0,119,119,119,0,10/27/19 8:33,The main experiment item,yes,SternbergTask.osexp,C:\Users\hosan\Desktop,no,mono,no,18,no,white,no,yes,768,legacy,107,11,C:/Users/hosan/Desktop/TB-subject-3.csv,legacy,4 8 1 2,Kafkaesque Koffka,3.2.8,0,n,0,right,right,right,right,NA,503,503,211857,8913,NA,2,legacy,4,1024,2,48000,-16,experiment,3,odd,7,949465,951472,214526,946117,947252,2660,299736,947255,928251,2667,290822,951977,948260,951470,NA,Sternberg Task,111,76949,120,yes,1024
92.56198347,92.56198347,642.1239669,642.1239669,black,experiment,legacy,legacy,legacy,0,uniform,1,1,undefined,right,120,120,0,120,120,0,0,120,120,0,0,120,120,120,0,10/27/19 8:33,The main experiment item,yes,SternbergTask.osexp,C:\Users\hosan\Desktop,no,mono,no,18,no,white,no,yes,768,legacy,108,11,C:/Users/hosan/Desktop/TB-subject-3.csv,legacy,6 7 5 9,Kafkaesque Koffka,3.2.8,0,n,0,right,right,right,right,NA,748,748,211857,8913,NA,2,legacy,4,1024,2,48000,-16,experiment,3,odd,2,955403,957410,214526,952042,953189,2660,299736,953192,928251,2667,290822,958160,954197,957409,NA,Sternberg Task,112,77697,121,yes,1024
92.62295082,92.62295082,640.4344262,640.4344262,black,experiment,legacy,legacy,legacy,0,uniform,1,1,undefined,left,121,121,0,121,121,0,0,121,121,0,0,121,121,121,0,10/27/19 8:33,The main experiment item,yes,SternbergTask.osexp,C:\Users\hosan\Desktop,no,mono,no,18,no,white,no,yes,768,legacy,109,11,C:/Users/hosan/Desktop/TB-subject-3.csv,legacy,7 6,Kafkaesque Koffka,3.2.8,2,y,0,left,left,right,right,NA,436,436,211857,8913,NA,2,legacy,2,1024,2,48000,-16,experiment,3,odd,6,961613,963620,214526,958217,959402,2660,299736,959405,928251,2667,290822,964058,960408,963619,NA,Sternberg Task,113,78133,122,yes,1024
92.68292683,92.68292683,639.6910569,639.6910569,black,experiment,legacy,legacy,legacy,0,uniform,1,1,undefined,left,122,122,0,122,122,0,0,122,122,0,0,122,122,122,0,10/27/19 8:33,The main experiment item,yes,SternbergTask.osexp,C:\Users\hosan\Desktop,no,mono,no,18,no,white,no,yes,768,legacy,110,11,C:/Users/hosan/Desktop/TB-subject-3.csv,legacy,6 7 9 3 1 2,Kafkaesque Koffka,3.2.8,1,y,0,left,left,right,right,NA,549,549,211857,8913,NA,2,legacy,6,1024,2,48000,-16,experiment,3,odd,6,967530,969538,214526,964119,965313,2660,299736,965316,928251,2667,290822,970090,966323,969537,NA,Sternberg Task,114,78682,123,yes,1024
92.74193548,92.74193548,639.7419355,639.7419355,black,experiment,legacy,legacy,legacy,0,uniform,1,1,undefined,right,123,123,0,123,123,0,0,123,123,0,0,123,123,123,0,10/27/19 8:33,The main experiment item,yes,SternbergTask.osexp,C:\Users\hosan\Desktop,no,mono,no,18,no,white,no,yes,768,legacy,111,11,C:/Users/hosan/Desktop/TB-subject-3.csv,legacy,2 3 8 5 6 7,Kafkaesque Koffka,3.2.8,0,n,0,right,right,right,right,NA,646,646,211857,8913,NA,2,legacy,6,1024,2,48000,-16,experiment,3,odd,1,973542,975550,214526,970155,971328,2660,299736,971331,928251,2667,290822,976198,972337,975549,NA,Sternberg Task,115,79328,124,yes,1024
92,92,641.472,641.472,black,experiment,legacy,legacy,legacy,0,uniform,0,0,undefined,left,124,124,0,124,124,0,0,124,124,0,0,124,124,124,0,10/27/19 8:33,The main experiment item,yes,SternbergTask.osexp,C:\Users\hosan\Desktop,no,mono,no,18,no,white,no,yes,768,legacy,112,11,C:/Users/hosan/Desktop/TB-subject-3.csv,legacy,6 2,Kafkaesque Koffka,3.2.8,1,y,0,right,right,right,right,NA,856,856,211857,8913,NA,2,legacy,2,1024,2,48000,-16,experiment,3,odd,6,979606,981612,214526,976262,977390,2660,299736,977393,928251,2667,290822,982469,978400,981611,NA,Sternberg Task,115,80184,125,yes,1024
92.06349206,92.06349206,643.015873,643.015873,black,experiment,legacy,legacy,legacy,0,uniform,1,1,undefined,left,125,125,0,125,125,0,0,125,125,0,0,125,125,125,0,10/27/19 8:33,The main experiment item,yes,SternbergTask.osexp,C:\Users\hosan\Desktop,no,mono,no,18,no,white,no,yes,768,legacy,113,11,C:/Users/hosan/Desktop/TB-subject-3.csv,legacy,2 3,Kafkaesque Koffka,3.2.8,1,y,0,left,left,right,right,NA,836,836,211857,8913,NA,2,legacy,2,1024,2,48000,-16,experiment,3,odd,2,985903,987911,214526,976262,983688,2660,299736,983691,982527,2667,290822,988749,984697,987910,NA,Sternberg Task,116,81020,126,yes,1024
92.12598425,92.12598425,641.2440945,641.2440945,black,experiment,legacy,legacy,legacy,0,uniform,1,1,undefined,left,126,126,0,126,126,0,0,126,126,0,0,126,126,126,0,10/27/19 8:33,The main experiment item,yes,SternbergTask.osexp,C:\Users\hosan\Desktop,no,mono,no,18,no,white,no,yes,768,legacy,114,11,C:/Users/hosan/Desktop/TB-subject-3.csv,legacy,8,Kafkaesque Koffka,3.2.8,1,y,0,left,left,right,right,NA,418,418,211857,8913,NA,2,legacy,1,1024,2,48000,-16,experiment,3,odd,8,992258,994266,214526,988802,990042,2660,299736,990046,982527,2667,290822,994686,991052,994265,NA,Sternberg Task,117,81438,127,yes,1024
92.1875,92.1875,641.65625,641.65625,black,experiment,legacy,legacy,legacy,0,uniform,1,1,undefined,right,127,127,0,127,127,0,0,127,127,0,0,127,127,127,0,10/27/19 8:33,The main experiment item,yes,SternbergTask.osexp,C:\Users\hosan\Desktop,no,mono,no,18,no,white,no,yes,768,legacy,115,11,C:/Users/hosan/Desktop/TB-subject-3.csv,legacy,5 3 8 7 2 4,Kafkaesque Koffka,3.2.8,0,n,0,right,right,right,right,NA,694,694,211857,8913,NA,2,legacy,6,1024,2,48000,-16,experiment,3,odd,9,998063,1000071,214526,994714,995851,2660,299736,995854,982527,2667,290822,1000766,996859,1000070,NA,Sternberg Task,118,82132,128,yes,1024
92.24806202,92.24806202,640.4806202,640.4806202,black,experiment,legacy,legacy,legacy,0,uniform,1,1,undefined,left,128,128,0,128,128,0,0,128,128,0,0,128,128,128,0,10/27/19 8:33,The main experiment item,yes,SternbergTask.osexp,C:\Users\hosan\Desktop,no,mono,no,18,no,white,no,yes,768,legacy,116,11,C:/Users/hosan/Desktop/TB-subject-3.csv,legacy,2 3 7 4,Kafkaesque Koffka,3.2.8,1,y,0,left,left,right,right,NA,490,490,211857,8913,NA,2,legacy,4,1024,2,48000,-16,experiment,3,odd,2,1004178,1006183,214526,1000839,1001962,2660,299736,1001965,982527,2667,290822,1006675,1002971,1006182,NA,Sternberg Task,119,82622,129,yes,1024
92.30769231,92.30769231,639.1769231,639.1769231,black,experiment,legacy,legacy,legacy,0,uniform,1,1,undefined,left,129,129,0,129,129,0,0,129,129,0,0,129,129,129,0,10/27/19 8:33,The main experiment item,yes,SternbergTask.osexp,C:\Users\hosan\Desktop,no,mono,no,18,no,white,no,yes,768,legacy,117,11,C:/Users/hosan/Desktop/TB-subject-3.csv,legacy,4 6 5 8,Kafkaesque Koffka,3.2.8,1,y,0,left,left,right,right,NA,471,471,211857,8913,NA,2,legacy,4,1024,2,48000,-16,experiment,3,odd,4,1010156,1012162,214526,1006738,1007945,2660,299736,1007948,982527,2667,290822,1012635,1008951,1012161,NA,Sternberg Task,120,83093,130,yes,1024
92.36641221,92.36641221,641.0534351,641.0534351,black,experiment,legacy,legacy,legacy,0,uniform,1,1,undefined,right,130,130,0,130,130,0,0,130,130,0,0,130,130,130,0,10/27/19 8:33,The main experiment item,yes,SternbergTask.osexp,C:\Users\hosan\Desktop,no,mono,no,18,no,white,no,yes,768,legacy,118,11,C:/Users/hosan/Desktop/TB-subject-3.csv,legacy,1 7 5 2 9,Kafkaesque Koffka,3.2.8,0,n,0,right,right,right,right,NA,885,885,211857,8913,NA,2,legacy,5,1024,2,48000,-16,experiment,3,odd,3,1016106,1018113,214526,1012696,1013890,2660,299736,1013893,982527,2667,290822,1019000,1014898,1018112,NA,Sternberg Task,121,83978,131,yes,1024
92.42424242,92.42424242,639.6969697,639.6969697,black,experiment,legacy,legacy,legacy,0,uniform,1,1,undefined,left,131,131,0,131,131,0,0,131,131,0,0,131,131,131,0,10/27/19 8:33,The main experiment item,yes,SternbergTask.osexp,C:\Users\hosan\Desktop,no,mono,no,18,no,white,no,yes,768,legacy,119,11,C:/Users/hosan/Desktop/TB-subject-3.csv,legacy,4 1 8 7 5,Kafkaesque Koffka,3.2.8,3,y,0,left,left,right,right,NA,462,462,211857,8913,NA,2,legacy,5,1024,2,48000,-16,experiment,3,odd,8,1022413,1024420,214526,1019034,1020198,2660,299736,1020201,982527,2667,290822,1024884,1021206,1024419,NA,Sternberg Task,122,84440,132,yes,1024
92.48120301,92.48120301,639.924812,639.924812,black,experiment,legacy,legacy,legacy,0,uniform,1,1,undefined,right,132,132,0,132,132,0,0,132,132,0,0,132,132,132,0,10/27/19 8:33,The main experiment item,yes,SternbergTask.osexp,C:\Users\hosan\Desktop,no,mono,no,18,no,white,no,yes,768,legacy,120,11,C:/Users/hosan/Desktop/TB-subject-3.csv,legacy,2 7 5,Kafkaesque Koffka,3.2.8,0,n,0,right,right,right,right,NA,670,670,211857,8913,NA,2,legacy,3,1024,2,48000,-16,experiment,3,odd,8,1028313,1030320,214526,1024912,1026099,2660,299736,1026102,982527,2667,290822,1030993,1027108,1030319,NA,Sternberg Task,123,85110,133,yes,1024
92.53731343,92.53731343,640.6567164,640.6567164,black,experiment,legacy,legacy,legacy,0,uniform,1,1,undefined,right,133,133,0,133,133,0,0,133,133,0,0,133,133,133,0,10/27/19 8:33,The main experiment item,yes,SternbergTask.osexp,C:\Users\hosan\Desktop,no,mono,no,18,no,white,no,yes,768,legacy,121,11,C:/Users/hosan/Desktop/TB-subject-3.csv,legacy,3 4 2,Kafkaesque Koffka,3.2.8,0,n,0,right,right,right,right,NA,738,738,211857,8913,NA,2,legacy,3,1024,2,48000,-16,experiment,3,odd,5,1034427,1036434,214526,1031060,1032215,2660,299736,1032218,982527,2667,290822,1037175,1033224,1036433,NA,Sternberg Task,124,85848,134,yes,1024
92.59259259,92.59259259,641.1777778,641.1777778,black,experiment,legacy,legacy,legacy,0,uniform,1,1,undefined,left,134,134,0,134,134,0,0,134,134,0,0,134,134,134,0,10/27/19 8:33,The main experiment item,yes,SternbergTask.osexp,C:\Users\hosan\Desktop,no,mono,no,18,no,white,no,yes,768,legacy,122,11,C:/Users/hosan/Desktop/TB-subject-3.csv,legacy,2 4 6 9,Kafkaesque Koffka,3.2.8,3,y,0,left,left,right,right,NA,711,711,211857,8913,NA,2,legacy,4,1024,2,48000,-16,experiment,3,odd,6,1040587,1042593,214526,1037237,1038371,2660,299736,1038374,982527,2667,290822,1043306,1039380,1042592,NA,Sternberg Task,125,86559,135,yes,1024
92.64705882,92.64705882,640.4411765,640.4411765,black,experiment,legacy,legacy,legacy,0,uniform,1,1,undefined,left,135,135,0,135,135,0,0,135,135,0,0,135,135,135,0,10/27/19 8:33,The main experiment item,yes,SternbergTask.osexp,C:\Users\hosan\Desktop,no,mono,no,18,no,white,no,yes,768,legacy,123,11,C:/Users/hosan/Desktop/TB-subject-3.csv,legacy,8 9 5 7 1 6,Kafkaesque Koffka,3.2.8,4,y,0,left,left,right,right,NA,541,541,211857,8913,NA,2,legacy,6,1024,2,48000,-16,experiment,3,odd,7,1046733,1048737,214526,1043370,1044518,2660,299736,1044521,982527,2667,290822,1049280,1045527,1048736,NA,Sternberg Task,126,87100,136,yes,1024
92.70072993,92.70072993,642.1240876,642.1240876,black,experiment,legacy,legacy,legacy,0,uniform,1,1,undefined,left,136,136,0,136,136,0,0,136,136,0,0,136,136,136,0,10/27/19 8:33,The main experiment item,yes,SternbergTask.osexp,C:\Users\hosan\Desktop,no,mono,no,18,no,white,no,yes,768,legacy,124,11,C:/Users/hosan/Desktop/TB-subject-3.csv,legacy,7 2 3,Kafkaesque Koffka,3.2.8,3,y,0,left,left,right,right,NA,871,871,211857,8913,NA,2,legacy,3,1024,2,48000,-16,experiment,3,odd,3,1052715,1054722,214526,1049346,1050500,2660,299736,1050502,982527,2667,290822,1055595,1051509,1054721,NA,Sternberg Task,127,87971,137,yes,1024
92.75362319,92.75362319,641.5,641.5,black,experiment,legacy,legacy,legacy,0,uniform,1,1,undefined,right,137,137,0,137,137,0,0,137,137,0,0,137,137,137,0,10/27/19 8:33,The main experiment item,yes,SternbergTask.osexp,C:\Users\hosan\Desktop,no,mono,no,18,no,white,no,yes,768,legacy,125,11,C:/Users/hosan/Desktop/TB-subject-3.csv,legacy,3 9 8 1 6 4,Kafkaesque Koffka,3.2.8,0,n,0,right,right,right,right,NA,556,556,211857,8913,NA,2,legacy,6,1024,2,48000,-16,experiment,3,odd,7,1059004,1061010,214526,1055655,1056793,2660,299736,1056795,982527,2667,290822,1061568,1057800,1061009,NA,Sternberg Task,128,88527,138,yes,1024