acc,accuracy,average_response_time,avg_rt,background,block,canvas_backend,clock_backend,color_backend,compensation,coordinates,correct,correct_instruction1,correct_keyboard_response,correct_response,count_ISI,count_correctFeedback,count_expSequence,count_experiment,count_experimentLoop,count_fixation,count_incorrectFeedback,count_instruction1,count_instructions2,count_keyboard_response,count_logger,count_memorySet,count_practiceLoop,count_probe,count_thankYou,datetime,description,disable_garbage_collection,experiment_file,experiment_path,font_bold,font_family,font_italic,font_size,font_underline,foreground,form_clicks,fullscreen,height,keyboard_backend,live_row,live_row_practiceLoop,logfile,mouse_backend,numberSet,opensesame_codename,opensesame_version,posInSet,present,repeat_cycle,response,response_instruction1,response_instructions2,response_keyboard_response,response_thankYou,response_time,response_time_instruction1,response_time_instructions2,response_time_keyboard_response,response_time_thankYou,round_decimals,sampler_backend,setSize,sound_buf_size,sound_channels,sound_freq,sound_sample_size,start,subject_nr,subject_parity,target,time_ISI,time_correctFeedback,time_expSequence,time_experiment,time_experimentLoop,time_fixation,time_incorrectFeedback,time_instruction1,time_instructions2,time_keyboard_response,time_logger,time_memorySet,time_practiceLoop,time_probe,time_thankYou,title,total_correct,total_response_time,total_responses,uniform_coordinates,width
0,0,2000,2000,black,practice,legacy,legacy,legacy,0,uniform,0,undefined,0,right,0,0,0,0,0,0,0,0,0,0,0,0,0,0,0,10/25/19 18:55,The main experiment item,yes,Sternbergtask.osexp,C:\Users\Edgar\Documents\Edgar School\Fall 2019\Lab 3-1,no,mono,no,18,no,white,no,yes,768,legacy,0,0,C:/Users/Edgar/Documents/Edgar School/Fall 2019/Lab 3-1/JJ-subject-3.csv,legacy,5,Kafkaesque Koffka,3.2.8,0,n,0,None,left,NA,None,NA,2000,56446,NA,2000,NA,2,legacy,1,1024,2,48000,-16,experiment,3,odd,3,67672,NA,65450,6112,NA,65458,NA,6131,NA,69679,71679,66465,62582,69679,NA,Sternberg task,0,2000,1,yes,1024
50,50,1723.5,1723.5,black,practice,legacy,legacy,legacy,0,uniform,1,undefined,1,left,1,1,1,0,0,1,1,0,0,1,1,1,0,1,0,10/25/19 18:55,The main experiment item,yes,Sternbergtask.osexp,C:\Users\Edgar\Documents\Edgar School\Fall 2019\Lab 3-1,no,mono,no,18,no,white,no,yes,768,legacy,1,1,C:/Users/Edgar/Documents/Edgar School/Fall 2019/Lab 3-1/JJ-subject-3.csv,legacy,4 8,Kafkaesque Koffka,3.2.8,1,y,0,left,left,NA,left,NA,1447,56446,NA,1447,NA,2,legacy,2,1024,2,48000,-16,experiment,3,odd,4,75620,NA,73399,6112,NA,73408,72020,6131,NA,77627,79076,74414,62582,77626,NA,Sternberg task,1,3447,2,yes,1024
33.33333333,33.33333333,1815.666667,1815.666667,black,practice,legacy,legacy,legacy,0,uniform,0,undefined,0,left,2,2,2,0,0,2,2,0,0,2,2,2,0,2,0,10/25/19 18:55,The main experiment item,yes,Sternbergtask.osexp,C:\Users\Edgar\Documents\Edgar School\Fall 2019\Lab 3-1,no,mono,no,18,no,white,no,yes,768,legacy,2,2,C:/Users/Edgar/Documents/Edgar School/Fall 2019/Lab 3-1/JJ-subject-3.csv,legacy,6,Kafkaesque Koffka,3.2.8,1,y,0,None,left,NA,None,NA,2000,56446,NA,2000,NA,2,legacy,1,1024,2,48000,-16,experiment,3,odd,6,82746,79145,80524,6112,NA,80534,72020,6131,NA,84753,86753,81541,62582,84752,NA,Sternberg task,1,5447,3,yes,1024
50,50,1664.25,1664.25,black,practice,legacy,legacy,legacy,0,uniform,1,undefined,1,right,3,3,3,0,0,3,3,0,0,3,3,3,0,3,0,10/25/19 18:55,The main experiment item,yes,Sternbergtask.osexp,C:\Users\Edgar\Documents\Edgar School\Fall 2019\Lab 3-1,no,mono,no,18,no,white,no,yes,768,legacy,3,3,C:/Users/Edgar/Documents/Edgar School/Fall 2019/Lab 3-1/JJ-subject-3.csv,legacy,3 1 9 4,Kafkaesque Koffka,3.2.8,0,n,0,right,left,NA,right,NA,1210,56446,NA,1210,NA,2,legacy,4,1024,2,48000,-16,experiment,3,odd,6,90384,79145,88162,6112,NA,88170,86798,6131,NA,92392,93604,89177,62582,92392,NA,Sternberg task,2,6657,4,yes,1024
60,60,1505.6,1505.6,black,practice,legacy,legacy,legacy,0,uniform,1,undefined,1,left,4,4,4,0,0,4,4,0,0,4,4,4,0,4,0,10/25/19 18:55,The main experiment item,yes,Sternbergtask.osexp,C:\Users\Edgar\Documents\Edgar School\Fall 2019\Lab 3-1,no,mono,no,18,no,white,no,yes,768,legacy,4,4,C:/Users/Edgar/Documents/Edgar School/Fall 2019/Lab 3-1/JJ-subject-3.csv,legacy,2 9 4,Kafkaesque Koffka,3.2.8,3,y,0,left,left,NA,left,NA,871,56446,NA,871,NA,2,legacy,3,1024,2,48000,-16,experiment,3,odd,4,97240,93669,95021,6112,NA,95028,86798,6131,NA,99248,100121,96034,62582,99247,NA,Sternberg task,3,7528,5,yes,1024
66.66666667,66.66666667,1380.666667,1380.666667,black,practice,legacy,legacy,legacy,0,uniform,1,undefined,1,left,5,5,5,0,0,5,5,0,0,5,5,5,0,5,0,10/25/19 18:55,The main experiment item,yes,Sternbergtask.osexp,C:\Users\Edgar\Documents\Edgar School\Fall 2019\Lab 3-1,no,mono,no,18,no,white,no,yes,768,legacy,5,5,C:/Users/Edgar/Documents/Edgar School/Fall 2019/Lab 3-1/JJ-subject-3.csv,legacy,1 5 2 9,Kafkaesque Koffka,3.2.8,2,y,0,left,left,NA,left,NA,756,56446,NA,756,NA,2,legacy,4,1024,2,48000,-16,experiment,3,odd,5,103764,100167,101543,6112,NA,101550,86798,6131,NA,105771,106529,102557,62582,105771,NA,Sternberg task,4,8284,6,yes,1024
71.42857143,71.42857143,1258.285714,1258.285714,black,practice,legacy,legacy,legacy,0,uniform,1,undefined,1,right,6,6,6,0,0,6,6,0,0,6,6,6,0,6,0,10/25/19 18:55,The main experiment item,yes,Sternbergtask.osexp,C:\Users\Edgar\Documents\Edgar School\Fall 2019\Lab 3-1,no,mono,no,18,no,white,no,yes,768,legacy,6,6,C:/Users/Edgar/Documents/Edgar School/Fall 2019/Lab 3-1/JJ-subject-3.csv,legacy,5 7 8 4 1 2,Kafkaesque Koffka,3.2.8,0,n,0,right,left,NA,right,NA,524,56446,NA,524,NA,2,legacy,6,1024,2,48000,-16,experiment,3,odd,6,110211,106619,107991,6112,NA,107998,86798,6131,NA,112219,112745,109005,62582,112218,NA,Sternberg task,5,8808,7,yes,1024
62.5,62.5,1217.5,1217.5,black,practice,legacy,legacy,legacy,0,uniform,0,undefined,0,left,7,7,7,0,0,7,7,0,0,7,7,7,0,7,0,10/25/19 18:55,The main experiment item,yes,Sternbergtask.osexp,C:\Users\Edgar\Documents\Edgar School\Fall 2019\Lab 3-1,no,mono,no,18,no,white,no,yes,768,legacy,7,7,C:/Users/Edgar/Documents/Edgar School/Fall 2019/Lab 3-1/JJ-subject-3.csv,legacy,1 7 9 8 5,Kafkaesque Koffka,3.2.8,4,y,0,right,left,NA,right,NA,932,56446,NA,932,NA,2,legacy,5,1024,2,48000,-16,experiment,3,odd,8,116383,112794,114164,6112,NA,114171,86798,6131,NA,118390,119325,115177,62582,118389,NA,Sternberg task,5,9740,8,yes,1024
66.66666667,66.66666667,1143.333333,1143.333333,black,practice,legacy,legacy,legacy,0,uniform,1,undefined,1,right,8,8,8,0,0,8,8,0,0,8,8,8,0,8,0,10/25/19 18:55,The main experiment item,yes,Sternbergtask.osexp,C:\Users\Edgar\Documents\Edgar School\Fall 2019\Lab 3-1,no,mono,no,18,no,white,no,yes,768,legacy,8,8,C:/Users/Edgar/Documents/Edgar School/Fall 2019/Lab 3-1/JJ-subject-3.csv,legacy,2 1,Kafkaesque Koffka,3.2.8,0,n,0,right,left,NA,right,NA,550,56446,NA,550,NA,2,legacy,2,1024,2,48000,-16,experiment,3,odd,5,122991,112794,120772,6112,NA,120779,119398,6131,NA,124997,125548,121785,62582,124997,NA,Sternberg task,6,10290,9,yes,1024
70,70,1083.8,1083.8,black,practice,legacy,legacy,legacy,0,uniform,1,undefined,1,left,9,9,9,0,0,9,9,0,0,9,9,9,0,9,0,10/25/19 18:55,The main experiment item,yes,Sternbergtask.osexp,C:\Users\Edgar\Documents\Edgar School\Fall 2019\Lab 3-1,no,mono,no,18,no,white,no,yes,768,legacy,9,9,C:/Users/Edgar/Documents/Edgar School/Fall 2019/Lab 3-1/JJ-subject-3.csv,legacy,4 3 1 7 9 8,Kafkaesque Koffka,3.2.8,1,y,0,left,left,NA,left,NA,548,56446,NA,548,NA,2,legacy,6,1024,2,48000,-16,experiment,3,odd,4,129162,125593,126941,6112,NA,126949,119398,6131,NA,131169,131719,127955,62582,131168,NA,Sternberg task,7,10838,10,yes,1024
72.72727273,72.72727273,1037.090909,1037.090909,black,practice,legacy,legacy,legacy,0,uniform,1,undefined,1,right,10,10,10,0,0,10,10,0,0,10,10,10,0,10,0,10/25/19 18:55,The main experiment item,yes,Sternbergtask.osexp,C:\Users\Edgar\Documents\Edgar School\Fall 2019\Lab 3-1,no,mono,no,18,no,white,no,yes,768,legacy,10,10,C:/Users/Edgar/Documents/Edgar School/Fall 2019/Lab 3-1/JJ-subject-3.csv,legacy,4 1 5,Kafkaesque Koffka,3.2.8,0,n,0,right,left,NA,right,NA,570,56446,NA,570,NA,2,legacy,3,1024,2,48000,-16,experiment,3,odd,2,135375,131785,133155,6112,NA,133162,119398,6131,NA,137383,137955,134170,62582,137382,NA,Sternberg task,8,11408,11,yes,1024
75,75,1008.75,1008.75,black,practice,legacy,legacy,legacy,0,uniform,1,undefined,1,right,11,11,11,0,0,11,11,0,0,11,11,11,0,11,0,10/25/19 18:55,The main experiment item,yes,Sternbergtask.osexp,C:\Users\Edgar\Documents\Edgar School\Fall 2019\Lab 3-1,no,mono,no,18,no,white,no,yes,768,legacy,11,11,C:/Users/Edgar/Documents/Edgar School/Fall 2019/Lab 3-1/JJ-subject-3.csv,legacy,9 6 7 4 5,Kafkaesque Koffka,3.2.8,0,n,0,right,left,NA,right,NA,697,56446,NA,697,NA,2,legacy,5,1024,2,48000,-16,experiment,3,odd,3,141614,138024,139393,6112,NA,139400,119398,6131,NA,143621,144320,140407,62582,143620,NA,Sternberg task,9,12105,12,yes,1024
76.92307692,76.92307692,978.6153846,978.6153846,black,experiment,legacy,legacy,legacy,0,uniform,1,undefined,1,right,12,12,12,0,0,12,12,0,0,12,12,12,0,12,0,10/25/19 18:55,The main experiment item,yes,Sternbergtask.osexp,C:\Users\Edgar\Documents\Edgar School\Fall 2019\Lab 3-1,no,mono,no,18,no,white,no,yes,768,legacy,0,11,C:/Users/Edgar/Documents/Edgar School/Fall 2019/Lab 3-1/JJ-subject-3.csv,legacy,6 9 4 5 3 2,Kafkaesque Koffka,3.2.8,0,n,0,right,left,left,right,NA,617,56446,5125,617,NA,2,legacy,6,1024,2,48000,-16,experiment,3,odd,8,153315,144380,151095,6112,150566,151103,119398,6131,145439,155323,155942,152109,62582,155323,NA,Sternberg task,10,12722,13,yes,1024
78.57142857,78.57142857,982.5714286,982.5714286,black,experiment,legacy,legacy,legacy,0,uniform,1,undefined,1,right,13,13,13,0,0,13,13,0,0,13,13,13,0,13,0,10/25/19 18:55,The main experiment item,yes,Sternbergtask.osexp,C:\Users\Edgar\Documents\Edgar School\Fall 2019\Lab 3-1,no,mono,no,18,no,white,no,yes,768,legacy,1,11,C:/Users/Edgar/Documents/Edgar School/Fall 2019/Lab 3-1/JJ-subject-3.csv,legacy,4 2 7 6 1 3,Kafkaesque Koffka,3.2.8,0,n,0,right,left,left,right,NA,1034,56446,5125,1034,NA,2,legacy,6,1024,2,48000,-16,experiment,3,odd,8,159650,155994,157427,6112,150566,157436,119398,6131,145439,161658,162695,158442,62582,161658,NA,Sternberg task,11,13756,14,yes,1024
80,80,975.8,975.8,black,experiment,legacy,legacy,legacy,0,uniform,1,undefined,1,right,14,14,14,0,0,14,14,0,0,14,14,14,0,14,0,10/25/19 18:55,The main experiment item,yes,Sternbergtask.osexp,C:\Users\Edgar\Documents\Edgar School\Fall 2019\Lab 3-1,no,mono,no,18,no,white,no,yes,768,legacy,2,11,C:/Users/Edgar/Documents/Edgar School/Fall 2019/Lab 3-1/JJ-subject-3.csv,legacy,6 2 9 3 8 4,Kafkaesque Koffka,3.2.8,0,n,0,right,left,left,right,NA,881,56446,5125,881,NA,2,legacy,6,1024,2,48000,-16,experiment,3,odd,1,166357,162753,164135,6112,150566,164143,119398,6131,145439,168364,169247,165149,62582,168364,NA,Sternberg task,12,14637,15,yes,1024
81.25,81.25,962.5,962.5,black,experiment,legacy,legacy,legacy,0,uniform,1,undefined,1,left,15,15,15,0,0,15,15,0,0,15,15,15,0,15,0,10/25/19 18:55,The main experiment item,yes,Sternbergtask.osexp,C:\Users\Edgar\Documents\Edgar School\Fall 2019\Lab 3-1,no,mono,no,18,no,white,no,yes,768,legacy,3,11,C:/Users/Edgar/Documents/Edgar School/Fall 2019/Lab 3-1/JJ-subject-3.csv,legacy,9 5 8 1,Kafkaesque Koffka,3.2.8,2,y,0,left,left,left,left,NA,763,56446,5125,763,NA,2,legacy,4,1024,2,48000,-16,experiment,3,odd,5,172884,169300,170662,6112,150566,170671,119398,6131,145439,174891,175655,171677,62582,174890,NA,Sternberg task,13,15400,16,yes,1024
82.35294118,82.35294118,941.4117647,941.4117647,black,experiment,legacy,legacy,legacy,0,uniform,1,undefined,1,right,16,16,16,0,0,16,16,0,0,16,16,16,0,16,0,10/25/19 18:55,The main experiment item,yes,Sternbergtask.osexp,C:\Users\Edgar\Documents\Edgar School\Fall 2019\Lab 3-1,no,mono,no,18,no,white,no,yes,768,legacy,4,11,C:/Users/Edgar/Documents/Edgar School/Fall 2019/Lab 3-1/JJ-subject-3.csv,legacy,5,Kafkaesque Koffka,3.2.8,0,n,0,right,left,left,right,NA,604,56446,5125,604,NA,2,legacy,1,1024,2,48000,-16,experiment,3,odd,8,179305,175709,177084,6112,150566,177092,119398,6131,145439,181312,181919,178099,62582,181312,NA,Sternberg task,14,16004,17,yes,1024
83.33333333,83.33333333,935.0555556,935.0555556,black,experiment,legacy,legacy,legacy,0,uniform,1,undefined,1,right,17,17,17,0,0,17,17,0,0,17,17,17,0,17,0,10/25/19 18:55,The main experiment item,yes,Sternbergtask.osexp,C:\Users\Edgar\Documents\Edgar School\Fall 2019\Lab 3-1,no,mono,no,18,no,white,no,yes,768,legacy,5,11,C:/Users/Edgar/Documents/Edgar School/Fall 2019/Lab 3-1/JJ-subject-3.csv,legacy,2 5 1 4,Kafkaesque Koffka,3.2.8,0,n,0,right,left,left,right,NA,827,56446,5125,827,NA,2,legacy,4,1024,2,48000,-16,experiment,3,odd,6,185562,181980,183341,6112,150566,183349,119398,6131,145439,187569,188398,184356,62582,187569,NA,Sternberg task,15,16831,18,yes,1024
84.21052632,84.21052632,922.4736842,922.4736842,black,experiment,legacy,legacy,legacy,0,uniform,1,undefined,1,left,18,18,18,0,0,18,18,0,0,18,18,18,0,18,0,10/25/19 18:55,The main experiment item,yes,Sternbergtask.osexp,C:\Users\Edgar\Documents\Edgar School\Fall 2019\Lab 3-1,no,mono,no,18,no,white,no,yes,768,legacy,6,11,C:/Users/Edgar/Documents/Edgar School/Fall 2019/Lab 3-1/JJ-subject-3.csv,legacy,5 2 6,Kafkaesque Koffka,3.2.8,2,y,0,left,left,left,left,NA,696,56446,5125,696,NA,2,legacy,3,1024,2,48000,-16,experiment,3,odd,2,192050,188471,189830,6112,150566,189837,119398,6131,145439,194056,194754,190842,62582,194055,NA,Sternberg task,16,17527,19,yes,1024
85,85,910.6,910.6,black,experiment,legacy,legacy,legacy,0,uniform,1,undefined,1,right,19,19,19,0,0,19,19,0,0,19,19,19,0,19,0,10/25/19 18:55,The main experiment item,yes,Sternbergtask.osexp,C:\Users\Edgar\Documents\Edgar School\Fall 2019\Lab 3-1,no,mono,no,18,no,white,no,yes,768,legacy,7,11,C:/Users/Edgar/Documents/Edgar School/Fall 2019/Lab 3-1/JJ-subject-3.csv,legacy,6 9 4 5 2,Kafkaesque Koffka,3.2.8,0,n,0,right,left,left,right,NA,685,56446,5125,685,NA,2,legacy,5,1024,2,48000,-16,experiment,3,odd,1,198424,194818,196203,6112,150566,196210,119398,6131,145439,200434,201122,197216,62582,200433,NA,Sternberg task,17,18212,20,yes,1024
85.71428571,85.71428571,920.0952381,920.0952381,black,experiment,legacy,legacy,legacy,0,uniform,1,undefined,1,right,20,20,20,0,0,20,20,0,0,20,20,20,0,20,0,10/25/19 18:55,The main experiment item,yes,Sternbergtask.osexp,C:\Users\Edgar\Documents\Edgar School\Fall 2019\Lab 3-1,no,mono,no,18,no,white,no,yes,768,legacy,8,11,C:/Users/Edgar/Documents/Edgar School/Fall 2019/Lab 3-1/JJ-subject-3.csv,legacy,2 8 7 9 5 3,Kafkaesque Koffka,3.2.8,0,n,0,right,left,left,right,NA,1110,56446,5125,1110,NA,2,legacy,6,1024,2,48000,-16,experiment,3,odd,6,204767,201180,202546,6112,150566,202554,119398,6131,145439,206774,207886,203560,62582,206774,NA,Sternberg task,18,19322,21,yes,1024
86.36363636,86.36363636,908.6818182,908.6818182,black,experiment,legacy,legacy,legacy,0,uniform,1,undefined,1,left,21,21,21,0,0,21,21,0,0,21,21,21,0,21,0,10/25/19 18:55,The main experiment item,yes,Sternbergtask.osexp,C:\Users\Edgar\Documents\Edgar School\Fall 2019\Lab 3-1,no,mono,no,18,no,white,no,yes,768,legacy,9,11,C:/Users/Edgar/Documents/Edgar School/Fall 2019/Lab 3-1/JJ-subject-3.csv,legacy,3 9 7 6 4,Kafkaesque Koffka,3.2.8,3,y,0,left,left,left,left,NA,669,56446,5125,669,NA,2,legacy,5,1024,2,48000,-16,experiment,3,odd,7,211537,207953,209319,6112,150566,209325,119398,6131,145439,213544,214215,210331,62582,213544,NA,Sternberg task,19,19991,22,yes,1024
86.95652174,86.95652174,908.0869565,908.0869565,black,experiment,legacy,legacy,legacy,0,uniform,1,undefined,1,left,22,22,22,0,0,22,22,0,0,22,22,22,0,22,0,10/25/19 18:55,The main experiment item,yes,Sternbergtask.osexp,C:\Users\Edgar\Documents\Edgar School\Fall 2019\Lab 3-1,no,mono,no,18,no,white,no,yes,768,legacy,10,11,C:/Users/Edgar/Documents/Edgar School/Fall 2019/Lab 3-1/JJ-subject-3.csv,legacy,4 3 2 5 8,Kafkaesque Koffka,3.2.8,2,y,0,left,left,left,left,NA,895,56446,5125,895,NA,2,legacy,5,1024,2,48000,-16,experiment,3,odd,3,217820,214254,215598,6112,150566,215605,119398,6131,145439,219827,220725,216613,62582,219826,NA,Sternberg task,20,20886,23,yes,1024
87.5,87.5,895.2916667,895.2916667,black,experiment,legacy,legacy,legacy,0,uniform,1,undefined,1,right,23,23,23,0,0,23,23,0,0,23,23,23,0,23,0,10/25/19 18:55,The main experiment item,yes,Sternbergtask.osexp,C:\Users\Edgar\Documents\Edgar School\Fall 2019\Lab 3-1,no,mono,no,18,no,white,no,yes,768,legacy,11,11,C:/Users/Edgar/Documents/Edgar School/Fall 2019/Lab 3-1/JJ-subject-3.csv,legacy,8 9,Kafkaesque Koffka,3.2.8,0,n,0,right,left,left,right,NA,601,56446,5125,601,NA,2,legacy,2,1024,2,48000,-16,experiment,3,odd,5,224387,220796,222166,6112,150566,222174,119398,6131,145439,226393,226998,223181,62582,226393,NA,Sternberg task,21,21487,24,yes,1024
88,88,888.72,888.72,black,experiment,legacy,legacy,legacy,0,uniform,1,undefined,1,right,24,24,24,0,0,24,24,0,0,24,24,24,0,24,0,10/25/19 18:55,The main experiment item,yes,Sternbergtask.osexp,C:\Users\Edgar\Documents\Edgar School\Fall 2019\Lab 3-1,no,mono,no,18,no,white,no,yes,768,legacy,12,11,C:/Users/Edgar/Documents/Edgar School/Fall 2019/Lab 3-1/JJ-subject-3.csv,legacy,7 1,Kafkaesque Koffka,3.2.8,0,n,0,right,left,left,right,NA,731,56446,5125,731,NA,2,legacy,2,1024,2,48000,-16,experiment,3,odd,8,230641,227064,228421,6112,150566,228428,119398,6131,145439,232647,233381,229434,62582,232647,NA,Sternberg task,22,22218,25,yes,1024
88.46153846,88.46153846,891.1538462,891.1538462,black,experiment,legacy,legacy,legacy,0,uniform,1,undefined,1,right,25,25,25,0,0,25,25,0,0,25,25,25,0,25,0,10/25/19 18:55,The main experiment item,yes,Sternbergtask.osexp,C:\Users\Edgar\Documents\Edgar School\Fall 2019\Lab 3-1,no,mono,no,18,no,white,no,yes,768,legacy,13,11,C:/Users/Edgar/Documents/Edgar School/Fall 2019/Lab 3-1/JJ-subject-3.csv,legacy,1 4 9 2 5,Kafkaesque Koffka,3.2.8,0,n,0,right,left,left,right,NA,952,56446,5125,952,NA,2,legacy,5,1024,2,48000,-16,experiment,3,odd,7,237013,233438,234791,6112,150566,234798,119398,6131,145439,239021,239975,235806,62582,239021,NA,Sternberg task,23,23170,26,yes,1024
88.88888889,88.88888889,880.1481481,880.1481481,black,experiment,legacy,legacy,legacy,0,uniform,1,undefined,1,right,26,26,26,0,0,26,26,0,0,26,26,26,0,26,0,10/25/19 18:55,The main experiment item,yes,Sternbergtask.osexp,C:\Users\Edgar\Documents\Edgar School\Fall 2019\Lab 3-1,no,mono,no,18,no,white,no,yes,768,legacy,14,11,C:/Users/Edgar/Documents/Edgar School/Fall 2019/Lab 3-1/JJ-subject-3.csv,legacy,3 9 1,Kafkaesque Koffka,3.2.8,0,n,0,right,left,left,right,NA,594,56446,5125,594,NA,2,legacy,3,1024,2,48000,-16,experiment,3,odd,7,243626,240023,241404,6112,150566,241412,119398,6131,145439,245634,246231,242418,62582,245634,NA,Sternberg task,24,23764,27,yes,1024
89.28571429,89.28571429,873.6071429,873.6071429,black,experiment,legacy,legacy,legacy,0,uniform,1,undefined,1,right,27,27,27,0,0,27,27,0,0,27,27,27,0,27,0,10/25/19 18:55,The main experiment item,yes,Sternbergtask.osexp,C:\Users\Edgar\Documents\Edgar School\Fall 2019\Lab 3-1,no,mono,no,18,no,white,no,yes,768,legacy,15,11,C:/Users/Edgar/Documents/Edgar School/Fall 2019/Lab 3-1/JJ-subject-3.csv,legacy,2 8 6 3 1,Kafkaesque Koffka,3.2.8,0,n,0,right,left,left,right,NA,697,56446,5125,697,NA,2,legacy,5,1024,2,48000,-16,experiment,3,odd,7,249872,246296,247652,6112,150566,247660,119398,6131,145439,251880,252580,248667,62582,251880,NA,Sternberg task,25,24461,28,yes,1024
89.65517241,89.65517241,862.6896552,862.6896552,black,experiment,legacy,legacy,legacy,0,uniform,1,undefined,1,left,28,28,28,0,0,28,28,0,0,28,28,28,0,28,0,10/25/19 18:55,The main experiment item,yes,Sternbergtask.osexp,C:\Users\Edgar\Documents\Edgar School\Fall 2019\Lab 3-1,no,mono,no,18,no,white,no,yes,768,legacy,16,11,C:/Users/Edgar/Documents/Edgar School/Fall 2019/Lab 3-1/JJ-subject-3.csv,legacy,2 3 7 4,Kafkaesque Koffka,3.2.8,1,y,0,left,left,left,left,NA,557,56446,5125,557,NA,2,legacy,4,1024,2,48000,-16,experiment,3,odd,2,256235,252665,254017,6112,150566,254023,119398,6131,145439,258243,258804,255030,62582,258243,NA,Sternberg task,26,25018,29,yes,1024
90,90,857.2666667,857.2666667,black,experiment,legacy,legacy,legacy,0,uniform,1,undefined,1,right,29,29,29,0,0,29,29,0,0,29,29,29,0,29,0,10/25/19 18:55,The main experiment item,yes,Sternbergtask.osexp,C:\Users\Edgar\Documents\Edgar School\Fall 2019\Lab 3-1,no,mono,no,18,no,white,no,yes,768,legacy,17,11,C:/Users/Edgar/Documents/Edgar School/Fall 2019/Lab 3-1/JJ-subject-3.csv,legacy,8 6 3 4 7,Kafkaesque Koffka,3.2.8,0,n,0,right,left,left,right,NA,700,56446,5125,700,NA,2,legacy,5,1024,2,48000,-16,experiment,3,odd,1,262453,258866,260230,6112,150566,260237,119398,6131,145439,264460,265163,261245,62582,264459,NA,Sternberg task,27,25718,30,yes,1024
90.32258065,90.32258065,847.2580645,847.2580645,black,experiment,legacy,legacy,legacy,0,uniform,1,undefined,1,left,30,30,30,0,0,30,30,0,0,30,30,30,0,30,0,10/25/19 18:55,The main experiment item,yes,Sternbergtask.osexp,C:\Users\Edgar\Documents\Edgar School\Fall 2019\Lab 3-1,no,mono,no,18,no,white,no,yes,768,legacy,18,11,C:/Users/Edgar/Documents/Edgar School/Fall 2019/Lab 3-1/JJ-subject-3.csv,legacy,2 4 6 9,Kafkaesque Koffka,3.2.8,3,y,0,left,left,left,left,NA,547,56446,5125,547,NA,2,legacy,4,1024,2,48000,-16,experiment,3,odd,6,268817,265222,266595,6112,150566,266603,119398,6131,145439,270826,271376,267610,62582,270825,NA,Sternberg task,28,26265,31,yes,1024
90.625,90.625,841.96875,841.96875,black,experiment,legacy,legacy,legacy,0,uniform,1,undefined,1,right,31,31,31,0,0,31,31,0,0,31,31,31,0,31,0,10/25/19 18:55,The main experiment item,yes,Sternbergtask.osexp,C:\Users\Edgar\Documents\Edgar School\Fall 2019\Lab 3-1,no,mono,no,18,no,white,no,yes,768,legacy,19,11,C:/Users/Edgar/Documents/Edgar School/Fall 2019/Lab 3-1/JJ-subject-3.csv,legacy,7 6 4 8 1 2,Kafkaesque Koffka,3.2.8,0,n,0,right,left,left,right,NA,678,56446,5125,678,NA,2,legacy,6,1024,2,48000,-16,experiment,3,odd,9,275028,271446,272806,6112,150566,272814,119398,6131,145439,277035,277716,273820,62582,277035,NA,Sternberg task,29,26943,32,yes,1024
90.90909091,90.90909091,832.8787879,832.8787879,black,experiment,legacy,legacy,legacy,0,uniform,1,undefined,1,left,32,32,32,0,0,32,32,0,0,32,32,32,0,32,0,10/25/19 18:55,The main experiment item,yes,Sternbergtask.osexp,C:\Users\Edgar\Documents\Edgar School\Fall 2019\Lab 3-1,no,mono,no,18,no,white,no,yes,768,legacy,20,11,C:/Users/Edgar/Documents/Edgar School/Fall 2019/Lab 3-1/JJ-subject-3.csv,legacy,8 7 3,Kafkaesque Koffka,3.2.8,1,y,0,left,left,left,left,NA,542,56446,5125,542,NA,2,legacy,3,1024,2,48000,-16,experiment,3,odd,8,281372,277791,279152,6112,150566,279160,119398,6131,145439,283381,283927,280167,62582,283380,NA,Sternberg task,30,27485,33,yes,1024
88.23529412,88.23529412,867.2058824,867.2058824,black,experiment,legacy,legacy,legacy,0,uniform,0,undefined,0,right,33,33,33,0,0,33,33,0,0,33,33,33,0,33,0,10/25/19 18:55,The main experiment item,yes,Sternbergtask.osexp,C:\Users\Edgar\Documents\Edgar School\Fall 2019\Lab 3-1,no,mono,no,18,no,white,no,yes,768,legacy,21,11,C:/Users/Edgar/Documents/Edgar School/Fall 2019/Lab 3-1/JJ-subject-3.csv,legacy,1 4 9 3,Kafkaesque Koffka,3.2.8,0,n,0,None,left,left,None,NA,2000,56446,5125,2000,NA,2,legacy,4,1024,2,48000,-16,experiment,3,odd,5,287615,283989,285391,6112,150566,285399,119398,6131,145439,289624,291626,286407,62582,289623,NA,Sternberg task,30,29485,34,yes,1024
88.57142857,88.57142857,863.6285714,863.6285714,black,experiment,legacy,legacy,legacy,0,uniform,1,undefined,1,right,34,34,34,0,0,34,34,0,0,34,34,34,0,34,0,10/25/19 18:55,The main experiment item,yes,Sternbergtask.osexp,C:\Users\Edgar\Documents\Edgar School\Fall 2019\Lab 3-1,no,mono,no,18,no,white,no,yes,768,legacy,22,11,C:/Users/Edgar/Documents/Edgar School/Fall 2019/Lab 3-1/JJ-subject-3.csv,legacy,8 2 1 4 5 9,Kafkaesque Koffka,3.2.8,0,n,0,right,left,left,right,NA,742,56446,5125,742,NA,2,legacy,6,1024,2,48000,-16,experiment,3,odd,7,295282,283989,293063,6112,150566,293070,291683,6131,145439,297289,298033,294077,62582,297289,NA,Sternberg task,31,30227,35,yes,1024
88.88888889,88.88888889,857.6666667,857.6666667,black,experiment,legacy,legacy,legacy,0,uniform,1,undefined,1,right,35,35,35,0,0,35,35,0,0,35,35,35,0,35,0,10/25/19 18:55,The main experiment item,yes,Sternbergtask.osexp,C:\Users\Edgar\Documents\Edgar School\Fall 2019\Lab 3-1,no,mono,no,18,no,white,no,yes,768,legacy,23,11,C:/Users/Edgar/Documents/Edgar School/Fall 2019/Lab 3-1/JJ-subject-3.csv,legacy,4 8 1 2,Kafkaesque Koffka,3.2.8,0,n,0,right,left,left,right,NA,649,56446,5125,649,NA,2,legacy,4,1024,2,48000,-16,experiment,3,odd,7,301804,298221,299584,6112,150566,299591,291683,6131,145439,303810,304463,300597,62582,303809,NA,Sternberg task,32,30876,36,yes,1024
89.18918919,89.18918919,853.8378378,853.8378378,black,experiment,legacy,legacy,legacy,0,uniform,1,undefined,1,right,36,36,36,0,0,36,36,0,0,36,36,36,0,36,0,10/25/19 18:55,The main experiment item,yes,Sternbergtask.osexp,C:\Users\Edgar\Documents\Edgar School\Fall 2019\Lab 3-1,no,mono,no,18,no,white,no,yes,768,legacy,24,11,C:/Users/Edgar/Documents/Edgar School/Fall 2019/Lab 3-1/JJ-subject-3.csv,legacy,7 1 8 4 9 3,Kafkaesque Koffka,3.2.8,0,n,0,right,left,left,right,NA,716,56446,5125,716,NA,2,legacy,6,1024,2,48000,-16,experiment,3,odd,6,308097,304514,305877,6112,150566,305884,291683,6131,145439,310103,310822,306891,62582,310103,NA,Sternberg task,33,31592,37,yes,1024
89.47368421,89.47368421,847.8157895,847.8157895,black,experiment,legacy,legacy,legacy,0,uniform,1,undefined,1,right,37,37,37,0,0,37,37,0,0,37,37,37,0,37,0,10/25/19 18:55,The main experiment item,yes,Sternbergtask.osexp,C:\Users\Edgar\Documents\Edgar School\Fall 2019\Lab 3-1,no,mono,no,18,no,white,no,yes,768,legacy,25,11,C:/Users/Edgar/Documents/Edgar School/Fall 2019/Lab 3-1/JJ-subject-3.csv,legacy,1 6 4,Kafkaesque Koffka,3.2.8,0,n,0,right,left,left,right,NA,625,56446,5125,625,NA,2,legacy,3,1024,2,48000,-16,experiment,3,odd,7,314480,310892,312255,6112,150566,312264,291683,6131,145439,316487,317116,313273,62582,316486,NA,Sternberg task,34,32217,38,yes,1024
89.74358974,89.74358974,841.2051282,841.2051282,black,experiment,legacy,legacy,legacy,0,uniform,1,undefined,1,right,38,38,38,0,0,38,38,0,0,38,38,38,0,38,0,10/25/19 18:55,The main experiment item,yes,Sternbergtask.osexp,C:\Users\Edgar\Documents\Edgar School\Fall 2019\Lab 3-1,no,mono,no,18,no,white,no,yes,768,legacy,26,11,C:/Users/Edgar/Documents/Edgar School/Fall 2019/Lab 3-1/JJ-subject-3.csv,legacy,2 7 5,Kafkaesque Koffka,3.2.8,0,n,0,right,left,left,right,NA,590,56446,5125,590,NA,2,legacy,3,1024,2,48000,-16,experiment,3,odd,8,320779,317184,318557,6112,150566,318564,291683,6131,145439,322786,323379,319571,62582,322786,NA,Sternberg task,35,32807,39,yes,1024
90,90,861.35,861.35,black,experiment,legacy,legacy,legacy,0,uniform,1,undefined,1,left,39,39,39,0,0,39,39,0,0,39,39,39,0,39,0,10/25/19 18:55,The main experiment item,yes,Sternbergtask.osexp,C:\Users\Edgar\Documents\Edgar School\Fall 2019\Lab 3-1,no,mono,no,18,no,white,no,yes,768,legacy,27,11,C:/Users/Edgar/Documents/Edgar School/Fall 2019/Lab 3-1/JJ-subject-3.csv,legacy,3 4 9 6 2 9,Kafkaesque Koffka,3.2.8,5,y,0,left,left,left,left,NA,1647,56446,5125,1647,NA,2,legacy,6,1024,2,48000,-16,experiment,3,odd,2,327042,323438,324820,6112,150566,324828,291683,6131,145439,329050,330701,325834,62582,329050,NA,Sternberg task,36,34454,40,yes,1024
90.24390244,90.24390244,858.5121951,858.5121951,black,experiment,legacy,legacy,legacy,0,uniform,1,undefined,1,left,40,40,40,0,0,40,40,0,0,40,40,40,0,40,0,10/25/19 18:55,The main experiment item,yes,Sternbergtask.osexp,C:\Users\Edgar\Documents\Edgar School\Fall 2019\Lab 3-1,no,mono,no,18,no,white,no,yes,768,legacy,28,11,C:/Users/Edgar/Documents/Edgar School/Fall 2019/Lab 3-1/JJ-subject-3.csv,legacy,6 9 3 1,Kafkaesque Koffka,3.2.8,4,y,0,left,left,left,left,NA,745,56446,5125,745,NA,2,legacy,4,1024,2,48000,-16,experiment,3,odd,1,334518,330819,332296,6112,150566,332305,291683,6131,145439,336539,337288,333312,62582,336536,NA,Sternberg task,37,35199,41,yes,1024
90.47619048,90.47619048,859.7380952,859.7380952,black,experiment,legacy,legacy,legacy,0,uniform,1,undefined,1,right,41,41,41,0,0,41,41,0,0,41,41,41,0,41,0,10/25/19 18:55,The main experiment item,yes,Sternbergtask.osexp,C:\Users\Edgar\Documents\Edgar School\Fall 2019\Lab 3-1,no,mono,no,18,no,white,no,yes,768,legacy,29,11,C:/Users/Edgar/Documents/Edgar School/Fall 2019/Lab 3-1/JJ-subject-3.csv,legacy,9 8 2 7 4,Kafkaesque Koffka,3.2.8,0,n,0,right,left,left,right,NA,910,56446,5125,910,NA,2,legacy,5,1024,2,48000,-16,experiment,3,odd,5,341022,337405,338797,6112,150566,338806,291683,6131,145439,343030,343946,339813,62582,343029,NA,Sternberg task,38,36109,42,yes,1024
88.37209302,88.37209302,863.1627907,863.1627907,black,experiment,legacy,legacy,legacy,0,uniform,0,undefined,0,left,42,42,42,0,0,42,42,0,0,42,42,42,0,42,0,10/25/19 18:55,The main experiment item,yes,Sternbergtask.osexp,C:\Users\Edgar\Documents\Edgar School\Fall 2019\Lab 3-1,no,mono,no,18,no,white,no,yes,768,legacy,30,11,C:/Users/Edgar/Documents/Edgar School/Fall 2019/Lab 3-1/JJ-subject-3.csv,legacy,9 8 4,Kafkaesque Koffka,3.2.8,1,y,0,right,left,left,right,NA,1007,56446,5125,1007,NA,2,legacy,3,1024,2,48000,-16,experiment,3,odd,9,347718,344032,345484,6112,150566,345495,291683,6131,145439,349726,350737,346503,62582,349725,NA,Sternberg task,38,37116,43,yes,1024
88.63636364,88.63636364,864.9090909,864.9090909,black,experiment,legacy,legacy,legacy,0,uniform,1,undefined,1,right,43,43,43,0,0,43,43,0,0,43,43,43,0,43,0,10/25/19 18:55,The main experiment item,yes,Sternbergtask.osexp,C:\Users\Edgar\Documents\Edgar School\Fall 2019\Lab 3-1,no,mono,no,18,no,white,no,yes,768,legacy,31,11,C:/Users/Edgar/Documents/Edgar School/Fall 2019/Lab 3-1/JJ-subject-3.csv,legacy,1 8 7,Kafkaesque Koffka,3.2.8,0,n,0,right,left,left,right,NA,940,56446,5125,940,NA,2,legacy,3,1024,2,48000,-16,experiment,3,odd,4,354549,344032,352324,6112,150566,352333,350812,6131,145439,356556,357499,353340,62582,356555,NA,Sternberg task,39,38056,44,yes,1024
88.88888889,88.88888889,860.0222222,860.0222222,black,experiment,legacy,legacy,legacy,0,uniform,1,undefined,1,left,44,44,44,0,0,44,44,0,0,44,44,44,0,44,0,10/25/19 18:55,The main experiment item,yes,Sternbergtask.osexp,C:\Users\Edgar\Documents\Edgar School\Fall 2019\Lab 3-1,no,mono,no,18,no,white,no,yes,768,legacy,32,11,C:/Users/Edgar/Documents/Edgar School/Fall 2019/Lab 3-1/JJ-subject-3.csv,legacy,9 6 2 4 1,Kafkaesque Koffka,3.2.8,4,y,0,left,left,left,left,NA,645,56446,5125,645,NA,2,legacy,5,1024,2,48000,-16,experiment,3,odd,4,361147,357556,358927,6112,150566,358934,350812,6131,145439,363153,363803,359940,62582,363153,NA,Sternberg task,40,38701,45,yes,1024
89.13043478,89.13043478,857.6956522,857.6956522,black,experiment,legacy,legacy,legacy,0,uniform,1,undefined,1,right,45,45,45,0,0,45,45,0,0,45,45,45,0,45,0,10/25/19 18:55,The main experiment item,yes,Sternbergtask.osexp,C:\Users\Edgar\Documents\Edgar School\Fall 2019\Lab 3-1,no,mono,no,18,no,white,no,yes,768,legacy,33,11,C:/Users/Edgar/Documents/Edgar School/Fall 2019/Lab 3-1/JJ-subject-3.csv,legacy,2 8 9,Kafkaesque Koffka,3.2.8,0,n,0,right,left,left,right,NA,753,56446,5125,753,NA,2,legacy,3,1024,2,48000,-16,experiment,3,odd,6,367457,363858,365234,6112,150566,365241,350812,6131,145439,369463,370219,366249,62582,369462,NA,Sternberg task,41,39454,46,yes,1024
89.36170213,89.36170213,851.9574468,851.9574468,black,experiment,legacy,legacy,legacy,0,uniform,1,undefined,1,left,46,46,46,0,0,46,46,0,0,46,46,46,0,46,0,10/25/19 18:55,The main experiment item,yes,Sternbergtask.osexp,C:\Users\Edgar\Documents\Edgar School\Fall 2019\Lab 3-1,no,mono,no,18,no,white,no,yes,768,legacy,34,11,C:/Users/Edgar/Documents/Edgar School/Fall 2019/Lab 3-1/JJ-subject-3.csv,legacy,7 8 6 3 1,Kafkaesque Koffka,3.2.8,5,y,0,left,left,left,left,NA,588,56446,5125,588,NA,2,legacy,5,1024,2,48000,-16,experiment,3,odd,1,373871,370280,371648,6112,150566,371656,350812,6131,145439,375878,376473,372663,62582,375878,NA,Sternberg task,42,40042,47,yes,1024
89.58333333,89.58333333,847.9375,847.9375,black,experiment,legacy,legacy,legacy,0,uniform,1,undefined,1,left,47,47,47,0,0,47,47,0,0,47,47,47,0,47,0,10/25/19 18:55,The main experiment item,yes,Sternbergtask.osexp,C:\Users\Edgar\Documents\Edgar School\Fall 2019\Lab 3-1,no,mono,no,18,no,white,no,yes,768,legacy,35,11,C:/Users/Edgar/Documents/Edgar School/Fall 2019/Lab 3-1/JJ-subject-3.csv,legacy,6 1 2,Kafkaesque Koffka,3.2.8,3,y,0,left,left,left,left,NA,659,56446,5125,659,NA,2,legacy,3,1024,2,48000,-16,experiment,3,odd,2,380183,376527,377962,6112,150566,377970,350812,6131,145439,382190,382852,378977,62582,382190,NA,Sternberg task,43,40701,48,yes,1024
89.79591837,89.79591837,842.5102041,842.5102041,black,experiment,legacy,legacy,legacy,0,uniform,1,undefined,1,right,48,48,48,0,0,48,48,0,0,48,48,48,0,48,0,10/25/19 18:55,The main experiment item,yes,Sternbergtask.osexp,C:\Users\Edgar\Documents\Edgar School\Fall 2019\Lab 3-1,no,mono,no,18,no,white,no,yes,768,legacy,36,11,C:/Users/Edgar/Documents/Edgar School/Fall 2019/Lab 3-1/JJ-subject-3.csv,legacy,1 3 2 6 9,Kafkaesque Koffka,3.2.8,0,n,0,right,left,left,right,NA,582,56446,5125,582,NA,2,legacy,5,1024,2,48000,-16,experiment,3,odd,5,386487,382906,384264,6112,150566,384272,350812,6131,145439,388494,389080,385279,62582,388493,NA,Sternberg task,44,41283,49,yes,1024
90,90,841.88,841.88,black,experiment,legacy,legacy,legacy,0,uniform,1,undefined,1,right,49,49,49,0,0,49,49,0,0,49,49,49,0,49,0,10/25/19 18:55,The main experiment item,yes,Sternbergtask.osexp,C:\Users\Edgar\Documents\Edgar School\Fall 2019\Lab 3-1,no,mono,no,18,no,white,no,yes,768,legacy,37,11,C:/Users/Edgar/Documents/Edgar School/Fall 2019/Lab 3-1/JJ-subject-3.csv,legacy,7 9 1 6,Kafkaesque Koffka,3.2.8,0,n,0,right,left,left,right,NA,811,56446,5125,811,NA,2,legacy,4,1024,2,48000,-16,experiment,3,odd,4,392709,389141,390490,6112,150566,390496,350812,6131,145439,394716,395532,391503,62582,394715,NA,Sternberg task,45,42094,50,yes,1024
90.19607843,90.19607843,836.7058824,836.7058824,black,experiment,legacy,legacy,legacy,0,uniform,1,undefined,1,left,50,50,50,0,0,50,50,0,0,50,50,50,0,50,0,10/25/19 18:55,The main experiment item,yes,Sternbergtask.osexp,C:\Users\Edgar\Documents\Edgar School\Fall 2019\Lab 3-1,no,mono,no,18,no,white,no,yes,768,legacy,38,11,C:/Users/Edgar/Documents/Edgar School/Fall 2019/Lab 3-1/JJ-subject-3.csv,legacy,2 8 5 1,Kafkaesque Koffka,3.2.8,4,y,0,left,left,left,left,NA,578,56446,5125,578,NA,2,legacy,4,1024,2,48000,-16,experiment,3,odd,1,399329,395609,397106,6112,150566,397115,350812,6131,145439,401337,401920,398121,62582,401336,NA,Sternberg task,46,42672,51,yes,1024
88.46153846,88.46153846,834.1346154,834.1346154,black,experiment,legacy,legacy,legacy,0,uniform,0,undefined,0,left,51,51,51,0,0,51,51,0,0,51,51,51,0,51,0,10/25/19 18:55,The main experiment item,yes,Sternbergtask.osexp,C:\Users\Edgar\Documents\Edgar School\Fall 2019\Lab 3-1,no,mono,no,18,no,white,no,yes,768,legacy,39,11,C:/Users/Edgar/Documents/Edgar School/Fall 2019/Lab 3-1/JJ-subject-3.csv,legacy,7 8 4 6 9 5,Kafkaesque Koffka,3.2.8,4,y,0,right,left,left,right,NA,703,56446,5125,703,NA,2,legacy,6,1024,2,48000,-16,experiment,3,odd,6,405564,401978,403341,6112,150566,403348,350812,6131,145439,407570,408278,404356,62582,407570,NA,Sternberg task,46,43375,52,yes,1024
88.67924528,88.67924528,829.7735849,829.7735849,black,experiment,legacy,legacy,legacy,0,uniform,1,undefined,1,left,52,52,52,0,0,52,52,0,0,52,52,52,0,52,0,10/25/19 18:55,The main experiment item,yes,Sternbergtask.osexp,C:\Users\Edgar\Documents\Edgar School\Fall 2019\Lab 3-1,no,mono,no,18,no,white,no,yes,768,legacy,40,11,C:/Users/Edgar/Documents/Edgar School/Fall 2019/Lab 3-1/JJ-subject-3.csv,legacy,4 1 8 7 5,Kafkaesque Koffka,3.2.8,3,y,0,left,left,left,left,NA,603,56446,5125,603,NA,2,legacy,5,1024,2,48000,-16,experiment,3,odd,8,411932,401978,409711,6112,150566,409720,408336,6131,145439,413939,414545,410726,62582,413939,NA,Sternberg task,47,43978,53,yes,1024
88.88888889,88.88888889,824.962963,824.962963,black,experiment,legacy,legacy,legacy,0,uniform,1,undefined,1,right,53,53,53,0,0,53,53,0,0,53,53,53,0,53,0,10/25/19 18:55,The main experiment item,yes,Sternbergtask.osexp,C:\Users\Edgar\Documents\Edgar School\Fall 2019\Lab 3-1,no,mono,no,18,no,white,no,yes,768,legacy,41,11,C:/Users/Edgar/Documents/Edgar School/Fall 2019/Lab 3-1/JJ-subject-3.csv,legacy,5 7 3,Kafkaesque Koffka,3.2.8,0,n,0,right,left,left,right,NA,570,56446,5125,570,NA,2,legacy,3,1024,2,48000,-16,experiment,3,odd,9,418190,414615,415970,6112,150566,415978,408336,6131,145439,420198,420774,416983,62582,420197,NA,Sternberg task,48,44548,54,yes,1024
87.27272727,87.27272727,824.6181818,824.6181818,black,experiment,legacy,legacy,legacy,0,uniform,0,undefined,0,left,54,54,54,0,0,54,54,0,0,54,54,54,0,54,0,10/25/19 18:55,The main experiment item,yes,Sternbergtask.osexp,C:\Users\Edgar\Documents\Edgar School\Fall 2019\Lab 3-1,no,mono,no,18,no,white,no,yes,768,legacy,42,11,C:/Users/Edgar/Documents/Edgar School/Fall 2019/Lab 3-1/JJ-subject-3.csv,legacy,8 5 3 7 4 6,Kafkaesque Koffka,3.2.8,6,y,0,right,left,left,right,NA,806,56446,5125,806,NA,2,legacy,6,1024,2,48000,-16,experiment,3,odd,6,424397,420816,422177,6112,150566,422184,408336,6131,145439,426403,427215,423191,62582,426403,NA,Sternberg task,48,45354,55,yes,1024
87.5,87.5,826,826,black,experiment,legacy,legacy,legacy,0,uniform,1,undefined,1,left,55,55,55,0,0,55,55,0,0,55,55,55,0,55,0,10/25/19 18:55,The main experiment item,yes,Sternbergtask.osexp,C:\Users\Edgar\Documents\Edgar School\Fall 2019\Lab 3-1,no,mono,no,18,no,white,no,yes,768,legacy,43,11,C:/Users/Edgar/Documents/Edgar School/Fall 2019/Lab 3-1/JJ-subject-3.csv,legacy,4,Kafkaesque Koffka,3.2.8,1,y,0,left,left,left,left,NA,902,56446,5125,902,NA,2,legacy,1,1024,2,48000,-16,experiment,3,odd,4,430893,420816,428674,6112,150566,428682,427282,6131,145439,432900,433806,429688,62582,432900,NA,Sternberg task,49,46256,56,yes,1024
87.71929825,87.71929825,824.0877193,824.0877193,black,experiment,legacy,legacy,legacy,0,uniform,1,undefined,1,right,56,56,56,0,0,56,56,0,0,56,56,56,0,56,0,10/25/19 18:55,The main experiment item,yes,Sternbergtask.osexp,C:\Users\Edgar\Documents\Edgar School\Fall 2019\Lab 3-1,no,mono,no,18,no,white,no,yes,768,legacy,44,11,C:/Users/Edgar/Documents/Edgar School/Fall 2019/Lab 3-1/JJ-subject-3.csv,legacy,5 3 8 7 2 4,Kafkaesque Koffka,3.2.8,0,n,0,right,left,left,right,NA,717,56446,5125,717,NA,2,legacy,6,1024,2,48000,-16,experiment,3,odd,9,437482,433872,435260,6112,150566,435269,427282,6131,145439,439489,440210,436275,62582,439489,NA,Sternberg task,50,46973,57,yes,1024
87.93103448,87.93103448,820.8965517,820.8965517,black,experiment,legacy,legacy,legacy,0,uniform,1,undefined,1,left,57,57,57,0,0,57,57,0,0,57,57,57,0,57,0,10/25/19 18:55,The main experiment item,yes,Sternbergtask.osexp,C:\Users\Edgar\Documents\Edgar School\Fall 2019\Lab 3-1,no,mono,no,18,no,white,no,yes,768,legacy,45,11,C:/Users/Edgar/Documents/Edgar School/Fall 2019/Lab 3-1/JJ-subject-3.csv,legacy,2 3,Kafkaesque Koffka,3.2.8,1,y,0,left,left,left,left,NA,639,56446,5125,639,NA,2,legacy,2,1024,2,48000,-16,experiment,3,odd,2,443846,440277,441626,6112,150566,441633,427282,6131,145439,445854,446497,442638,62582,445854,NA,Sternberg task,51,47612,58,yes,1024
86.44067797,86.44067797,818.3728814,818.3728814,black,experiment,legacy,legacy,legacy,0,uniform,0,undefined,0,left,58,58,58,0,0,58,58,0,0,58,58,58,0,58,0,10/25/19 18:55,The main experiment item,yes,Sternbergtask.osexp,C:\Users\Edgar\Documents\Edgar School\Fall 2019\Lab 3-1,no,mono,no,18,no,white,no,yes,768,legacy,46,11,C:/Users/Edgar/Documents/Edgar School/Fall 2019/Lab 3-1/JJ-subject-3.csv,legacy,8 5 4 7 3 1,Kafkaesque Koffka,3.2.8,2,y,0,right,left,left,right,NA,672,56446,5125,672,NA,2,legacy,6,1024,2,48000,-16,experiment,3,odd,5,450137,446556,447917,6112,150566,447924,427282,6131,145439,452144,452821,448929,62582,452144,NA,Sternberg task,51,48284,59,yes,1024
86.66666667,86.66666667,818.1333333,818.1333333,black,experiment,legacy,legacy,legacy,0,uniform,1,undefined,1,right,59,59,59,0,0,59,59,0,0,59,59,59,0,59,0,10/25/19 18:55,The main experiment item,yes,Sternbergtask.osexp,C:\Users\Edgar\Documents\Edgar School\Fall 2019\Lab 3-1,no,mono,no,18,no,white,no,yes,768,legacy,47,11,C:/Users/Edgar/Documents/Edgar School/Fall 2019/Lab 3-1/JJ-subject-3.csv,legacy,5 2,Kafkaesque Koffka,3.2.8,0,n,0,right,left,left,right,NA,804,56446,5125,804,NA,2,legacy,2,1024,2,48000,-16,experiment,3,odd,7,456463,446556,454242,6112,150566,454249,452880,6131,145439,458470,459280,455257,62582,458469,NA,Sternberg task,52,49088,60,yes,1024
86.8852459,86.8852459,816.4918033,816.4918033,black,experiment,legacy,legacy,legacy,0,uniform,1,undefined,1,right,60,60,60,0,0,60,60,0,0,60,60,60,0,60,0,10/25/19 18:55,The main experiment item,yes,Sternbergtask.osexp,C:\Users\Edgar\Documents\Edgar School\Fall 2019\Lab 3-1,no,mono,no,18,no,white,no,yes,768,legacy,48,11,C:/Users/Edgar/Documents/Edgar School/Fall 2019/Lab 3-1/JJ-subject-3.csv,legacy,7 1 5 6 3,Kafkaesque Koffka,3.2.8,0,n,0,right,left,left,right,NA,718,56446,5125,718,NA,2,legacy,5,1024,2,48000,-16,experiment,3,odd,8,462935,459345,460716,6112,150566,460723,452880,6131,145439,464943,465665,461728,62582,464943,NA,Sternberg task,53,49806,61,yes,1024
87.09677419,87.09677419,820.3387097,820.3387097,black,experiment,legacy,legacy,legacy,0,uniform,1,undefined,1,left,61,61,61,0,0,61,61,0,0,61,61,61,0,61,0,10/25/19 18:55,The main experiment item,yes,Sternbergtask.osexp,C:\Users\Edgar\Documents\Edgar School\Fall 2019\Lab 3-1,no,mono,no,18,no,white,no,yes,768,legacy,49,11,C:/Users/Edgar/Documents/Edgar School/Fall 2019/Lab 3-1/JJ-subject-3.csv,legacy,6 9 7 4 5 1,Kafkaesque Koffka,3.2.8,2,y,0,left,left,left,left,NA,1055,56446,5125,1055,NA,2,legacy,6,1024,2,48000,-16,experiment,3,odd,9,469330,465747,467110,6112,150566,467118,452880,6131,145439,471336,472395,468124,62582,471336,NA,Sternberg task,54,50861,62,yes,1024
85.71428571,85.71428571,828.8412698,828.8412698,black,experiment,legacy,legacy,legacy,0,uniform,0,undefined,0,left,62,62,62,0,0,62,62,0,0,62,62,62,0,62,0,10/25/19 18:55,The main experiment item,yes,Sternbergtask.osexp,C:\Users\Edgar\Documents\Edgar School\Fall 2019\Lab 3-1,no,mono,no,18,no,white,no,yes,768,legacy,50,11,C:/Users/Edgar/Documents/Edgar School/Fall 2019/Lab 3-1/JJ-subject-3.csv,legacy,4 9 7 8 5 3,Kafkaesque Koffka,3.2.8,4,y,0,right,left,left,right,NA,1356,56446,5125,1356,NA,2,legacy,6,1024,2,48000,-16,experiment,3,odd,8,476064,472458,473842,6112,150566,473850,452880,6131,145439,478072,479432,474858,62582,478072,NA,Sternberg task,54,52217,63,yes,1024
85.9375,85.9375,826.59375,826.59375,black,experiment,legacy,legacy,legacy,0,uniform,1,undefined,1,left,63,63,63,0,0,63,63,0,0,63,63,63,0,63,0,10/25/19 18:55,The main experiment item,yes,Sternbergtask.osexp,C:\Users\Edgar\Documents\Edgar School\Fall 2019\Lab 3-1,no,mono,no,18,no,white,no,yes,768,legacy,51,11,C:/Users/Edgar/Documents/Edgar School/Fall 2019/Lab 3-1/JJ-subject-3.csv,legacy,9 5 3 8 4,Kafkaesque Koffka,3.2.8,1,y,0,left,left,left,left,NA,685,56446,5125,685,NA,2,legacy,5,1024,2,48000,-16,experiment,3,odd,9,483092,472458,480872,6112,150566,480880,479505,6131,145439,485100,485790,481886,62582,485099,NA,Sternberg task,55,52902,64,yes,1024
86.15384615,86.15384615,823.7076923,823.7076923,black,experiment,legacy,legacy,legacy,0,uniform,1,undefined,1,left,64,64,64,0,0,64,64,0,0,64,64,64,0,64,0,10/25/19 18:55,The main experiment item,yes,Sternbergtask.osexp,C:\Users\Edgar\Documents\Edgar School\Fall 2019\Lab 3-1,no,mono,no,18,no,white,no,yes,768,legacy,52,11,C:/Users/Edgar/Documents/Edgar School/Fall 2019/Lab 3-1/JJ-subject-3.csv,legacy,3 5 4 7,Kafkaesque Koffka,3.2.8,1,y,0,left,left,left,left,NA,639,56446,5125,639,NA,2,legacy,4,1024,2,48000,-16,experiment,3,odd,3,489479,485863,487258,6112,150566,487267,479505,6131,145439,491486,492129,488272,62582,491486,NA,Sternberg task,56,53541,65,yes,1024
86.36363636,86.36363636,822.8787879,822.8787879,black,experiment,legacy,legacy,legacy,0,uniform,1,undefined,1,right,65,65,65,0,0,65,65,0,0,65,65,65,0,65,0,10/25/19 18:55,The main experiment item,yes,Sternbergtask.osexp,C:\Users\Edgar\Documents\Edgar School\Fall 2019\Lab 3-1,no,mono,no,18,no,white,no,yes,768,legacy,53,11,C:/Users/Edgar/Documents/Edgar School/Fall 2019/Lab 3-1/JJ-subject-3.csv,legacy,7 9,Kafkaesque Koffka,3.2.8,0,n,0,right,left,left,right,NA,769,56446,5125,769,NA,2,legacy,2,1024,2,48000,-16,experiment,3,odd,1,495800,492196,493577,6112,150566,493584,479505,6131,145439,497808,498581,494592,62582,497808,NA,Sternberg task,57,54310,66,yes,1024
86.56716418,86.56716418,821.4328358,821.4328358,black,experiment,legacy,legacy,legacy,0,uniform,1,undefined,1,left,66,66,66,0,0,66,66,0,0,66,66,66,0,66,0,10/25/19 18:55,The main experiment item,yes,Sternbergtask.osexp,C:\Users\Edgar\Documents\Edgar School\Fall 2019\Lab 3-1,no,mono,no,18,no,white,no,yes,768,legacy,54,11,C:/Users/Edgar/Documents/Edgar School/Fall 2019/Lab 3-1/JJ-subject-3.csv,legacy,3 4,Kafkaesque Koffka,3.2.8,1,y,0,left,left,left,left,NA,726,56446,5125,726,NA,2,legacy,2,1024,2,48000,-16,experiment,3,odd,3,502250,498653,500030,6112,150566,500039,479505,6131,145439,504256,504987,501044,62582,504255,NA,Sternberg task,58,55036,67,yes,1024
86.76470588,86.76470588,819.6617647,819.6617647,black,experiment,legacy,legacy,legacy,0,uniform,1,undefined,1,left,67,67,67,0,0,67,67,0,0,67,67,67,0,67,0,10/25/19 18:55,The main experiment item,yes,Sternbergtask.osexp,C:\Users\Edgar\Documents\Edgar School\Fall 2019\Lab 3-1,no,mono,no,18,no,white,no,yes,768,legacy,55,11,C:/Users/Edgar/Documents/Edgar School/Fall 2019/Lab 3-1/JJ-subject-3.csv,legacy,6 5,Kafkaesque Koffka,3.2.8,2,y,0,left,left,left,left,NA,701,56446,5125,701,NA,2,legacy,2,1024,2,48000,-16,experiment,3,odd,5,508638,505044,506415,6112,150566,506423,479505,6131,145439,510646,511351,507430,62582,510646,NA,Sternberg task,59,55737,68,yes,1024
86.95652174,86.95652174,824.173913,824.173913,black,experiment,legacy,legacy,legacy,0,uniform,1,undefined,1,right,68,68,68,0,0,68,68,0,0,68,68,68,0,68,0,10/25/19 18:55,The main experiment item,yes,Sternbergtask.osexp,C:\Users\Edgar\Documents\Edgar School\Fall 2019\Lab 3-1,no,mono,no,18,no,white,no,yes,768,legacy,56,11,C:/Users/Edgar/Documents/Edgar School/Fall 2019/Lab 3-1/JJ-subject-3.csv,legacy,1 6 4 3 9 7,Kafkaesque Koffka,3.2.8,0,n,0,right,left,left,right,NA,1131,56446,5125,1131,NA,2,legacy,6,1024,2,48000,-16,experiment,3,odd,8,514994,511412,512774,6112,150566,512781,479505,6131,145439,517001,518136,513788,62582,517001,NA,Sternberg task,60,56868,69,yes,1024
87.14285714,87.14285714,836.7285714,836.7285714,black,experiment,legacy,legacy,legacy,0,uniform,1,undefined,1,left,69,69,69,0,0,69,69,0,0,69,69,69,0,69,0,10/25/19 18:55,The main experiment item,yes,Sternbergtask.osexp,C:\Users\Edgar\Documents\Edgar School\Fall 2019\Lab 3-1,no,mono,no,18,no,white,no,yes,768,legacy,57,11,C:/Users/Edgar/Documents/Edgar School/Fall 2019/Lab 3-1/JJ-subject-3.csv,legacy,2 6 1 7 4,Kafkaesque Koffka,3.2.8,2,y,0,left,left,left,left,NA,1703,56446,5125,1703,NA,2,legacy,5,1024,2,48000,-16,experiment,3,odd,6,521762,518203,519542,6112,150566,519549,479505,6131,145439,523770,525478,520557,62582,523770,NA,Sternberg task,61,58571,70,yes,1024
87.32394366,87.32394366,838.0422535,838.0422535,black,experiment,legacy,legacy,legacy,0,uniform,1,undefined,1,right,70,70,70,0,0,70,70,0,0,70,70,70,0,70,0,10/25/19 18:55,The main experiment item,yes,Sternbergtask.osexp,C:\Users\Edgar\Documents\Edgar School\Fall 2019\Lab 3-1,no,mono,no,18,no,white,no,yes,768,legacy,58,11,C:/Users/Edgar/Documents/Edgar School/Fall 2019/Lab 3-1/JJ-subject-3.csv,legacy,4 1,Kafkaesque Koffka,3.2.8,0,n,0,right,left,left,right,NA,930,56446,5125,930,NA,2,legacy,2,1024,2,48000,-16,experiment,3,odd,6,529129,525547,526907,6112,150566,526915,479505,6131,145439,531137,532071,527923,62582,531136,NA,Sternberg task,62,59501,71,yes,1024
87.5,87.5,836.8333333,836.8333333,black,experiment,legacy,legacy,legacy,0,uniform,1,undefined,1,left,71,71,71,0,0,71,71,0,0,71,71,71,0,71,0,10/25/19 18:55,The main experiment item,yes,Sternbergtask.osexp,C:\Users\Edgar\Documents\Edgar School\Fall 2019\Lab 3-1,no,mono,no,18,no,white,no,yes,768,legacy,59,11,C:/Users/Edgar/Documents/Edgar School/Fall 2019/Lab 3-1/JJ-subject-3.csv,legacy,2 4 8 5 1 3,Kafkaesque Koffka,3.2.8,1,y,0,left,left,left,left,NA,751,56446,5125,751,NA,2,legacy,6,1024,2,48000,-16,experiment,3,odd,2,535696,532113,533474,6112,150566,533481,479505,6131,145439,537702,538457,534488,62582,537702,NA,Sternberg task,63,60252,72,yes,1024
87.67123288,87.67123288,835.1643836,835.1643836,black,experiment,legacy,legacy,legacy,0,uniform,1,undefined,1,right,72,72,72,0,0,72,72,0,0,72,72,72,0,72,0,10/25/19 18:55,The main experiment item,yes,Sternbergtask.osexp,C:\Users\Edgar\Documents\Edgar School\Fall 2019\Lab 3-1,no,mono,no,18,no,white,no,yes,768,legacy,60,11,C:/Users/Edgar/Documents/Edgar School/Fall 2019/Lab 3-1/JJ-subject-3.csv,legacy,6 8,Kafkaesque Koffka,3.2.8,0,n,0,right,left,left,right,NA,715,56446,5125,715,NA,2,legacy,2,1024,2,48000,-16,experiment,3,odd,9,542107,538525,539887,6112,150566,539895,479505,6131,145439,544113,544832,540900,62582,544113,NA,Sternberg task,64,60967,73,yes,1024
87.83783784,87.83783784,835.6081081,835.6081081,black,experiment,legacy,legacy,legacy,0,uniform,1,undefined,1,left,73,73,73,0,0,73,73,0,0,73,73,73,0,73,0,10/25/19 18:55,The main experiment item,yes,Sternbergtask.osexp,C:\Users\Edgar\Documents\Edgar School\Fall 2019\Lab 3-1,no,mono,no,18,no,white,no,yes,768,legacy,61,11,C:/Users/Edgar/Documents/Edgar School/Fall 2019/Lab 3-1/JJ-subject-3.csv,legacy,9 1 7 2,Kafkaesque Koffka,3.2.8,2,y,0,left,left,left,left,NA,868,56446,5125,868,NA,2,legacy,4,1024,2,48000,-16,experiment,3,odd,1,548485,544884,546264,6112,150566,546272,479505,6131,145439,550493,551366,547280,62582,550493,NA,Sternberg task,65,61835,74,yes,1024
88,88,833.7466667,833.7466667,black,experiment,legacy,legacy,legacy,0,uniform,1,undefined,1,right,74,74,74,0,0,74,74,0,0,74,74,74,0,74,0,10/25/19 18:55,The main experiment item,yes,Sternbergtask.osexp,C:\Users\Edgar\Documents\Edgar School\Fall 2019\Lab 3-1,no,mono,no,18,no,white,no,yes,768,legacy,62,11,C:/Users/Edgar/Documents/Edgar School/Fall 2019/Lab 3-1/JJ-subject-3.csv,legacy,6 8 4,Kafkaesque Koffka,3.2.8,0,n,0,right,left,left,right,NA,696,56446,5125,696,NA,2,legacy,3,1024,2,48000,-16,experiment,3,odd,1,555036,551430,552812,6112,150566,552823,479505,6131,145439,557042,557744,553829,62582,557042,NA,Sternberg task,66,62531,75,yes,1024
88.15789474,88.15789474,834.6184211,834.6184211,black,experiment,legacy,legacy,legacy,0,uniform,1,undefined,1,left,75,75,75,0,0,75,75,0,0,75,75,75,0,75,0,10/25/19 18:55,The main experiment item,yes,Sternbergtask.osexp,C:\Users\Edgar\Documents\Edgar School\Fall 2019\Lab 3-1,no,mono,no,18,no,white,no,yes,768,legacy,63,11,C:/Users/Edgar/Documents/Edgar School/Fall 2019/Lab 3-1/JJ-subject-3.csv,legacy,9 3 1 2 5,Kafkaesque Koffka,3.2.8,4,y,0,left,left,left,left,NA,900,56446,5125,900,NA,2,legacy,5,1024,2,48000,-16,experiment,3,odd,2,561392,557810,559166,6112,150566,559176,479505,6131,145439,563402,564307,560185,62582,563402,NA,Sternberg task,67,63431,76,yes,1024
88.31168831,88.31168831,833.1298701,833.1298701,black,experiment,legacy,legacy,legacy,0,uniform,1,undefined,1,right,76,76,76,0,0,76,76,0,0,76,76,76,0,76,0,10/25/19 18:55,The main experiment item,yes,Sternbergtask.osexp,C:\Users\Edgar\Documents\Edgar School\Fall 2019\Lab 3-1,no,mono,no,18,no,white,no,yes,768,legacy,64,11,C:/Users/Edgar/Documents/Edgar School/Fall 2019/Lab 3-1/JJ-subject-3.csv,legacy,8 5 7 3 6,Kafkaesque Koffka,3.2.8,0,n,0,right,left,left,right,NA,720,56446,5125,720,NA,2,legacy,5,1024,2,48000,-16,experiment,3,odd,9,567942,564364,565720,6112,150566,565731,479505,6131,145439,569950,570675,566737,62582,569950,NA,Sternberg task,68,64151,77,yes,1024
88.46153846,88.46153846,831.4615385,831.4615385,black,experiment,legacy,legacy,legacy,0,uniform,1,undefined,1,right,77,77,77,0,0,77,77,0,0,77,77,77,0,77,0,10/25/19 18:55,The main experiment item,yes,Sternbergtask.osexp,C:\Users\Edgar\Documents\Edgar School\Fall 2019\Lab 3-1,no,mono,no,18,no,white,no,yes,768,legacy,65,11,C:/Users/Edgar/Documents/Edgar School/Fall 2019/Lab 3-1/JJ-subject-3.csv,legacy,1 7 5 2,Kafkaesque Koffka,3.2.8,0,n,0,right,left,left,right,NA,703,56446,5125,703,NA,2,legacy,4,1024,2,48000,-16,experiment,3,odd,3,574323,570743,572098,6112,150566,572107,479505,6131,145439,576329,577039,573114,62582,576329,NA,Sternberg task,69,64854,78,yes,1024
88.60759494,88.60759494,836.0379747,836.0379747,black,experiment,legacy,legacy,legacy,0,uniform,1,undefined,1,left,78,78,78,0,0,78,78,0,0,78,78,78,0,78,0,10/25/19 18:55,The main experiment item,yes,Sternbergtask.osexp,C:\Users\Edgar\Documents\Edgar School\Fall 2019\Lab 3-1,no,mono,no,18,no,white,no,yes,768,legacy,66,11,C:/Users/Edgar/Documents/Edgar School/Fall 2019/Lab 3-1/JJ-subject-3.csv,legacy,8 5 1 3 9,Kafkaesque Koffka,3.2.8,4,y,0,left,left,left,left,NA,1193,56446,5125,1193,NA,2,legacy,5,1024,2,48000,-16,experiment,3,odd,3,580719,577114,578496,6112,150566,578505,479505,6131,145439,582724,583922,579513,62582,582724,NA,Sternberg task,70,66047,79,yes,1024
88.75,88.75,839.7,839.7,black,experiment,legacy,legacy,legacy,0,uniform,1,undefined,1,left,79,79,79,0,0,79,79,0,0,79,79,79,0,79,0,10/25/19 18:55,The main experiment item,yes,Sternbergtask.osexp,C:\Users\Edgar\Documents\Edgar School\Fall 2019\Lab 3-1,no,mono,no,18,no,white,no,yes,768,legacy,67,11,C:/Users/Edgar/Documents/Edgar School/Fall 2019/Lab 3-1/JJ-subject-3.csv,legacy,5 7 8 2 3 8,Kafkaesque Koffka,3.2.8,5,y,0,left,left,left,left,NA,1129,56446,5125,1129,NA,2,legacy,6,1024,2,48000,-16,experiment,3,odd,3,587587,583994,585367,6112,150566,585374,479505,6131,145439,589595,590729,586382,62582,589595,NA,Sternberg task,71,67176,80,yes,1024
88.88888889,88.88888889,838.4814815,838.4814815,black,experiment,legacy,legacy,legacy,0,uniform,1,undefined,1,left,80,80,80,0,0,80,80,0,0,80,80,80,0,80,0,10/25/19 18:55,The main experiment item,yes,Sternbergtask.osexp,C:\Users\Edgar\Documents\Edgar School\Fall 2019\Lab 3-1,no,mono,no,18,no,white,no,yes,768,legacy,68,11,C:/Users/Edgar/Documents/Edgar School/Fall 2019/Lab 3-1/JJ-subject-3.csv,legacy,8 3,Kafkaesque Koffka,3.2.8,2,y,0,left,left,left,left,NA,741,56446,5125,741,NA,2,legacy,2,1024,2,48000,-16,experiment,3,odd,3,594386,590793,592163,6112,150566,592172,479505,6131,145439,596392,597138,593178,62582,596391,NA,Sternberg task,72,67917,81,yes,1024
89.02439024,89.02439024,836.195122,836.195122,black,experiment,legacy,legacy,legacy,0,uniform,1,undefined,1,left,81,81,81,0,0,81,81,0,0,81,81,81,0,81,0,10/25/19 18:55,The main experiment item,yes,Sternbergtask.osexp,C:\Users\Edgar\Documents\Edgar School\Fall 2019\Lab 3-1,no,mono,no,18,no,white,no,yes,768,legacy,69,11,C:/Users/Edgar/Documents/Edgar School/Fall 2019/Lab 3-1/JJ-subject-3.csv,legacy,5 2 9 6 1 7,Kafkaesque Koffka,3.2.8,3,y,0,left,left,left,left,NA,651,56446,5125,651,NA,2,legacy,6,1024,2,48000,-16,experiment,3,odd,9,600770,597205,598550,6112,150566,598558,479505,6131,145439,602777,603434,599565,62582,602776,NA,Sternberg task,73,68568,82,yes,1024
89.15662651,89.15662651,835.253012,835.253012,black,experiment,legacy,legacy,legacy,0,uniform,1,undefined,1,right,82,82,82,0,0,82,82,0,0,82,82,82,0,82,0,10/25/19 18:55,The main experiment item,yes,Sternbergtask.osexp,C:\Users\Edgar\Documents\Edgar School\Fall 2019\Lab 3-1,no,mono,no,18,no,white,no,yes,768,legacy,70,11,C:/Users/Edgar/Documents/Edgar School/Fall 2019/Lab 3-1/JJ-subject-3.csv,legacy,3 9 8 1 6 4,Kafkaesque Koffka,3.2.8,0,n,0,right,left,left,right,NA,758,56446,5125,758,NA,2,legacy,6,1024,2,48000,-16,experiment,3,odd,7,607095,603495,604877,6112,150566,604883,479505,6131,145439,609104,609868,605890,62582,609104,NA,Sternberg task,74,69326,83,yes,1024
89.28571429,89.28571429,835.6666667,835.6666667,black,experiment,legacy,legacy,legacy,0,uniform,1,undefined,1,left,83,83,83,0,0,83,83,0,0,83,83,83,0,83,0,10/25/19 18:55,The main experiment item,yes,Sternbergtask.osexp,C:\Users\Edgar\Documents\Edgar School\Fall 2019\Lab 3-1,no,mono,no,18,no,white,no,yes,768,legacy,71,11,C:/Users/Edgar/Documents/Edgar School/Fall 2019/Lab 3-1/JJ-subject-3.csv,legacy,7 6,Kafkaesque Koffka,3.2.8,2,y,0,left,left,left,left,NA,870,56446,5125,870,NA,2,legacy,2,1024,2,48000,-16,experiment,3,odd,6,613543,609930,611324,6112,150566,611331,479505,6131,145439,615551,616426,612337,62582,615551,NA,Sternberg task,75,70196,84,yes,1024
89.41176471,89.41176471,835.4823529,835.4823529,black,experiment,legacy,legacy,legacy,0,uniform,1,undefined,1,left,84,84,84,0,0,84,84,0,0,84,84,84,0,84,0,10/25/19 18:55,The main experiment item,yes,Sternbergtask.osexp,C:\Users\Edgar\Documents\Edgar School\Fall 2019\Lab 3-1,no,mono,no,18,no,white,no,yes,768,legacy,72,11,C:/Users/Edgar/Documents/Edgar School/Fall 2019/Lab 3-1/JJ-subject-3.csv,legacy,7 4 2 6 3 5,Kafkaesque Koffka,3.2.8,6,y,0,left,left,left,left,NA,820,56446,5125,820,NA,2,legacy,6,1024,2,48000,-16,experiment,3,odd,5,620078,616488,617857,6112,150566,617864,479505,6131,145439,622084,622910,618872,62582,622084,NA,Sternberg task,76,71016,85,yes,1024
89.53488372,89.53488372,839.7325581,839.7325581,black,experiment,legacy,legacy,legacy,0,uniform,1,undefined,1,left,85,85,85,0,0,85,85,0,0,85,85,85,0,85,0,10/25/19 18:55,The main experiment item,yes,Sternbergtask.osexp,C:\Users\Edgar\Documents\Edgar School\Fall 2019\Lab 3-1,no,mono,no,18,no,white,no,yes,768,legacy,73,11,C:/Users/Edgar/Documents/Edgar School/Fall 2019/Lab 3-1/JJ-subject-3.csv,legacy,4 6 2 5 1,Kafkaesque Koffka,3.2.8,5,y,0,left,left,left,left,NA,1201,56446,5125,1201,NA,2,legacy,5,1024,2,48000,-16,experiment,3,odd,1,626572,622976,624351,6112,150566,624359,479505,6131,145439,628580,629788,625366,62582,628579,NA,Sternberg task,77,72217,86,yes,1024
89.65517241,89.65517241,837.5057471,837.5057471,black,experiment,legacy,legacy,legacy,0,uniform,1,undefined,1,left,86,86,86,0,0,86,86,0,0,86,86,86,0,86,0,10/25/19 18:55,The main experiment item,yes,Sternbergtask.osexp,C:\Users\Edgar\Documents\Edgar School\Fall 2019\Lab 3-1,no,mono,no,18,no,white,no,yes,768,legacy,74,11,C:/Users/Edgar/Documents/Edgar School/Fall 2019/Lab 3-1/JJ-subject-3.csv,legacy,7 1 8 5 6 2,Kafkaesque Koffka,3.2.8,2,y,0,left,left,left,left,NA,646,56446,5125,646,NA,2,legacy,6,1024,2,48000,-16,experiment,3,odd,1,633442,629856,631221,6112,150566,631228,479505,6131,145439,635449,636101,632236,62582,635449,NA,Sternberg task,78,72863,87,yes,1024
89.77272727,89.77272727,842.0340909,842.0340909,black,experiment,legacy,legacy,legacy,0,uniform,1,undefined,1,right,87,87,87,0,0,87,87,0,0,87,87,87,0,87,0,10/25/19 18:55,The main experiment item,yes,Sternbergtask.osexp,C:\Users\Edgar\Documents\Edgar School\Fall 2019\Lab 3-1,no,mono,no,18,no,white,no,yes,768,legacy,75,11,C:/Users/Edgar/Documents/Edgar School/Fall 2019/Lab 3-1/JJ-subject-3.csv,legacy,8 4 3 9,Kafkaesque Koffka,3.2.8,0,n,0,right,left,left,right,NA,1236,56446,5125,1236,NA,2,legacy,4,1024,2,48000,-16,experiment,3,odd,5,639733,636145,637514,6112,150566,637521,479505,6131,145439,641740,642983,638526,62582,641740,NA,Sternberg task,79,74099,88,yes,1024
89.88764045,89.88764045,840.8426966,840.8426966,black,experiment,legacy,legacy,legacy,0,uniform,1,undefined,1,left,88,88,88,0,0,88,88,0,0,88,88,88,0,88,0,10/25/19 18:55,The main experiment item,yes,Sternbergtask.osexp,C:\Users\Edgar\Documents\Edgar School\Fall 2019\Lab 3-1,no,mono,no,18,no,white,no,yes,768,legacy,76,11,C:/Users/Edgar/Documents/Edgar School/Fall 2019/Lab 3-1/JJ-subject-3.csv,legacy,3 2 1 4 7,Kafkaesque Koffka,3.2.8,2,y,0,left,left,left,left,NA,736,56446,5125,736,NA,2,legacy,5,1024,2,48000,-16,experiment,3,odd,2,646637,643038,644415,6112,150566,644424,479505,6131,145439,648643,649386,645431,62582,648643,NA,Sternberg task,80,74835,89,yes,1024
90,90,843.7,843.7,black,experiment,legacy,legacy,legacy,0,uniform,1,undefined,1,right,89,89,89,0,0,89,89,0,0,89,89,89,0,89,0,10/25/19 18:55,The main experiment item,yes,Sternbergtask.osexp,C:\Users\Edgar\Documents\Edgar School\Fall 2019\Lab 3-1,no,mono,no,18,no,white,no,yes,768,legacy,77,11,C:/Users/Edgar/Documents/Edgar School/Fall 2019/Lab 3-1/JJ-subject-3.csv,legacy,7 3 2 8,Kafkaesque Koffka,3.2.8,0,n,0,right,left,left,right,NA,1098,56446,5125,1098,NA,2,legacy,4,1024,2,48000,-16,experiment,3,odd,4,653065,649460,650845,6112,150566,650852,479505,6131,145439,655072,656176,651858,62582,655072,NA,Sternberg task,81,75933,90,yes,1024
90.10989011,90.10989011,842.7032967,842.7032967,black,experiment,legacy,legacy,legacy,0,uniform,1,undefined,1,right,90,90,90,0,0,90,90,0,0,90,90,90,0,90,0,10/25/19 18:55,The main experiment item,yes,Sternbergtask.osexp,C:\Users\Edgar\Documents\Edgar School\Fall 2019\Lab 3-1,no,mono,no,18,no,white,no,yes,768,legacy,78,11,C:/Users/Edgar/Documents/Edgar School/Fall 2019/Lab 3-1/JJ-subject-3.csv,legacy,7 4 2 8 1 9,Kafkaesque Koffka,3.2.8,0,n,0,right,left,left,right,NA,753,56446,5125,753,NA,2,legacy,6,1024,2,48000,-16,experiment,3,odd,5,659803,656216,657580,6112,150566,657589,479505,6131,145439,661811,662572,658597,62582,661810,NA,Sternberg task,82,76686,91,yes,1024
90.2173913,90.2173913,844.4891304,844.4891304,black,experiment,legacy,legacy,legacy,0,uniform,1,undefined,1,right,91,91,91,0,0,91,91,0,0,91,91,91,0,91,0,10/25/19 18:55,The main experiment item,yes,Sternbergtask.osexp,C:\Users\Edgar\Documents\Edgar School\Fall 2019\Lab 3-1,no,mono,no,18,no,white,no,yes,768,legacy,79,11,C:/Users/Edgar/Documents/Edgar School/Fall 2019/Lab 3-1/JJ-subject-3.csv,legacy,3 4 2,Kafkaesque Koffka,3.2.8,0,n,0,right,left,left,right,NA,1007,56446,5125,1007,NA,2,legacy,3,1024,2,48000,-16,experiment,3,odd,5,666222,662641,664001,6112,150566,664008,479505,6131,145439,668229,669241,665016,62582,668228,NA,Sternberg task,83,77693,92,yes,1024
90.32258065,90.32258065,844.0752688,844.0752688,black,experiment,legacy,legacy,legacy,0,uniform,1,undefined,1,right,92,92,92,0,0,92,92,0,0,92,92,92,0,92,0,10/25/19 18:55,The main experiment item,yes,Sternbergtask.osexp,C:\Users\Edgar\Documents\Edgar School\Fall 2019\Lab 3-1,no,mono,no,18,no,white,no,yes,768,legacy,80,11,C:/Users/Edgar/Documents/Edgar School/Fall 2019/Lab 3-1/JJ-subject-3.csv,legacy,5 9 2 3,Kafkaesque Koffka,3.2.8,0,n,0,right,left,left,right,NA,806,56446,5125,806,NA,2,legacy,4,1024,2,48000,-16,experiment,3,odd,8,672897,669306,670676,6112,150566,670684,479505,6131,145439,674904,675716,671691,62582,674903,NA,Sternberg task,84,78499,93,yes,1024
89.36170213,89.36170213,842.2234043,842.2234043,black,experiment,legacy,legacy,legacy,0,uniform,0,undefined,0,left,93,93,93,0,0,93,93,0,0,93,93,93,0,93,0,10/25/19 18:55,The main experiment item,yes,Sternbergtask.osexp,C:\Users\Edgar\Documents\Edgar School\Fall 2019\Lab 3-1,no,mono,no,18,no,white,no,yes,768,legacy,81,11,C:/Users/Edgar/Documents/Edgar School/Fall 2019/Lab 3-1/JJ-subject-3.csv,legacy,6 7 9 3 1 2,Kafkaesque Koffka,3.2.8,1,y,0,right,left,left,right,NA,670,56446,5125,670,NA,2,legacy,6,1024,2,48000,-16,experiment,3,odd,6,679368,675775,677149,6112,150566,677156,479505,6131,145439,681375,682050,678162,62582,681375,NA,Sternberg task,84,79169,94,yes,1024
89.47368421,89.47368421,847.4,847.4,black,experiment,legacy,legacy,legacy,0,uniform,1,undefined,1,right,94,94,94,0,0,94,94,0,0,94,94,94,0,94,0,10/25/19 18:55,The main experiment item,yes,Sternbergtask.osexp,C:\Users\Edgar\Documents\Edgar School\Fall 2019\Lab 3-1,no,mono,no,18,no,white,no,yes,768,legacy,82,11,C:/Users/Edgar/Documents/Edgar School/Fall 2019/Lab 3-1/JJ-subject-3.csv,legacy,6 7 5 9,Kafkaesque Koffka,3.2.8,0,n,0,right,left,left,right,NA,1334,56446,5125,1334,NA,2,legacy,4,1024,2,48000,-16,experiment,3,odd,2,685704,675775,683484,6112,150566,683492,682122,6131,145439,687712,689052,684499,62582,687712,NA,Sternberg task,85,80503,95,yes,1024
89.58333333,89.58333333,846.4166667,846.4166667,black,experiment,legacy,legacy,legacy,0,uniform,1,undefined,1,left,95,95,95,0,0,95,95,0,0,95,95,95,0,95,0,10/25/19 18:55,The main experiment item,yes,Sternbergtask.osexp,C:\Users\Edgar\Documents\Edgar School\Fall 2019\Lab 3-1,no,mono,no,18,no,white,no,yes,768,legacy,83,11,C:/Users/Edgar/Documents/Edgar School/Fall 2019/Lab 3-1/JJ-subject-3.csv,legacy,8 9 5 7 1 6,Kafkaesque Koffka,3.2.8,4,y,0,left,left,left,left,NA,753,56446,5125,753,NA,2,legacy,6,1024,2,48000,-16,experiment,3,odd,7,692701,689102,690481,6112,150566,690490,682122,6131,145439,694709,695467,691496,62582,694709,NA,Sternberg task,86,81256,96,yes,1024
89.69072165,89.69072165,846.1340206,846.1340206,black,experiment,legacy,legacy,legacy,0,uniform,1,undefined,1,right,96,96,96,0,0,96,96,0,0,96,96,96,0,96,0,10/25/19 18:55,The main experiment item,yes,Sternbergtask.osexp,C:\Users\Edgar\Documents\Edgar School\Fall 2019\Lab 3-1,no,mono,no,18,no,white,no,yes,768,legacy,84,11,C:/Users/Edgar/Documents/Edgar School/Fall 2019/Lab 3-1/JJ-subject-3.csv,legacy,2 3 8 5 6 7,Kafkaesque Koffka,3.2.8,0,n,0,right,left,left,right,NA,819,56446,5125,819,NA,2,legacy,6,1024,2,48000,-16,experiment,3,odd,1,699146,695522,696925,6112,150566,696933,682122,6131,145439,701154,701981,697939,62582,701153,NA,Sternberg task,87,82075,97,yes,1024
89.79591837,89.79591837,844.3571429,844.3571429,black,experiment,legacy,legacy,legacy,0,uniform,1,undefined,1,right,97,97,97,0,0,97,97,0,0,97,97,97,0,97,0,10/25/19 18:55,The main experiment item,yes,Sternbergtask.osexp,C:\Users\Edgar\Documents\Edgar School\Fall 2019\Lab 3-1,no,mono,no,18,no,white,no,yes,768,legacy,85,11,C:/Users/Edgar/Documents/Edgar School/Fall 2019/Lab 3-1/JJ-subject-3.csv,legacy,1 4 3 6 5,Kafkaesque Koffka,3.2.8,0,n,0,right,left,left,right,NA,672,56446,5125,672,NA,2,legacy,5,1024,2,48000,-16,experiment,3,odd,8,705720,702049,703497,6112,150566,703505,682122,6131,145439,707727,708405,704512,62582,707727,NA,Sternberg task,88,82747,98,yes,1024
88.88888889,88.88888889,846.020202,846.020202,black,experiment,legacy,legacy,legacy,0,uniform,0,undefined,0,left,98,98,98,0,0,98,98,0,0,98,98,98,0,98,0,10/25/19 18:55,The main experiment item,yes,Sternbergtask.osexp,C:\Users\Edgar\Documents\Edgar School\Fall 2019\Lab 3-1,no,mono,no,18,no,white,no,yes,768,legacy,86,11,C:/Users/Edgar/Documents/Edgar School/Fall 2019/Lab 3-1/JJ-subject-3.csv,legacy,4 7 6 8 2 3,Kafkaesque Koffka,3.2.8,6,y,0,right,left,left,right,NA,1009,56446,5125,1009,NA,2,legacy,6,1024,2,48000,-16,experiment,3,odd,3,712236,708638,710015,6112,150566,710023,682122,6131,145439,714242,715258,711029,62582,714241,NA,Sternberg task,88,83756,99,yes,1024
88,88,845.82,845.82,black,experiment,legacy,legacy,legacy,0,uniform,0,undefined,0,right,99,99,99,0,0,99,99,0,0,99,99,99,0,99,0,10/25/19 18:55,The main experiment item,yes,Sternbergtask.osexp,C:\Users\Edgar\Documents\Edgar School\Fall 2019\Lab 3-1,no,mono,no,18,no,white,no,yes,768,legacy,87,11,C:/Users/Edgar/Documents/Edgar School/Fall 2019/Lab 3-1/JJ-subject-3.csv,legacy,1 7 5 2 9,Kafkaesque Koffka,3.2.8,0,n,0,left,left,left,left,NA,826,56446,5125,826,NA,2,legacy,5,1024,2,48000,-16,experiment,3,odd,3,718888,708638,716667,6112,150566,716675,715305,6131,145439,720895,721727,717682,62582,720894,NA,Sternberg task,88,84582,100,yes,1024
88.11881188,88.11881188,843.5049505,843.5049505,black,experiment,legacy,legacy,legacy,0,uniform,1,undefined,1,left,100,100,100,0,0,100,100,0,0,100,100,100,0,100,0,10/25/19 18:55,The main experiment item,yes,Sternbergtask.osexp,C:\Users\Edgar\Documents\Edgar School\Fall 2019\Lab 3-1,no,mono,no,18,no,white,no,yes,768,legacy,88,11,C:/Users/Edgar/Documents/Edgar School/Fall 2019/Lab 3-1/JJ-subject-3.csv,legacy,1 4 9 3 2 5,Kafkaesque Koffka,3.2.8,3,y,0,left,left,left,left,NA,612,56446,5125,612,NA,2,legacy,6,1024,2,48000,-16,experiment,3,odd,9,725401,708638,723180,6112,150566,723187,721795,6131,145439,727408,728028,724194,62582,727408,NA,Sternberg task,89,85194,101,yes,1024
88.23529412,88.23529412,841.7647059,841.7647059,black,experiment,legacy,legacy,legacy,0,uniform,1,undefined,1,right,101,101,101,0,0,101,101,0,0,101,101,101,0,101,0,10/25/19 18:55,The main experiment item,yes,Sternbergtask.osexp,C:\Users\Edgar\Documents\Edgar School\Fall 2019\Lab 3-1,no,mono,no,18,no,white,no,yes,768,legacy,89,11,C:/Users/Edgar/Documents/Edgar School/Fall 2019/Lab 3-1/JJ-subject-3.csv,legacy,3 4 9 6 7 8,Kafkaesque Koffka,3.2.8,0,n,0,right,left,left,right,NA,666,56446,5125,666,NA,2,legacy,6,1024,2,48000,-16,experiment,3,odd,2,731688,728099,729467,6112,150566,729475,721795,6131,145439,733693,734365,730481,62582,733693,NA,Sternberg task,90,85860,102,yes,1024
88.34951456,88.34951456,840.1262136,840.1262136,black,experiment,legacy,legacy,legacy,0,uniform,1,undefined,1,right,102,102,102,0,0,102,102,0,0,102,102,102,0,102,0,10/25/19 18:55,The main experiment item,yes,Sternbergtask.osexp,C:\Users\Edgar\Documents\Edgar School\Fall 2019\Lab 3-1,no,mono,no,18,no,white,no,yes,768,legacy,90,11,C:/Users/Edgar/Documents/Edgar School/Fall 2019/Lab 3-1/JJ-subject-3.csv,legacy,6 9 5,Kafkaesque Koffka,3.2.8,0,n,0,right,left,left,right,NA,673,56446,5125,673,NA,2,legacy,3,1024,2,48000,-16,experiment,3,odd,8,738007,734431,735786,6112,150566,735794,721795,6131,145439,740014,740694,736799,62582,740014,NA,Sternberg task,91,86533,103,yes,1024
88.46153846,88.46153846,836.5673077,836.5673077,black,experiment,legacy,legacy,legacy,0,uniform,1,undefined,1,right,103,103,103,0,0,103,103,0,0,103,103,103,0,103,0,10/25/19 18:55,The main experiment item,yes,Sternbergtask.osexp,C:\Users\Edgar\Documents\Edgar School\Fall 2019\Lab 3-1,no,mono,no,18,no,white,no,yes,768,legacy,91,11,C:/Users/Edgar/Documents/Edgar School/Fall 2019/Lab 3-1/JJ-subject-3.csv,legacy,9,Kafkaesque Koffka,3.2.8,0,n,0,right,left,left,right,NA,470,56446,5125,470,NA,2,legacy,1,1024,2,48000,-16,experiment,3,odd,6,744360,740754,742141,6112,150566,742148,721795,6131,145439,746366,746842,743154,62582,746366,NA,Sternberg task,92,87003,104,yes,1024
88.57142857,88.57142857,835.7904762,835.7904762,black,experiment,legacy,legacy,legacy,0,uniform,1,undefined,1,right,104,104,104,0,0,104,104,0,0,104,104,104,0,104,0,10/25/19 18:55,The main experiment item,yes,Sternbergtask.osexp,C:\Users\Edgar\Documents\Edgar School\Fall 2019\Lab 3-1,no,mono,no,18,no,white,no,yes,768,legacy,92,11,C:/Users/Edgar/Documents/Edgar School/Fall 2019/Lab 3-1/JJ-subject-3.csv,legacy,1 7 8 3 9,Kafkaesque Koffka,3.2.8,0,n,0,right,left,left,right,NA,755,56446,5125,755,NA,2,legacy,5,1024,2,48000,-16,experiment,3,odd,2,750505,746913,748283,6112,150566,748292,721795,6131,145439,752513,753275,749299,62582,752513,NA,Sternberg task,93,87758,105,yes,1024
88.67924528,88.67924528,837.0471698,837.0471698,black,experiment,legacy,legacy,legacy,0,uniform,1,undefined,1,left,105,105,105,0,0,105,105,0,0,105,105,105,0,105,0,10/25/19 18:55,The main experiment item,yes,Sternbergtask.osexp,C:\Users\Edgar\Documents\Edgar School\Fall 2019\Lab 3-1,no,mono,no,18,no,white,no,yes,768,legacy,93,11,C:/Users/Edgar/Documents/Edgar School/Fall 2019/Lab 3-1/JJ-subject-3.csv,legacy,3 5 7 1,Kafkaesque Koffka,3.2.8,3,y,0,left,left,left,left,NA,969,56446,5125,969,NA,2,legacy,4,1024,2,48000,-16,experiment,3,odd,7,756927,753336,754705,6112,150566,754713,721795,6131,145439,758935,759912,755721,62582,758934,NA,Sternberg task,94,88727,106,yes,1024
88.78504673,88.78504673,846.7943925,846.7943925,black,experiment,legacy,legacy,legacy,0,uniform,1,undefined,1,right,106,106,106,0,0,106,106,0,0,106,106,106,0,106,0,10/25/19 18:55,The main experiment item,yes,Sternbergtask.osexp,C:\Users\Edgar\Documents\Edgar School\Fall 2019\Lab 3-1,no,mono,no,18,no,white,no,yes,768,legacy,94,11,C:/Users/Edgar/Documents/Edgar School/Fall 2019/Lab 3-1/JJ-subject-3.csv,legacy,8 4 3 5,Kafkaesque Koffka,3.2.8,0,n,0,right,left,left,right,NA,1880,56446,5125,1880,NA,2,legacy,4,1024,2,48000,-16,experiment,3,odd,6,763568,759982,761348,6112,150566,761356,721795,6131,145439,765575,767460,762362,62582,765574,NA,Sternberg task,95,90607,107,yes,1024
88.88888889,88.88888889,846.7314815,846.7314815,black,experiment,legacy,legacy,legacy,0,uniform,1,undefined,1,left,107,107,107,0,0,107,107,0,0,107,107,107,0,107,0,10/25/19 18:55,The main experiment item,yes,Sternbergtask.osexp,C:\Users\Edgar\Documents\Edgar School\Fall 2019\Lab 3-1,no,mono,no,18,no,white,no,yes,768,legacy,95,11,C:/Users/Edgar/Documents/Edgar School/Fall 2019/Lab 3-1/JJ-subject-3.csv,legacy,5 7 3 6 2,Kafkaesque Koffka,3.2.8,5,y,0,left,left,left,left,NA,840,56446,5125,840,NA,2,legacy,5,1024,2,48000,-16,experiment,3,odd,2,771117,767526,768897,6112,150566,768903,721795,6131,145439,773124,773969,769911,62582,773123,NA,Sternberg task,96,91447,108,yes,1024
88.99082569,88.99082569,845.2110092,845.2110092,black,experiment,legacy,legacy,legacy,0,uniform,1,undefined,1,left,108,108,108,0,0,108,108,0,0,108,108,108,0,108,0,10/25/19 18:55,The main experiment item,yes,Sternbergtask.osexp,C:\Users\Edgar\Documents\Edgar School\Fall 2019\Lab 3-1,no,mono,no,18,no,white,no,yes,768,legacy,96,11,C:/Users/Edgar/Documents/Edgar School/Fall 2019/Lab 3-1/JJ-subject-3.csv,legacy,4 6 5 8,Kafkaesque Koffka,3.2.8,1,y,0,left,left,left,left,NA,681,56446,5125,681,NA,2,legacy,4,1024,2,48000,-16,experiment,3,odd,4,777647,774028,775426,6112,150566,775434,721795,6131,145439,779656,780343,776440,62582,779656,NA,Sternberg task,97,92128,109,yes,1024
88.18181818,88.18181818,843.6,843.6,black,experiment,legacy,legacy,legacy,0,uniform,0,undefined,0,left,109,109,109,0,0,109,109,0,0,109,109,109,0,109,0,10/25/19 18:55,The main experiment item,yes,Sternbergtask.osexp,C:\Users\Edgar\Documents\Edgar School\Fall 2019\Lab 3-1,no,mono,no,18,no,white,no,yes,768,legacy,97,11,C:/Users/Edgar/Documents/Edgar School/Fall 2019/Lab 3-1/JJ-subject-3.csv,legacy,7 1 3,Kafkaesque Koffka,3.2.8,2,y,0,right,left,left,right,NA,668,56446,5125,668,NA,2,legacy,3,1024,2,48000,-16,experiment,3,odd,1,784067,780407,781839,6112,150566,781852,721795,6131,145439,786074,786749,782860,62582,786073,NA,Sternberg task,97,92796,110,yes,1024
88.28828829,88.28828829,844.7117117,844.7117117,black,experiment,legacy,legacy,legacy,0,uniform,1,undefined,1,left,110,110,110,0,0,110,110,0,0,110,110,110,0,110,0,10/25/19 18:55,The main experiment item,yes,Sternbergtask.osexp,C:\Users\Edgar\Documents\Edgar School\Fall 2019\Lab 3-1,no,mono,no,18,no,white,no,yes,768,legacy,98,11,C:/Users/Edgar/Documents/Edgar School/Fall 2019/Lab 3-1/JJ-subject-3.csv,legacy,7 2 3,Kafkaesque Koffka,3.2.8,3,y,0,left,left,left,left,NA,967,56446,5125,967,NA,2,legacy,3,1024,2,48000,-16,experiment,3,odd,3,790426,780407,788208,6112,150566,788214,786831,6131,145439,792434,793409,789220,62582,792434,NA,Sternberg task,98,93763,111,yes,1024
88.39285714,88.39285714,848.6875,848.6875,black,experiment,legacy,legacy,legacy,0,uniform,1,undefined,1,right,111,111,111,0,0,111,111,0,0,111,111,111,0,111,0,10/25/19 18:55,The main experiment item,yes,Sternbergtask.osexp,C:\Users\Edgar\Documents\Edgar School\Fall 2019\Lab 3-1,no,mono,no,18,no,white,no,yes,768,legacy,99,11,C:/Users/Edgar/Documents/Edgar School/Fall 2019/Lab 3-1/JJ-subject-3.csv,legacy,7 8 6 1,Kafkaesque Koffka,3.2.8,0,n,0,right,left,left,right,NA,1290,56446,5125,1290,NA,2,legacy,4,1024,2,48000,-16,experiment,3,odd,3,797102,793453,794881,6112,150566,794890,786831,6131,145439,799108,800405,795896,62582,799108,NA,Sternberg task,99,95053,112,yes,1024
87.61061947,87.61061947,848.2477876,848.2477876,black,experiment,legacy,legacy,legacy,0,uniform,0,undefined,0,left,112,112,112,0,0,112,112,0,0,112,112,112,0,112,0,10/25/19 18:55,The main experiment item,yes,Sternbergtask.osexp,C:\Users\Edgar\Documents\Edgar School\Fall 2019\Lab 3-1,no,mono,no,18,no,white,no,yes,768,legacy,100,11,C:/Users/Edgar/Documents/Edgar School/Fall 2019/Lab 3-1/JJ-subject-3.csv,legacy,4 1 5,Kafkaesque Koffka,3.2.8,2,y,0,right,left,left,right,NA,799,56446,5125,799,NA,2,legacy,3,1024,2,48000,-16,experiment,3,odd,1,804030,800442,801808,6112,150566,801815,786831,6131,145439,806036,806841,802822,62582,806036,NA,Sternberg task,99,95852,113,yes,1024
87.71929825,87.71929825,854.9824561,854.9824561,black,experiment,legacy,legacy,legacy,0,uniform,1,undefined,1,right,113,113,113,0,0,113,113,0,0,113,113,113,0,113,0,10/25/19 18:55,The main experiment item,yes,Sternbergtask.osexp,C:\Users\Edgar\Documents\Edgar School\Fall 2019\Lab 3-1,no,mono,no,18,no,white,no,yes,768,legacy,101,11,C:/Users/Edgar/Documents/Edgar School/Fall 2019/Lab 3-1/JJ-subject-3.csv,legacy,8 5 4 2 9 6,Kafkaesque Koffka,3.2.8,0,n,0,right,left,left,right,NA,1616,56446,5125,1616,NA,2,legacy,6,1024,2,48000,-16,experiment,3,odd,3,810548,800442,808329,6112,150566,808336,806946,6131,145439,812555,814178,809342,62582,812555,NA,Sternberg task,100,97468,114,yes,1024
86.95652174,86.95652174,859.6,859.6,black,experiment,legacy,legacy,legacy,0,uniform,0,undefined,0,left,114,114,114,0,0,114,114,0,0,114,114,114,0,114,0,10/25/19 18:55,The main experiment item,yes,Sternbergtask.osexp,C:\Users\Edgar\Documents\Edgar School\Fall 2019\Lab 3-1,no,mono,no,18,no,white,no,yes,768,legacy,102,11,C:/Users/Edgar/Documents/Edgar School/Fall 2019/Lab 3-1/JJ-subject-3.csv,legacy,3 9 6 2,Kafkaesque Koffka,3.2.8,4,y,0,right,left,left,right,NA,1386,56446,5125,1386,NA,2,legacy,4,1024,2,48000,-16,experiment,3,odd,2,817816,814235,815594,6112,150566,815602,806946,6131,145439,819823,821217,816608,62582,819822,NA,Sternberg task,100,98854,115,yes,1024
87.06896552,87.06896552,857.9741379,857.9741379,black,experiment,legacy,legacy,legacy,0,uniform,1,undefined,1,right,115,115,115,0,0,115,115,0,0,115,115,115,0,115,0,10/25/19 18:55,The main experiment item,yes,Sternbergtask.osexp,C:\Users\Edgar\Documents\Edgar School\Fall 2019\Lab 3-1,no,mono,no,18,no,white,no,yes,768,legacy,103,11,C:/Users/Edgar/Documents/Edgar School/Fall 2019/Lab 3-1/JJ-subject-3.csv,legacy,2 8 9 4 1,Kafkaesque Koffka,3.2.8,0,n,0,right,left,left,right,NA,671,56446,5125,671,NA,2,legacy,5,1024,2,48000,-16,experiment,3,odd,5,824873,814235,822648,6112,150566,822655,821279,6131,145439,826880,827558,823662,62582,826880,NA,Sternberg task,101,99525,116,yes,1024
87.17948718,87.17948718,861.0512821,861.0512821,black,experiment,legacy,legacy,legacy,0,uniform,1,undefined,1,right,116,116,116,0,0,116,116,0,0,116,116,116,0,116,0,10/25/19 18:55,The main experiment item,yes,Sternbergtask.osexp,C:\Users\Edgar\Documents\Edgar School\Fall 2019\Lab 3-1,no,mono,no,18,no,white,no,yes,768,legacy,104,11,C:/Users/Edgar/Documents/Edgar School/Fall 2019/Lab 3-1/JJ-subject-3.csv,legacy,6 3 1 7 9 8,Kafkaesque Koffka,3.2.8,0,n,0,right,left,left,right,NA,1218,56446,5125,1218,NA,2,legacy,6,1024,2,48000,-16,experiment,3,odd,4,831219,827614,829000,6112,150566,829007,821279,6131,145439,833228,834455,830013,62582,833228,NA,Sternberg task,102,100743,117,yes,1024
87.28813559,87.28813559,866.3898305,866.3898305,black,experiment,legacy,legacy,legacy,0,uniform,1,undefined,1,right,117,117,117,0,0,117,117,0,0,117,117,117,0,117,0,10/25/19 18:55,The main experiment item,yes,Sternbergtask.osexp,C:\Users\Edgar\Documents\Edgar School\Fall 2019\Lab 3-1,no,mono,no,18,no,white,no,yes,768,legacy,105,11,C:/Users/Edgar/Documents/Edgar School/Fall 2019/Lab 3-1/JJ-subject-3.csv,legacy,9 5 3 2 8 6,Kafkaesque Koffka,3.2.8,0,n,0,right,left,left,right,NA,1491,56446,5125,1491,NA,2,legacy,6,1024,2,48000,-16,experiment,3,odd,7,838159,834503,835936,6112,150566,835944,821279,6131,145439,840166,841664,836951,62582,840166,NA,Sternberg task,103,102234,118,yes,1024
87.39495798,87.39495798,864.8067227,864.8067227,black,experiment,legacy,legacy,legacy,0,uniform,1,undefined,1,right,118,118,118,0,0,118,118,0,0,118,118,118,0,118,0,10/25/19 18:55,The main experiment item,yes,Sternbergtask.osexp,C:\Users\Edgar\Documents\Edgar School\Fall 2019\Lab 3-1,no,mono,no,18,no,white,no,yes,768,legacy,106,11,C:/Users/Edgar/Documents/Edgar School/Fall 2019/Lab 3-1/JJ-subject-3.csv,legacy,4 2 6 9,Kafkaesque Koffka,3.2.8,0,n,0,right,left,left,right,NA,678,56446,5125,678,NA,2,legacy,4,1024,2,48000,-16,experiment,3,odd,7,845629,842044,843409,6112,150566,843417,821279,6131,145439,847635,848321,844423,62582,847634,NA,Sternberg task,104,102912,119,yes,1024
87.5,87.5,863.0583333,863.0583333,black,experiment,legacy,legacy,legacy,0,uniform,1,undefined,1,right,119,119,119,0,0,119,119,0,0,119,119,119,0,119,0,10/25/19 18:55,The main experiment item,yes,Sternbergtask.osexp,C:\Users\Edgar\Documents\Edgar School\Fall 2019\Lab 3-1,no,mono,no,18,no,white,no,yes,768,legacy,107,11,C:/Users/Edgar/Documents/Edgar School/Fall 2019/Lab 3-1/JJ-subject-3.csv,legacy,2 6 4 3 9,Kafkaesque Koffka,3.2.8,0,n,0,right,left,left,right,NA,655,56446,5125,655,NA,2,legacy,5,1024,2,48000,-16,experiment,3,odd,1,851957,848397,849736,6112,150566,849742,821279,6131,145439,853966,854628,850750,62582,853966,NA,Sternberg task,105,103567,120,yes,1024
87.60330579,87.60330579,861.677686,861.677686,black,experiment,legacy,legacy,legacy,0,uniform,1,undefined,1,left,120,120,120,0,0,120,120,0,0,120,120,120,0,120,0,10/25/19 18:55,The main experiment item,yes,Sternbergtask.osexp,C:\Users\Edgar\Documents\Edgar School\Fall 2019\Lab 3-1,no,mono,no,18,no,white,no,yes,768,legacy,108,11,C:/Users/Edgar/Documents/Edgar School/Fall 2019/Lab 3-1/JJ-subject-3.csv,legacy,3 5 9 6 2 4,Kafkaesque Koffka,3.2.8,1,y,0,left,left,left,left,NA,696,56446,5125,696,NA,2,legacy,6,1024,2,48000,-16,experiment,3,odd,3,858296,854685,856075,6112,150566,856082,821279,6131,145439,860303,861006,857089,62582,860302,NA,Sternberg task,106,104263,121,yes,1024
87.70491803,87.70491803,861.1885246,861.1885246,black,experiment,legacy,legacy,legacy,0,uniform,1,undefined,1,left,121,121,121,0,0,121,121,0,0,121,121,121,0,121,0,10/25/19 18:55,The main experiment item,yes,Sternbergtask.osexp,C:\Users\Edgar\Documents\Edgar School\Fall 2019\Lab 3-1,no,mono,no,18,no,white,no,yes,768,legacy,109,11,C:/Users/Edgar/Documents/Edgar School/Fall 2019/Lab 3-1/JJ-subject-3.csv,legacy,6 2,Kafkaesque Koffka,3.2.8,1,y,0,left,left,left,left,NA,802,56446,5125,802,NA,2,legacy,2,1024,2,48000,-16,experiment,3,odd,6,864667,861086,862447,6112,150566,862454,821279,6131,145439,866674,867483,863461,62582,866674,NA,Sternberg task,107,105065,122,yes,1024
87.80487805,87.80487805,860.2926829,860.2926829,black,experiment,legacy,legacy,legacy,0,uniform,1,undefined,1,left,122,122,122,0,0,122,122,0,0,122,122,122,0,122,0,10/25/19 18:55,The main experiment item,yes,Sternbergtask.osexp,C:\Users\Edgar\Documents\Edgar School\Fall 2019\Lab 3-1,no,mono,no,18,no,white,no,yes,768,legacy,110,11,C:/Users/Edgar/Documents/Edgar School/Fall 2019/Lab 3-1/JJ-subject-3.csv,legacy,9 3 8 2 1 4,Kafkaesque Koffka,3.2.8,3,y,0,left,left,left,left,NA,751,56446,5125,751,NA,2,legacy,6,1024,2,48000,-16,experiment,3,odd,8,871112,867542,868889,6112,150566,868901,821279,6131,145439,873122,873882,869907,62582,873121,NA,Sternberg task,108,105816,123,yes,1024
87.90322581,87.90322581,863.9677419,863.9677419,black,experiment,legacy,legacy,legacy,0,uniform,1,undefined,1,left,123,123,123,0,0,123,123,0,0,123,123,123,0,123,0,10/25/19 18:55,The main experiment item,yes,Sternbergtask.osexp,C:\Users\Edgar\Documents\Edgar School\Fall 2019\Lab 3-1,no,mono,no,18,no,white,no,yes,768,legacy,111,11,C:/Users/Edgar/Documents/Edgar School/Fall 2019/Lab 3-1/JJ-subject-3.csv,legacy,6 8 9 3 4 9,Kafkaesque Koffka,3.2.8,5,y,0,left,left,left,left,NA,1316,56446,5125,1316,NA,2,legacy,6,1024,2,48000,-16,experiment,3,odd,4,877533,873943,875316,6112,150566,875322,821279,6131,145439,879539,880863,876328,62582,879539,NA,Sternberg task,109,107132,124,yes,1024
88,88,863.328,863.328,black,experiment,legacy,legacy,legacy,0,uniform,1,undefined,1,left,124,124,124,0,0,124,124,0,0,124,124,124,0,124,0,10/25/19 18:55,The main experiment item,yes,Sternbergtask.osexp,C:\Users\Edgar\Documents\Edgar School\Fall 2019\Lab 3-1,no,mono,no,18,no,white,no,yes,768,legacy,112,11,C:/Users/Edgar/Documents/Edgar School/Fall 2019/Lab 3-1/JJ-subject-3.csv,legacy,7,Kafkaesque Koffka,3.2.8,1,y,0,left,left,left,left,NA,784,56446,5125,784,NA,2,legacy,1,1024,2,48000,-16,experiment,3,odd,7,884512,880934,882292,6112,150566,882299,821279,6131,145439,886520,887311,883305,62582,886520,NA,Sternberg task,110,107916,125,yes,1024
88.0952381,88.0952381,868.1428571,868.1428571,black,experiment,legacy,legacy,legacy,0,uniform,1,undefined,1,right,125,125,125,0,0,125,125,0,0,125,125,125,0,125,0,10/25/19 18:55,The main experiment item,yes,Sternbergtask.osexp,C:\Users\Edgar\Documents\Edgar School\Fall 2019\Lab 3-1,no,mono,no,18,no,white,no,yes,768,legacy,113,11,C:/Users/Edgar/Documents/Edgar School/Fall 2019/Lab 3-1/JJ-subject-3.csv,legacy,6 9 7 3 8 2,Kafkaesque Koffka,3.2.8,0,n,0,right,left,left,right,NA,1470,56446,5125,1470,NA,2,legacy,6,1024,2,48000,-16,experiment,3,odd,5,890959,887370,888738,6112,150566,888746,821279,6131,145439,892966,894442,889752,62582,892966,NA,Sternberg task,111,109386,126,yes,1024
88.18897638,88.18897638,869.0551181,869.0551181,black,experiment,legacy,legacy,legacy,0,uniform,1,undefined,1,right,126,126,126,0,0,126,126,0,0,126,126,126,0,126,0,10/25/19 18:55,The main experiment item,yes,Sternbergtask.osexp,C:\Users\Edgar\Documents\Edgar School\Fall 2019\Lab 3-1,no,mono,no,18,no,white,no,yes,768,legacy,114,11,C:/Users/Edgar/Documents/Edgar School/Fall 2019/Lab 3-1/JJ-subject-3.csv,legacy,1 5 3 2 8,Kafkaesque Koffka,3.2.8,0,n,0,right,left,left,right,NA,984,56446,5125,984,NA,2,legacy,5,1024,2,48000,-16,experiment,3,odd,4,898138,894512,895916,6112,150566,895924,821279,6131,145439,900147,901139,896931,62582,900146,NA,Sternberg task,112,110370,127,yes,1024
88.28125,88.28125,867.609375,867.609375,black,experiment,legacy,legacy,legacy,0,uniform,1,undefined,1,left,127,127,127,0,0,127,127,0,0,127,127,127,0,127,0,10/25/19 18:55,The main experiment item,yes,Sternbergtask.osexp,C:\Users\Edgar\Documents\Edgar School\Fall 2019\Lab 3-1,no,mono,no,18,no,white,no,yes,768,legacy,115,11,C:/Users/Edgar/Documents/Edgar School/Fall 2019/Lab 3-1/JJ-subject-3.csv,legacy,2 5 4 8 7,Kafkaesque Koffka,3.2.8,3,y,0,left,left,left,left,NA,684,56446,5125,684,NA,2,legacy,5,1024,2,48000,-16,experiment,3,odd,4,904789,901215,902564,6112,150566,902573,821279,6131,145439,906797,907490,903582,62582,906796,NA,Sternberg task,113,111054,128,yes,1024
88.37209302,88.37209302,868.6356589,868.6356589,black,experiment,legacy,legacy,legacy,0,uniform,1,undefined,1,left,128,128,128,0,0,128,128,0,0,128,128,128,0,128,0,10/25/19 18:55,The main experiment item,yes,Sternbergtask.osexp,C:\Users\Edgar\Documents\Edgar School\Fall 2019\Lab 3-1,no,mono,no,18,no,white,no,yes,768,legacy,116,11,C:/Users/Edgar/Documents/Edgar School/Fall 2019/Lab 3-1/JJ-subject-3.csv,legacy,8 1 6,Kafkaesque Koffka,3.2.8,3,y,0,left,left,left,left,NA,1000,56446,5125,1000,NA,2,legacy,3,1024,2,48000,-16,experiment,3,odd,6,911123,907550,908903,6112,150566,908911,821279,6131,145439,913132,914140,909918,62582,913132,NA,Sternberg task,114,112054,129,yes,1024
88.46153846,88.46153846,867.5769231,867.5769231,black,experiment,legacy,legacy,legacy,0,uniform,1,undefined,1,left,129,129,129,0,0,129,129,0,0,129,129,129,0,129,0,10/25/19 18:55,The main experiment item,yes,Sternbergtask.osexp,C:\Users\Edgar\Documents\Edgar School\Fall 2019\Lab 3-1,no,mono,no,18,no,white,no,yes,768,legacy,117,11,C:/Users/Edgar/Documents/Edgar School/Fall 2019/Lab 3-1/JJ-subject-3.csv,legacy,6 7 8 5,Kafkaesque Koffka,3.2.8,3,y,0,left,left,left,left,NA,731,56446,5125,731,NA,2,legacy,4,1024,2,48000,-16,experiment,3,odd,8,917811,914206,915590,6112,150566,915599,821279,6131,145439,919817,920555,916605,62582,919817,NA,Sternberg task,115,112785,130,yes,1024
88.54961832,88.54961832,865.778626,865.778626,black,experiment,legacy,legacy,legacy,0,uniform,1,undefined,1,right,130,130,130,0,0,130,130,0,0,130,130,130,0,130,0,10/25/19 18:55,The main experiment item,yes,Sternbergtask.osexp,C:\Users\Edgar\Documents\Edgar School\Fall 2019\Lab 3-1,no,mono,no,18,no,white,no,yes,768,legacy,118,11,C:/Users/Edgar/Documents/Edgar School/Fall 2019/Lab 3-1/JJ-subject-3.csv,legacy,1,Kafkaesque Koffka,3.2.8,0,n,0,right,left,left,right,NA,632,56446,5125,632,NA,2,legacy,1,1024,2,48000,-16,experiment,3,odd,7,924210,920617,921987,6112,150566,921994,821279,6131,145439,926217,926858,923003,62582,926217,NA,Sternberg task,116,113417,131,yes,1024
88.63636364,88.63636364,865.7878788,865.7878788,black,experiment,legacy,legacy,legacy,0,uniform,1,undefined,1,left,131,131,131,0,0,131,131,0,0,131,131,131,0,131,0,10/25/19 18:55,The main experiment item,yes,Sternbergtask.osexp,C:\Users\Edgar\Documents\Edgar School\Fall 2019\Lab 3-1,no,mono,no,18,no,white,no,yes,768,legacy,119,11,C:/Users/Edgar/Documents/Edgar School/Fall 2019/Lab 3-1/JJ-subject-3.csv,legacy,9 1 6 7 8,Kafkaesque Koffka,3.2.8,1,y,0,left,left,left,left,NA,867,56446,5125,867,NA,2,legacy,5,1024,2,48000,-16,experiment,3,odd,9,930492,926920,928274,6112,150566,928281,821279,6131,145439,932502,933376,929286,62582,932501,NA,Sternberg task,117,114284,132,yes,1024
87.96992481,87.96992481,866.6090226,866.6090226,black,experiment,legacy,legacy,legacy,0,uniform,0,undefined,0,right,132,132,132,0,0,132,132,0,0,132,132,132,0,132,0,10/25/19 18:55,The main experiment item,yes,Sternbergtask.osexp,C:\Users\Edgar\Documents\Edgar School\Fall 2019\Lab 3-1,no,mono,no,18,no,white,no,yes,768,legacy,120,11,C:/Users/Edgar/Documents/Edgar School/Fall 2019/Lab 3-1/JJ-subject-3.csv,legacy,9 7 4 5 8,Kafkaesque Koffka,3.2.8,0,n,0,left,left,left,left,NA,975,56446,5125,975,NA,2,legacy,5,1024,2,48000,-16,experiment,3,odd,6,937010,933421,934788,6112,150566,934797,821279,6131,145439,939017,940000,935803,62582,939017,NA,Sternberg task,117,115259,133,yes,1024
88.05970149,88.05970149,866.4925373,866.4925373,black,experiment,legacy,legacy,legacy,0,uniform,1,undefined,1,left,133,133,133,0,0,133,133,0,0,133,133,133,0,133,0,10/25/19 18:55,The main experiment item,yes,Sternbergtask.osexp,C:\Users\Edgar\Documents\Edgar School\Fall 2019\Lab 3-1,no,mono,no,18,no,white,no,yes,768,legacy,121,11,C:/Users/Edgar/Documents/Edgar School/Fall 2019/Lab 3-1/JJ-subject-3.csv,legacy,8 9 6 1,Kafkaesque Koffka,3.2.8,2,y,0,left,left,left,left,NA,851,56446,5125,851,NA,2,legacy,4,1024,2,48000,-16,experiment,3,odd,9,943655,933421,941435,6112,150566,941442,940077,6131,145439,945661,946518,942449,62582,945661,NA,Sternberg task,118,116110,134,yes,1024
88.14814815,88.14814815,864.8592593,864.8592593,black,experiment,legacy,legacy,legacy,0,uniform,1,undefined,1,left,134,134,134,0,0,134,134,0,0,134,134,134,0,134,0,10/25/19 18:55,The main experiment item,yes,Sternbergtask.osexp,C:\Users\Edgar\Documents\Edgar School\Fall 2019\Lab 3-1,no,mono,no,18,no,white,no,yes,768,legacy,122,11,C:/Users/Edgar/Documents/Edgar School/Fall 2019/Lab 3-1/JJ-subject-3.csv,legacy,9 4 2,Kafkaesque Koffka,3.2.8,1,y,0,left,left,left,left,NA,646,56446,5125,646,NA,2,legacy,3,1024,2,48000,-16,experiment,3,odd,9,950154,946578,947934,6112,150566,947941,940077,6131,145439,952161,952817,948949,62582,952160,NA,Sternberg task,119,116756,135,yes,1024
88.23529412,88.23529412,862.6323529,862.6323529,black,experiment,legacy,legacy,legacy,0,uniform,1,undefined,1,left,135,135,135,0,0,135,135,0,0,135,135,135,0,135,0,10/25/19 18:55,The main experiment item,yes,Sternbergtask.osexp,C:\Users\Edgar\Documents\Edgar School\Fall 2019\Lab 3-1,no,mono,no,18,no,white,no,yes,768,legacy,123,11,C:/Users/Edgar/Documents/Edgar School/Fall 2019/Lab 3-1/JJ-subject-3.csv,legacy,8 9 5 6 7,Kafkaesque Koffka,3.2.8,1,y,0,left,left,left,left,NA,562,56446,5125,562,NA,2,legacy,5,1024,2,48000,-16,experiment,3,odd,8,956464,952880,954244,6112,150566,954251,940077,6131,145439,958470,959040,955258,62582,958470,NA,Sternberg task,120,117318,136,yes,1024
88.32116788,88.32116788,864.4890511,864.4890511,black,experiment,legacy,legacy,legacy,0,uniform,1,undefined,1,left,136,136,136,0,0,136,136,0,0,136,136,136,0,136,0,10/25/19 18:55,The main experiment item,yes,Sternbergtask.osexp,C:\Users\Edgar\Documents\Edgar School\Fall 2019\Lab 3-1,no,mono,no,18,no,white,no,yes,768,legacy,124,11,C:/Users/Edgar/Documents/Edgar School/Fall 2019/Lab 3-1/JJ-subject-3.csv,legacy,8,Kafkaesque Koffka,3.2.8,1,y,0,left,left,left,left,NA,1117,56446,5125,1117,NA,2,legacy,1,1024,2,48000,-16,experiment,3,odd,8,962704,959114,960484,6112,150566,960492,940077,6131,145439,964712,965837,961499,62582,964709,NA,Sternberg task,121,118435,137,yes,1024
87.68115942,87.68115942,862.6449275,862.6449275,black,experiment,legacy,legacy,legacy,0,uniform,0,undefined,0,right,137,137,137,0,0,137,137,0,0,137,137,137,0,137,0,10/25/19 18:55,The main experiment item,yes,Sternbergtask.osexp,C:\Users\Edgar\Documents\Edgar School\Fall 2019\Lab 3-1,no,mono,no,18,no,white,no,yes,768,legacy,125,11,C:/Users/Edgar/Documents/Edgar School/Fall 2019/Lab 3-1/JJ-subject-3.csv,legacy,5 3 2 6 9 8,Kafkaesque Koffka,3.2.8,0,n,0,left,left,left,left,NA,610,56446,5125,610,NA,2,legacy,6,1024,2,48000,-16,experiment,3,odd,4,969498,965884,967278,6112,150566,967285,940077,6131,145439,971504,972122,968291,62582,971504,NA,Sternberg task,121,119045,138,yes,1024