acc,accuracy,average_response_time,avg_rt,background,block,canvas_backend,clock_backend,color_backend,compensation,coordinates,correct,correct_Instruction1,correct_keyboard_response,correct_response,count_CorrectFeedback,count_ExpSequence,count_ExperimentLoop,count_Fixation,count_ISI,count_Instruction1,count_Instructions2,count_MemorySet,count_PracticeLoop,count_Probe,count_ThankYou,count_experiment,count_incorrectFeedback,count_keyboard_response,count_logger,datetime,description,disable_garbage_collection,experiment_file,experiment_path,font_bold,font_family,font_italic,font_size,font_underline,foreground,form_clicks,fullscreen,height,keyboard_backend,live_row,live_row_PracticeLoop,logfile,mouse_backend,numberSet,opensesame_codename,opensesame_version,posInSet,present,repeat_cycle,response,response_Instruction1,response_Instructions2,response_ThankYou,response_keyboard_response,response_time,response_time_Instruction1,response_time_Instructions2,response_time_ThankYou,response_time_keyboard_response,round_decimals,sampler_backend,setSize,sound_buf_size,sound_channels,sound_freq,sound_sample_size,start,subject_nr,subject_parity,target,time_CorrectFeedback,time_ExpSequence,time_ExperimentLoop,time_Fixation,time_ISI,time_Instruction1,time_Instructions2,time_MemorySet,time_PracticeLoop,time_Probe,time_ThankYou,time_experiment,time_incorrectFeedback,time_keyboard_response,time_logger,title,total_correct,total_response_time,total_responses,uniform_coordinates,width
0,0,1015,1015,black,practice,legacy,legacy,legacy,0,uniform,0,undefined,0,right,0,0,0,0,0,0,0,0,0,0,0,0,0,0,0,10/20/19 14:18,The main experiment item,yes,SternbergTask.osexp,F:/Classwork/AQMAED,no,mono,no,18,no,white,no,yes,768,legacy,0,0,F:/Classwork/AQMAED/Sternberg_LA_subject-1.csv,legacy,3 1 9 4,Kafkaesque Koffka,3.2.8,0,n,0,left,right,NA,NA,left,1015,11007,NA,NA,1015,2,legacy,4,1024,2,48000,-16,experiment,1,odd,6,NA,13562,NA,13564,15766,2037,NA,14565,13045,17767,NA,2031,NA,17767,18783,Sternberg Task,0,1015,1,yes,1024
50,50,803,803,black,practice,legacy,legacy,legacy,0,uniform,1,undefined,1,left,1,1,0,1,1,0,0,1,0,1,0,0,1,1,1,10/20/19 14:18,The main experiment item,yes,SternbergTask.osexp,F:/Classwork/AQMAED,no,mono,no,18,no,white,no,yes,768,legacy,1,1,F:/Classwork/AQMAED/Sternberg_LA_subject-1.csv,legacy,1 5 2 9,Kafkaesque Koffka,3.2.8,2,y,0,left,right,NA,NA,left,591,11007,NA,NA,591,2,legacy,4,1024,2,48000,-16,experiment,1,odd,5,NA,19926,NA,19928,22137,2037,NA,20932,13045,24142,NA,2031,18842,24143,24734,Sternberg Task,1,1606,2,yes,1024
66.66666667,66.66666667,898.6666667,898.6666667,black,practice,legacy,legacy,legacy,0,uniform,1,undefined,1,left,2,2,0,2,2,0,0,2,0,2,0,0,2,2,2,10/20/19 14:18,The main experiment item,yes,SternbergTask.osexp,F:/Classwork/AQMAED,no,mono,no,18,no,white,no,yes,768,legacy,2,2,F:/Classwork/AQMAED/Sternberg_LA_subject-1.csv,legacy,6,Kafkaesque Koffka,3.2.8,1,y,0,left,right,NA,NA,left,1090,11007,NA,NA,1090,2,legacy,1,1024,2,48000,-16,experiment,1,odd,6,24746,25849,NA,25850,28057,2037,NA,26853,13045,30063,NA,2031,18842,30063,31153,Sternberg Task,2,2696,3,yes,1024
75,75,936,936,black,practice,legacy,legacy,legacy,0,uniform,1,undefined,1,right,3,3,0,3,3,0,0,3,0,3,0,0,3,3,3,10/20/19 14:18,The main experiment item,yes,SternbergTask.osexp,F:/Classwork/AQMAED,no,mono,no,18,no,white,no,yes,768,legacy,3,3,F:/Classwork/AQMAED/Sternberg_LA_subject-1.csv,legacy,5 7 8 4 1 2,Kafkaesque Koffka,3.2.8,0,n,0,right,right,NA,NA,right,1048,11007,NA,NA,1048,2,legacy,6,1024,2,48000,-16,experiment,1,odd,6,31157,32255,NA,32257,34467,2037,NA,33261,13045,36472,NA,2031,18842,36473,37521,Sternberg Task,3,3744,4,yes,1024
80,80,964.6,964.6,black,practice,legacy,legacy,legacy,0,uniform,1,undefined,1,right,4,4,0,4,4,0,0,4,0,4,0,0,4,4,4,10/20/19 14:18,The main experiment item,yes,SternbergTask.osexp,F:/Classwork/AQMAED,no,mono,no,18,no,white,no,yes,768,legacy,4,4,F:/Classwork/AQMAED/Sternberg_LA_subject-1.csv,legacy,4 1 5,Kafkaesque Koffka,3.2.8,0,n,0,right,right,NA,NA,right,1079,11007,NA,NA,1079,2,legacy,3,1024,2,48000,-16,experiment,1,odd,2,37530,38629,NA,38630,40840,2037,NA,39634,13045,42846,NA,2031,18842,42846,43926,Sternberg Task,4,4823,5,yes,1024
83.33333333,83.33333333,956.8333333,956.8333333,black,practice,legacy,legacy,legacy,0,uniform,1,undefined,1,right,5,5,0,5,5,0,0,5,0,5,0,0,5,5,5,10/20/19 14:18,The main experiment item,yes,SternbergTask.osexp,F:/Classwork/AQMAED,no,mono,no,18,no,white,no,yes,768,legacy,5,5,F:/Classwork/AQMAED/Sternberg_LA_subject-1.csv,legacy,2 1,Kafkaesque Koffka,3.2.8,0,n,0,right,right,NA,NA,right,918,11007,NA,NA,918,2,legacy,2,1024,2,48000,-16,experiment,1,odd,5,43939,45047,NA,45049,47259,2037,NA,46053,13045,49264,NA,2031,18842,49264,50182,Sternberg Task,5,5741,6,yes,1024
85.71428571,85.71428571,952.2857143,952.2857143,black,practice,legacy,legacy,legacy,0,uniform,1,undefined,1,left,6,6,0,6,6,0,0,6,0,6,0,0,6,6,6,10/20/19 14:18,The main experiment item,yes,SternbergTask.osexp,F:/Classwork/AQMAED,no,mono,no,18,no,white,no,yes,768,legacy,6,6,F:/Classwork/AQMAED/Sternberg_LA_subject-1.csv,legacy,4 3 1 7 9 8,Kafkaesque Koffka,3.2.8,1,y,0,left,right,NA,NA,left,925,11007,NA,NA,925,2,legacy,6,1024,2,48000,-16,experiment,1,odd,4,50192,51290,NA,51292,53502,2037,NA,52297,13045,55507,NA,2031,18842,55508,56434,Sternberg Task,6,6666,7,yes,1024
87.5,87.5,928.25,928.25,black,practice,legacy,legacy,legacy,0,uniform,1,undefined,1,right,7,7,0,7,7,0,0,7,0,7,0,0,7,7,7,10/20/19 14:18,The main experiment item,yes,SternbergTask.osexp,F:/Classwork/AQMAED,no,mono,no,18,no,white,no,yes,768,legacy,7,7,F:/Classwork/AQMAED/Sternberg_LA_subject-1.csv,legacy,9 6 7 4 5,Kafkaesque Koffka,3.2.8,0,n,0,right,right,NA,NA,right,760,11007,NA,NA,760,2,legacy,5,1024,2,48000,-16,experiment,1,odd,3,56446,57537,NA,57539,59748,2037,NA,58543,13045,61753,NA,2031,18842,61753,62513,Sternberg Task,7,7426,8,yes,1024
77.77777778,77.77777778,926.2222222,926.2222222,black,practice,legacy,legacy,legacy,0,uniform,0,undefined,0,left,8,8,0,8,8,0,0,8,0,8,0,0,8,8,8,10/20/19 14:18,The main experiment item,yes,SternbergTask.osexp,F:/Classwork/AQMAED,no,mono,no,18,no,white,no,yes,768,legacy,8,8,F:/Classwork/AQMAED/Sternberg_LA_subject-1.csv,legacy,2 9 4,Kafkaesque Koffka,3.2.8,3,y,0,right,right,NA,NA,right,910,11007,NA,NA,910,2,legacy,3,1024,2,48000,-16,experiment,1,odd,4,62521,63628,NA,63630,65840,2037,NA,64635,13045,67845,NA,2031,18842,67845,68756,Sternberg Task,7,8336,9,yes,1024
80,80,931.9,931.9,black,practice,legacy,legacy,legacy,0,uniform,1,undefined,1,left,9,9,0,9,9,0,0,9,0,9,0,0,9,9,9,10/20/19 14:18,The main experiment item,yes,SternbergTask.osexp,F:/Classwork/AQMAED,no,mono,no,18,no,white,no,yes,768,legacy,9,9,F:/Classwork/AQMAED/Sternberg_LA_subject-1.csv,legacy,1 7 9 8 5,Kafkaesque Koffka,3.2.8,4,y,0,left,right,NA,NA,left,983,11007,NA,NA,983,2,legacy,5,1024,2,48000,-16,experiment,1,odd,8,62521,69858,NA,69860,72070,2037,NA,70865,13045,74075,NA,2031,68765,74075,75058,Sternberg Task,8,9319,10,yes,1024
81.81818182,81.81818182,920.3636364,920.3636364,black,practice,legacy,legacy,legacy,0,uniform,1,undefined,1,left,10,10,0,10,10,0,0,10,0,10,0,0,10,10,10,10/20/19 14:18,The main experiment item,yes,SternbergTask.osexp,F:/Classwork/AQMAED,no,mono,no,18,no,white,no,yes,768,legacy,10,10,F:/Classwork/AQMAED/Sternberg_LA_subject-1.csv,legacy,4 8,Kafkaesque Koffka,3.2.8,1,y,0,left,right,NA,NA,left,805,11007,NA,NA,805,2,legacy,2,1024,2,48000,-16,experiment,1,odd,4,75068,76156,NA,76157,78365,2037,NA,77160,13045,80370,NA,2031,68765,80371,81176,Sternberg Task,9,10124,11,yes,1024
83.33333333,83.33333333,897.3333333,897.3333333,black,practice,legacy,legacy,legacy,0,uniform,1,undefined,1,right,11,11,0,11,11,0,0,11,0,11,0,0,11,11,11,10/20/19 14:18,The main experiment item,yes,SternbergTask.osexp,F:/Classwork/AQMAED,no,mono,no,18,no,white,no,yes,768,legacy,11,11,F:/Classwork/AQMAED/Sternberg_LA_subject-1.csv,legacy,5,Kafkaesque Koffka,3.2.8,0,n,0,right,right,NA,NA,right,644,11007,NA,NA,644,2,legacy,1,1024,2,48000,-16,experiment,1,odd,3,81185,82296,NA,82298,84508,2037,NA,83303,13045,86513,NA,2031,68765,86513,87158,Sternberg Task,10,10768,12,yes,1024
84.61538462,84.61538462,896.3076923,896.3076923,black,experiment,legacy,legacy,legacy,0,uniform,1,undefined,1,right,12,12,0,12,12,0,0,12,0,12,0,0,12,12,12,10/20/19 14:18,The main experiment item,yes,SternbergTask.osexp,F:/Classwork/AQMAED,no,mono,no,18,no,white,no,yes,768,legacy,0,11,F:/Classwork/AQMAED/Sternberg_LA_subject-1.csv,legacy,7 1 5 6 3,Kafkaesque Koffka,3.2.8,0,n,0,right,right,right,NA,right,884,11007,5122,NA,884,2,legacy,5,1024,2,48000,-16,experiment,1,odd,8,87163,93418,93322,93420,95628,2037,88199,94424,13045,97633,NA,2031,68765,97635,98519,Sternberg Task,11,11652,13,yes,1024
85.71428571,85.71428571,896.3571429,896.3571429,black,experiment,legacy,legacy,legacy,0,uniform,1,undefined,1,left,13,13,0,13,13,0,0,13,0,13,0,0,13,13,13,10/20/19 14:18,The main experiment item,yes,SternbergTask.osexp,F:/Classwork/AQMAED,no,mono,no,18,no,white,no,yes,768,legacy,1,11,F:/Classwork/AQMAED/Sternberg_LA_subject-1.csv,legacy,2 3 7 4,Kafkaesque Koffka,3.2.8,1,y,0,left,right,right,NA,left,897,11007,5122,NA,897,2,legacy,4,1024,2,48000,-16,experiment,1,odd,2,98525,99621,93322,99623,101833,2037,88199,100628,13045,103837,NA,2031,68765,103838,104736,Sternberg Task,12,12549,14,yes,1024
86.66666667,86.66666667,917.0666667,917.0666667,black,experiment,legacy,legacy,legacy,0,uniform,1,undefined,1,left,14,14,0,14,14,0,0,14,0,14,0,0,14,14,14,10/20/19 14:18,The main experiment item,yes,SternbergTask.osexp,F:/Classwork/AQMAED,no,mono,no,18,no,white,no,yes,768,legacy,2,11,F:/Classwork/AQMAED/Sternberg_LA_subject-1.csv,legacy,8 9 5 7 1 6,Kafkaesque Koffka,3.2.8,4,y,0,left,right,right,NA,left,1207,11007,5122,NA,1207,2,legacy,6,1024,2,48000,-16,experiment,1,odd,7,104747,105851,93322,105853,108063,2037,88199,106857,13045,110067,NA,2031,68765,110068,111275,Sternberg Task,13,13756,15,yes,1024
87.5,87.5,913.1875,913.1875,black,experiment,legacy,legacy,legacy,0,uniform,1,undefined,1,right,15,15,0,15,15,0,0,15,0,15,0,0,15,15,15,10/20/19 14:18,The main experiment item,yes,SternbergTask.osexp,F:/Classwork/AQMAED,no,mono,no,18,no,white,no,yes,768,legacy,3,11,F:/Classwork/AQMAED/Sternberg_LA_subject-1.csv,legacy,4 1,Kafkaesque Koffka,3.2.8,0,n,0,right,right,right,NA,right,855,11007,5122,NA,855,2,legacy,2,1024,2,48000,-16,experiment,1,odd,6,111282,112359,93322,112361,114571,2037,88199,113366,13045,116577,NA,2031,68765,116577,117432,Sternberg Task,14,14611,16,yes,1024
88.23529412,88.23529412,926.2941176,926.2941176,black,experiment,legacy,legacy,legacy,0,uniform,1,undefined,1,left,16,16,0,16,16,0,0,16,0,16,0,0,16,16,16,10/20/19 14:18,The main experiment item,yes,SternbergTask.osexp,F:/Classwork/AQMAED,no,mono,no,18,no,white,no,yes,768,legacy,4,11,F:/Classwork/AQMAED/Sternberg_LA_subject-1.csv,legacy,4 3 2 5 8,Kafkaesque Koffka,3.2.8,2,y,0,left,right,right,NA,left,1136,11007,5122,NA,1136,2,legacy,5,1024,2,48000,-16,experiment,1,odd,3,117441,118538,93322,118540,120750,2037,88199,119545,13045,122755,NA,2031,68765,122755,123892,Sternberg Task,15,15747,17,yes,1024
88.88888889,88.88888889,922.3888889,922.3888889,black,experiment,legacy,legacy,legacy,0,uniform,1,undefined,1,right,17,17,0,17,17,0,0,17,0,17,0,0,17,17,17,10/20/19 14:18,The main experiment item,yes,SternbergTask.osexp,F:/Classwork/AQMAED,no,mono,no,18,no,white,no,yes,768,legacy,5,11,F:/Classwork/AQMAED/Sternberg_LA_subject-1.csv,legacy,4 2 6 9,Kafkaesque Koffka,3.2.8,0,n,0,right,right,right,NA,right,856,11007,5122,NA,856,2,legacy,4,1024,2,48000,-16,experiment,1,odd,7,123897,124994,93322,124996,127206,2037,88199,126001,13045,129210,NA,2031,68765,129211,130068,Sternberg Task,16,16603,18,yes,1024
89.47368421,89.47368421,916.4210526,916.4210526,black,experiment,legacy,legacy,legacy,0,uniform,1,undefined,1,left,18,18,0,18,18,0,0,18,0,18,0,0,18,18,18,10/20/19 14:18,The main experiment item,yes,SternbergTask.osexp,F:/Classwork/AQMAED,no,mono,no,18,no,white,no,yes,768,legacy,6,11,F:/Classwork/AQMAED/Sternberg_LA_subject-1.csv,legacy,6 8 9 3 4 9,Kafkaesque Koffka,3.2.8,5,y,0,left,right,right,NA,left,809,11007,5122,NA,809,2,legacy,6,1024,2,48000,-16,experiment,1,odd,4,130072,131176,93322,131178,133387,2037,88199,132182,13045,135391,NA,2031,68765,135391,136200,Sternberg Task,17,17412,19,yes,1024
90,90,909.6,909.6,black,experiment,legacy,legacy,legacy,0,uniform,1,undefined,1,right,19,19,0,19,19,0,0,19,0,19,0,0,19,19,19,10/20/19 14:18,The main experiment item,yes,SternbergTask.osexp,F:/Classwork/AQMAED,no,mono,no,18,no,white,no,yes,768,legacy,7,11,F:/Classwork/AQMAED/Sternberg_LA_subject-1.csv,legacy,5 2,Kafkaesque Koffka,3.2.8,0,n,0,right,right,right,NA,right,780,11007,5122,NA,780,2,legacy,2,1024,2,48000,-16,experiment,1,odd,7,136254,137360,93322,137362,139572,2037,88199,138367,13045,141577,NA,2031,68765,141577,142357,Sternberg Task,18,18192,20,yes,1024
90.47619048,90.47619048,903.8571429,903.8571429,black,experiment,legacy,legacy,legacy,0,uniform,1,undefined,1,right,20,20,0,20,20,0,0,20,0,20,0,0,20,20,20,10/20/19 14:18,The main experiment item,yes,SternbergTask.osexp,F:/Classwork/AQMAED,no,mono,no,18,no,white,no,yes,768,legacy,8,11,F:/Classwork/AQMAED/Sternberg_LA_subject-1.csv,legacy,2 8 6 3 1,Kafkaesque Koffka,3.2.8,0,n,0,right,right,right,NA,right,789,11007,5122,NA,789,2,legacy,5,1024,2,48000,-16,experiment,1,odd,7,142407,143502,93322,143504,145715,2037,88199,144510,13045,147720,NA,2031,68765,147721,148511,Sternberg Task,19,18981,21,yes,1024
86.36363636,86.36363636,909.2272727,909.2272727,black,experiment,legacy,legacy,legacy,0,uniform,0,undefined,0,right,21,21,0,21,21,0,0,21,0,21,0,0,21,21,21,10/20/19 14:18,The main experiment item,yes,SternbergTask.osexp,F:/Classwork/AQMAED,no,mono,no,18,no,white,no,yes,768,legacy,9,11,F:/Classwork/AQMAED/Sternberg_LA_subject-1.csv,legacy,7 9 1 6,Kafkaesque Koffka,3.2.8,0,n,0,left,right,right,NA,left,1022,11007,5122,NA,1022,2,legacy,4,1024,2,48000,-16,experiment,1,odd,4,148546,149646,93322,149647,151857,2037,88199,150652,13045,153863,NA,2031,68765,153863,154886,Sternberg Task,19,20003,22,yes,1024
86.95652174,86.95652174,905.6086957,905.6086957,black,experiment,legacy,legacy,legacy,0,uniform,1,undefined,1,right,22,22,0,22,22,0,0,22,0,22,0,0,22,22,22,10/20/19 14:18,The main experiment item,yes,SternbergTask.osexp,F:/Classwork/AQMAED,no,mono,no,18,no,white,no,yes,768,legacy,10,11,F:/Classwork/AQMAED/Sternberg_LA_subject-1.csv,legacy,6 3 1 7 9 8,Kafkaesque Koffka,3.2.8,0,n,0,right,right,right,NA,right,826,11007,5122,NA,826,2,legacy,6,1024,2,48000,-16,experiment,1,odd,4,148546,156007,93322,156008,158218,2037,88199,157013,13045,160223,NA,2031,154909,160224,161051,Sternberg Task,20,20829,23,yes,1024
87.5,87.5,901.5,901.5,black,experiment,legacy,legacy,legacy,0,uniform,1,undefined,1,right,23,23,0,23,23,0,0,23,0,23,0,0,23,23,23,10/20/19 14:18,The main experiment item,yes,SternbergTask.osexp,F:/Classwork/AQMAED,no,mono,no,18,no,white,no,yes,768,legacy,11,11,F:/Classwork/AQMAED/Sternberg_LA_subject-1.csv,legacy,3 4 2,Kafkaesque Koffka,3.2.8,0,n,0,right,right,right,NA,right,807,11007,5122,NA,807,2,legacy,3,1024,2,48000,-16,experiment,1,odd,5,161073,162176,93322,162178,164388,2037,88199,163183,13045,166393,NA,2031,154909,166394,167201,Sternberg Task,21,21636,24,yes,1024
88,88,895.64,895.64,black,experiment,legacy,legacy,legacy,0,uniform,1,undefined,1,right,24,24,0,24,24,0,0,24,0,24,0,0,24,24,24,10/20/19 14:18,The main experiment item,yes,SternbergTask.osexp,F:/Classwork/AQMAED,no,mono,no,18,no,white,no,yes,768,legacy,12,11,F:/Classwork/AQMAED/Sternberg_LA_subject-1.csv,legacy,2 6 4 3 9,Kafkaesque Koffka,3.2.8,0,n,0,right,right,right,NA,right,755,11007,5122,NA,755,2,legacy,5,1024,2,48000,-16,experiment,1,odd,1,167224,168325,93322,168326,170535,2037,88199,169329,13045,172538,NA,2031,154909,172538,173293,Sternberg Task,22,22391,25,yes,1024
88.46153846,88.46153846,889.6153846,889.6153846,black,experiment,legacy,legacy,legacy,0,uniform,1,undefined,1,right,25,25,0,25,25,0,0,25,0,25,0,0,25,25,25,10/20/19 14:18,The main experiment item,yes,SternbergTask.osexp,F:/Classwork/AQMAED,no,mono,no,18,no,white,no,yes,768,legacy,13,11,F:/Classwork/AQMAED/Sternberg_LA_subject-1.csv,legacy,7 8 6 1,Kafkaesque Koffka,3.2.8,0,n,0,right,right,right,NA,right,739,11007,5122,NA,739,2,legacy,4,1024,2,48000,-16,experiment,1,odd,3,173329,174424,93322,174426,176636,2037,88199,175431,13045,178642,NA,2031,154909,178642,179382,Sternberg Task,23,23130,26,yes,1024
88.88888889,88.88888889,885.7777778,885.7777778,black,experiment,legacy,legacy,legacy,0,uniform,1,undefined,1,right,26,26,0,26,26,0,0,26,0,26,0,0,26,26,26,10/20/19 14:18,The main experiment item,yes,SternbergTask.osexp,F:/Classwork/AQMAED,no,mono,no,18,no,white,no,yes,768,legacy,14,11,F:/Classwork/AQMAED/Sternberg_LA_subject-1.csv,legacy,6 9 4 5 2,Kafkaesque Koffka,3.2.8,0,n,0,right,right,right,NA,right,786,11007,5122,NA,786,2,legacy,5,1024,2,48000,-16,experiment,1,odd,1,179398,180495,93322,180497,182707,2037,88199,181502,13045,184709,NA,2031,154909,184709,185496,Sternberg Task,24,23916,27,yes,1024
89.28571429,89.28571429,888.8928571,888.8928571,black,experiment,legacy,legacy,legacy,0,uniform,1,undefined,1,left,27,27,0,27,27,0,0,27,0,27,0,0,27,27,27,10/20/19 14:18,The main experiment item,yes,SternbergTask.osexp,F:/Classwork/AQMAED,no,mono,no,18,no,white,no,yes,768,legacy,15,11,F:/Classwork/AQMAED/Sternberg_LA_subject-1.csv,legacy,5 2 6,Kafkaesque Koffka,3.2.8,2,y,0,left,right,right,NA,left,973,11007,5122,NA,973,2,legacy,3,1024,2,48000,-16,experiment,1,odd,2,185502,186602,93322,186604,188813,2037,88199,187609,13045,190819,NA,2031,154909,190820,191793,Sternberg Task,25,24889,28,yes,1024
86.20689655,86.20689655,898.0689655,898.0689655,black,experiment,legacy,legacy,legacy,0,uniform,0,undefined,0,right,28,28,0,28,28,0,0,28,0,28,0,0,28,28,28,10/20/19 14:18,The main experiment item,yes,SternbergTask.osexp,F:/Classwork/AQMAED,no,mono,no,18,no,white,no,yes,768,legacy,16,11,F:/Classwork/AQMAED/Sternberg_LA_subject-1.csv,legacy,9 8 2 7 4,Kafkaesque Koffka,3.2.8,0,n,0,left,right,right,NA,left,1155,11007,5122,NA,1155,2,legacy,5,1024,2,48000,-16,experiment,1,odd,5,191798,192901,93322,192903,195110,2037,88199,193908,13045,197111,NA,2031,154909,197111,198266,Sternberg Task,25,26044,29,yes,1024
83.33333333,83.33333333,911.4333333,911.4333333,black,experiment,legacy,legacy,legacy,0,uniform,0,undefined,0,right,29,29,0,29,29,0,0,29,0,29,0,0,29,29,29,10/20/19 14:18,The main experiment item,yes,SternbergTask.osexp,F:/Classwork/AQMAED,no,mono,no,18,no,white,no,yes,768,legacy,17,11,F:/Classwork/AQMAED/Sternberg_LA_subject-1.csv,legacy,1 6 4 3 9 7,Kafkaesque Koffka,3.2.8,0,n,0,left,right,right,NA,left,1299,11007,5122,NA,1299,2,legacy,6,1024,2,48000,-16,experiment,1,odd,8,191798,199377,93322,199379,201590,2037,88199,200384,13045,203592,NA,2031,198277,203592,204892,Sternberg Task,25,27343,30,yes,1024
83.87096774,83.87096774,919.8387097,919.8387097,black,experiment,legacy,legacy,legacy,0,uniform,1,undefined,1,left,30,30,0,30,30,0,0,30,0,30,0,0,30,30,30,10/20/19 14:18,The main experiment item,yes,SternbergTask.osexp,F:/Classwork/AQMAED,no,mono,no,18,no,white,no,yes,768,legacy,18,11,F:/Classwork/AQMAED/Sternberg_LA_subject-1.csv,legacy,8 9 6 1,Kafkaesque Koffka,3.2.8,2,y,0,left,right,right,NA,left,1172,11007,5122,NA,1172,2,legacy,4,1024,2,48000,-16,experiment,1,odd,9,191798,206007,93322,206010,208220,2037,88199,207014,13045,210225,NA,2031,204902,210226,211399,Sternberg Task,26,28515,31,yes,1024
84.375,84.375,926.1875,926.1875,black,experiment,legacy,legacy,legacy,0,uniform,1,undefined,1,left,31,31,0,31,31,0,0,31,0,31,0,0,31,31,31,10/20/19 14:18,The main experiment item,yes,SternbergTask.osexp,F:/Classwork/AQMAED,no,mono,no,18,no,white,no,yes,768,legacy,19,11,F:/Classwork/AQMAED/Sternberg_LA_subject-1.csv,legacy,7 8 4 6 9 5,Kafkaesque Koffka,3.2.8,4,y,0,left,right,right,NA,left,1123,11007,5122,NA,1123,2,legacy,6,1024,2,48000,-16,experiment,1,odd,6,211403,212507,93322,212509,214716,2037,88199,213514,13045,216721,NA,2031,204902,216722,217846,Sternberg Task,27,29638,32,yes,1024
84.84848485,84.84848485,929.1515152,929.1515152,black,experiment,legacy,legacy,legacy,0,uniform,1,undefined,1,left,32,32,0,32,32,0,0,32,0,32,0,0,32,32,32,10/20/19 14:18,The main experiment item,yes,SternbergTask.osexp,F:/Classwork/AQMAED,no,mono,no,18,no,white,no,yes,768,legacy,20,11,F:/Classwork/AQMAED/Sternberg_LA_subject-1.csv,legacy,6 9 3 1,Kafkaesque Koffka,3.2.8,4,y,0,left,right,right,NA,left,1024,11007,5122,NA,1024,2,legacy,4,1024,2,48000,-16,experiment,1,odd,1,217850,218951,93322,218953,221163,2037,88199,219958,13045,223169,NA,2031,204902,223169,224193,Sternberg Task,28,30662,33,yes,1024
85.29411765,85.29411765,933.1764706,933.1764706,black,experiment,legacy,legacy,legacy,0,uniform,1,undefined,1,right,33,33,0,33,33,0,0,33,0,33,0,0,33,33,33,10/20/19 14:18,The main experiment item,yes,SternbergTask.osexp,F:/Classwork/AQMAED,no,mono,no,18,no,white,no,yes,768,legacy,21,11,F:/Classwork/AQMAED/Sternberg_LA_subject-1.csv,legacy,7 9,Kafkaesque Koffka,3.2.8,0,n,0,right,right,right,NA,right,1066,11007,5122,NA,1066,2,legacy,2,1024,2,48000,-16,experiment,1,odd,1,224206,225301,93322,225304,227511,2037,88199,226308,13045,229517,NA,2031,204902,229517,230583,Sternberg Task,29,31728,34,yes,1024
85.71428571,85.71428571,930.7714286,930.7714286,black,experiment,legacy,legacy,legacy,0,uniform,1,undefined,1,right,34,34,0,34,34,0,0,34,0,34,0,0,34,34,34,10/20/19 14:18,The main experiment item,yes,SternbergTask.osexp,F:/Classwork/AQMAED,no,mono,no,18,no,white,no,yes,768,legacy,22,11,F:/Classwork/AQMAED/Sternberg_LA_subject-1.csv,legacy,1 4 9 3,Kafkaesque Koffka,3.2.8,0,n,0,right,right,right,NA,right,849,11007,5122,NA,849,2,legacy,4,1024,2,48000,-16,experiment,1,odd,5,230588,231684,93322,231686,233895,2037,88199,232690,13045,235900,NA,2031,204902,235900,236750,Sternberg Task,30,32577,35,yes,1024
86.11111111,86.11111111,927.7222222,927.7222222,black,experiment,legacy,legacy,legacy,0,uniform,1,undefined,1,right,35,35,0,35,35,0,0,35,0,35,0,0,35,35,35,10/20/19 14:18,The main experiment item,yes,SternbergTask.osexp,F:/Classwork/AQMAED,no,mono,no,18,no,white,no,yes,768,legacy,23,11,F:/Classwork/AQMAED/Sternberg_LA_subject-1.csv,legacy,6 2 9 3 8 4,Kafkaesque Koffka,3.2.8,0,n,0,right,right,right,NA,right,821,11007,5122,NA,821,2,legacy,6,1024,2,48000,-16,experiment,1,odd,1,236759,237860,93322,237862,240073,2037,88199,238867,13045,242078,NA,2031,204902,242079,242901,Sternberg Task,31,33398,36,yes,1024
86.48648649,86.48648649,925.1351351,925.1351351,black,experiment,legacy,legacy,legacy,0,uniform,1,undefined,1,right,36,36,0,36,36,0,0,36,0,36,0,0,36,36,36,10/20/19 14:18,The main experiment item,yes,SternbergTask.osexp,F:/Classwork/AQMAED,no,mono,no,18,no,white,no,yes,768,legacy,24,11,F:/Classwork/AQMAED/Sternberg_LA_subject-1.csv,legacy,2 8 9,Kafkaesque Koffka,3.2.8,0,n,0,right,right,right,NA,right,832,11007,5122,NA,832,2,legacy,3,1024,2,48000,-16,experiment,1,odd,6,242906,244010,93322,244012,246223,2037,88199,245017,13045,248229,NA,2031,204902,248229,249062,Sternberg Task,32,34230,37,yes,1024
86.84210526,86.84210526,925.4210526,925.4210526,black,experiment,legacy,legacy,legacy,0,uniform,1,undefined,1,left,37,37,0,37,37,0,0,37,0,37,0,0,37,37,37,10/20/19 14:18,The main experiment item,yes,SternbergTask.osexp,F:/Classwork/AQMAED,no,mono,no,18,no,white,no,yes,768,legacy,25,11,F:/Classwork/AQMAED/Sternberg_LA_subject-1.csv,legacy,8 3,Kafkaesque Koffka,3.2.8,2,y,0,left,right,right,NA,left,936,11007,5122,NA,936,2,legacy,2,1024,2,48000,-16,experiment,1,odd,3,249073,250176,93322,250178,252390,2037,88199,251183,13045,254395,NA,2031,204902,254396,255333,Sternberg Task,33,35166,38,yes,1024
87.17948718,87.17948718,923.3076923,923.3076923,black,experiment,legacy,legacy,legacy,0,uniform,1,undefined,1,right,38,38,0,38,38,0,0,38,0,38,0,0,38,38,38,10/20/19 14:18,The main experiment item,yes,SternbergTask.osexp,F:/Classwork/AQMAED,no,mono,no,18,no,white,no,yes,768,legacy,26,11,F:/Classwork/AQMAED/Sternberg_LA_subject-1.csv,legacy,2 7 5,Kafkaesque Koffka,3.2.8,0,n,0,right,right,right,NA,right,843,11007,5122,NA,843,2,legacy,3,1024,2,48000,-16,experiment,1,odd,8,255342,256442,93322,256444,258654,2037,88199,257448,13045,260657,NA,2031,204902,260657,261500,Sternberg Task,34,36009,39,yes,1024
87.5,87.5,921.725,921.725,black,experiment,legacy,legacy,legacy,0,uniform,1,undefined,1,left,39,39,0,39,39,0,0,39,0,39,0,0,39,39,39,10/20/19 14:18,The main experiment item,yes,SternbergTask.osexp,F:/Classwork/AQMAED,no,mono,no,18,no,white,no,yes,768,legacy,27,11,F:/Classwork/AQMAED/Sternberg_LA_subject-1.csv,legacy,1 4 9 3 2 5,Kafkaesque Koffka,3.2.8,3,y,0,left,right,right,NA,left,860,11007,5122,NA,860,2,legacy,6,1024,2,48000,-16,experiment,1,odd,9,261512,262630,93322,262632,264839,2037,88199,263634,13045,266844,NA,2031,204902,266845,267705,Sternberg Task,35,36869,40,yes,1024
87.80487805,87.80487805,925.804878,925.804878,black,experiment,legacy,legacy,legacy,0,uniform,1,undefined,1,left,40,40,0,40,40,0,0,40,0,40,0,0,40,40,40,10/20/19 14:18,The main experiment item,yes,SternbergTask.osexp,F:/Classwork/AQMAED,no,mono,no,18,no,white,no,yes,768,legacy,28,11,F:/Classwork/AQMAED/Sternberg_LA_subject-1.csv,legacy,3 4 9 6 2 9,Kafkaesque Koffka,3.2.8,5,y,0,left,right,right,NA,left,1089,11007,5122,NA,1089,2,legacy,6,1024,2,48000,-16,experiment,1,odd,2,267714,268808,93322,268810,271016,2037,88199,269813,13045,273022,NA,2031,204902,273022,274112,Sternberg Task,36,37958,41,yes,1024
88.0952381,88.0952381,925.952381,925.952381,black,experiment,legacy,legacy,legacy,0,uniform,1,undefined,1,right,41,41,0,41,41,0,0,41,0,41,0,0,41,41,41,10/20/19 14:18,The main experiment item,yes,SternbergTask.osexp,F:/Classwork/AQMAED,no,mono,no,18,no,white,no,yes,768,legacy,29,11,F:/Classwork/AQMAED/Sternberg_LA_subject-1.csv,legacy,1 7 5 2 9,Kafkaesque Koffka,3.2.8,0,n,0,right,right,right,NA,right,932,11007,5122,NA,932,2,legacy,5,1024,2,48000,-16,experiment,1,odd,3,274122,275210,93322,275212,277422,2037,88199,276217,13045,279427,NA,2031,204902,279427,280359,Sternberg Task,37,38890,42,yes,1024
88.37209302,88.37209302,924.3953488,924.3953488,black,experiment,legacy,legacy,legacy,0,uniform,1,undefined,1,left,42,42,0,42,42,0,0,42,0,42,0,0,42,42,42,10/20/19 14:18,The main experiment item,yes,SternbergTask.osexp,F:/Classwork/AQMAED,no,mono,no,18,no,white,no,yes,768,legacy,30,11,F:/Classwork/AQMAED/Sternberg_LA_subject-1.csv,legacy,9 4 2,Kafkaesque Koffka,3.2.8,1,y,0,left,right,right,NA,left,859,11007,5122,NA,859,2,legacy,3,1024,2,48000,-16,experiment,1,odd,9,280367,281465,93322,281467,283674,2037,88199,282472,13045,285680,NA,2031,204902,285681,286541,Sternberg Task,38,39749,43,yes,1024
88.63636364,88.63636364,930.1590909,930.1590909,black,experiment,legacy,legacy,legacy,0,uniform,1,undefined,1,left,43,43,0,43,43,0,0,43,0,43,0,0,43,43,43,10/20/19 14:18,The main experiment item,yes,SternbergTask.osexp,F:/Classwork/AQMAED,no,mono,no,18,no,white,no,yes,768,legacy,31,11,F:/Classwork/AQMAED/Sternberg_LA_subject-1.csv,legacy,4 9 7 8 5 3,Kafkaesque Koffka,3.2.8,4,y,0,left,right,right,NA,left,1178,11007,5122,NA,1178,2,legacy,6,1024,2,48000,-16,experiment,1,odd,8,286546,287623,93322,287626,289836,2037,88199,288631,13045,291841,NA,2031,204902,291841,293020,Sternberg Task,39,40927,44,yes,1024
88.88888889,88.88888889,929.4222222,929.4222222,black,experiment,legacy,legacy,legacy,0,uniform,1,undefined,1,left,44,44,0,44,44,0,0,44,0,44,0,0,44,44,44,10/20/19 14:18,The main experiment item,yes,SternbergTask.osexp,F:/Classwork/AQMAED,no,mono,no,18,no,white,no,yes,768,legacy,32,11,F:/Classwork/AQMAED/Sternberg_LA_subject-1.csv,legacy,7 6,Kafkaesque Koffka,3.2.8,2,y,0,left,right,right,NA,left,897,11007,5122,NA,897,2,legacy,2,1024,2,48000,-16,experiment,1,odd,6,293025,294121,93322,294123,296331,2037,88199,295128,13045,298335,NA,2031,204902,298335,299233,Sternberg Task,40,41824,45,yes,1024
89.13043478,89.13043478,925.1304348,925.1304348,black,experiment,legacy,legacy,legacy,0,uniform,1,undefined,1,right,45,45,0,45,45,0,0,45,0,45,0,0,45,45,45,10/20/19 14:18,The main experiment item,yes,SternbergTask.osexp,F:/Classwork/AQMAED,no,mono,no,18,no,white,no,yes,768,legacy,33,11,F:/Classwork/AQMAED/Sternberg_LA_subject-1.csv,legacy,1 6 4,Kafkaesque Koffka,3.2.8,0,n,0,right,right,right,NA,right,732,11007,5122,NA,732,2,legacy,3,1024,2,48000,-16,experiment,1,odd,7,299239,300326,93322,300328,302532,2037,88199,301331,13045,304535,NA,2031,204902,304535,305267,Sternberg Task,41,42556,46,yes,1024
89.36170213,89.36170213,927.6170213,927.6170213,black,experiment,legacy,legacy,legacy,0,uniform,1,undefined,1,left,46,46,0,46,46,0,0,46,0,46,0,0,46,46,46,10/20/19 14:18,The main experiment item,yes,SternbergTask.osexp,F:/Classwork/AQMAED,no,mono,no,18,no,white,no,yes,768,legacy,34,11,F:/Classwork/AQMAED/Sternberg_LA_subject-1.csv,legacy,2 8 5 1,Kafkaesque Koffka,3.2.8,4,y,0,left,right,right,NA,left,1042,11007,5122,NA,1042,2,legacy,4,1024,2,48000,-16,experiment,1,odd,1,305273,306367,93322,306369,308579,2037,88199,307374,13045,310582,NA,2031,204902,310582,311626,Sternberg Task,42,43598,47,yes,1024
89.58333333,89.58333333,926.2916667,926.2916667,black,experiment,legacy,legacy,legacy,0,uniform,1,undefined,1,left,47,47,0,47,47,0,0,47,0,47,0,0,47,47,47,10/20/19 14:18,The main experiment item,yes,SternbergTask.osexp,F:/Classwork/AQMAED,no,mono,no,18,no,white,no,yes,768,legacy,35,11,F:/Classwork/AQMAED/Sternberg_LA_subject-1.csv,legacy,6 5,Kafkaesque Koffka,3.2.8,2,y,0,left,right,right,NA,left,864,11007,5122,NA,864,2,legacy,2,1024,2,48000,-16,experiment,1,odd,5,311631,312721,93322,312723,314930,2037,88199,313725,13045,316935,NA,2031,204902,316935,317799,Sternberg Task,43,44462,48,yes,1024
87.75510204,87.75510204,929.4285714,929.4285714,black,experiment,legacy,legacy,legacy,0,uniform,0,undefined,0,left,48,48,0,48,48,0,0,48,0,48,0,0,48,48,48,10/20/19 14:18,The main experiment item,yes,SternbergTask.osexp,F:/Classwork/AQMAED,no,mono,no,18,no,white,no,yes,768,legacy,36,11,F:/Classwork/AQMAED/Sternberg_LA_subject-1.csv,legacy,5 7 8 2 3 8,Kafkaesque Koffka,3.2.8,5,y,0,right,right,right,NA,right,1080,11007,5122,NA,1080,2,legacy,6,1024,2,48000,-16,experiment,1,odd,3,317811,318923,93322,318925,321135,2037,88199,319929,13045,323140,NA,2031,204902,323140,324221,Sternberg Task,43,45542,49,yes,1024
86,86,941.9,941.9,black,experiment,legacy,legacy,legacy,0,uniform,0,undefined,0,right,49,49,0,49,49,0,0,49,0,49,0,0,49,49,49,10/20/19 14:18,The main experiment item,yes,SternbergTask.osexp,F:/Classwork/AQMAED,no,mono,no,18,no,white,no,yes,768,legacy,37,11,F:/Classwork/AQMAED/Sternberg_LA_subject-1.csv,legacy,5 3 8 7 2 4,Kafkaesque Koffka,3.2.8,0,n,0,left,right,right,NA,left,1553,11007,5122,NA,1553,2,legacy,6,1024,2,48000,-16,experiment,1,odd,9,317811,325319,93322,325321,327529,2037,88199,326324,13045,329534,NA,2031,324227,329534,331088,Sternberg Task,43,47095,50,yes,1024
86.2745098,86.2745098,945.9215686,945.9215686,black,experiment,legacy,legacy,legacy,0,uniform,1,undefined,1,right,50,50,0,50,50,0,0,50,0,50,0,0,50,50,50,10/20/19 14:18,The main experiment item,yes,SternbergTask.osexp,F:/Classwork/AQMAED,no,mono,no,18,no,white,no,yes,768,legacy,38,11,F:/Classwork/AQMAED/Sternberg_LA_subject-1.csv,legacy,8 9,Kafkaesque Koffka,3.2.8,0,n,0,right,right,right,NA,right,1147,11007,5122,NA,1147,2,legacy,2,1024,2,48000,-16,experiment,1,odd,5,317811,332205,93322,332206,334415,2037,88199,333210,13045,336420,NA,2031,331095,336421,337569,Sternberg Task,44,48242,51,yes,1024
86.53846154,86.53846154,945.8653846,945.8653846,black,experiment,legacy,legacy,legacy,0,uniform,1,undefined,1,left,51,51,0,51,51,0,0,51,0,51,0,0,51,51,51,10/20/19 14:18,The main experiment item,yes,SternbergTask.osexp,F:/Classwork/AQMAED,no,mono,no,18,no,white,no,yes,768,legacy,39,11,F:/Classwork/AQMAED/Sternberg_LA_subject-1.csv,legacy,3 9 6 2,Kafkaesque Koffka,3.2.8,4,y,0,left,right,right,NA,left,943,11007,5122,NA,943,2,legacy,4,1024,2,48000,-16,experiment,1,odd,2,337575,338683,93322,338685,340894,2037,88199,339690,13045,342901,NA,2031,331095,342901,343845,Sternberg Task,45,49185,52,yes,1024
86.79245283,86.79245283,952.4150943,952.4150943,black,experiment,legacy,legacy,legacy,0,uniform,1,undefined,1,right,52,52,0,52,52,0,0,52,0,52,0,0,52,52,52,10/20/19 14:18,The main experiment item,yes,SternbergTask.osexp,F:/Classwork/AQMAED,no,mono,no,18,no,white,no,yes,768,legacy,40,11,F:/Classwork/AQMAED/Sternberg_LA_subject-1.csv,legacy,2 8 7 9 5 3,Kafkaesque Koffka,3.2.8,0,n,0,right,right,right,NA,right,1293,11007,5122,NA,1293,2,legacy,6,1024,2,48000,-16,experiment,1,odd,6,343857,344959,93322,344960,347169,2037,88199,345964,13045,349175,NA,2031,331095,349175,350469,Sternberg Task,46,50478,53,yes,1024
87.03703704,87.03703704,954.5,954.5,black,experiment,legacy,legacy,legacy,0,uniform,1,undefined,1,left,53,53,0,53,53,0,0,53,0,53,0,0,53,53,53,10/20/19 14:18,The main experiment item,yes,SternbergTask.osexp,F:/Classwork/AQMAED,no,mono,no,18,no,white,no,yes,768,legacy,41,11,F:/Classwork/AQMAED/Sternberg_LA_subject-1.csv,legacy,9 5 8 1,Kafkaesque Koffka,3.2.8,2,y,0,left,right,right,NA,left,1065,11007,5122,NA,1065,2,legacy,4,1024,2,48000,-16,experiment,1,odd,5,350478,351573,93322,351575,353789,2037,88199,352587,13045,355794,NA,2031,331095,355794,356860,Sternberg Task,47,51543,54,yes,1024
87.27272727,87.27272727,955.7636364,955.7636364,black,experiment,legacy,legacy,legacy,0,uniform,1,undefined,1,right,54,54,0,54,54,0,0,54,0,54,0,0,54,54,54,10/20/19 14:18,The main experiment item,yes,SternbergTask.osexp,F:/Classwork/AQMAED,no,mono,no,18,no,white,no,yes,768,legacy,42,11,F:/Classwork/AQMAED/Sternberg_LA_subject-1.csv,legacy,5 7 3,Kafkaesque Koffka,3.2.8,0,n,0,right,right,right,NA,right,1024,11007,5122,NA,1024,2,legacy,3,1024,2,48000,-16,experiment,1,odd,9,356865,357969,93322,357972,360182,2037,88199,358977,13045,362187,NA,2031,331095,362187,363211,Sternberg Task,48,52567,55,yes,1024
87.5,87.5,954.8392857,954.8392857,black,experiment,legacy,legacy,legacy,0,uniform,1,undefined,1,left,55,55,0,55,55,0,0,55,0,55,0,0,55,55,55,10/20/19 14:18,The main experiment item,yes,SternbergTask.osexp,F:/Classwork/AQMAED,no,mono,no,18,no,white,no,yes,768,legacy,43,11,F:/Classwork/AQMAED/Sternberg_LA_subject-1.csv,legacy,3 5 4 7,Kafkaesque Koffka,3.2.8,1,y,0,left,right,right,NA,left,904,11007,5122,NA,904,2,legacy,4,1024,2,48000,-16,experiment,1,odd,3,363216,364331,93322,364334,366545,2037,88199,365339,13045,368550,NA,2031,331095,368551,369455,Sternberg Task,49,53471,56,yes,1024
87.71929825,87.71929825,953.4035088,953.4035088,black,experiment,legacy,legacy,legacy,0,uniform,1,undefined,1,right,56,56,0,56,56,0,0,56,0,56,0,0,56,56,56,10/20/19 14:18,The main experiment item,yes,SternbergTask.osexp,F:/Classwork/AQMAED,no,mono,no,18,no,white,no,yes,768,legacy,44,11,F:/Classwork/AQMAED/Sternberg_LA_subject-1.csv,legacy,1 4 9 2 5,Kafkaesque Koffka,3.2.8,0,n,0,right,right,right,NA,right,873,11007,5122,NA,873,2,legacy,5,1024,2,48000,-16,experiment,1,odd,7,369468,370565,93322,370567,372777,2037,88199,371571,13045,374784,NA,2031,331095,374784,375657,Sternberg Task,50,54344,57,yes,1024
87.93103448,87.93103448,950.3275862,950.3275862,black,experiment,legacy,legacy,legacy,0,uniform,1,undefined,1,left,57,57,0,57,57,0,0,57,0,57,0,0,57,57,57,10/20/19 14:18,The main experiment item,yes,SternbergTask.osexp,F:/Classwork/AQMAED,no,mono,no,18,no,white,no,yes,768,legacy,45,11,F:/Classwork/AQMAED/Sternberg_LA_subject-1.csv,legacy,3 5 7 1,Kafkaesque Koffka,3.2.8,3,y,0,left,right,right,NA,left,775,11007,5122,NA,775,2,legacy,4,1024,2,48000,-16,experiment,1,odd,7,375667,376764,93322,376766,378976,2037,88199,377771,13045,380980,NA,2031,331095,380981,381757,Sternberg Task,51,55119,58,yes,1024
88.13559322,88.13559322,950.4576271,950.4576271,black,experiment,legacy,legacy,legacy,0,uniform,1,undefined,1,right,58,58,0,58,58,0,0,58,0,58,0,0,58,58,58,10/20/19 14:18,The main experiment item,yes,SternbergTask.osexp,F:/Classwork/AQMAED,no,mono,no,18,no,white,no,yes,768,legacy,46,11,F:/Classwork/AQMAED/Sternberg_LA_subject-1.csv,legacy,7 4 2 8 1 9,Kafkaesque Koffka,3.2.8,0,n,0,right,right,right,NA,right,958,11007,5122,NA,958,2,legacy,6,1024,2,48000,-16,experiment,1,odd,5,381770,382884,93322,382886,385092,2037,88199,383887,13045,387097,NA,2031,331095,387098,388057,Sternberg Task,52,56077,59,yes,1024
88.33333333,88.33333333,962.2,962.2,black,experiment,legacy,legacy,legacy,0,uniform,1,undefined,1,right,59,59,0,59,59,0,0,59,0,59,0,0,59,59,59,10/20/19 14:18,The main experiment item,yes,SternbergTask.osexp,F:/Classwork/AQMAED,no,mono,no,18,no,white,no,yes,768,legacy,47,11,F:/Classwork/AQMAED/Sternberg_LA_subject-1.csv,legacy,2 8 9 4 1,Kafkaesque Koffka,3.2.8,0,n,0,right,right,right,NA,right,1655,11007,5122,NA,1655,2,legacy,5,1024,2,48000,-16,experiment,1,odd,5,388064,389160,93322,389162,391372,2037,88199,390166,13045,393377,NA,2031,331095,393378,395034,Sternberg Task,53,57732,60,yes,1024
88.52459016,88.52459016,962.8032787,962.8032787,black,experiment,legacy,legacy,legacy,0,uniform,1,undefined,1,right,60,60,0,60,60,0,0,60,0,60,0,0,60,60,60,10/20/19 14:18,The main experiment item,yes,SternbergTask.osexp,F:/Classwork/AQMAED,no,mono,no,18,no,white,no,yes,768,legacy,48,11,F:/Classwork/AQMAED/Sternberg_LA_subject-1.csv,legacy,7 1 8 4 9 3,Kafkaesque Koffka,3.2.8,0,n,0,right,right,right,NA,right,999,11007,5122,NA,999,2,legacy,6,1024,2,48000,-16,experiment,1,odd,6,395040,396147,93322,396149,398359,2037,88199,397154,13045,400364,NA,2031,331095,400365,401365,Sternberg Task,54,58731,61,yes,1024
88.70967742,88.70967742,963.3225806,963.3225806,black,experiment,legacy,legacy,legacy,0,uniform,1,undefined,1,right,61,61,0,61,61,0,0,61,0,61,0,0,61,61,61,10/20/19 14:18,The main experiment item,yes,SternbergTask.osexp,F:/Classwork/AQMAED,no,mono,no,18,no,white,no,yes,768,legacy,49,11,F:/Classwork/AQMAED/Sternberg_LA_subject-1.csv,legacy,1 5 3 2 8,Kafkaesque Koffka,3.2.8,0,n,0,right,right,right,NA,right,995,11007,5122,NA,995,2,legacy,5,1024,2,48000,-16,experiment,1,odd,4,401376,402466,93322,402468,404679,2037,88199,403473,13045,406684,NA,2031,331095,406684,407680,Sternberg Task,55,59726,62,yes,1024
88.88888889,88.88888889,961.968254,961.968254,black,experiment,legacy,legacy,legacy,0,uniform,1,undefined,1,right,62,62,0,62,62,0,0,62,0,62,0,0,62,62,62,10/20/19 14:18,The main experiment item,yes,SternbergTask.osexp,F:/Classwork/AQMAED,no,mono,no,18,no,white,no,yes,768,legacy,50,11,F:/Classwork/AQMAED/Sternberg_LA_subject-1.csv,legacy,1 7 8 3 9,Kafkaesque Koffka,3.2.8,0,n,0,right,right,right,NA,right,878,11007,5122,NA,878,2,legacy,5,1024,2,48000,-16,experiment,1,odd,2,407688,408795,93322,408796,411005,2037,88199,409801,13045,413010,NA,2031,331095,413011,413889,Sternberg Task,56,60604,63,yes,1024
89.0625,89.0625,965.078125,965.078125,black,experiment,legacy,legacy,legacy,0,uniform,1,undefined,1,right,63,63,0,63,63,0,0,63,0,63,0,0,63,63,63,10/20/19 14:18,The main experiment item,yes,SternbergTask.osexp,F:/Classwork/AQMAED,no,mono,no,18,no,white,no,yes,768,legacy,51,11,F:/Classwork/AQMAED/Sternberg_LA_subject-1.csv,legacy,5,Kafkaesque Koffka,3.2.8,0,n,0,right,right,right,NA,right,1161,11007,5122,NA,1161,2,legacy,1,1024,2,48000,-16,experiment,1,odd,8,413896,414992,93322,414994,417204,2037,88199,415999,13045,419209,NA,2031,331095,419209,420371,Sternberg Task,57,61765,64,yes,1024
89.23076923,89.23076923,973.8153846,973.8153846,black,experiment,legacy,legacy,legacy,0,uniform,1,undefined,1,right,64,64,0,64,64,0,0,64,0,64,0,0,64,64,64,10/20/19 14:18,The main experiment item,yes,SternbergTask.osexp,F:/Classwork/AQMAED,no,mono,no,18,no,white,no,yes,768,legacy,52,11,F:/Classwork/AQMAED/Sternberg_LA_subject-1.csv,legacy,4 2 7 6 1 3,Kafkaesque Koffka,3.2.8,0,n,0,right,right,right,NA,right,1533,11007,5122,NA,1533,2,legacy,6,1024,2,48000,-16,experiment,1,odd,8,420376,421476,93322,421478,423685,2037,88199,422483,13045,425691,NA,2031,331095,425691,427225,Sternberg Task,58,63298,65,yes,1024
89.39393939,89.39393939,976.0909091,976.0909091,black,experiment,legacy,legacy,legacy,0,uniform,1,undefined,1,left,65,65,0,65,65,0,0,65,0,65,0,0,65,65,65,10/20/19 14:18,The main experiment item,yes,SternbergTask.osexp,F:/Classwork/AQMAED,no,mono,no,18,no,white,no,yes,768,legacy,53,11,F:/Classwork/AQMAED/Sternberg_LA_subject-1.csv,legacy,8 5 4 7 3 1,Kafkaesque Koffka,3.2.8,2,y,0,left,right,right,NA,left,1124,11007,5122,NA,1124,2,legacy,6,1024,2,48000,-16,experiment,1,odd,5,427230,428308,93322,428310,430519,2037,88199,429315,13045,432525,NA,2031,331095,432526,433651,Sternberg Task,59,64422,66,yes,1024
89.55223881,89.55223881,979.1044776,979.1044776,black,experiment,legacy,legacy,legacy,0,uniform,1,undefined,1,left,66,66,0,66,66,0,0,66,0,66,0,0,66,66,66,10/20/19 14:18,The main experiment item,yes,SternbergTask.osexp,F:/Classwork/AQMAED,no,mono,no,18,no,white,no,yes,768,legacy,54,11,F:/Classwork/AQMAED/Sternberg_LA_subject-1.csv,legacy,9 6 2 4 1,Kafkaesque Koffka,3.2.8,4,y,0,left,right,right,NA,left,1178,11007,5122,NA,1178,2,legacy,5,1024,2,48000,-16,experiment,1,odd,4,433663,434758,93322,434760,436971,2037,88199,435765,13045,438977,NA,2031,331095,438977,440156,Sternberg Task,60,65600,67,yes,1024
89.70588235,89.70588235,984.6176471,984.6176471,black,experiment,legacy,legacy,legacy,0,uniform,1,undefined,1,left,67,67,0,67,67,0,0,67,0,67,0,0,67,67,67,10/20/19 14:18,The main experiment item,yes,SternbergTask.osexp,F:/Classwork/AQMAED,no,mono,no,18,no,white,no,yes,768,legacy,55,11,F:/Classwork/AQMAED/Sternberg_LA_subject-1.csv,legacy,3 9 7 6 4,Kafkaesque Koffka,3.2.8,3,y,0,left,right,right,NA,left,1354,11007,5122,NA,1354,2,legacy,5,1024,2,48000,-16,experiment,1,odd,7,440165,441272,93322,441274,443484,2037,88199,442279,13045,445489,NA,2031,331095,445490,446845,Sternberg Task,61,66954,68,yes,1024
89.85507246,89.85507246,991.8115942,991.8115942,black,experiment,legacy,legacy,legacy,0,uniform,1,undefined,1,left,68,68,0,68,68,0,0,68,0,68,0,0,68,68,68,10/20/19 14:18,The main experiment item,yes,SternbergTask.osexp,F:/Classwork/AQMAED,no,mono,no,18,no,white,no,yes,768,legacy,56,11,F:/Classwork/AQMAED/Sternberg_LA_subject-1.csv,legacy,6 1 2,Kafkaesque Koffka,3.2.8,3,y,0,left,right,right,NA,left,1481,11007,5122,NA,1481,2,legacy,3,1024,2,48000,-16,experiment,1,odd,2,446850,447951,93322,447953,450162,2037,88199,448958,13045,452167,NA,2031,331095,452169,453651,Sternberg Task,62,68435,69,yes,1024
90,90,990.4714286,990.4714286,black,experiment,legacy,legacy,legacy,0,uniform,1,undefined,1,left,69,69,0,69,69,0,0,69,0,69,0,0,69,69,69,10/20/19 14:18,The main experiment item,yes,SternbergTask.osexp,F:/Classwork/AQMAED,no,mono,no,18,no,white,no,yes,768,legacy,57,11,F:/Classwork/AQMAED/Sternberg_LA_subject-1.csv,legacy,3 2 1 4 7,Kafkaesque Koffka,3.2.8,2,y,0,left,right,right,NA,left,898,11007,5122,NA,898,2,legacy,5,1024,2,48000,-16,experiment,1,odd,2,453656,454764,93322,454766,456976,2037,88199,455770,13045,458981,NA,2031,331095,458982,459881,Sternberg Task,63,69333,70,yes,1024
90.14084507,90.14084507,992.3239437,992.3239437,black,experiment,legacy,legacy,legacy,0,uniform,1,undefined,1,right,70,70,0,70,70,0,0,70,0,70,0,0,70,70,70,10/20/19 14:18,The main experiment item,yes,SternbergTask.osexp,F:/Classwork/AQMAED,no,mono,no,18,no,white,no,yes,768,legacy,58,11,F:/Classwork/AQMAED/Sternberg_LA_subject-1.csv,legacy,1 8 7,Kafkaesque Koffka,3.2.8,0,n,0,right,right,right,NA,right,1122,11007,5122,NA,1122,2,legacy,3,1024,2,48000,-16,experiment,1,odd,4,459887,461006,93322,461008,463218,2037,88199,462013,13045,465223,NA,2031,331095,465223,466346,Sternberg Task,64,70455,71,yes,1024
90.27777778,90.27777778,991.1111111,991.1111111,black,experiment,legacy,legacy,legacy,0,uniform,1,undefined,1,right,71,71,0,71,71,0,0,71,0,71,0,0,71,71,71,10/20/19 14:18,The main experiment item,yes,SternbergTask.osexp,F:/Classwork/AQMAED,no,mono,no,18,no,white,no,yes,768,legacy,59,11,F:/Classwork/AQMAED/Sternberg_LA_subject-1.csv,legacy,6 8 4,Kafkaesque Koffka,3.2.8,0,n,0,right,right,right,NA,right,905,11007,5122,NA,905,2,legacy,3,1024,2,48000,-16,experiment,1,odd,1,466357,467451,93322,467453,469662,2037,88199,468458,13045,471668,NA,2031,331095,471668,472574,Sternberg Task,65,71360,72,yes,1024
89.04109589,89.04109589,995.0136986,995.0136986,black,experiment,legacy,legacy,legacy,0,uniform,0,undefined,0,left,72,72,0,72,72,0,0,72,0,72,0,0,72,72,72,10/20/19 14:18,The main experiment item,yes,SternbergTask.osexp,F:/Classwork/AQMAED,no,mono,no,18,no,white,no,yes,768,legacy,60,11,F:/Classwork/AQMAED/Sternberg_LA_subject-1.csv,legacy,7 8 6 3 1,Kafkaesque Koffka,3.2.8,5,y,0,right,right,right,NA,right,1276,11007,5122,NA,1276,2,legacy,5,1024,2,48000,-16,experiment,1,odd,1,472583,473686,93322,473688,475897,2037,88199,474693,13045,477903,NA,2031,331095,477903,479180,Sternberg Task,65,72636,73,yes,1024
89.18918919,89.18918919,997.6486486,997.6486486,black,experiment,legacy,legacy,legacy,0,uniform,1,undefined,1,left,73,73,0,73,73,0,0,73,0,73,0,0,73,73,73,10/20/19 14:18,The main experiment item,yes,SternbergTask.osexp,F:/Classwork/AQMAED,no,mono,no,18,no,white,no,yes,768,legacy,61,11,F:/Classwork/AQMAED/Sternberg_LA_subject-1.csv,legacy,6 7 9 3 1 2,Kafkaesque Koffka,3.2.8,1,y,0,left,right,right,NA,left,1190,11007,5122,NA,1190,2,legacy,6,1024,2,48000,-16,experiment,1,odd,6,472583,480289,93322,480291,482500,2037,88199,481295,13045,484505,NA,2031,479185,484505,485697,Sternberg Task,66,73826,74,yes,1024
89.33333333,89.33333333,997.8266667,997.8266667,black,experiment,legacy,legacy,legacy,0,uniform,1,undefined,1,left,74,74,0,74,74,0,0,74,0,74,0,0,74,74,74,10/20/19 14:18,The main experiment item,yes,SternbergTask.osexp,F:/Classwork/AQMAED,no,mono,no,18,no,white,no,yes,768,legacy,62,11,F:/Classwork/AQMAED/Sternberg_LA_subject-1.csv,legacy,7,Kafkaesque Koffka,3.2.8,1,y,0,left,right,right,NA,left,1011,11007,5122,NA,1011,2,legacy,1,1024,2,48000,-16,experiment,1,odd,7,485701,486796,93322,486798,489007,2037,88199,487803,13045,491012,NA,2031,479185,491013,492025,Sternberg Task,67,74837,75,yes,1024
89.47368421,89.47368421,1001.276316,1001.276316,black,experiment,legacy,legacy,legacy,0,uniform,1,undefined,1,left,75,75,0,75,75,0,0,75,0,75,0,0,75,75,75,10/20/19 14:18,The main experiment item,yes,SternbergTask.osexp,F:/Classwork/AQMAED,no,mono,no,18,no,white,no,yes,768,legacy,63,11,F:/Classwork/AQMAED/Sternberg_LA_subject-1.csv,legacy,9 3 1 2 5,Kafkaesque Koffka,3.2.8,4,y,0,left,right,right,NA,left,1260,11007,5122,NA,1260,2,legacy,5,1024,2,48000,-16,experiment,1,odd,2,492035,493131,93322,493133,495344,2037,88199,494139,13045,497349,NA,2031,479185,497349,498610,Sternberg Task,68,76097,76,yes,1024
89.61038961,89.61038961,999.025974,999.025974,black,experiment,legacy,legacy,legacy,0,uniform,1,undefined,1,right,76,76,0,76,76,0,0,76,0,76,0,0,76,76,76,10/20/19 14:18,The main experiment item,yes,SternbergTask.osexp,F:/Classwork/AQMAED,no,mono,no,18,no,white,no,yes,768,legacy,64,11,F:/Classwork/AQMAED/Sternberg_LA_subject-1.csv,legacy,3 4 9 6 7 8,Kafkaesque Koffka,3.2.8,0,n,0,right,right,right,NA,right,828,11007,5122,NA,828,2,legacy,6,1024,2,48000,-16,experiment,1,odd,2,498617,499709,93322,499711,501921,2037,88199,500716,13045,503926,NA,2031,479185,503926,504755,Sternberg Task,69,76925,77,yes,1024
89.74358974,89.74358974,997.9871795,997.9871795,black,experiment,legacy,legacy,legacy,0,uniform,1,undefined,1,left,77,77,0,77,77,0,0,77,0,77,0,0,77,77,77,10/20/19 14:18,The main experiment item,yes,SternbergTask.osexp,F:/Classwork/AQMAED,no,mono,no,18,no,white,no,yes,768,legacy,65,11,F:/Classwork/AQMAED/Sternberg_LA_subject-1.csv,legacy,2 4 8 5 1 3,Kafkaesque Koffka,3.2.8,1,y,0,left,right,right,NA,left,918,11007,5122,NA,918,2,legacy,6,1024,2,48000,-16,experiment,1,odd,2,504768,505858,93322,505860,508071,2037,88199,506866,13045,510075,NA,2031,479185,510076,510995,Sternberg Task,70,77843,78,yes,1024
89.87341772,89.87341772,1001.658228,1001.658228,black,experiment,legacy,legacy,legacy,0,uniform,1,undefined,1,left,78,78,0,78,78,0,0,78,0,78,0,0,78,78,78,10/20/19 14:18,The main experiment item,yes,SternbergTask.osexp,F:/Classwork/AQMAED,no,mono,no,18,no,white,no,yes,768,legacy,66,11,F:/Classwork/AQMAED/Sternberg_LA_subject-1.csv,legacy,4 1 8 7 5,Kafkaesque Koffka,3.2.8,3,y,0,left,right,right,NA,left,1288,11007,5122,NA,1288,2,legacy,5,1024,2,48000,-16,experiment,1,odd,8,511002,512086,93322,512088,514296,2037,88199,513091,13045,516301,NA,2031,479185,516301,517591,Sternberg Task,71,79131,79,yes,1024
90,90,1003.2875,1003.2875,black,experiment,legacy,legacy,legacy,0,uniform,1,undefined,1,left,79,79,0,79,79,0,0,79,0,79,0,0,79,79,79,10/20/19 14:18,The main experiment item,yes,SternbergTask.osexp,F:/Classwork/AQMAED,no,mono,no,18,no,white,no,yes,768,legacy,67,11,F:/Classwork/AQMAED/Sternberg_LA_subject-1.csv,legacy,5 2 9 6 1 7,Kafkaesque Koffka,3.2.8,3,y,0,left,right,right,NA,left,1132,11007,5122,NA,1132,2,legacy,6,1024,2,48000,-16,experiment,1,odd,9,517602,518709,93322,518711,520921,2037,88199,519716,13045,522925,NA,2031,479185,522926,524059,Sternberg Task,72,80263,80,yes,1024
90.12345679,90.12345679,998.9876543,998.9876543,black,experiment,legacy,legacy,legacy,0,uniform,1,undefined,1,left,80,80,0,80,80,0,0,80,0,80,0,0,80,80,80,10/20/19 14:18,The main experiment item,yes,SternbergTask.osexp,F:/Classwork/AQMAED,no,mono,no,18,no,white,no,yes,768,legacy,68,11,F:/Classwork/AQMAED/Sternberg_LA_subject-1.csv,legacy,9 8 4,Kafkaesque Koffka,3.2.8,1,y,0,left,right,right,NA,left,655,11007,5122,NA,655,2,legacy,3,1024,2,48000,-16,experiment,1,odd,9,524065,525139,93322,525141,527351,2037,88199,526145,13045,529356,NA,2031,479185,529356,530012,Sternberg Task,73,80918,81,yes,1024
90.24390244,90.24390244,1000.304878,1000.304878,black,experiment,legacy,legacy,legacy,0,uniform,1,undefined,1,right,81,81,0,81,81,0,0,81,0,81,0,0,81,81,81,10/20/19 14:18,The main experiment item,yes,SternbergTask.osexp,F:/Classwork/AQMAED,no,mono,no,18,no,white,no,yes,768,legacy,69,11,F:/Classwork/AQMAED/Sternberg_LA_subject-1.csv,legacy,8 4 3 5,Kafkaesque Koffka,3.2.8,0,n,0,right,right,right,NA,right,1107,11007,5122,NA,1107,2,legacy,4,1024,2,48000,-16,experiment,1,odd,6,530021,531114,93322,531116,533323,2037,88199,532121,13045,535324,NA,2031,479185,535325,536432,Sternberg Task,74,82025,82,yes,1024
90.36144578,90.36144578,1001.216867,1001.216867,black,experiment,legacy,legacy,legacy,0,uniform,1,undefined,1,left,82,82,0,82,82,0,0,82,0,82,0,0,82,82,82,10/20/19 14:18,The main experiment item,yes,SternbergTask.osexp,F:/Classwork/AQMAED,no,mono,no,18,no,white,no,yes,768,legacy,70,11,F:/Classwork/AQMAED/Sternberg_LA_subject-1.csv,legacy,9 1 6 7 8,Kafkaesque Koffka,3.2.8,1,y,0,left,right,right,NA,left,1076,11007,5122,NA,1076,2,legacy,5,1024,2,48000,-16,experiment,1,odd,9,536439,537547,93322,537549,539758,2037,88199,538553,13045,541762,NA,2031,479185,541763,542840,Sternberg Task,75,83101,83,yes,1024
90.47619048,90.47619048,999.4761905,999.4761905,black,experiment,legacy,legacy,legacy,0,uniform,1,undefined,1,right,83,83,0,83,83,0,0,83,0,83,0,0,83,83,83,10/20/19 14:18,The main experiment item,yes,SternbergTask.osexp,F:/Classwork/AQMAED,no,mono,no,18,no,white,no,yes,768,legacy,71,11,F:/Classwork/AQMAED/Sternberg_LA_subject-1.csv,legacy,1 7 5 2,Kafkaesque Koffka,3.2.8,0,n,0,right,right,right,NA,right,855,11007,5122,NA,855,2,legacy,4,1024,2,48000,-16,experiment,1,odd,3,542845,543938,93322,543941,546151,2037,88199,544946,13045,548156,NA,2031,479185,548156,549012,Sternberg Task,76,83956,84,yes,1024
90.58823529,90.58823529,996.4705882,996.4705882,black,experiment,legacy,legacy,legacy,0,uniform,1,undefined,1,left,84,84,0,84,84,0,0,84,0,84,0,0,84,84,84,10/20/19 14:18,The main experiment item,yes,SternbergTask.osexp,F:/Classwork/AQMAED,no,mono,no,18,no,white,no,yes,768,legacy,72,11,F:/Classwork/AQMAED/Sternberg_LA_subject-1.csv,legacy,8,Kafkaesque Koffka,3.2.8,1,y,0,left,right,right,NA,left,744,11007,5122,NA,744,2,legacy,1,1024,2,48000,-16,experiment,1,odd,8,549017,550114,93322,550116,552325,2037,88199,551121,13045,554330,NA,2031,479185,554332,555077,Sternberg Task,77,84700,85,yes,1024
90.69767442,90.69767442,994.6395349,994.6395349,black,experiment,legacy,legacy,legacy,0,uniform,1,undefined,1,left,85,85,0,85,85,0,0,85,0,85,0,0,85,85,85,10/20/19 14:18,The main experiment item,yes,SternbergTask.osexp,F:/Classwork/AQMAED,no,mono,no,18,no,white,no,yes,768,legacy,73,11,F:/Classwork/AQMAED/Sternberg_LA_subject-1.csv,legacy,8 9 5 6 7,Kafkaesque Koffka,3.2.8,1,y,0,left,right,right,NA,left,839,11007,5122,NA,839,2,legacy,5,1024,2,48000,-16,experiment,1,odd,8,555087,556174,93322,556176,558386,2037,88199,557181,13045,560391,NA,2031,479185,560392,561232,Sternberg Task,78,85539,86,yes,1024
90.8045977,90.8045977,996.3563218,996.3563218,black,experiment,legacy,legacy,legacy,0,uniform,1,undefined,1,left,86,86,0,86,86,0,0,86,0,86,0,0,86,86,86,10/20/19 14:18,The main experiment item,yes,SternbergTask.osexp,F:/Classwork/AQMAED,no,mono,no,18,no,white,no,yes,768,legacy,74,11,F:/Classwork/AQMAED/Sternberg_LA_subject-1.csv,legacy,7 1 8 5 6 2,Kafkaesque Koffka,3.2.8,2,y,0,left,right,right,NA,left,1144,11007,5122,NA,1144,2,legacy,6,1024,2,48000,-16,experiment,1,odd,1,561238,562340,93322,562342,564552,2037,88199,563347,13045,566557,NA,2031,479185,566558,567703,Sternberg Task,79,86683,87,yes,1024
90.90909091,90.90909091,995.3295455,995.3295455,black,experiment,legacy,legacy,legacy,0,uniform,1,undefined,1,left,87,87,0,87,87,0,0,87,0,87,0,0,87,87,87,10/20/19 14:18,The main experiment item,yes,SternbergTask.osexp,F:/Classwork/AQMAED,no,mono,no,18,no,white,no,yes,768,legacy,75,11,F:/Classwork/AQMAED/Sternberg_LA_subject-1.csv,legacy,7 2 3,Kafkaesque Koffka,3.2.8,3,y,0,left,right,right,NA,left,906,11007,5122,NA,906,2,legacy,3,1024,2,48000,-16,experiment,1,odd,3,567711,568806,93322,568808,571021,2037,88199,569814,13045,573026,NA,2031,479185,573027,573934,Sternberg Task,80,87589,88,yes,1024
91.01123596,91.01123596,995.9775281,995.9775281,black,experiment,legacy,legacy,legacy,0,uniform,1,undefined,1,left,88,88,0,88,88,0,0,88,0,88,0,0,88,88,88,10/20/19 14:18,The main experiment item,yes,SternbergTask.osexp,F:/Classwork/AQMAED,no,mono,no,18,no,white,no,yes,768,legacy,76,11,F:/Classwork/AQMAED/Sternberg_LA_subject-1.csv,legacy,8 5 3 7 4 6,Kafkaesque Koffka,3.2.8,6,y,0,left,right,right,NA,left,1053,11007,5122,NA,1053,2,legacy,6,1024,2,48000,-16,experiment,1,odd,6,573940,575042,93322,575044,577253,2037,88199,576048,13045,579258,NA,2031,479185,579259,580313,Sternberg Task,81,88642,89,yes,1024
91.11111111,91.11111111,996.1888889,996.1888889,black,experiment,legacy,legacy,legacy,0,uniform,1,undefined,1,left,89,89,0,89,89,0,0,89,0,89,0,0,89,89,89,10/20/19 14:18,The main experiment item,yes,SternbergTask.osexp,F:/Classwork/AQMAED,no,mono,no,18,no,white,no,yes,768,legacy,77,11,F:/Classwork/AQMAED/Sternberg_LA_subject-1.csv,legacy,7 4 2 6 3 5,Kafkaesque Koffka,3.2.8,6,y,0,left,right,right,NA,left,1015,11007,5122,NA,1015,2,legacy,6,1024,2,48000,-16,experiment,1,odd,5,580325,581424,93322,581426,583636,2037,88199,582431,13045,585641,NA,2031,479185,585641,586658,Sternberg Task,82,89657,90,yes,1024
91.20879121,91.20879121,997.7032967,997.7032967,black,experiment,legacy,legacy,legacy,0,uniform,1,undefined,1,right,90,90,0,90,90,0,0,90,0,90,0,0,90,90,90,10/20/19 14:18,The main experiment item,yes,SternbergTask.osexp,F:/Classwork/AQMAED,no,mono,no,18,no,white,no,yes,768,legacy,78,11,F:/Classwork/AQMAED/Sternberg_LA_subject-1.csv,legacy,7 6 4 8 1 2,Kafkaesque Koffka,3.2.8,0,n,0,right,right,right,NA,right,1134,11007,5122,NA,1134,2,legacy,6,1024,2,48000,-16,experiment,1,odd,9,586664,587766,93322,587768,589978,2037,88199,588773,13045,591984,NA,2031,479185,591984,593119,Sternberg Task,83,90791,91,yes,1024
91.30434783,91.30434783,996.4673913,996.4673913,black,experiment,legacy,legacy,legacy,0,uniform,1,undefined,1,left,91,91,0,91,91,0,0,91,0,91,0,0,91,91,91,10/20/19 14:18,The main experiment item,yes,SternbergTask.osexp,F:/Classwork/AQMAED,no,mono,no,18,no,white,no,yes,768,legacy,79,11,F:/Classwork/AQMAED/Sternberg_LA_subject-1.csv,legacy,2 3,Kafkaesque Koffka,3.2.8,1,y,0,left,right,right,NA,left,884,11007,5122,NA,884,2,legacy,2,1024,2,48000,-16,experiment,1,odd,2,593125,594224,93322,594226,596436,2037,88199,595230,13045,598441,NA,2031,479185,598442,599327,Sternberg Task,84,91675,92,yes,1024
91.39784946,91.39784946,994.2795699,994.2795699,black,experiment,legacy,legacy,legacy,0,uniform,1,undefined,1,left,92,92,0,92,92,0,0,92,0,92,0,0,92,92,92,10/20/19 14:18,The main experiment item,yes,SternbergTask.osexp,F:/Classwork/AQMAED,no,mono,no,18,no,white,no,yes,768,legacy,80,11,F:/Classwork/AQMAED/Sternberg_LA_subject-1.csv,legacy,6 7 8 5,Kafkaesque Koffka,3.2.8,3,y,0,left,right,right,NA,left,793,11007,5122,NA,793,2,legacy,4,1024,2,48000,-16,experiment,1,odd,8,599332,600427,93322,600429,602639,2037,88199,601434,13045,604642,NA,2031,479185,604642,605436,Sternberg Task,85,92468,93,yes,1024
91.4893617,91.4893617,995.6276596,995.6276596,black,experiment,legacy,legacy,legacy,0,uniform,1,undefined,1,right,93,93,0,93,93,0,0,93,0,93,0,0,93,93,93,10/20/19 14:18,The main experiment item,yes,SternbergTask.osexp,F:/Classwork/AQMAED,no,mono,no,18,no,white,no,yes,768,legacy,81,11,F:/Classwork/AQMAED/Sternberg_LA_subject-1.csv,legacy,6 9 4 5 3 2,Kafkaesque Koffka,3.2.8,0,n,0,right,right,right,NA,right,1121,11007,5122,NA,1121,2,legacy,6,1024,2,48000,-16,experiment,1,odd,8,605448,606552,93322,606554,608764,2037,88199,607559,13045,610769,NA,2031,479185,610771,611893,Sternberg Task,86,93589,94,yes,1024
91.57894737,91.57894737,993.8210526,993.8210526,black,experiment,legacy,legacy,legacy,0,uniform,1,undefined,1,left,94,94,0,94,94,0,0,94,0,94,0,0,94,94,94,10/20/19 14:18,The main experiment item,yes,SternbergTask.osexp,F:/Classwork/AQMAED,no,mono,no,18,no,white,no,yes,768,legacy,82,11,F:/Classwork/AQMAED/Sternberg_LA_subject-1.csv,legacy,4 6 5 8,Kafkaesque Koffka,3.2.8,1,y,0,left,right,right,NA,left,824,11007,5122,NA,824,2,legacy,4,1024,2,48000,-16,experiment,1,odd,4,611899,613007,93322,613009,615216,2037,88199,614011,13045,617221,NA,2031,479185,617221,618046,Sternberg Task,87,94413,95,yes,1024
91.66666667,91.66666667,991.7291667,991.7291667,black,experiment,legacy,legacy,legacy,0,uniform,1,undefined,1,right,95,95,0,95,95,0,0,95,0,95,0,0,95,95,95,10/20/19 14:18,The main experiment item,yes,SternbergTask.osexp,F:/Classwork/AQMAED,no,mono,no,18,no,white,no,yes,768,legacy,83,11,F:/Classwork/AQMAED/Sternberg_LA_subject-1.csv,legacy,8 5 4 2 9 6,Kafkaesque Koffka,3.2.8,0,n,0,right,right,right,NA,right,793,11007,5122,NA,793,2,legacy,6,1024,2,48000,-16,experiment,1,odd,3,618051,619148,93322,619150,621360,2037,88199,620155,13045,623366,NA,2031,479185,623367,624161,Sternberg Task,88,95206,96,yes,1024
91.75257732,91.75257732,989.4123711,989.4123711,black,experiment,legacy,legacy,legacy,0,uniform,1,undefined,1,left,96,96,0,96,96,0,0,96,0,96,0,0,96,96,96,10/20/19 14:18,The main experiment item,yes,SternbergTask.osexp,F:/Classwork/AQMAED,no,mono,no,18,no,white,no,yes,768,legacy,84,11,F:/Classwork/AQMAED/Sternberg_LA_subject-1.csv,legacy,8 7 3,Kafkaesque Koffka,3.2.8,1,y,0,left,right,right,NA,left,767,11007,5122,NA,767,2,legacy,3,1024,2,48000,-16,experiment,1,odd,8,624174,625271,93322,625273,627482,2037,88199,626277,13045,629487,NA,2031,479185,629487,630255,Sternberg Task,89,95973,97,yes,1024
91.83673469,91.83673469,986.5612245,986.5612245,black,experiment,legacy,legacy,legacy,0,uniform,1,undefined,1,right,97,97,0,97,97,0,0,97,0,97,0,0,97,97,97,10/20/19 14:18,The main experiment item,yes,SternbergTask.osexp,F:/Classwork/AQMAED,no,mono,no,18,no,white,no,yes,768,legacy,85,11,F:/Classwork/AQMAED/Sternberg_LA_subject-1.csv,legacy,3 9 1,Kafkaesque Koffka,3.2.8,0,n,0,right,right,right,NA,right,710,11007,5122,NA,710,2,legacy,3,1024,2,48000,-16,experiment,1,odd,7,630266,631369,93322,631372,633582,2037,88199,632376,13045,635587,NA,2031,479185,635588,636299,Sternberg Task,90,96683,98,yes,1024
91.91919192,91.91919192,983.969697,983.969697,black,experiment,legacy,legacy,legacy,0,uniform,1,undefined,1,right,98,98,0,98,98,0,0,98,0,98,0,0,98,98,98,10/20/19 14:18,The main experiment item,yes,SternbergTask.osexp,F:/Classwork/AQMAED,no,mono,no,18,no,white,no,yes,768,legacy,86,11,F:/Classwork/AQMAED/Sternberg_LA_subject-1.csv,legacy,5 9 2 3,Kafkaesque Koffka,3.2.8,0,n,0,right,right,right,NA,right,730,11007,5122,NA,730,2,legacy,4,1024,2,48000,-16,experiment,1,odd,8,636306,637408,93322,637410,639618,2037,88199,638415,13045,641623,NA,2031,479185,641623,642354,Sternberg Task,91,97413,99,yes,1024
92,92,982.94,982.94,black,experiment,legacy,legacy,legacy,0,uniform,1,undefined,1,left,99,99,0,99,99,0,0,99,0,99,0,0,99,99,99,10/20/19 14:18,The main experiment item,yes,SternbergTask.osexp,F:/Classwork/AQMAED,no,mono,no,18,no,white,no,yes,768,legacy,87,11,F:/Classwork/AQMAED/Sternberg_LA_subject-1.csv,legacy,8 5 1 3 9,Kafkaesque Koffka,3.2.8,4,y,0,left,right,right,NA,left,881,11007,5122,NA,881,2,legacy,5,1024,2,48000,-16,experiment,1,odd,3,642362,643465,93322,643467,645677,2037,88199,644471,13045,647682,NA,2031,479185,647682,648564,Sternberg Task,92,98294,100,yes,1024
92.07920792,92.07920792,981.5940594,981.5940594,black,experiment,legacy,legacy,legacy,0,uniform,1,undefined,1,right,100,100,0,100,100,0,0,100,0,100,0,0,100,100,100,10/20/19 14:18,The main experiment item,yes,SternbergTask.osexp,F:/Classwork/AQMAED,no,mono,no,18,no,white,no,yes,768,legacy,88,11,F:/Classwork/AQMAED/Sternberg_LA_subject-1.csv,legacy,8 2 1 4 5 9,Kafkaesque Koffka,3.2.8,0,n,0,right,right,right,NA,right,847,11007,5122,NA,847,2,legacy,6,1024,2,48000,-16,experiment,1,odd,7,648569,649665,93322,649667,651877,2037,88199,650672,13045,653881,NA,2031,479185,653882,654729,Sternberg Task,93,99141,101,yes,1024
92.15686275,92.15686275,982.1568627,982.1568627,black,experiment,legacy,legacy,legacy,0,uniform,1,undefined,1,left,101,101,0,101,101,0,0,101,0,101,0,0,101,101,101,10/20/19 14:18,The main experiment item,yes,SternbergTask.osexp,F:/Classwork/AQMAED,no,mono,no,18,no,white,no,yes,768,legacy,89,11,F:/Classwork/AQMAED/Sternberg_LA_subject-1.csv,legacy,9 3 8 2 1 4,Kafkaesque Koffka,3.2.8,3,y,0,left,right,right,NA,left,1039,11007,5122,NA,1039,2,legacy,6,1024,2,48000,-16,experiment,1,odd,8,654742,655833,93322,655835,658043,2037,88199,656838,13045,660047,NA,2031,479185,660048,661088,Sternberg Task,94,100180,102,yes,1024
91.26213592,91.26213592,983.5339806,983.5339806,black,experiment,legacy,legacy,legacy,0,uniform,0,undefined,0,right,102,102,0,102,102,0,0,102,0,102,0,0,102,102,102,10/20/19 14:18,The main experiment item,yes,SternbergTask.osexp,F:/Classwork/AQMAED,no,mono,no,18,no,white,no,yes,768,legacy,90,11,F:/Classwork/AQMAED/Sternberg_LA_subject-1.csv,legacy,1 3 2 6 9,Kafkaesque Koffka,3.2.8,0,n,0,left,right,right,NA,left,1124,11007,5122,NA,1124,2,legacy,5,1024,2,48000,-16,experiment,1,odd,5,661096,662196,93322,662198,664408,2037,88199,663203,13045,666413,NA,2031,479185,666413,667538,Sternberg Task,94,101304,103,yes,1024
91.34615385,91.34615385,983.5865385,983.5865385,black,experiment,legacy,legacy,legacy,0,uniform,1,undefined,1,right,103,103,0,103,103,0,0,103,0,103,0,0,103,103,103,10/20/19 14:18,The main experiment item,yes,SternbergTask.osexp,F:/Classwork/AQMAED,no,mono,no,18,no,white,no,yes,768,legacy,91,11,F:/Classwork/AQMAED/Sternberg_LA_subject-1.csv,legacy,2 3 8 5 6 7,Kafkaesque Koffka,3.2.8,0,n,0,right,right,right,NA,right,989,11007,5122,NA,989,2,legacy,6,1024,2,48000,-16,experiment,1,odd,1,661096,668653,93322,668655,670863,2037,88199,669658,13045,672866,NA,2031,667546,672867,673857,Sternberg Task,95,102293,104,yes,1024
91.42857143,91.42857143,988.7428571,988.7428571,black,experiment,legacy,legacy,legacy,0,uniform,1,undefined,1,left,104,104,0,104,104,0,0,104,0,104,0,0,104,104,104,10/20/19 14:18,The main experiment item,yes,SternbergTask.osexp,F:/Classwork/AQMAED,no,mono,no,18,no,white,no,yes,768,legacy,92,11,F:/Classwork/AQMAED/Sternberg_LA_subject-1.csv,legacy,2 4 6 9,Kafkaesque Koffka,3.2.8,3,y,0,left,right,right,NA,left,1525,11007,5122,NA,1525,2,legacy,4,1024,2,48000,-16,experiment,1,odd,6,673861,674959,93322,674961,677171,2037,88199,675966,13045,679176,NA,2031,667546,679177,680703,Sternberg Task,96,103818,105,yes,1024
91.50943396,91.50943396,989.1132075,989.1132075,black,experiment,legacy,legacy,legacy,0,uniform,1,undefined,1,left,105,105,0,105,105,0,0,105,0,105,0,0,105,105,105,10/20/19 14:18,The main experiment item,yes,SternbergTask.osexp,F:/Classwork/AQMAED,no,mono,no,18,no,white,no,yes,768,legacy,93,11,F:/Classwork/AQMAED/Sternberg_LA_subject-1.csv,legacy,4 7 6 8 2 3,Kafkaesque Koffka,3.2.8,6,y,0,left,right,right,NA,left,1028,11007,5122,NA,1028,2,legacy,6,1024,2,48000,-16,experiment,1,odd,3,680713,681800,93322,681802,684013,2037,88199,682808,13045,686018,NA,2031,667546,686018,687048,Sternberg Task,97,104846,106,yes,1024
91.58878505,91.58878505,993.1775701,993.1775701,black,experiment,legacy,legacy,legacy,0,uniform,1,undefined,1,right,106,106,0,106,106,0,0,106,0,106,0,0,106,106,106,10/20/19 14:18,The main experiment item,yes,SternbergTask.osexp,F:/Classwork/AQMAED,no,mono,no,18,no,white,no,yes,768,legacy,94,11,F:/Classwork/AQMAED/Sternberg_LA_subject-1.csv,legacy,8 4 3 9,Kafkaesque Koffka,3.2.8,0,n,0,right,right,right,NA,right,1424,11007,5122,NA,1424,2,legacy,4,1024,2,48000,-16,experiment,1,odd,5,687058,688154,93322,688157,690366,2037,88199,689161,13045,692370,NA,2031,667546,692371,693796,Sternberg Task,98,106270,107,yes,1024
91.66666667,91.66666667,991.6851852,991.6851852,black,experiment,legacy,legacy,legacy,0,uniform,1,undefined,1,right,107,107,0,107,107,0,0,107,0,107,0,0,107,107,107,10/20/19 14:18,The main experiment item,yes,SternbergTask.osexp,F:/Classwork/AQMAED,no,mono,no,18,no,white,no,yes,768,legacy,95,11,F:/Classwork/AQMAED/Sternberg_LA_subject-1.csv,legacy,8 6 3 4 7,Kafkaesque Koffka,3.2.8,0,n,0,right,right,right,NA,right,832,11007,5122,NA,832,2,legacy,5,1024,2,48000,-16,experiment,1,odd,1,693802,694910,93322,694912,697122,2037,88199,695917,13045,699127,NA,2031,667546,699127,699960,Sternberg Task,99,107102,108,yes,1024
91.74311927,91.74311927,989.5321101,989.5321101,black,experiment,legacy,legacy,legacy,0,uniform,1,undefined,1,right,108,108,0,108,108,0,0,108,0,108,0,0,108,108,108,10/20/19 14:18,The main experiment item,yes,SternbergTask.osexp,F:/Classwork/AQMAED,no,mono,no,18,no,white,no,yes,768,legacy,96,11,F:/Classwork/AQMAED/Sternberg_LA_subject-1.csv,legacy,5 3 2 6 9 8,Kafkaesque Koffka,3.2.8,0,n,0,right,right,right,NA,right,757,11007,5122,NA,757,2,legacy,6,1024,2,48000,-16,experiment,1,odd,4,699965,701064,93322,701066,703276,2037,88199,702071,13045,705281,NA,2031,667546,705281,706039,Sternberg Task,100,107859,109,yes,1024
91.81818182,91.81818182,987.7363636,987.7363636,black,experiment,legacy,legacy,legacy,0,uniform,1,undefined,1,right,109,109,0,109,109,0,0,109,0,109,0,0,109,109,109,10/20/19 14:18,The main experiment item,yes,SternbergTask.osexp,F:/Classwork/AQMAED,no,mono,no,18,no,white,no,yes,768,legacy,97,11,F:/Classwork/AQMAED/Sternberg_LA_subject-1.csv,legacy,3 9 8 1 6 4,Kafkaesque Koffka,3.2.8,0,n,0,right,right,right,NA,right,792,11007,5122,NA,792,2,legacy,6,1024,2,48000,-16,experiment,1,odd,7,706052,707143,93322,707145,709355,2037,88199,708149,13045,711360,NA,2031,667546,711360,712153,Sternberg Task,101,108651,110,yes,1024
91.89189189,91.89189189,987.963964,987.963964,black,experiment,legacy,legacy,legacy,0,uniform,1,undefined,1,right,110,110,0,110,110,0,0,110,0,110,0,0,110,110,110,10/20/19 14:18,The main experiment item,yes,SternbergTask.osexp,F:/Classwork/AQMAED,no,mono,no,18,no,white,no,yes,768,legacy,98,11,F:/Classwork/AQMAED/Sternberg_LA_subject-1.csv,legacy,6 9 5,Kafkaesque Koffka,3.2.8,0,n,0,right,right,right,NA,right,1013,11007,5122,NA,1013,2,legacy,3,1024,2,48000,-16,experiment,1,odd,8,712161,713241,93322,713243,715454,2037,88199,714247,13045,717459,NA,2031,667546,717459,718474,Sternberg Task,102,109664,111,yes,1024
91.96428571,91.96428571,986.1071429,986.1071429,black,experiment,legacy,legacy,legacy,0,uniform,1,undefined,1,right,111,111,0,111,111,0,0,111,0,111,0,0,111,111,111,10/20/19 14:18,The main experiment item,yes,SternbergTask.osexp,F:/Classwork/AQMAED,no,mono,no,18,no,white,no,yes,768,legacy,99,11,F:/Classwork/AQMAED/Sternberg_LA_subject-1.csv,legacy,7 3 2 8,Kafkaesque Koffka,3.2.8,0,n,0,right,right,right,NA,right,780,11007,5122,NA,780,2,legacy,4,1024,2,48000,-16,experiment,1,odd,4,718480,719578,93322,719580,721790,2037,88199,720585,13045,723795,NA,2031,667546,723795,724576,Sternberg Task,103,110444,112,yes,1024
92.03539823,92.03539823,986.7168142,986.7168142,black,experiment,legacy,legacy,legacy,0,uniform,1,undefined,1,left,112,112,0,112,112,0,0,112,0,112,0,0,112,112,112,10/20/19 14:18,The main experiment item,yes,SternbergTask.osexp,F:/Classwork/AQMAED,no,mono,no,18,no,white,no,yes,768,legacy,100,11,F:/Classwork/AQMAED/Sternberg_LA_subject-1.csv,legacy,2 6 1 7 4,Kafkaesque Koffka,3.2.8,2,y,0,left,right,right,NA,left,1055,11007,5122,NA,1055,2,legacy,5,1024,2,48000,-16,experiment,1,odd,6,724581,725675,93322,725677,727884,2037,88199,726682,13045,729888,NA,2031,667546,729889,730945,Sternberg Task,104,111499,113,yes,1024
92.10526316,92.10526316,984.4824561,984.4824561,black,experiment,legacy,legacy,legacy,0,uniform,1,undefined,1,right,113,113,0,113,113,0,0,113,0,113,0,0,113,113,113,10/20/19 14:18,The main experiment item,yes,SternbergTask.osexp,F:/Classwork/AQMAED,no,mono,no,18,no,white,no,yes,768,legacy,101,11,F:/Classwork/AQMAED/Sternberg_LA_subject-1.csv,legacy,6 8,Kafkaesque Koffka,3.2.8,0,n,0,right,right,right,NA,right,732,11007,5122,NA,732,2,legacy,2,1024,2,48000,-16,experiment,1,odd,9,730964,732070,93322,732072,734282,2037,88199,733078,13045,736287,NA,2031,667546,736287,737020,Sternberg Task,105,112231,114,yes,1024
92.17391304,92.17391304,982.2782609,982.2782609,black,experiment,legacy,legacy,legacy,0,uniform,1,undefined,1,left,114,114,0,114,114,0,0,114,0,114,0,0,114,114,114,10/20/19 14:18,The main experiment item,yes,SternbergTask.osexp,F:/Classwork/AQMAED,no,mono,no,18,no,white,no,yes,768,legacy,102,11,F:/Classwork/AQMAED/Sternberg_LA_subject-1.csv,legacy,6 2,Kafkaesque Koffka,3.2.8,1,y,0,left,right,right,NA,left,731,11007,5122,NA,731,2,legacy,2,1024,2,48000,-16,experiment,1,odd,6,737027,738122,93322,738124,740334,2037,88199,739129,13045,742336,NA,2031,667546,742336,743068,Sternberg Task,106,112962,115,yes,1024
92.24137931,92.24137931,983.2931034,983.2931034,black,experiment,legacy,legacy,legacy,0,uniform,1,undefined,1,left,115,115,0,115,115,0,0,115,0,115,0,0,115,115,115,10/20/19 14:18,The main experiment item,yes,SternbergTask.osexp,F:/Classwork/AQMAED,no,mono,no,18,no,white,no,yes,768,legacy,103,11,F:/Classwork/AQMAED/Sternberg_LA_subject-1.csv,legacy,6 9 7 4 5 1,Kafkaesque Koffka,3.2.8,2,y,0,left,right,right,NA,left,1100,11007,5122,NA,1100,2,legacy,6,1024,2,48000,-16,experiment,1,odd,9,743072,744149,93322,744151,746361,2037,88199,745155,13045,748365,NA,2031,667546,748366,749467,Sternberg Task,107,114062,116,yes,1024
92.30769231,92.30769231,984.5811966,984.5811966,black,experiment,legacy,legacy,legacy,0,uniform,1,undefined,1,left,116,116,0,116,116,0,0,116,0,116,0,0,116,116,116,10/20/19 14:18,The main experiment item,yes,SternbergTask.osexp,F:/Classwork/AQMAED,no,mono,no,18,no,white,no,yes,768,legacy,104,11,F:/Classwork/AQMAED/Sternberg_LA_subject-1.csv,legacy,9 5 3 8 4,Kafkaesque Koffka,3.2.8,1,y,0,left,right,right,NA,left,1134,11007,5122,NA,1134,2,legacy,5,1024,2,48000,-16,experiment,1,odd,9,749473,750580,93322,750581,752792,2037,88199,751587,13045,754797,NA,2031,667546,754797,755932,Sternberg Task,108,115196,117,yes,1024
92.37288136,92.37288136,984.4322034,984.4322034,black,experiment,legacy,legacy,legacy,0,uniform,1,undefined,1,left,117,117,0,117,117,0,0,117,0,117,0,0,117,117,117,10/20/19 14:18,The main experiment item,yes,SternbergTask.osexp,F:/Classwork/AQMAED,no,mono,no,18,no,white,no,yes,768,legacy,105,11,F:/Classwork/AQMAED/Sternberg_LA_subject-1.csv,legacy,2 5 4 8 7,Kafkaesque Koffka,3.2.8,3,y,0,left,right,right,NA,left,967,11007,5122,NA,967,2,legacy,5,1024,2,48000,-16,experiment,1,odd,4,755944,757042,93322,757044,759252,2037,88199,758047,13045,761258,NA,2031,667546,761258,762226,Sternberg Task,109,116163,118,yes,1024
92.43697479,92.43697479,983.7563025,983.7563025,black,experiment,legacy,legacy,legacy,0,uniform,1,undefined,1,left,118,118,0,118,118,0,0,118,0,118,0,0,118,118,118,10/20/19 14:18,The main experiment item,yes,SternbergTask.osexp,F:/Classwork/AQMAED,no,mono,no,18,no,white,no,yes,768,legacy,106,11,F:/Classwork/AQMAED/Sternberg_LA_subject-1.csv,legacy,4 1 5,Kafkaesque Koffka,3.2.8,2,y,0,left,right,right,NA,left,904,11007,5122,NA,904,2,legacy,3,1024,2,48000,-16,experiment,1,odd,1,762234,763315,93322,763317,765525,2037,88199,764320,13045,767531,NA,2031,667546,767531,768436,Sternberg Task,110,117067,119,yes,1024
92.5,92.5,981.9916667,981.9916667,black,experiment,legacy,legacy,legacy,0,uniform,1,undefined,1,right,119,119,0,119,119,0,0,119,0,119,0,0,119,119,119,10/20/19 14:18,The main experiment item,yes,SternbergTask.osexp,F:/Classwork/AQMAED,no,mono,no,18,no,white,no,yes,768,legacy,107,11,F:/Classwork/AQMAED/Sternberg_LA_subject-1.csv,legacy,6 7 5 9,Kafkaesque Koffka,3.2.8,0,n,0,right,right,right,NA,right,772,11007,5122,NA,772,2,legacy,4,1024,2,48000,-16,experiment,1,odd,2,768441,769538,93322,769540,771750,2037,88199,770545,13045,773756,NA,2031,667546,773756,774529,Sternberg Task,111,117839,120,yes,1024
92.56198347,92.56198347,980.8760331,980.8760331,black,experiment,legacy,legacy,legacy,0,uniform,1,undefined,1,left,120,120,0,120,120,0,0,120,0,120,0,0,120,120,120,10/20/19 14:18,The main experiment item,yes,SternbergTask.osexp,F:/Classwork/AQMAED,no,mono,no,18,no,white,no,yes,768,legacy,108,11,F:/Classwork/AQMAED/Sternberg_LA_subject-1.csv,legacy,4,Kafkaesque Koffka,3.2.8,1,y,0,left,right,right,NA,left,847,11007,5122,NA,847,2,legacy,1,1024,2,48000,-16,experiment,1,odd,4,774534,775629,93322,775631,777841,2037,88199,776636,13045,779845,NA,2031,667546,779845,780693,Sternberg Task,112,118686,121,yes,1024
92.62295082,92.62295082,980.8278689,980.8278689,black,experiment,legacy,legacy,legacy,0,uniform,1,undefined,1,left,121,121,0,121,121,0,0,121,0,121,0,0,121,121,121,10/20/19 14:18,The main experiment item,yes,SternbergTask.osexp,F:/Classwork/AQMAED,no,mono,no,18,no,white,no,yes,768,legacy,109,11,F:/Classwork/AQMAED/Sternberg_LA_subject-1.csv,legacy,8 1 6,Kafkaesque Koffka,3.2.8,3,y,0,left,right,right,NA,left,975,11007,5122,NA,975,2,legacy,3,1024,2,48000,-16,experiment,1,odd,6,780706,781808,93322,781810,784020,2037,88199,782814,13045,786026,NA,2031,667546,786026,787002,Sternberg Task,113,119661,122,yes,1024
92.68292683,92.68292683,980.8292683,980.8292683,black,experiment,legacy,legacy,legacy,0,uniform,1,undefined,1,left,122,122,0,122,122,0,0,122,0,122,0,0,122,122,122,10/20/19 14:18,The main experiment item,yes,SternbergTask.osexp,F:/Classwork/AQMAED,no,mono,no,18,no,white,no,yes,768,legacy,110,11,F:/Classwork/AQMAED/Sternberg_LA_subject-1.csv,legacy,3 5 9 6 2 4,Kafkaesque Koffka,3.2.8,1,y,0,left,right,right,NA,left,981,11007,5122,NA,981,2,legacy,6,1024,2,48000,-16,experiment,1,odd,3,787012,788123,93322,788126,790336,2037,88199,789131,13045,792338,NA,2031,667546,792338,793320,Sternberg Task,114,120642,123,yes,1024
92.74193548,92.74193548,984.0322581,984.0322581,black,experiment,legacy,legacy,legacy,0,uniform,1,undefined,1,right,123,123,0,123,123,0,0,123,0,123,0,0,123,123,123,10/20/19 14:18,The main experiment item,yes,SternbergTask.osexp,F:/Classwork/AQMAED,no,mono,no,18,no,white,no,yes,768,legacy,111,11,F:/Classwork/AQMAED/Sternberg_LA_subject-1.csv,legacy,9 7 4 5 8,Kafkaesque Koffka,3.2.8,0,n,0,right,right,right,NA,right,1378,11007,5122,NA,1378,2,legacy,5,1024,2,48000,-16,experiment,1,odd,6,793326,794427,93322,794429,796639,2037,88199,795434,13045,798644,NA,2031,667546,798644,800023,Sternberg Task,115,122020,124,yes,1024
92.8,92.8,985.344,985.344,black,experiment,legacy,legacy,legacy,0,uniform,1,undefined,1,left,124,124,0,124,124,0,0,124,0,124,0,0,124,124,124,10/20/19 14:18,The main experiment item,yes,SternbergTask.osexp,F:/Classwork/AQMAED,no,mono,no,18,no,white,no,yes,768,legacy,112,11,F:/Classwork/AQMAED/Sternberg_LA_subject-1.csv,legacy,4 6 2 5 1,Kafkaesque Koffka,3.2.8,5,y,0,left,right,right,NA,left,1148,11007,5122,NA,1148,2,legacy,5,1024,2,48000,-16,experiment,1,odd,1,800028,801126,93322,801128,803337,2037,88199,802132,13045,805342,NA,2031,667546,805342,806491,Sternberg Task,116,123168,125,yes,1024
92.85714286,92.85714286,984.9285714,984.9285714,black,experiment,legacy,legacy,legacy,0,uniform,1,undefined,1,right,125,125,0,125,125,0,0,125,0,125,0,0,125,125,125,10/20/19 14:18,The main experiment item,yes,SternbergTask.osexp,F:/Classwork/AQMAED,no,mono,no,18,no,white,no,yes,768,legacy,113,11,F:/Classwork/AQMAED/Sternberg_LA_subject-1.csv,legacy,9 5 3 2 8 6,Kafkaesque Koffka,3.2.8,0,n,0,right,right,right,NA,right,933,11007,5122,NA,933,2,legacy,6,1024,2,48000,-16,experiment,1,odd,7,806503,807609,93322,807610,809821,2037,88199,808616,13045,811825,NA,2031,667546,811826,812761,Sternberg Task,117,124101,126,yes,1024
92.91338583,92.91338583,984.1889764,984.1889764,black,experiment,legacy,legacy,legacy,0,uniform,1,undefined,1,left,126,126,0,126,126,0,0,126,0,126,0,0,126,126,126,10/20/19 14:18,The main experiment item,yes,SternbergTask.osexp,F:/Classwork/AQMAED,no,mono,no,18,no,white,no,yes,768,legacy,114,11,F:/Classwork/AQMAED/Sternberg_LA_subject-1.csv,legacy,9 1 7 2,Kafkaesque Koffka,3.2.8,2,y,0,left,right,right,NA,left,891,11007,5122,NA,891,2,legacy,4,1024,2,48000,-16,experiment,1,odd,1,812768,813865,93322,813866,816077,2037,88199,814872,13045,818082,NA,2031,667546,818083,818975,Sternberg Task,118,124992,127,yes,1024
92.96875,92.96875,988.6328125,988.6328125,black,experiment,legacy,legacy,legacy,0,uniform,1,undefined,1,left,127,127,0,127,127,0,0,127,0,127,0,0,127,127,127,10/20/19 14:18,The main experiment item,yes,SternbergTask.osexp,F:/Classwork/AQMAED,no,mono,no,18,no,white,no,yes,768,legacy,115,11,F:/Classwork/AQMAED/Sternberg_LA_subject-1.csv,legacy,7 1 3,Kafkaesque Koffka,3.2.8,2,y,0,left,right,right,NA,left,1553,11007,5122,NA,1553,2,legacy,3,1024,2,48000,-16,experiment,1,odd,1,818981,820079,93322,820080,822290,2037,88199,821085,13045,824295,NA,2031,667546,824295,825850,Sternberg Task,119,126545,128,yes,1024
93.02325581,93.02325581,990.5426357,990.5426357,black,experiment,legacy,legacy,legacy,0,uniform,1,undefined,1,right,128,128,0,128,128,0,0,128,0,128,0,0,128,128,128,10/20/19 14:18,The main experiment item,yes,SternbergTask.osexp,F:/Classwork/AQMAED,no,mono,no,18,no,white,no,yes,768,legacy,116,11,F:/Classwork/AQMAED/Sternberg_LA_subject-1.csv,legacy,1,Kafkaesque Koffka,3.2.8,0,n,0,right,right,right,NA,right,1235,11007,5122,NA,1235,2,legacy,1,1024,2,48000,-16,experiment,1,odd,7,825855,826956,93322,826958,829164,2037,88199,827960,13045,831168,NA,2031,667546,831168,832404,Sternberg Task,120,127780,129,yes,1024
93.07692308,93.07692308,990.7230769,990.7230769,black,experiment,legacy,legacy,legacy,0,uniform,1,undefined,1,right,129,129,0,129,129,0,0,129,0,129,0,0,129,129,129,10/20/19 14:18,The main experiment item,yes,SternbergTask.osexp,F:/Classwork/AQMAED,no,mono,no,18,no,white,no,yes,768,legacy,117,11,F:/Classwork/AQMAED/Sternberg_LA_subject-1.csv,legacy,9,Kafkaesque Koffka,3.2.8,0,n,0,right,right,right,NA,right,1014,11007,5122,NA,1014,2,legacy,1,1024,2,48000,-16,experiment,1,odd,6,832415,833487,93322,833489,835699,2037,88199,834493,13045,837704,NA,2031,667546,837704,838720,Sternberg Task,121,128794,130,yes,1024
93.12977099,93.12977099,990.9389313,990.9389313,black,experiment,legacy,legacy,legacy,0,uniform,1,undefined,1,left,130,130,0,130,130,0,0,130,0,130,0,0,130,130,130,10/20/19 14:18,The main experiment item,yes,SternbergTask.osexp,F:/Classwork/AQMAED,no,mono,no,18,no,white,no,yes,768,legacy,118,11,F:/Classwork/AQMAED/Sternberg_LA_subject-1.csv,legacy,5 7 3 6 2,Kafkaesque Koffka,3.2.8,5,y,0,left,right,right,NA,left,1019,11007,5122,NA,1019,2,legacy,5,1024,2,48000,-16,experiment,1,odd,2,838726,839822,93322,839824,842033,2037,88199,840828,13045,844038,NA,2031,667546,844038,845059,Sternberg Task,122,129813,131,yes,1024
93.18181818,93.18181818,990.1287879,990.1287879,black,experiment,legacy,legacy,legacy,0,uniform,1,undefined,1,right,131,131,0,131,131,0,0,131,0,131,0,0,131,131,131,10/20/19 14:18,The main experiment item,yes,SternbergTask.osexp,F:/Classwork/AQMAED,no,mono,no,18,no,white,no,yes,768,legacy,119,11,F:/Classwork/AQMAED/Sternberg_LA_subject-1.csv,legacy,4 8 1 2,Kafkaesque Koffka,3.2.8,0,n,0,right,right,right,NA,right,884,11007,5122,NA,884,2,legacy,4,1024,2,48000,-16,experiment,1,odd,7,845072,846164,93322,846166,848376,2037,88199,847170,13045,850380,NA,2031,667546,850381,851267,Sternberg Task,123,130697,132,yes,1024
93.23308271,93.23308271,989.7218045,989.7218045,black,experiment,legacy,legacy,legacy,0,uniform,1,undefined,1,right,132,132,0,132,132,0,0,132,0,132,0,0,132,132,132,10/20/19 14:18,The main experiment item,yes,SternbergTask.osexp,F:/Classwork/AQMAED,no,mono,no,18,no,white,no,yes,768,legacy,120,11,F:/Classwork/AQMAED/Sternberg_LA_subject-1.csv,legacy,8 5 7 3 6,Kafkaesque Koffka,3.2.8,0,n,0,right,right,right,NA,right,936,11007,5122,NA,936,2,legacy,5,1024,2,48000,-16,experiment,1,odd,9,851274,852376,93322,852378,854588,2037,88199,853383,13045,856592,NA,2031,667546,856593,857531,Sternberg Task,124,131633,133,yes,1024
93.28358209,93.28358209,988.6791045,988.6791045,black,experiment,legacy,legacy,legacy,0,uniform,1,undefined,1,right,133,133,0,133,133,0,0,133,0,133,0,0,133,133,133,10/20/19 14:18,The main experiment item,yes,SternbergTask.osexp,F:/Classwork/AQMAED,no,mono,no,18,no,white,no,yes,768,legacy,121,11,F:/Classwork/AQMAED/Sternberg_LA_subject-1.csv,legacy,7 1,Kafkaesque Koffka,3.2.8,0,n,0,right,right,right,NA,right,850,11007,5122,NA,850,2,legacy,2,1024,2,48000,-16,experiment,1,odd,8,857536,858632,93322,858634,860844,2037,88199,859639,13045,862849,NA,2031,667546,862849,863700,Sternberg Task,125,132483,134,yes,1024
93.33333333,93.33333333,990.6148148,990.6148148,black,experiment,legacy,legacy,legacy,0,uniform,1,undefined,1,right,134,134,0,134,134,0,0,134,0,134,0,0,134,134,134,10/20/19 14:18,The main experiment item,yes,SternbergTask.osexp,F:/Classwork/AQMAED,no,mono,no,18,no,white,no,yes,768,legacy,122,11,F:/Classwork/AQMAED/Sternberg_LA_subject-1.csv,legacy,6 9 7 3 8 2,Kafkaesque Koffka,3.2.8,0,n,0,right,right,right,NA,right,1250,11007,5122,NA,1250,2,legacy,6,1024,2,48000,-16,experiment,1,odd,5,863715,864819,93322,864821,867031,2037,88199,865825,13045,869035,NA,2031,667546,869036,870288,Sternberg Task,126,133733,135,yes,1024
93.38235294,93.38235294,989.5882353,989.5882353,black,experiment,legacy,legacy,legacy,0,uniform,1,undefined,1,right,135,135,0,135,135,0,0,135,0,135,0,0,135,135,135,10/20/19 14:18,The main experiment item,yes,SternbergTask.osexp,F:/Classwork/AQMAED,no,mono,no,18,no,white,no,yes,768,legacy,123,11,F:/Classwork/AQMAED/Sternberg_LA_subject-1.csv,legacy,1 4 3 6 5,Kafkaesque Koffka,3.2.8,0,n,0,right,right,right,NA,right,851,11007,5122,NA,851,2,legacy,5,1024,2,48000,-16,experiment,1,odd,8,870294,871398,93322,871400,873609,2037,88199,872405,13045,875615,NA,2031,667546,875615,876467,Sternberg Task,127,134584,136,yes,1024
93.43065693,93.43065693,988.4744526,988.4744526,black,experiment,legacy,legacy,legacy,0,uniform,1,undefined,1,right,136,136,0,136,136,0,0,136,0,136,0,0,136,136,136,10/20/19 14:18,The main experiment item,yes,SternbergTask.osexp,F:/Classwork/AQMAED,no,mono,no,18,no,white,no,yes,768,legacy,124,11,F:/Classwork/AQMAED/Sternberg_LA_subject-1.csv,legacy,2 5 1 4,Kafkaesque Koffka,3.2.8,0,n,0,right,right,right,NA,right,837,11007,5122,NA,837,2,legacy,4,1024,2,48000,-16,experiment,1,odd,6,876473,877567,93322,877569,879779,2037,88199,878574,13045,881784,NA,2031,667546,881784,882622,Sternberg Task,128,135421,137,yes,1024
93.47826087,93.47826087,992.9565217,992.9565217,black,experiment,legacy,legacy,legacy,0,uniform,1,undefined,1,left,137,137,0,137,137,0,0,137,0,137,0,0,137,137,137,10/20/19 14:18,The main experiment item,yes,SternbergTask.osexp,F:/Classwork/AQMAED,no,mono,no,18,no,white,no,yes,768,legacy,125,11,F:/Classwork/AQMAED/Sternberg_LA_subject-1.csv,legacy,3 4,Kafkaesque Koffka,3.2.8,1,y,0,left,right,right,NA,left,1607,11007,5122,NA,1607,2,legacy,2,1024,2,48000,-16,experiment,1,odd,3,882627,883719,93322,883721,885931,2037,88199,884726,13045,887936,NA,2031,667546,887937,889546,Sternberg Task,129,137028,138,yes,1024