acc,accuracy,average_response_time,avg_rt,background,block,canvas_backend,clock_backend,color_backend,compensation,coordinates,correct,correct_instruction1,correct_keyboard_response,correct_response,count_ISI,count_PracticeLoop,count_correctFeedback,count_expSequence,count_experiment,count_experimentLoop,count_fixation,count_incorrectFeedback,count_instruction1,count_instructions2,count_keyboard_response,count_logger,count_memorySet,count_probe,count_thankYou,datetime,description,disable_garbage_collection,experiment_file,experiment_path,font_bold,font_family,font_italic,font_size,font_underline,foreground,form_clicks,fullscreen,height,keyboard_backend,live_row,live_row_PracticeLoop,logfile,mouse_backend,numberSet,opensesame_codename,opensesame_version,posInSet,present,repeat_cycle,response,response_instruction1,response_instructions2,response_keyboard_response,response_thankYou,response_time,response_time_instruction1,response_time_instructions2,response_time_keyboard_response,response_time_thankYou,round_decimals,sampler_backend,setSize,sound_buf_size,sound_channels,sound_freq,sound_sample_size,start,subject_nr,subject_parity,target,time_ISI,time_PracticeLoop,time_correctFeedback,time_expSequence,time_experiment,time_experimentLoop,time_fixation,time_incorrectFeedback,time_instruction1,time_instructions2,time_keyboard_response,time_logger,time_memorySet,time_probe,time_thankYou,title,total_correct,total_response_time,total_responses,uniform_coordinates,width
0,0,2000,2000,black,practice,legacy,legacy,legacy,0,uniform,0,undefined,0,right,0,0,0,0,0,0,0,0,0,0,0,0,0,0,0,Thu Oct 24 13:42:33 2019,The main experiment item,yes,SternbergTask.osexp,/Users/cristianbotello/Desktop/Advanced Quant/Lab 3.1,no,mono,no,18,no,white,no,no,768,legacy,0,0,/Users/cristianbotello/Desktop/Advanced Quant/Lab 3.1/CB-subject-2.csv,legacy,2 1,Kafkaesque Koffka,3.2.8,0,n,0,None,1,NA,None,NA,2000,43067,NA,2000,NA,2,legacy,2,1024,2,48000,-16,experiment,2,even,5,48888,46492,NA,46647,3369,NA,46660,NA,3415,NA,50901,52901,47675,50901,NA,Sternberg Task,0,2000,1,yes,1024
0,0,2000,2000,black,practice,legacy,legacy,legacy,0,uniform,0,undefined,0,right,1,0,1,1,0,0,1,1,0,0,1,1,1,1,0,Thu Oct 24 13:42:33 2019,The main experiment item,yes,SternbergTask.osexp,/Users/cristianbotello/Desktop/Advanced Quant/Lab 3.1,no,mono,no,18,no,white,no,no,768,legacy,1,1,/Users/cristianbotello/Desktop/Advanced Quant/Lab 3.1/CB-subject-2.csv,legacy,5 7 8 4 1 2,Kafkaesque Koffka,3.2.8,0,n,0,None,1,NA,None,NA,2000,43067,NA,2000,NA,2,legacy,6,1024,2,48000,-16,experiment,2,even,6,56447,46492,NA,54210,3369,NA,54222,53026,3415,NA,58460,60460,55234,58460,NA,Sternberg Task,0,4000,2,yes,1024
0,0,1554,1554,black,practice,legacy,legacy,legacy,0,uniform,0,undefined,0,left,2,0,2,2,0,0,2,2,0,0,2,2,2,2,0,Thu Oct 24 13:42:33 2019,The main experiment item,yes,SternbergTask.osexp,/Users/cristianbotello/Desktop/Advanced Quant/Lab 3.1,no,mono,no,18,no,white,no,no,768,legacy,2,2,/Users/cristianbotello/Desktop/Advanced Quant/Lab 3.1/CB-subject-2.csv,legacy,2 9 4,Kafkaesque Koffka,3.2.8,3,y,0,right,1,NA,right,NA,662,43067,NA,662,NA,2,legacy,3,1024,2,48000,-16,experiment,2,even,4,63883,46492,NA,61644,3369,NA,61657,60477,3415,NA,65894,66558,62668,65894,NA,Sternberg Task,0,4662,3,yes,1024
0,0,1665.5,1665.5,black,practice,legacy,legacy,legacy,0,uniform,0,undefined,0,left,3,0,3,3,0,0,3,3,0,0,3,3,3,3,0,Thu Oct 24 13:42:33 2019,The main experiment item,yes,SternbergTask.osexp,/Users/cristianbotello/Desktop/Advanced Quant/Lab 3.1,no,mono,no,18,no,white,no,no,768,legacy,3,3,/Users/cristianbotello/Desktop/Advanced Quant/Lab 3.1/CB-subject-2.csv,legacy,6,Kafkaesque Koffka,3.2.8,1,y,0,None,1,NA,None,NA,2000,43067,NA,2000,NA,2,legacy,1,1024,2,48000,-16,experiment,2,even,6,69970,46492,NA,67728,3369,NA,67742,66578,3415,NA,71984,73984,68757,71984,NA,Sternberg Task,0,6662,4,yes,1024
20,20,1548.8,1548.8,black,practice,legacy,legacy,legacy,0,uniform,1,undefined,1,left,4,0,4,4,0,0,4,4,0,0,4,4,4,4,0,Thu Oct 24 13:42:33 2019,The main experiment item,yes,SternbergTask.osexp,/Users/cristianbotello/Desktop/Advanced Quant/Lab 3.1,no,mono,no,18,no,white,no,no,768,legacy,4,4,/Users/cristianbotello/Desktop/Advanced Quant/Lab 3.1/CB-subject-2.csv,legacy,1 5 2 9,Kafkaesque Koffka,3.2.8,2,y,0,left,1,NA,left,NA,1082,43067,NA,1082,NA,2,legacy,4,1024,2,48000,-16,experiment,2,even,5,77398,46492,NA,75158,3369,NA,75170,74000,3415,NA,79412,80495,76185,79411,NA,Sternberg Task,1,7744,5,yes,1024
33.33333333,33.33333333,1459.333333,1459.333333,black,practice,legacy,legacy,legacy,0,uniform,1,undefined,1,right,5,0,5,5,0,0,5,5,0,0,5,5,5,5,0,Thu Oct 24 13:42:33 2019,The main experiment item,yes,SternbergTask.osexp,/Users/cristianbotello/Desktop/Advanced Quant/Lab 3.1,no,mono,no,18,no,white,no,no,768,legacy,5,5,/Users/cristianbotello/Desktop/Advanced Quant/Lab 3.1/CB-subject-2.csv,legacy,3 1 9 4,Kafkaesque Koffka,3.2.8,0,n,0,right,1,NA,right,NA,1012,43067,NA,1012,NA,2,legacy,4,1024,2,48000,-16,experiment,2,even,6,83900,46492,80514,81658,3369,NA,81671,74000,3415,NA,85914,86927,82688,85914,NA,Sternberg Task,2,8756,6,yes,1024
42.85714286,42.85714286,1376.714286,1376.714286,black,practice,legacy,legacy,legacy,0,uniform,1,undefined,1,left,6,0,6,6,0,0,6,6,0,0,6,6,6,6,0,Thu Oct 24 13:42:33 2019,The main experiment item,yes,SternbergTask.osexp,/Users/cristianbotello/Desktop/Advanced Quant/Lab 3.1,no,mono,no,18,no,white,no,no,768,legacy,6,6,/Users/cristianbotello/Desktop/Advanced Quant/Lab 3.1/CB-subject-2.csv,legacy,4 8,Kafkaesque Koffka,3.2.8,1,y,0,left,1,NA,left,NA,881,43067,NA,881,NA,2,legacy,2,1024,2,48000,-16,experiment,2,even,4,90350,46492,86943,88107,3369,NA,88120,74000,3415,NA,92364,93247,89137,92364,NA,Sternberg Task,3,9637,7,yes,1024
37.5,37.5,1283.25,1283.25,black,practice,legacy,legacy,legacy,0,uniform,0,undefined,0,left,7,0,7,7,0,0,7,7,0,0,7,7,7,7,0,Thu Oct 24 13:42:33 2019,The main experiment item,yes,SternbergTask.osexp,/Users/cristianbotello/Desktop/Advanced Quant/Lab 3.1,no,mono,no,18,no,white,no,no,768,legacy,7,7,/Users/cristianbotello/Desktop/Advanced Quant/Lab 3.1/CB-subject-2.csv,legacy,1 7 9 8 5,Kafkaesque Koffka,3.2.8,4,y,0,right,1,NA,right,NA,629,43067,NA,629,NA,2,legacy,5,1024,2,48000,-16,experiment,2,even,8,96656,46492,93263,94415,3369,NA,94428,74000,3415,NA,98672,99303,95444,98671,NA,Sternberg Task,3,10266,8,yes,1024
33.33333333,33.33333333,1362.888889,1362.888889,black,practice,legacy,legacy,legacy,0,uniform,0,undefined,0,right,8,0,8,8,0,0,8,8,0,0,8,8,8,8,0,Thu Oct 24 13:42:33 2019,The main experiment item,yes,SternbergTask.osexp,/Users/cristianbotello/Desktop/Advanced Quant/Lab 3.1,no,mono,no,18,no,white,no,no,768,legacy,8,8,/Users/cristianbotello/Desktop/Advanced Quant/Lab 3.1/CB-subject-2.csv,legacy,5,Kafkaesque Koffka,3.2.8,0,n,0,None,1,NA,None,NA,2000,43067,NA,2000,NA,2,legacy,1,1024,2,48000,-16,experiment,2,even,3,102732,46492,93263,100494,3369,NA,100507,99325,3415,NA,104747,106747,101520,104746,NA,Sternberg Task,3,12266,9,yes,1024
40,40,1281.6,1281.6,black,practice,legacy,legacy,legacy,0,uniform,1,undefined,1,right,9,0,9,9,0,0,9,9,0,0,9,9,9,9,0,Thu Oct 24 13:42:33 2019,The main experiment item,yes,SternbergTask.osexp,/Users/cristianbotello/Desktop/Advanced Quant/Lab 3.1,no,mono,no,18,no,white,no,no,768,legacy,9,9,/Users/cristianbotello/Desktop/Advanced Quant/Lab 3.1/CB-subject-2.csv,legacy,4 1 5,Kafkaesque Koffka,3.2.8,0,n,0,right,1,NA,right,NA,550,43067,NA,550,NA,2,legacy,3,1024,2,48000,-16,experiment,2,even,2,110173,46492,93263,107933,3369,NA,107945,106764,3415,NA,112185,112737,108957,112185,NA,Sternberg Task,4,12816,10,yes,1024
45.45454545,45.45454545,1239.636364,1239.636364,black,practice,legacy,legacy,legacy,0,uniform,1,undefined,1,right,10,0,10,10,0,0,10,10,0,0,10,10,10,10,0,Thu Oct 24 13:42:33 2019,The main experiment item,yes,SternbergTask.osexp,/Users/cristianbotello/Desktop/Advanced Quant/Lab 3.1,no,mono,no,18,no,white,no,no,768,legacy,10,10,/Users/cristianbotello/Desktop/Advanced Quant/Lab 3.1/CB-subject-2.csv,legacy,9 6 7 4 5,Kafkaesque Koffka,3.2.8,0,n,0,right,1,NA,right,NA,820,43067,NA,820,NA,2,legacy,5,1024,2,48000,-16,experiment,2,even,3,116152,46492,112754,113915,3369,NA,113927,106764,3415,NA,118166,118988,114939,118166,NA,Sternberg Task,5,13636,11,yes,1024
50,50,1203.916667,1203.916667,black,practice,legacy,legacy,legacy,0,uniform,1,undefined,1,left,11,0,11,11,0,0,11,11,0,0,11,11,11,11,0,Thu Oct 24 13:42:33 2019,The main experiment item,yes,SternbergTask.osexp,/Users/cristianbotello/Desktop/Advanced Quant/Lab 3.1,no,mono,no,18,no,white,no,no,768,legacy,11,11,/Users/cristianbotello/Desktop/Advanced Quant/Lab 3.1/CB-subject-2.csv,legacy,4 3 1 7 9 8,Kafkaesque Koffka,3.2.8,1,y,0,left,1,NA,left,NA,811,43067,NA,811,NA,2,legacy,6,1024,2,48000,-16,experiment,2,even,4,122397,46492,119002,120151,3369,NA,120169,106764,3415,NA,124410,125224,121184,124410,NA,Sternberg Task,6,14447,12,yes,1024
53.84615385,53.84615385,1181.692308,1181.692308,black,experiment,legacy,legacy,legacy,0,uniform,1,undefined,1,left,12,0,12,12,0,0,12,12,0,0,12,12,12,12,0,Thu Oct 24 13:42:33 2019,The main experiment item,yes,SternbergTask.osexp,/Users/cristianbotello/Desktop/Advanced Quant/Lab 3.1,no,mono,no,18,no,white,no,no,768,legacy,0,11,/Users/cristianbotello/Desktop/Advanced Quant/Lab 3.1/CB-subject-2.csv,legacy,9 1 7 2,Kafkaesque Koffka,3.2.8,2,y,0,left,1,left,left,NA,915,43067,2903,915,NA,2,legacy,4,1024,2,48000,-16,experiment,2,even,1,131646,46492,125249,129402,3369,129204,129416,106764,3415,126299,133658,134574,130433,133658,NA,Sternberg Task,7,15362,13,yes,1024
57.14285714,57.14285714,1151.571429,1151.571429,black,experiment,legacy,legacy,legacy,0,uniform,1,undefined,1,right,13,0,13,13,0,0,13,13,0,0,13,13,13,13,0,Thu Oct 24 13:42:33 2019,The main experiment item,yes,SternbergTask.osexp,/Users/cristianbotello/Desktop/Advanced Quant/Lab 3.1,no,mono,no,18,no,white,no,no,768,legacy,1,11,/Users/cristianbotello/Desktop/Advanced Quant/Lab 3.1/CB-subject-2.csv,legacy,2 8 7 9 5 3,Kafkaesque Koffka,3.2.8,0,n,0,right,1,left,right,NA,760,43067,2903,760,NA,2,legacy,6,1024,2,48000,-16,experiment,2,even,6,138003,46492,134591,135766,3369,129204,135779,106764,3415,126299,140017,140779,136791,140017,NA,Sternberg Task,8,16122,14,yes,1024
60,60,1114,1114,black,experiment,legacy,legacy,legacy,0,uniform,1,undefined,1,right,14,0,14,14,0,0,14,14,0,0,14,14,14,14,0,Thu Oct 24 13:42:33 2019,The main experiment item,yes,SternbergTask.osexp,/Users/cristianbotello/Desktop/Advanced Quant/Lab 3.1,no,mono,no,18,no,white,no,no,768,legacy,2,11,/Users/cristianbotello/Desktop/Advanced Quant/Lab 3.1/CB-subject-2.csv,legacy,6 8 4,Kafkaesque Koffka,3.2.8,0,n,0,right,1,left,right,NA,588,43067,2903,588,NA,2,legacy,3,1024,2,48000,-16,experiment,2,even,1,144190,46492,140796,141949,3369,129204,141961,106764,3415,126299,146204,146794,142977,146204,NA,Sternberg Task,9,16710,15,yes,1024
62.5,62.5,1085.5,1085.5,black,experiment,legacy,legacy,legacy,0,uniform,1,undefined,1,right,15,0,15,15,0,0,15,15,0,0,15,15,15,15,0,Thu Oct 24 13:42:33 2019,The main experiment item,yes,SternbergTask.osexp,/Users/cristianbotello/Desktop/Advanced Quant/Lab 3.1,no,mono,no,18,no,white,no,no,768,legacy,3,11,/Users/cristianbotello/Desktop/Advanced Quant/Lab 3.1/CB-subject-2.csv,legacy,9 7 4 5 8,Kafkaesque Koffka,3.2.8,0,n,0,right,1,left,right,NA,658,43067,2903,658,NA,2,legacy,5,1024,2,48000,-16,experiment,2,even,6,150210,46492,146813,147967,3369,129204,147979,106764,3415,126299,152224,152883,148995,152223,NA,Sternberg Task,10,17368,16,yes,1024
64.70588235,64.70588235,1068.470588,1068.470588,black,experiment,legacy,legacy,legacy,0,uniform,1,undefined,1,left,16,0,16,16,0,0,16,16,0,0,16,16,16,16,0,Thu Oct 24 13:42:33 2019,The main experiment item,yes,SternbergTask.osexp,/Users/cristianbotello/Desktop/Advanced Quant/Lab 3.1,no,mono,no,18,no,white,no,no,768,legacy,4,11,/Users/cristianbotello/Desktop/Advanced Quant/Lab 3.1/CB-subject-2.csv,legacy,7 8 6 3 1,Kafkaesque Koffka,3.2.8,5,y,0,left,1,left,left,NA,796,43067,2903,796,NA,2,legacy,5,1024,2,48000,-16,experiment,2,even,1,156283,46492,152899,154042,3369,129204,154055,106764,3415,126299,158298,159096,155071,158298,NA,Sternberg Task,11,18164,17,yes,1024
66.66666667,66.66666667,1047,1047,black,experiment,legacy,legacy,legacy,0,uniform,1,undefined,1,right,17,0,17,17,0,0,17,17,0,0,17,17,17,17,0,Thu Oct 24 13:42:33 2019,The main experiment item,yes,SternbergTask.osexp,/Users/cristianbotello/Desktop/Advanced Quant/Lab 3.1,no,mono,no,18,no,white,no,no,768,legacy,5,11,/Users/cristianbotello/Desktop/Advanced Quant/Lab 3.1/CB-subject-2.csv,legacy,1 8 7,Kafkaesque Koffka,3.2.8,0,n,0,right,1,left,right,NA,682,43067,2903,682,NA,2,legacy,3,1024,2,48000,-16,experiment,2,even,4,162509,46492,159112,160267,3369,129204,160281,106764,3415,126299,164524,165207,161295,164524,NA,Sternberg Task,12,18846,18,yes,1024
68.42105263,68.42105263,1018.842105,1018.842105,black,experiment,legacy,legacy,legacy,0,uniform,1,undefined,1,left,18,0,18,18,0,0,18,18,0,0,18,18,18,18,0,Thu Oct 24 13:42:33 2019,The main experiment item,yes,SternbergTask.osexp,/Users/cristianbotello/Desktop/Advanced Quant/Lab 3.1,no,mono,no,18,no,white,no,no,768,legacy,6,11,/Users/cristianbotello/Desktop/Advanced Quant/Lab 3.1/CB-subject-2.csv,legacy,9 4 2,Kafkaesque Koffka,3.2.8,1,y,0,left,1,left,left,NA,512,43067,2903,512,NA,2,legacy,3,1024,2,48000,-16,experiment,2,even,9,168618,46492,165226,166377,3369,129204,166389,106764,3415,126299,170632,171146,167405,170632,NA,Sternberg Task,13,19358,19,yes,1024
65,65,1034.2,1034.2,black,experiment,legacy,legacy,legacy,0,uniform,0,undefined,0,left,19,0,19,19,0,0,19,19,0,0,19,19,19,19,0,Thu Oct 24 13:42:33 2019,The main experiment item,yes,SternbergTask.osexp,/Users/cristianbotello/Desktop/Advanced Quant/Lab 3.1,no,mono,no,18,no,white,no,no,768,legacy,7,11,/Users/cristianbotello/Desktop/Advanced Quant/Lab 3.1/CB-subject-2.csv,legacy,6 9 3 1,Kafkaesque Koffka,3.2.8,4,y,0,right,1,left,right,NA,1326,43067,2903,1326,NA,2,legacy,4,1024,2,48000,-16,experiment,2,even,1,174552,46492,171164,172309,3369,129204,172322,106764,3415,126299,176566,177893,173338,176566,NA,Sternberg Task,13,20684,20,yes,1024
66.66666667,66.66666667,1016.047619,1016.047619,black,experiment,legacy,legacy,legacy,0,uniform,1,undefined,1,left,20,0,20,20,0,0,20,20,0,0,20,20,20,20,0,Thu Oct 24 13:42:33 2019,The main experiment item,yes,SternbergTask.osexp,/Users/cristianbotello/Desktop/Advanced Quant/Lab 3.1,no,mono,no,18,no,white,no,no,768,legacy,8,11,/Users/cristianbotello/Desktop/Advanced Quant/Lab 3.1/CB-subject-2.csv,legacy,7 6,Kafkaesque Koffka,3.2.8,2,y,0,left,1,left,left,NA,653,43067,2903,653,NA,2,legacy,2,1024,2,48000,-16,experiment,2,even,6,181287,46492,171164,179045,3369,129204,179058,177910,3415,126299,183302,183957,180076,183301,NA,Sternberg Task,14,21337,21,yes,1024
68.18181818,68.18181818,1007.454545,1007.454545,black,experiment,legacy,legacy,legacy,0,uniform,1,undefined,1,right,21,0,21,21,0,0,21,21,0,0,21,21,21,21,0,Thu Oct 24 13:42:33 2019,The main experiment item,yes,SternbergTask.osexp,/Users/cristianbotello/Desktop/Advanced Quant/Lab 3.1,no,mono,no,18,no,white,no,no,768,legacy,9,11,/Users/cristianbotello/Desktop/Advanced Quant/Lab 3.1/CB-subject-2.csv,legacy,7 1 8 4 9 3,Kafkaesque Koffka,3.2.8,0,n,0,right,1,left,right,NA,827,43067,2903,827,NA,2,legacy,6,1024,2,48000,-16,experiment,2,even,6,187370,46492,183978,185129,3369,129204,185142,177910,3415,126299,189387,190215,186157,189387,NA,Sternberg Task,15,22164,22,yes,1024
69.56521739,69.56521739,998.5652174,998.5652174,black,experiment,legacy,legacy,legacy,0,uniform,1,undefined,1,left,22,0,22,22,0,0,22,22,0,0,22,22,22,22,0,Thu Oct 24 13:42:33 2019,The main experiment item,yes,SternbergTask.osexp,/Users/cristianbotello/Desktop/Advanced Quant/Lab 3.1,no,mono,no,18,no,white,no,no,768,legacy,10,11,/Users/cristianbotello/Desktop/Advanced Quant/Lab 3.1/CB-subject-2.csv,legacy,8,Kafkaesque Koffka,3.2.8,1,y,0,left,1,left,left,NA,803,43067,2903,803,NA,2,legacy,1,1024,2,48000,-16,experiment,2,even,8,193619,46492,190231,191380,3369,129204,191392,177910,3415,126299,195633,196438,192408,195633,NA,Sternberg Task,16,22967,23,yes,1024
66.66666667,66.66666667,987.7916667,987.7916667,black,experiment,legacy,legacy,legacy,0,uniform,0,undefined,0,left,23,0,23,23,0,0,23,23,0,0,23,23,23,23,0,Thu Oct 24 13:42:33 2019,The main experiment item,yes,SternbergTask.osexp,/Users/cristianbotello/Desktop/Advanced Quant/Lab 3.1,no,mono,no,18,no,white,no,no,768,legacy,11,11,/Users/cristianbotello/Desktop/Advanced Quant/Lab 3.1/CB-subject-2.csv,legacy,8 9 5 7 1 6,Kafkaesque Koffka,3.2.8,4,y,0,right,1,left,right,NA,740,43067,2903,740,NA,2,legacy,6,1024,2,48000,-16,experiment,2,even,7,199850,46492,196453,197609,3369,129204,197621,177910,3415,126299,201865,202607,198637,201864,NA,Sternberg Task,16,23707,24,yes,1024
68,68,983.92,983.92,black,experiment,legacy,legacy,legacy,0,uniform,1,undefined,1,right,24,0,24,24,0,0,24,24,0,0,24,24,24,24,0,Thu Oct 24 13:42:33 2019,The main experiment item,yes,SternbergTask.osexp,/Users/cristianbotello/Desktop/Advanced Quant/Lab 3.1,no,mono,no,18,no,white,no,no,768,legacy,12,11,/Users/cristianbotello/Desktop/Advanced Quant/Lab 3.1/CB-subject-2.csv,legacy,8 5 7 3 6,Kafkaesque Koffka,3.2.8,0,n,0,right,1,left,right,NA,891,43067,2903,891,NA,2,legacy,5,1024,2,48000,-16,experiment,2,even,9,206024,46492,196453,203783,3369,129204,203797,202624,3415,126299,208038,208931,204812,208038,NA,Sternberg Task,17,24598,25,yes,1024
69.23076923,69.23076923,976.4230769,976.4230769,black,experiment,legacy,legacy,legacy,0,uniform,1,undefined,1,left,25,0,25,25,0,0,25,25,0,0,25,25,25,25,0,Thu Oct 24 13:42:33 2019,The main experiment item,yes,SternbergTask.osexp,/Users/cristianbotello/Desktop/Advanced Quant/Lab 3.1,no,mono,no,18,no,white,no,no,768,legacy,13,11,/Users/cristianbotello/Desktop/Advanced Quant/Lab 3.1/CB-subject-2.csv,legacy,7 1 3,Kafkaesque Koffka,3.2.8,2,y,0,left,1,left,left,NA,789,43067,2903,789,NA,2,legacy,3,1024,2,48000,-16,experiment,2,even,1,212350,46492,208948,210110,3369,129204,210123,202624,3415,126299,214365,215156,211137,214364,NA,Sternberg Task,18,25387,26,yes,1024
70.37037037,70.37037037,967.2962963,967.2962963,black,experiment,legacy,legacy,legacy,0,uniform,1,undefined,1,right,26,0,26,26,0,0,26,26,0,0,26,26,26,26,0,Thu Oct 24 13:42:33 2019,The main experiment item,yes,SternbergTask.osexp,/Users/cristianbotello/Desktop/Advanced Quant/Lab 3.1,no,mono,no,18,no,white,no,no,768,legacy,14,11,/Users/cristianbotello/Desktop/Advanced Quant/Lab 3.1/CB-subject-2.csv,legacy,1,Kafkaesque Koffka,3.2.8,0,n,0,right,1,left,right,NA,730,43067,2903,730,NA,2,legacy,1,1024,2,48000,-16,experiment,2,even,7,218570,46492,215175,216331,3369,129204,216343,202624,3415,126299,220584,221316,217357,220584,NA,Sternberg Task,19,26117,27,yes,1024
71.42857143,71.42857143,954.3214286,954.3214286,black,experiment,legacy,legacy,legacy,0,uniform,1,undefined,1,right,27,0,27,27,0,0,27,27,0,0,27,27,27,27,0,Thu Oct 24 13:42:33 2019,The main experiment item,yes,SternbergTask.osexp,/Users/cristianbotello/Desktop/Advanced Quant/Lab 3.1,no,mono,no,18,no,white,no,no,768,legacy,15,11,/Users/cristianbotello/Desktop/Advanced Quant/Lab 3.1/CB-subject-2.csv,legacy,4 8 1 2,Kafkaesque Koffka,3.2.8,0,n,0,right,1,left,right,NA,604,43067,2903,604,NA,2,legacy,4,1024,2,48000,-16,experiment,2,even,7,224722,46492,221333,222476,3369,129204,222488,202624,3415,126299,226736,227342,223505,226736,NA,Sternberg Task,20,26721,28,yes,1024
72.4137931,72.4137931,954.5862069,954.5862069,black,experiment,legacy,legacy,legacy,0,uniform,1,undefined,1,left,28,0,28,28,0,0,28,28,0,0,28,28,28,28,0,Thu Oct 24 13:42:33 2019,The main experiment item,yes,SternbergTask.osexp,/Users/cristianbotello/Desktop/Advanced Quant/Lab 3.1,no,mono,no,18,no,white,no,no,768,legacy,16,11,/Users/cristianbotello/Desktop/Advanced Quant/Lab 3.1/CB-subject-2.csv,legacy,9 1 6 7 8,Kafkaesque Koffka,3.2.8,1,y,0,left,1,left,left,NA,962,43067,2903,962,NA,2,legacy,5,1024,2,48000,-16,experiment,2,even,9,230756,46492,227361,228516,3369,129204,228528,202624,3415,126299,232770,233733,229545,232770,NA,Sternberg Task,21,27683,29,yes,1024
70,70,948.6333333,948.6333333,black,experiment,legacy,legacy,legacy,0,uniform,0,undefined,0,left,29,0,29,29,0,0,29,29,0,0,29,29,29,29,0,Thu Oct 24 13:42:33 2019,The main experiment item,yes,SternbergTask.osexp,/Users/cristianbotello/Desktop/Advanced Quant/Lab 3.1,no,mono,no,18,no,white,no,no,768,legacy,17,11,/Users/cristianbotello/Desktop/Advanced Quant/Lab 3.1/CB-subject-2.csv,legacy,3 4 9 6 2 9,Kafkaesque Koffka,3.2.8,5,y,0,right,1,left,right,NA,776,43067,2903,776,NA,2,legacy,6,1024,2,48000,-16,experiment,2,even,2,237141,46492,233750,234901,3369,129204,234914,202624,3415,126299,239155,239932,235929,239155,NA,Sternberg Task,21,28459,30,yes,1024
70.96774194,70.96774194,938.5483871,938.5483871,black,experiment,legacy,legacy,legacy,0,uniform,1,undefined,1,right,30,0,30,30,0,0,30,30,0,0,30,30,30,30,0,Thu Oct 24 13:42:33 2019,The main experiment item,yes,SternbergTask.osexp,/Users/cristianbotello/Desktop/Advanced Quant/Lab 3.1,no,mono,no,18,no,white,no,no,768,legacy,18,11,/Users/cristianbotello/Desktop/Advanced Quant/Lab 3.1/CB-subject-2.csv,legacy,9 8 2 7 4,Kafkaesque Koffka,3.2.8,0,n,0,right,1,left,right,NA,636,43067,2903,636,NA,2,legacy,5,1024,2,48000,-16,experiment,2,even,5,243327,46492,233750,241083,3369,129204,241098,239948,3415,126299,245340,245978,242113,245340,NA,Sternberg Task,22,29095,31,yes,1024
71.875,71.875,946.34375,946.34375,black,experiment,legacy,legacy,legacy,0,uniform,1,undefined,1,right,31,0,31,31,0,0,31,31,0,0,31,31,31,31,0,Thu Oct 24 13:42:33 2019,The main experiment item,yes,SternbergTask.osexp,/Users/cristianbotello/Desktop/Advanced Quant/Lab 3.1,no,mono,no,18,no,white,no,no,768,legacy,19,11,/Users/cristianbotello/Desktop/Advanced Quant/Lab 3.1/CB-subject-2.csv,legacy,9 5 3 2 8 6,Kafkaesque Koffka,3.2.8,0,n,0,right,1,left,right,NA,1188,43067,2903,1188,NA,2,legacy,6,1024,2,48000,-16,experiment,2,even,7,249397,46492,245995,247155,3369,129204,247168,239948,3415,126299,251410,252600,248184,251410,NA,Sternberg Task,23,30283,32,yes,1024
72.72727273,72.72727273,942.969697,942.969697,black,experiment,legacy,legacy,legacy,0,uniform,1,undefined,1,right,32,0,32,32,0,0,32,32,0,0,32,32,32,32,0,Thu Oct 24 13:42:33 2019,The main experiment item,yes,SternbergTask.osexp,/Users/cristianbotello/Desktop/Advanced Quant/Lab 3.1,no,mono,no,18,no,white,no,no,768,legacy,20,11,/Users/cristianbotello/Desktop/Advanced Quant/Lab 3.1/CB-subject-2.csv,legacy,2 8 9 4 1,Kafkaesque Koffka,3.2.8,0,n,0,right,1,left,right,NA,835,43067,2903,835,NA,2,legacy,5,1024,2,48000,-16,experiment,2,even,5,256010,46492,252618,253770,3369,129204,253783,239948,3415,126299,258024,258861,254799,258024,NA,Sternberg Task,24,31118,33,yes,1024
73.52941176,73.52941176,939.9117647,939.9117647,black,experiment,legacy,legacy,legacy,0,uniform,1,undefined,1,left,33,0,33,33,0,0,33,33,0,0,33,33,33,33,0,Thu Oct 24 13:42:33 2019,The main experiment item,yes,SternbergTask.osexp,/Users/cristianbotello/Desktop/Advanced Quant/Lab 3.1,no,mono,no,18,no,white,no,no,768,legacy,21,11,/Users/cristianbotello/Desktop/Advanced Quant/Lab 3.1/CB-subject-2.csv,legacy,2 6 1 7 4,Kafkaesque Koffka,3.2.8,2,y,0,left,1,left,left,NA,839,43067,2903,839,NA,2,legacy,5,1024,2,48000,-16,experiment,2,even,6,262276,46492,258878,260036,3369,129204,260051,239948,3415,126299,264291,265132,261063,264291,NA,Sternberg Task,25,31957,34,yes,1024
74.28571429,74.28571429,936.6,936.6,black,experiment,legacy,legacy,legacy,0,uniform,1,undefined,1,left,34,0,34,34,0,0,34,34,0,0,34,34,34,34,0,Thu Oct 24 13:42:33 2019,The main experiment item,yes,SternbergTask.osexp,/Users/cristianbotello/Desktop/Advanced Quant/Lab 3.1,no,mono,no,18,no,white,no,no,768,legacy,22,11,/Users/cristianbotello/Desktop/Advanced Quant/Lab 3.1/CB-subject-2.csv,legacy,3 5 7 1,Kafkaesque Koffka,3.2.8,3,y,0,left,1,left,left,NA,824,43067,2903,824,NA,2,legacy,4,1024,2,48000,-16,experiment,2,even,7,268551,46492,265151,266309,3369,129204,266322,239948,3415,126299,270565,271391,267337,270565,NA,Sternberg Task,26,32781,35,yes,1024
75,75,932.6111111,932.6111111,black,experiment,legacy,legacy,legacy,0,uniform,1,undefined,1,left,35,0,35,35,0,0,35,35,0,0,35,35,35,35,0,Thu Oct 24 13:42:33 2019,The main experiment item,yes,SternbergTask.osexp,/Users/cristianbotello/Desktop/Advanced Quant/Lab 3.1,no,mono,no,18,no,white,no,no,768,legacy,23,11,/Users/cristianbotello/Desktop/Advanced Quant/Lab 3.1/CB-subject-2.csv,legacy,3 9 7 6 4,Kafkaesque Koffka,3.2.8,3,y,0,left,1,left,left,NA,793,43067,2903,793,NA,2,legacy,5,1024,2,48000,-16,experiment,2,even,7,274810,46492,271410,272572,3369,129204,272586,239948,3415,126299,276823,277619,273598,276823,NA,Sternberg Task,27,33574,36,yes,1024
75.67567568,75.67567568,927.4324324,927.4324324,black,experiment,legacy,legacy,legacy,0,uniform,1,undefined,1,left,36,0,36,36,0,0,36,36,0,0,36,36,36,36,0,Thu Oct 24 13:42:33 2019,The main experiment item,yes,SternbergTask.osexp,/Users/cristianbotello/Desktop/Advanced Quant/Lab 3.1,no,mono,no,18,no,white,no,no,768,legacy,24,11,/Users/cristianbotello/Desktop/Advanced Quant/Lab 3.1/CB-subject-2.csv,legacy,9 5 8 1,Kafkaesque Koffka,3.2.8,2,y,0,left,1,left,left,NA,741,43067,2903,741,NA,2,legacy,4,1024,2,48000,-16,experiment,2,even,5,281022,46492,277637,278779,3369,129204,278795,239948,3415,126299,283037,283785,279811,283036,NA,Sternberg Task,28,34315,37,yes,1024
76.31578947,76.31578947,919.6842105,919.6842105,black,experiment,legacy,legacy,legacy,0,uniform,1,undefined,1,right,37,0,37,37,0,0,37,37,0,0,37,37,37,37,0,Thu Oct 24 13:42:33 2019,The main experiment item,yes,SternbergTask.osexp,/Users/cristianbotello/Desktop/Advanced Quant/Lab 3.1,no,mono,no,18,no,white,no,no,768,legacy,25,11,/Users/cristianbotello/Desktop/Advanced Quant/Lab 3.1/CB-subject-2.csv,legacy,1 5 3 2 8,Kafkaesque Koffka,3.2.8,0,n,0,right,1,left,right,NA,633,43067,2903,633,NA,2,legacy,5,1024,2,48000,-16,experiment,2,even,4,287194,46492,283801,284952,3369,129204,284965,239948,3415,126299,289208,289843,285981,289208,NA,Sternberg Task,29,34948,38,yes,1024
74.35897436,74.35897436,918.3589744,918.3589744,black,experiment,legacy,legacy,legacy,0,uniform,0,undefined,0,left,38,0,38,38,0,0,38,38,0,0,38,38,38,38,0,Thu Oct 24 13:42:33 2019,The main experiment item,yes,SternbergTask.osexp,/Users/cristianbotello/Desktop/Advanced Quant/Lab 3.1,no,mono,no,18,no,white,no,no,768,legacy,26,11,/Users/cristianbotello/Desktop/Advanced Quant/Lab 3.1/CB-subject-2.csv,legacy,8 5 3 7 4 6,Kafkaesque Koffka,3.2.8,6,y,0,right,1,left,right,NA,868,43067,2903,868,NA,2,legacy,6,1024,2,48000,-16,experiment,2,even,6,293251,46492,289860,291012,3369,129204,291024,239948,3415,126299,295265,296135,292039,295265,NA,Sternberg Task,29,35816,39,yes,1024
75,75,916.225,916.225,black,experiment,legacy,legacy,legacy,0,uniform,1,undefined,1,right,39,0,39,39,0,0,39,39,0,0,39,39,39,39,0,Thu Oct 24 13:42:33 2019,The main experiment item,yes,SternbergTask.osexp,/Users/cristianbotello/Desktop/Advanced Quant/Lab 3.1,no,mono,no,18,no,white,no,no,768,legacy,27,11,/Users/cristianbotello/Desktop/Advanced Quant/Lab 3.1/CB-subject-2.csv,legacy,4 1,Kafkaesque Koffka,3.2.8,0,n,0,right,1,left,right,NA,833,43067,2903,833,NA,2,legacy,2,1024,2,48000,-16,experiment,2,even,6,299537,46492,289860,297296,3369,129204,297309,296154,3415,126299,301550,302385,298325,301550,NA,Sternberg Task,30,36649,40,yes,1024
75.6097561,75.6097561,922.0243902,922.0243902,black,experiment,legacy,legacy,legacy,0,uniform,1,undefined,1,right,40,0,40,40,0,0,40,40,0,0,40,40,40,40,0,Thu Oct 24 13:42:33 2019,The main experiment item,yes,SternbergTask.osexp,/Users/cristianbotello/Desktop/Advanced Quant/Lab 3.1,no,mono,no,18,no,white,no,no,768,legacy,28,11,/Users/cristianbotello/Desktop/Advanced Quant/Lab 3.1/CB-subject-2.csv,legacy,1 4 9 3,Kafkaesque Koffka,3.2.8,0,n,0,right,1,left,right,NA,1154,43067,2903,1154,NA,2,legacy,4,1024,2,48000,-16,experiment,2,even,5,305810,46492,302405,303571,3369,129204,303583,296154,3415,126299,307824,308980,304597,307824,NA,Sternberg Task,31,37803,41,yes,1024
73.80952381,73.80952381,923.5,923.5,black,experiment,legacy,legacy,legacy,0,uniform,0,undefined,0,left,41,0,41,41,0,0,41,41,0,0,41,41,41,41,0,Thu Oct 24 13:42:33 2019,The main experiment item,yes,SternbergTask.osexp,/Users/cristianbotello/Desktop/Advanced Quant/Lab 3.1,no,mono,no,18,no,white,no,no,768,legacy,29,11,/Users/cristianbotello/Desktop/Advanced Quant/Lab 3.1/CB-subject-2.csv,legacy,9 3 1 2 5,Kafkaesque Koffka,3.2.8,4,y,0,right,1,left,right,NA,984,43067,2903,984,NA,2,legacy,5,1024,2,48000,-16,experiment,2,even,2,312386,46492,308999,310143,3369,129204,310156,296154,3415,126299,314400,315387,311173,314400,NA,Sternberg Task,31,38787,42,yes,1024
74.41860465,74.41860465,915.7906977,915.7906977,black,experiment,legacy,legacy,legacy,0,uniform,1,undefined,1,left,42,0,42,42,0,0,42,42,0,0,42,42,42,42,0,Thu Oct 24 13:42:33 2019,The main experiment item,yes,SternbergTask.osexp,/Users/cristianbotello/Desktop/Advanced Quant/Lab 3.1,no,mono,no,18,no,white,no,no,768,legacy,30,11,/Users/cristianbotello/Desktop/Advanced Quant/Lab 3.1/CB-subject-2.csv,legacy,4 6 5 8,Kafkaesque Koffka,3.2.8,1,y,0,left,1,left,left,NA,592,43067,2903,592,NA,2,legacy,4,1024,2,48000,-16,experiment,2,even,4,318790,46492,308999,316550,3369,129204,316563,315403,3415,126299,320804,321398,317578,320804,NA,Sternberg Task,32,39379,43,yes,1024
75,75,911.7272727,911.7272727,black,experiment,legacy,legacy,legacy,0,uniform,1,undefined,1,right,43,0,43,43,0,0,43,43,0,0,43,43,43,43,0,Thu Oct 24 13:42:33 2019,The main experiment item,yes,SternbergTask.osexp,/Users/cristianbotello/Desktop/Advanced Quant/Lab 3.1,no,mono,no,18,no,white,no,no,768,legacy,31,11,/Users/cristianbotello/Desktop/Advanced Quant/Lab 3.1/CB-subject-2.csv,legacy,5,Kafkaesque Koffka,3.2.8,0,n,0,right,1,left,right,NA,737,43067,2903,737,NA,2,legacy,1,1024,2,48000,-16,experiment,2,even,8,324803,46492,321416,322562,3369,129204,322575,315403,3415,126299,326818,327558,323591,326818,NA,Sternberg Task,33,40116,44,yes,1024
75.55555556,75.55555556,906.7555556,906.7555556,black,experiment,legacy,legacy,legacy,0,uniform,1,undefined,1,right,44,0,44,44,0,0,44,44,0,0,44,44,44,44,0,Thu Oct 24 13:42:33 2019,The main experiment item,yes,SternbergTask.osexp,/Users/cristianbotello/Desktop/Advanced Quant/Lab 3.1,no,mono,no,18,no,white,no,no,768,legacy,32,11,/Users/cristianbotello/Desktop/Advanced Quant/Lab 3.1/CB-subject-2.csv,legacy,7 4 2 8 1 9,Kafkaesque Koffka,3.2.8,0,n,0,right,1,left,right,NA,688,43067,2903,688,NA,2,legacy,6,1024,2,48000,-16,experiment,2,even,5,330968,46492,327572,328729,3369,129204,328742,315403,3415,126299,332983,333674,329755,332982,NA,Sternberg Task,34,40804,45,yes,1024
76.08695652,76.08695652,905.3913043,905.3913043,black,experiment,legacy,legacy,legacy,0,uniform,1,undefined,1,right,45,0,45,45,0,0,45,45,0,0,45,45,45,45,0,Thu Oct 24 13:42:33 2019,The main experiment item,yes,SternbergTask.osexp,/Users/cristianbotello/Desktop/Advanced Quant/Lab 3.1,no,mono,no,18,no,white,no,no,768,legacy,33,11,/Users/cristianbotello/Desktop/Advanced Quant/Lab 3.1/CB-subject-2.csv,legacy,6 3 1 7 9 8,Kafkaesque Koffka,3.2.8,0,n,0,right,1,left,right,NA,844,43067,2903,844,NA,2,legacy,6,1024,2,48000,-16,experiment,2,even,4,337120,46492,333690,334882,3369,129204,334895,315403,3415,126299,339132,339978,335907,339132,NA,Sternberg Task,35,41648,46,yes,1024
76.59574468,76.59574468,902.3829787,902.3829787,black,experiment,legacy,legacy,legacy,0,uniform,1,undefined,1,right,46,0,46,46,0,0,46,46,0,0,46,46,46,46,0,Thu Oct 24 13:42:33 2019,The main experiment item,yes,SternbergTask.osexp,/Users/cristianbotello/Desktop/Advanced Quant/Lab 3.1,no,mono,no,18,no,white,no,no,768,legacy,34,11,/Users/cristianbotello/Desktop/Advanced Quant/Lab 3.1/CB-subject-2.csv,legacy,4 2 7 6 1 3,Kafkaesque Koffka,3.2.8,0,n,0,right,1,left,right,NA,764,43067,2903,764,NA,2,legacy,6,1024,2,48000,-16,experiment,2,even,8,343402,46492,339994,341162,3369,129204,341176,315403,3415,126299,345414,346180,342188,345414,NA,Sternberg Task,36,42412,47,yes,1024
77.08333333,77.08333333,905.4166667,905.4166667,black,experiment,legacy,legacy,legacy,0,uniform,1,undefined,1,right,47,0,47,47,0,0,47,47,0,0,47,47,47,47,0,Thu Oct 24 13:42:33 2019,The main experiment item,yes,SternbergTask.osexp,/Users/cristianbotello/Desktop/Advanced Quant/Lab 3.1,no,mono,no,18,no,white,no,no,768,legacy,35,11,/Users/cristianbotello/Desktop/Advanced Quant/Lab 3.1/CB-subject-2.csv,legacy,6 9 4 5 3 2,Kafkaesque Koffka,3.2.8,0,n,0,right,1,left,right,NA,1048,43067,2903,1048,NA,2,legacy,6,1024,2,48000,-16,experiment,2,even,8,349609,46492,346197,347371,3369,129204,347383,315403,3415,126299,351621,352672,348396,351621,NA,Sternberg Task,37,43460,48,yes,1024
77.55102041,77.55102041,918.3265306,918.3265306,black,experiment,legacy,legacy,legacy,0,uniform,1,undefined,1,left,48,0,48,48,0,0,48,48,0,0,48,48,48,48,0,Thu Oct 24 13:42:33 2019,The main experiment item,yes,SternbergTask.osexp,/Users/cristianbotello/Desktop/Advanced Quant/Lab 3.1,no,mono,no,18,no,white,no,no,768,legacy,36,11,/Users/cristianbotello/Desktop/Advanced Quant/Lab 3.1/CB-subject-2.csv,legacy,5 7 8 2 3 8,Kafkaesque Koffka,3.2.8,5,y,0,left,1,left,left,NA,1538,43067,2903,1538,NA,2,legacy,6,1024,2,48000,-16,experiment,2,even,3,356079,46492,352691,353839,3369,129204,353852,315403,3415,126299,358092,359632,354868,358092,NA,Sternberg Task,38,44998,49,yes,1024
78,78,918.14,918.14,black,experiment,legacy,legacy,legacy,0,uniform,1,undefined,1,right,49,0,49,49,0,0,49,49,0,0,49,49,49,49,0,Thu Oct 24 13:42:33 2019,The main experiment item,yes,SternbergTask.osexp,/Users/cristianbotello/Desktop/Advanced Quant/Lab 3.1,no,mono,no,18,no,white,no,no,768,legacy,37,11,/Users/cristianbotello/Desktop/Advanced Quant/Lab 3.1/CB-subject-2.csv,legacy,6 9 7 3 8 2,Kafkaesque Koffka,3.2.8,0,n,0,right,1,left,right,NA,909,43067,2903,909,NA,2,legacy,6,1024,2,48000,-16,experiment,2,even,5,363050,46492,359648,360810,3369,129204,360823,315403,3415,126299,365064,365976,361838,365063,NA,Sternberg Task,39,45907,50,yes,1024
78.43137255,78.43137255,913.5490196,913.5490196,black,experiment,legacy,legacy,legacy,0,uniform,1,undefined,1,right,50,0,50,50,0,0,50,50,0,0,50,50,50,50,0,Thu Oct 24 13:42:33 2019,The main experiment item,yes,SternbergTask.osexp,/Users/cristianbotello/Desktop/Advanced Quant/Lab 3.1,no,mono,no,18,no,white,no,no,768,legacy,38,11,/Users/cristianbotello/Desktop/Advanced Quant/Lab 3.1/CB-subject-2.csv,legacy,2 8 9,Kafkaesque Koffka,3.2.8,0,n,0,right,1,left,right,NA,684,43067,2903,684,NA,2,legacy,3,1024,2,48000,-16,experiment,2,even,6,369380,46492,365995,367140,3369,129204,367152,315403,3415,126299,371396,372082,368167,371396,NA,Sternberg Task,40,46591,51,yes,1024
78.84615385,78.84615385,910.7692308,910.7692308,black,experiment,legacy,legacy,legacy,0,uniform,1,undefined,1,right,51,0,51,51,0,0,51,51,0,0,51,51,51,51,0,Thu Oct 24 13:42:33 2019,The main experiment item,yes,SternbergTask.osexp,/Users/cristianbotello/Desktop/Advanced Quant/Lab 3.1,no,mono,no,18,no,white,no,no,768,legacy,39,11,/Users/cristianbotello/Desktop/Advanced Quant/Lab 3.1/CB-subject-2.csv,legacy,9,Kafkaesque Koffka,3.2.8,0,n,0,right,1,left,right,NA,769,43067,2903,769,NA,2,legacy,1,1024,2,48000,-16,experiment,2,even,6,375498,46492,372098,373257,3369,129204,373270,315403,3415,126299,377512,378283,374285,377512,NA,Sternberg Task,41,47360,52,yes,1024
79.24528302,79.24528302,908.6792453,908.6792453,black,experiment,legacy,legacy,legacy,0,uniform,1,undefined,1,left,52,0,52,52,0,0,52,52,0,0,52,52,52,52,0,Thu Oct 24 13:42:33 2019,The main experiment item,yes,SternbergTask.osexp,/Users/cristianbotello/Desktop/Advanced Quant/Lab 3.1,no,mono,no,18,no,white,no,no,768,legacy,40,11,/Users/cristianbotello/Desktop/Advanced Quant/Lab 3.1/CB-subject-2.csv,legacy,1 4 9 3 2 5,Kafkaesque Koffka,3.2.8,3,y,0,left,1,left,left,NA,800,43067,2903,800,NA,2,legacy,6,1024,2,48000,-16,experiment,2,even,9,381692,46492,378300,379450,3369,129204,379463,315403,3415,126299,383708,384510,380479,383707,NA,Sternberg Task,42,48160,53,yes,1024
79.62962963,79.62962963,904.1851852,904.1851852,black,experiment,legacy,legacy,legacy,0,uniform,1,undefined,1,right,53,0,53,53,0,0,53,53,0,0,53,53,53,53,0,Thu Oct 24 13:42:33 2019,The main experiment item,yes,SternbergTask.osexp,/Users/cristianbotello/Desktop/Advanced Quant/Lab 3.1,no,mono,no,18,no,white,no,no,768,legacy,41,11,/Users/cristianbotello/Desktop/Advanced Quant/Lab 3.1/CB-subject-2.csv,legacy,1 7 5 2,Kafkaesque Koffka,3.2.8,0,n,0,right,1,left,right,NA,666,43067,2903,666,NA,2,legacy,4,1024,2,48000,-16,experiment,2,even,3,387921,46492,384525,385682,3369,129204,385694,315403,3415,126299,389936,390605,386710,389936,NA,Sternberg Task,43,48826,54,yes,1024
80,80,902.4545455,902.4545455,black,experiment,legacy,legacy,legacy,0,uniform,1,undefined,1,right,54,0,54,54,0,0,54,54,0,0,54,54,54,54,0,Thu Oct 24 13:42:33 2019,The main experiment item,yes,SternbergTask.osexp,/Users/cristianbotello/Desktop/Advanced Quant/Lab 3.1,no,mono,no,18,no,white,no,no,768,legacy,42,11,/Users/cristianbotello/Desktop/Advanced Quant/Lab 3.1/CB-subject-2.csv,legacy,8 5 4 2 9 6,Kafkaesque Koffka,3.2.8,0,n,0,right,1,left,right,NA,809,43067,2903,809,NA,2,legacy,6,1024,2,48000,-16,experiment,2,even,3,394024,46492,390621,391786,3369,129204,391799,315403,3415,126299,396038,396849,392812,396038,NA,Sternberg Task,44,49635,55,yes,1024
80.35714286,80.35714286,905.6785714,905.6785714,black,experiment,legacy,legacy,legacy,0,uniform,1,undefined,1,left,55,0,55,55,0,0,55,55,0,0,55,55,55,55,0,Thu Oct 24 13:42:33 2019,The main experiment item,yes,SternbergTask.osexp,/Users/cristianbotello/Desktop/Advanced Quant/Lab 3.1,no,mono,no,18,no,white,no,no,768,legacy,43,11,/Users/cristianbotello/Desktop/Advanced Quant/Lab 3.1/CB-subject-2.csv,legacy,2 5 4 8 7,Kafkaesque Koffka,3.2.8,3,y,0,left,1,left,left,NA,1083,43067,2903,1083,NA,2,legacy,5,1024,2,48000,-16,experiment,2,even,4,400273,46492,396866,398030,3369,129204,398045,315403,3415,126299,402287,403372,399060,402286,NA,Sternberg Task,45,50718,56,yes,1024
80.70175439,80.70175439,902.1052632,902.1052632,black,experiment,legacy,legacy,legacy,0,uniform,1,undefined,1,right,56,0,56,56,0,0,56,56,0,0,56,56,56,56,0,Thu Oct 24 13:42:33 2019,The main experiment item,yes,SternbergTask.osexp,/Users/cristianbotello/Desktop/Advanced Quant/Lab 3.1,no,mono,no,18,no,white,no,no,768,legacy,44,11,/Users/cristianbotello/Desktop/Advanced Quant/Lab 3.1/CB-subject-2.csv,legacy,2 8 6 3 1,Kafkaesque Koffka,3.2.8,0,n,0,right,1,left,right,NA,702,43067,2903,702,NA,2,legacy,5,1024,2,48000,-16,experiment,2,even,7,406786,46492,403389,404546,3369,129204,404558,315403,3415,126299,408800,409504,405574,408800,NA,Sternberg Task,46,51420,57,yes,1024
81.03448276,81.03448276,904.5517241,904.5517241,black,experiment,legacy,legacy,legacy,0,uniform,1,undefined,1,right,57,0,57,57,0,0,57,57,0,0,57,57,57,57,0,Thu Oct 24 13:42:33 2019,The main experiment item,yes,SternbergTask.osexp,/Users/cristianbotello/Desktop/Advanced Quant/Lab 3.1,no,mono,no,18,no,white,no,no,768,legacy,45,11,/Users/cristianbotello/Desktop/Advanced Quant/Lab 3.1/CB-subject-2.csv,legacy,1 6 4,Kafkaesque Koffka,3.2.8,0,n,0,right,1,left,right,NA,1044,43067,2903,1044,NA,2,legacy,3,1024,2,48000,-16,experiment,2,even,7,412931,46492,409523,410688,3369,129204,410701,315403,3415,126299,414946,415993,411718,414946,NA,Sternberg Task,47,52464,58,yes,1024
81.3559322,81.3559322,903.220339,903.220339,black,experiment,legacy,legacy,legacy,0,uniform,1,undefined,1,right,58,0,58,58,0,0,58,58,0,0,58,58,58,58,0,Thu Oct 24 13:42:33 2019,The main experiment item,yes,SternbergTask.osexp,/Users/cristianbotello/Desktop/Advanced Quant/Lab 3.1,no,mono,no,18,no,white,no,no,768,legacy,46,11,/Users/cristianbotello/Desktop/Advanced Quant/Lab 3.1/CB-subject-2.csv,legacy,2 6 4 3 9,Kafkaesque Koffka,3.2.8,0,n,0,right,1,left,right,NA,826,43067,2903,826,NA,2,legacy,5,1024,2,48000,-16,experiment,2,even,1,419397,46492,416008,417157,3369,129204,417169,315403,3415,126299,421412,422240,418185,421412,NA,Sternberg Task,48,53290,59,yes,1024
81.66666667,81.66666667,902.1,902.1,black,experiment,legacy,legacy,legacy,0,uniform,1,undefined,1,right,59,0,59,59,0,0,59,59,0,0,59,59,59,59,0,Thu Oct 24 13:42:33 2019,The main experiment item,yes,SternbergTask.osexp,/Users/cristianbotello/Desktop/Advanced Quant/Lab 3.1,no,mono,no,18,no,white,no,no,768,legacy,47,11,/Users/cristianbotello/Desktop/Advanced Quant/Lab 3.1/CB-subject-2.csv,legacy,2 5 1 4,Kafkaesque Koffka,3.2.8,0,n,0,right,1,left,right,NA,836,43067,2903,836,NA,2,legacy,4,1024,2,48000,-16,experiment,2,even,6,425643,46492,422255,423403,3369,129204,423416,315403,3415,126299,427657,428495,424432,427657,NA,Sternberg Task,49,54126,60,yes,1024
81.96721311,81.96721311,898.6065574,898.6065574,black,experiment,legacy,legacy,legacy,0,uniform,1,undefined,1,left,60,0,60,60,0,0,60,60,0,0,60,60,60,60,0,Thu Oct 24 13:42:33 2019,The main experiment item,yes,SternbergTask.osexp,/Users/cristianbotello/Desktop/Advanced Quant/Lab 3.1,no,mono,no,18,no,white,no,no,768,legacy,48,11,/Users/cristianbotello/Desktop/Advanced Quant/Lab 3.1/CB-subject-2.csv,legacy,7,Kafkaesque Koffka,3.2.8,1,y,0,left,1,left,left,NA,689,43067,2903,689,NA,2,legacy,1,1024,2,48000,-16,experiment,2,even,7,431905,46492,428511,429665,3369,129204,429678,315403,3415,126299,433919,434611,430694,433919,NA,Sternberg Task,50,54815,61,yes,1024
82.25806452,82.25806452,905.7258065,905.7258065,black,experiment,legacy,legacy,legacy,0,uniform,1,undefined,1,right,61,0,61,61,0,0,61,61,0,0,61,61,61,61,0,Thu Oct 24 13:42:33 2019,The main experiment item,yes,SternbergTask.osexp,/Users/cristianbotello/Desktop/Advanced Quant/Lab 3.1,no,mono,no,18,no,white,no,no,768,legacy,49,11,/Users/cristianbotello/Desktop/Advanced Quant/Lab 3.1/CB-subject-2.csv,legacy,5 3 8 7 2 4,Kafkaesque Koffka,3.2.8,0,n,0,right,1,left,right,NA,1340,43067,2903,1340,NA,2,legacy,6,1024,2,48000,-16,experiment,2,even,9,438023,46492,434628,435782,3369,129204,435795,315403,3415,126299,440037,441381,436810,440037,NA,Sternberg Task,51,56155,62,yes,1024
82.53968254,82.53968254,910.1587302,910.1587302,black,experiment,legacy,legacy,legacy,0,uniform,1,undefined,1,left,62,0,62,62,0,0,62,62,0,0,62,62,62,62,0,Thu Oct 24 13:42:33 2019,The main experiment item,yes,SternbergTask.osexp,/Users/cristianbotello/Desktop/Advanced Quant/Lab 3.1,no,mono,no,18,no,white,no,no,768,legacy,50,11,/Users/cristianbotello/Desktop/Advanced Quant/Lab 3.1/CB-subject-2.csv,legacy,2 4 6 9,Kafkaesque Koffka,3.2.8,3,y,0,left,1,left,left,NA,1185,43067,2903,1185,NA,2,legacy,4,1024,2,48000,-16,experiment,2,even,6,444798,46492,441397,442560,3369,129204,442573,315403,3415,126299,446813,448000,443586,446813,NA,Sternberg Task,52,57340,63,yes,1024
82.8125,82.8125,907.09375,907.09375,black,experiment,legacy,legacy,legacy,0,uniform,1,undefined,1,left,63,0,63,63,0,0,63,63,0,0,63,63,63,63,0,Thu Oct 24 13:42:33 2019,The main experiment item,yes,SternbergTask.osexp,/Users/cristianbotello/Desktop/Advanced Quant/Lab 3.1,no,mono,no,18,no,white,no,no,768,legacy,51,11,/Users/cristianbotello/Desktop/Advanced Quant/Lab 3.1/CB-subject-2.csv,legacy,7 1 8 5 6 2,Kafkaesque Koffka,3.2.8,2,y,0,left,1,left,left,NA,714,43067,2903,714,NA,2,legacy,6,1024,2,48000,-16,experiment,2,even,1,451432,46492,448017,449193,3369,129204,449205,315403,3415,126299,453444,454160,450218,453444,NA,Sternberg Task,53,58054,64,yes,1024
83.07692308,83.07692308,903.3692308,903.3692308,black,experiment,legacy,legacy,legacy,0,uniform,1,undefined,1,right,64,0,64,64,0,0,64,64,0,0,64,64,64,64,0,Thu Oct 24 13:42:33 2019,The main experiment item,yes,SternbergTask.osexp,/Users/cristianbotello/Desktop/Advanced Quant/Lab 3.1,no,mono,no,18,no,white,no,no,768,legacy,52,11,/Users/cristianbotello/Desktop/Advanced Quant/Lab 3.1/CB-subject-2.csv,legacy,8 4 3 5,Kafkaesque Koffka,3.2.8,0,n,0,right,1,left,right,NA,665,43067,2903,665,NA,2,legacy,4,1024,2,48000,-16,experiment,2,even,6,457572,46492,454175,455335,3369,129204,455348,315403,3415,126299,459587,460254,456360,459587,NA,Sternberg Task,54,58719,65,yes,1024
83.33333333,83.33333333,901.3333333,901.3333333,black,experiment,legacy,legacy,legacy,0,uniform,1,undefined,1,right,65,0,65,65,0,0,65,65,0,0,65,65,65,65,0,Thu Oct 24 13:42:33 2019,The main experiment item,yes,SternbergTask.osexp,/Users/cristianbotello/Desktop/Advanced Quant/Lab 3.1,no,mono,no,18,no,white,no,no,768,legacy,53,11,/Users/cristianbotello/Desktop/Advanced Quant/Lab 3.1/CB-subject-2.csv,legacy,1 4 9 2 5,Kafkaesque Koffka,3.2.8,0,n,0,right,1,left,right,NA,769,43067,2903,769,NA,2,legacy,5,1024,2,48000,-16,experiment,2,even,7,463692,46492,460272,461452,3369,129204,461465,315403,3415,126299,465706,466479,462479,465706,NA,Sternberg Task,55,59488,66,yes,1024
83.58208955,83.58208955,897.5970149,897.5970149,black,experiment,legacy,legacy,legacy,0,uniform,1,undefined,1,left,66,0,66,66,0,0,66,66,0,0,66,66,66,66,0,Thu Oct 24 13:42:33 2019,The main experiment item,yes,SternbergTask.osexp,/Users/cristianbotello/Desktop/Advanced Quant/Lab 3.1,no,mono,no,18,no,white,no,no,768,legacy,54,11,/Users/cristianbotello/Desktop/Advanced Quant/Lab 3.1/CB-subject-2.csv,legacy,4 1 5,Kafkaesque Koffka,3.2.8,2,y,0,left,1,left,left,NA,651,43067,2903,651,NA,2,legacy,3,1024,2,48000,-16,experiment,2,even,1,469912,46492,466498,467674,3369,129204,467687,315403,3415,126299,471925,472579,468699,471925,NA,Sternberg Task,56,60139,67,yes,1024
83.82352941,83.82352941,896.4411765,896.4411765,black,experiment,legacy,legacy,legacy,0,uniform,1,undefined,1,left,67,0,67,67,0,0,67,67,0,0,67,67,67,67,0,Thu Oct 24 13:42:33 2019,The main experiment item,yes,SternbergTask.osexp,/Users/cristianbotello/Desktop/Advanced Quant/Lab 3.1,no,mono,no,18,no,white,no,no,768,legacy,55,11,/Users/cristianbotello/Desktop/Advanced Quant/Lab 3.1/CB-subject-2.csv,legacy,4 1 8 7 5,Kafkaesque Koffka,3.2.8,3,y,0,left,1,left,left,NA,819,43067,2903,819,NA,2,legacy,5,1024,2,48000,-16,experiment,2,even,8,475989,46492,472595,473749,3369,129204,473761,315403,3415,126299,478002,478823,474777,478002,NA,Sternberg Task,57,60958,68,yes,1024
84.05797101,84.05797101,893.1594203,893.1594203,black,experiment,legacy,legacy,legacy,0,uniform,1,undefined,1,left,68,0,68,68,0,0,68,68,0,0,68,68,68,68,0,Thu Oct 24 13:42:33 2019,The main experiment item,yes,SternbergTask.osexp,/Users/cristianbotello/Desktop/Advanced Quant/Lab 3.1,no,mono,no,18,no,white,no,no,768,legacy,56,11,/Users/cristianbotello/Desktop/Advanced Quant/Lab 3.1/CB-subject-2.csv,legacy,2 4 8 5 1 3,Kafkaesque Koffka,3.2.8,1,y,0,left,1,left,left,NA,670,43067,2903,670,NA,2,legacy,6,1024,2,48000,-16,experiment,2,even,2,482225,46492,478838,479986,3369,129204,479998,315403,3415,126299,484241,484914,481013,484241,NA,Sternberg Task,58,61628,69,yes,1024
84.28571429,84.28571429,888.2285714,888.2285714,black,experiment,legacy,legacy,legacy,0,uniform,1,undefined,1,left,69,0,69,69,0,0,69,69,0,0,69,69,69,69,0,Thu Oct 24 13:42:33 2019,The main experiment item,yes,SternbergTask.osexp,/Users/cristianbotello/Desktop/Advanced Quant/Lab 3.1,no,mono,no,18,no,white,no,no,768,legacy,57,11,/Users/cristianbotello/Desktop/Advanced Quant/Lab 3.1/CB-subject-2.csv,legacy,2 3,Kafkaesque Koffka,3.2.8,1,y,0,left,1,left,left,NA,548,43067,2903,548,NA,2,legacy,2,1024,2,48000,-16,experiment,2,even,2,488339,46492,484932,486100,3369,129204,486112,315403,3415,126299,490351,490901,487125,490351,NA,Sternberg Task,59,62176,70,yes,1024
84.50704225,84.50704225,883.9577465,883.9577465,black,experiment,legacy,legacy,legacy,0,uniform,1,undefined,1,left,70,0,70,70,0,0,70,70,0,0,70,70,70,70,0,Thu Oct 24 13:42:33 2019,The main experiment item,yes,SternbergTask.osexp,/Users/cristianbotello/Desktop/Advanced Quant/Lab 3.1,no,mono,no,18,no,white,no,no,768,legacy,58,11,/Users/cristianbotello/Desktop/Advanced Quant/Lab 3.1/CB-subject-2.csv,legacy,8 9 5 6 7,Kafkaesque Koffka,3.2.8,1,y,0,left,1,left,left,NA,585,43067,2903,585,NA,2,legacy,5,1024,2,48000,-16,experiment,2,even,8,494317,46492,490916,492074,3369,129204,492087,315403,3415,126299,496332,496919,493103,496332,NA,Sternberg Task,60,62761,71,yes,1024
84.72222222,84.72222222,882.875,882.875,black,experiment,legacy,legacy,legacy,0,uniform,1,undefined,1,left,71,0,71,71,0,0,71,71,0,0,71,71,71,71,0,Thu Oct 24 13:42:33 2019,The main experiment item,yes,SternbergTask.osexp,/Users/cristianbotello/Desktop/Advanced Quant/Lab 3.1,no,mono,no,18,no,white,no,no,768,legacy,59,11,/Users/cristianbotello/Desktop/Advanced Quant/Lab 3.1/CB-subject-2.csv,legacy,9 3 8 2 1 4,Kafkaesque Koffka,3.2.8,3,y,0,left,1,left,left,NA,806,43067,2903,806,NA,2,legacy,6,1024,2,48000,-16,experiment,2,even,8,500322,46492,496936,498080,3369,129204,498094,315403,3415,126299,502336,503144,499109,502336,NA,Sternberg Task,61,63567,72,yes,1024
84.93150685,84.93150685,880.5342466,880.5342466,black,experiment,legacy,legacy,legacy,0,uniform,1,undefined,1,left,72,0,72,72,0,0,72,72,0,0,72,72,72,72,0,Thu Oct 24 13:42:33 2019,The main experiment item,yes,SternbergTask.osexp,/Users/cristianbotello/Desktop/Advanced Quant/Lab 3.1,no,mono,no,18,no,white,no,no,768,legacy,60,11,/Users/cristianbotello/Desktop/Advanced Quant/Lab 3.1/CB-subject-2.csv,legacy,7 2 3,Kafkaesque Koffka,3.2.8,3,y,0,left,1,left,left,NA,712,43067,2903,712,NA,2,legacy,3,1024,2,48000,-16,experiment,2,even,3,506565,46492,503160,504324,3369,129204,504336,315403,3415,126299,508579,509294,505352,508579,NA,Sternberg Task,62,64279,73,yes,1024
85.13513514,85.13513514,875.8243243,875.8243243,black,experiment,legacy,legacy,legacy,0,uniform,1,undefined,1,left,73,0,73,73,0,0,73,73,0,0,73,73,73,73,0,Thu Oct 24 13:42:33 2019,The main experiment item,yes,SternbergTask.osexp,/Users/cristianbotello/Desktop/Advanced Quant/Lab 3.1,no,mono,no,18,no,white,no,no,768,legacy,61,11,/Users/cristianbotello/Desktop/Advanced Quant/Lab 3.1/CB-subject-2.csv,legacy,8 7 3,Kafkaesque Koffka,3.2.8,1,y,0,left,1,left,left,NA,532,43067,2903,532,NA,2,legacy,3,1024,2,48000,-16,experiment,2,even,8,512711,46492,509309,510470,3369,129204,510486,315403,3415,126299,514727,515262,511498,514727,NA,Sternberg Task,63,64811,74,yes,1024
85.33333333,85.33333333,872.0933333,872.0933333,black,experiment,legacy,legacy,legacy,0,uniform,1,undefined,1,left,74,0,74,74,0,0,74,74,0,0,74,74,74,74,0,Thu Oct 24 13:42:33 2019,The main experiment item,yes,SternbergTask.osexp,/Users/cristianbotello/Desktop/Advanced Quant/Lab 3.1,no,mono,no,18,no,white,no,no,768,legacy,62,11,/Users/cristianbotello/Desktop/Advanced Quant/Lab 3.1/CB-subject-2.csv,legacy,8 5 1 3 9,Kafkaesque Koffka,3.2.8,4,y,0,left,1,left,left,NA,596,43067,2903,596,NA,2,legacy,5,1024,2,48000,-16,experiment,2,even,3,518665,46492,515278,516425,3369,129204,516437,315403,3415,126299,520679,521278,517454,520679,NA,Sternberg Task,64,65407,75,yes,1024
85.52631579,85.52631579,870.9473684,870.9473684,black,experiment,legacy,legacy,legacy,0,uniform,1,undefined,1,right,75,0,75,75,0,0,75,75,0,0,75,75,75,75,0,Thu Oct 24 13:42:33 2019,The main experiment item,yes,SternbergTask.osexp,/Users/cristianbotello/Desktop/Advanced Quant/Lab 3.1,no,mono,no,18,no,white,no,no,768,legacy,63,11,/Users/cristianbotello/Desktop/Advanced Quant/Lab 3.1/CB-subject-2.csv,legacy,7 6 4 8 1 2,Kafkaesque Koffka,3.2.8,0,n,0,right,1,left,right,NA,785,43067,2903,785,NA,2,legacy,6,1024,2,48000,-16,experiment,2,even,9,524695,46492,521295,522450,3369,129204,522462,315403,3415,126299,526709,527496,523478,526709,NA,Sternberg Task,65,66192,76,yes,1024
85.71428571,85.71428571,867.3246753,867.3246753,black,experiment,legacy,legacy,legacy,0,uniform,1,undefined,1,left,76,0,76,76,0,0,76,76,0,0,76,76,76,76,0,Thu Oct 24 13:42:33 2019,The main experiment item,yes,SternbergTask.osexp,/Users/cristianbotello/Desktop/Advanced Quant/Lab 3.1,no,mono,no,18,no,white,no,no,768,legacy,64,11,/Users/cristianbotello/Desktop/Advanced Quant/Lab 3.1/CB-subject-2.csv,legacy,3 4,Kafkaesque Koffka,3.2.8,1,y,0,left,1,left,left,NA,592,43067,2903,592,NA,2,legacy,2,1024,2,48000,-16,experiment,2,even,3,530900,46492,527514,528659,3369,129204,528672,315403,3415,126299,532914,533509,529688,532914,NA,Sternberg Task,66,66784,77,yes,1024
85.8974359,85.8974359,864.6410256,864.6410256,black,experiment,legacy,legacy,legacy,0,uniform,1,undefined,1,left,77,0,77,77,0,0,77,77,0,0,77,77,77,77,0,Thu Oct 24 13:42:33 2019,The main experiment item,yes,SternbergTask.osexp,/Users/cristianbotello/Desktop/Advanced Quant/Lab 3.1,no,mono,no,18,no,white,no,no,768,legacy,65,11,/Users/cristianbotello/Desktop/Advanced Quant/Lab 3.1/CB-subject-2.csv,legacy,4,Kafkaesque Koffka,3.2.8,1,y,0,left,1,left,left,NA,658,43067,2903,658,NA,2,legacy,1,1024,2,48000,-16,experiment,2,even,4,536925,46492,533530,534680,3369,129204,534697,315403,3415,126299,538938,539598,535713,538938,NA,Sternberg Task,67,67442,78,yes,1024
86.07594937,86.07594937,864.4683544,864.4683544,black,experiment,legacy,legacy,legacy,0,uniform,1,undefined,1,left,78,0,78,78,0,0,78,78,0,0,78,78,78,78,0,Thu Oct 24 13:42:33 2019,The main experiment item,yes,SternbergTask.osexp,/Users/cristianbotello/Desktop/Advanced Quant/Lab 3.1,no,mono,no,18,no,white,no,no,768,legacy,66,11,/Users/cristianbotello/Desktop/Advanced Quant/Lab 3.1/CB-subject-2.csv,legacy,7 8 4 6 9 5,Kafkaesque Koffka,3.2.8,4,y,0,left,1,left,left,NA,851,43067,2903,851,NA,2,legacy,6,1024,2,48000,-16,experiment,2,even,6,543016,46492,539618,540776,3369,129204,540788,315403,3415,126299,545030,545884,541803,545030,NA,Sternberg Task,68,68293,79,yes,1024
86.25,86.25,864.2,864.2,black,experiment,legacy,legacy,legacy,0,uniform,1,undefined,1,left,79,0,79,79,0,0,79,79,0,0,79,79,79,79,0,Thu Oct 24 13:42:33 2019,The main experiment item,yes,SternbergTask.osexp,/Users/cristianbotello/Desktop/Advanced Quant/Lab 3.1,no,mono,no,18,no,white,no,no,768,legacy,67,11,/Users/cristianbotello/Desktop/Advanced Quant/Lab 3.1/CB-subject-2.csv,legacy,5 2 6,Kafkaesque Koffka,3.2.8,2,y,0,left,1,left,left,NA,843,43067,2903,843,NA,2,legacy,3,1024,2,48000,-16,experiment,2,even,2,549294,46492,545902,547052,3369,129204,547066,315403,3415,126299,551308,552154,548081,551308,NA,Sternberg Task,69,69136,80,yes,1024
86.41975309,86.41975309,860.9753086,860.9753086,black,experiment,legacy,legacy,legacy,0,uniform,1,undefined,1,left,80,0,80,80,0,0,80,80,0,0,80,80,80,80,0,Thu Oct 24 13:42:33 2019,The main experiment item,yes,SternbergTask.osexp,/Users/cristianbotello/Desktop/Advanced Quant/Lab 3.1,no,mono,no,18,no,white,no,no,768,legacy,68,11,/Users/cristianbotello/Desktop/Advanced Quant/Lab 3.1/CB-subject-2.csv,legacy,3 5 4 7,Kafkaesque Koffka,3.2.8,1,y,0,left,1,left,left,NA,603,43067,2903,603,NA,2,legacy,4,1024,2,48000,-16,experiment,2,even,3,555571,46492,552170,553328,3369,129204,553340,315403,3415,126299,557585,558191,554355,557585,NA,Sternberg Task,70,69739,81,yes,1024
86.58536585,86.58536585,865.8536585,865.8536585,black,experiment,legacy,legacy,legacy,0,uniform,1,undefined,1,right,81,0,81,81,0,0,81,81,0,0,81,81,81,81,0,Thu Oct 24 13:42:33 2019,The main experiment item,yes,SternbergTask.osexp,/Users/cristianbotello/Desktop/Advanced Quant/Lab 3.1,no,mono,no,18,no,white,no,no,768,legacy,69,11,/Users/cristianbotello/Desktop/Advanced Quant/Lab 3.1/CB-subject-2.csv,legacy,5 3 2 6 9 8,Kafkaesque Koffka,3.2.8,0,n,0,right,1,left,right,NA,1261,43067,2903,1261,NA,2,legacy,6,1024,2,48000,-16,experiment,2,even,4,561602,46492,558210,559360,3369,129204,559372,315403,3415,126299,563615,564879,560388,563615,NA,Sternberg Task,71,71000,82,yes,1024
86.74698795,86.74698795,863.3975904,863.3975904,black,experiment,legacy,legacy,legacy,0,uniform,1,undefined,1,left,82,0,82,82,0,0,82,82,0,0,82,82,82,82,0,Thu Oct 24 13:42:33 2019,The main experiment item,yes,SternbergTask.osexp,/Users/cristianbotello/Desktop/Advanced Quant/Lab 3.1,no,mono,no,18,no,white,no,no,768,legacy,70,11,/Users/cristianbotello/Desktop/Advanced Quant/Lab 3.1/CB-subject-2.csv,legacy,8 9 6 1,Kafkaesque Koffka,3.2.8,2,y,0,left,1,left,left,NA,662,43067,2903,662,NA,2,legacy,4,1024,2,48000,-16,experiment,2,even,9,568286,46492,564895,566046,3369,129204,566059,315403,3415,126299,570301,570965,567075,570301,NA,Sternberg Task,72,71662,83,yes,1024
86.9047619,86.9047619,861.7619048,861.7619048,black,experiment,legacy,legacy,legacy,0,uniform,1,undefined,1,right,83,0,83,83,0,0,83,83,0,0,83,83,83,83,0,Thu Oct 24 13:42:33 2019,The main experiment item,yes,SternbergTask.osexp,/Users/cristianbotello/Desktop/Advanced Quant/Lab 3.1,no,mono,no,18,no,white,no,no,768,legacy,71,11,/Users/cristianbotello/Desktop/Advanced Quant/Lab 3.1/CB-subject-2.csv,legacy,8 6 3 4 7,Kafkaesque Koffka,3.2.8,0,n,0,right,1,left,right,NA,726,43067,2903,726,NA,2,legacy,5,1024,2,48000,-16,experiment,2,even,1,574372,46492,570982,572130,3369,129204,572143,315403,3415,126299,576386,577115,573159,576386,NA,Sternberg Task,73,72388,84,yes,1024
87.05882353,87.05882353,858.0117647,858.0117647,black,experiment,legacy,legacy,legacy,0,uniform,1,undefined,1,right,84,0,84,84,0,0,84,84,0,0,84,84,84,84,0,Thu Oct 24 13:42:33 2019,The main experiment item,yes,SternbergTask.osexp,/Users/cristianbotello/Desktop/Advanced Quant/Lab 3.1,no,mono,no,18,no,white,no,no,768,legacy,72,11,/Users/cristianbotello/Desktop/Advanced Quant/Lab 3.1/CB-subject-2.csv,legacy,8 9,Kafkaesque Koffka,3.2.8,0,n,0,right,1,left,right,NA,543,43067,2903,543,NA,2,legacy,2,1024,2,48000,-16,experiment,2,even,5,580525,46492,577135,578284,3369,129204,578297,315403,3415,126299,582540,583087,579313,582540,NA,Sternberg Task,74,72931,85,yes,1024
87.20930233,87.20930233,859.4767442,859.4767442,black,experiment,legacy,legacy,legacy,0,uniform,1,undefined,1,right,85,0,85,85,0,0,85,85,0,0,85,85,85,85,0,Thu Oct 24 13:42:33 2019,The main experiment item,yes,SternbergTask.osexp,/Users/cristianbotello/Desktop/Advanced Quant/Lab 3.1,no,mono,no,18,no,white,no,no,768,legacy,73,11,/Users/cristianbotello/Desktop/Advanced Quant/Lab 3.1/CB-subject-2.csv,legacy,1 6 4 3 9 7,Kafkaesque Koffka,3.2.8,0,n,0,right,1,left,right,NA,984,43067,2903,984,NA,2,legacy,6,1024,2,48000,-16,experiment,2,even,8,586495,46492,583102,584255,3369,129204,584268,315403,3415,126299,588509,589496,585283,588509,NA,Sternberg Task,75,73915,86,yes,1024
87.35632184,87.35632184,860.2068966,860.2068966,black,experiment,legacy,legacy,legacy,0,uniform,1,undefined,1,left,86,0,86,86,0,0,86,86,0,0,86,86,86,86,0,Thu Oct 24 13:42:33 2019,The main experiment item,yes,SternbergTask.osexp,/Users/cristianbotello/Desktop/Advanced Quant/Lab 3.1,no,mono,no,18,no,white,no,no,768,legacy,74,11,/Users/cristianbotello/Desktop/Advanced Quant/Lab 3.1/CB-subject-2.csv,legacy,2 8 5 1,Kafkaesque Koffka,3.2.8,4,y,0,left,1,left,left,NA,923,43067,2903,923,NA,2,legacy,4,1024,2,48000,-16,experiment,2,even,1,592902,46492,589512,590659,3369,129204,590671,315403,3415,126299,594917,595843,591687,594916,NA,Sternberg Task,76,74838,87,yes,1024
87.5,87.5,859.1136364,859.1136364,black,experiment,legacy,legacy,legacy,0,uniform,1,undefined,1,right,87,0,87,87,0,0,87,87,0,0,87,87,87,87,0,Thu Oct 24 13:42:33 2019,The main experiment item,yes,SternbergTask.osexp,/Users/cristianbotello/Desktop/Advanced Quant/Lab 3.1,no,mono,no,18,no,white,no,no,768,legacy,75,11,/Users/cristianbotello/Desktop/Advanced Quant/Lab 3.1/CB-subject-2.csv,legacy,3 9 1,Kafkaesque Koffka,3.2.8,0,n,0,right,1,left,right,NA,764,43067,2903,764,NA,2,legacy,3,1024,2,48000,-16,experiment,2,even,7,599249,46492,595858,597009,3369,129204,597021,315403,3415,126299,601262,602029,598037,601262,NA,Sternberg Task,77,75602,88,yes,1024
87.64044944,87.64044944,855.752809,855.752809,black,experiment,legacy,legacy,legacy,0,uniform,1,undefined,1,left,88,0,88,88,0,0,88,88,0,0,88,88,88,88,0,Thu Oct 24 13:42:33 2019,The main experiment item,yes,SternbergTask.osexp,/Users/cristianbotello/Desktop/Advanced Quant/Lab 3.1,no,mono,no,18,no,white,no,no,768,legacy,76,11,/Users/cristianbotello/Desktop/Advanced Quant/Lab 3.1/CB-subject-2.csv,legacy,6 7 9 3 1 2,Kafkaesque Koffka,3.2.8,1,y,0,left,1,left,left,NA,560,43067,2903,560,NA,2,legacy,6,1024,2,48000,-16,experiment,2,even,6,605441,46492,602048,603198,3369,129204,603211,315403,3415,126299,607455,608018,604226,607455,NA,Sternberg Task,78,76162,89,yes,1024
87.77777778,87.77777778,853.7222222,853.7222222,black,experiment,legacy,legacy,legacy,0,uniform,1,undefined,1,left,89,0,89,89,0,0,89,89,0,0,89,89,89,89,0,Thu Oct 24 13:42:33 2019,The main experiment item,yes,SternbergTask.osexp,/Users/cristianbotello/Desktop/Advanced Quant/Lab 3.1,no,mono,no,18,no,white,no,no,768,legacy,77,11,/Users/cristianbotello/Desktop/Advanced Quant/Lab 3.1/CB-subject-2.csv,legacy,4 9 7 8 5 3,Kafkaesque Koffka,3.2.8,4,y,0,left,1,left,left,NA,673,43067,2903,673,NA,2,legacy,6,1024,2,48000,-16,experiment,2,even,8,611449,46492,608039,609209,3369,129204,609222,315403,3415,126299,613461,614137,610235,613461,NA,Sternberg Task,79,76835,90,yes,1024
87.91208791,87.91208791,850.8681319,850.8681319,black,experiment,legacy,legacy,legacy,0,uniform,1,undefined,1,left,90,0,90,90,0,0,90,90,0,0,90,90,90,90,0,Thu Oct 24 13:42:33 2019,The main experiment item,yes,SternbergTask.osexp,/Users/cristianbotello/Desktop/Advanced Quant/Lab 3.1,no,mono,no,18,no,white,no,no,768,legacy,78,11,/Users/cristianbotello/Desktop/Advanced Quant/Lab 3.1/CB-subject-2.csv,legacy,9 5 3 8 4,Kafkaesque Koffka,3.2.8,1,y,0,left,1,left,left,NA,594,43067,2903,594,NA,2,legacy,5,1024,2,48000,-16,experiment,2,even,9,617566,46492,614157,615329,3369,129204,615341,315403,3415,126299,619580,620177,616353,619580,NA,Sternberg Task,80,77429,91,yes,1024
88.04347826,88.04347826,848.6304348,848.6304348,black,experiment,legacy,legacy,legacy,0,uniform,1,undefined,1,right,91,0,91,91,0,0,91,91,0,0,91,91,91,91,0,Thu Oct 24 13:42:33 2019,The main experiment item,yes,SternbergTask.osexp,/Users/cristianbotello/Desktop/Advanced Quant/Lab 3.1,no,mono,no,18,no,white,no,no,768,legacy,79,11,/Users/cristianbotello/Desktop/Advanced Quant/Lab 3.1/CB-subject-2.csv,legacy,3 9 8 1 6 4,Kafkaesque Koffka,3.2.8,0,n,0,right,1,left,right,NA,645,43067,2903,645,NA,2,legacy,6,1024,2,48000,-16,experiment,2,even,7,623597,46492,620194,621356,3369,129204,621371,315403,3415,126299,625611,626259,622384,625610,NA,Sternberg Task,81,78074,92,yes,1024
88.17204301,88.17204301,845.8602151,845.8602151,black,experiment,legacy,legacy,legacy,0,uniform,1,undefined,1,right,92,0,92,92,0,0,92,92,0,0,92,92,92,92,0,Thu Oct 24 13:42:33 2019,The main experiment item,yes,SternbergTask.osexp,/Users/cristianbotello/Desktop/Advanced Quant/Lab 3.1,no,mono,no,18,no,white,no,no,768,legacy,80,11,/Users/cristianbotello/Desktop/Advanced Quant/Lab 3.1/CB-subject-2.csv,legacy,7 8 6 1,Kafkaesque Koffka,3.2.8,0,n,0,right,1,left,right,NA,591,43067,2903,591,NA,2,legacy,4,1024,2,48000,-16,experiment,2,even,3,629674,46492,626276,627434,3369,129204,627447,315403,3415,126299,631688,632282,628460,631688,NA,Sternberg Task,82,78665,93,yes,1024
88.29787234,88.29787234,843.4255319,843.4255319,black,experiment,legacy,legacy,legacy,0,uniform,1,undefined,1,right,93,0,93,93,0,0,93,93,0,0,93,93,93,93,0,Thu Oct 24 13:42:33 2019,The main experiment item,yes,SternbergTask.osexp,/Users/cristianbotello/Desktop/Advanced Quant/Lab 3.1,no,mono,no,18,no,white,no,no,768,legacy,81,11,/Users/cristianbotello/Desktop/Advanced Quant/Lab 3.1/CB-subject-2.csv,legacy,1 7 8 3 9,Kafkaesque Koffka,3.2.8,0,n,0,right,1,left,right,NA,617,43067,2903,617,NA,2,legacy,5,1024,2,48000,-16,experiment,2,even,2,635717,46492,632299,633479,3369,129204,633492,315403,3415,126299,637730,638350,634504,637730,NA,Sternberg Task,83,79282,94,yes,1024
88.42105263,88.42105263,841.9263158,841.9263158,black,experiment,legacy,legacy,legacy,0,uniform,1,undefined,1,right,94,0,94,94,0,0,94,94,0,0,94,94,94,94,0,Thu Oct 24 13:42:33 2019,The main experiment item,yes,SternbergTask.osexp,/Users/cristianbotello/Desktop/Advanced Quant/Lab 3.1,no,mono,no,18,no,white,no,no,768,legacy,82,11,/Users/cristianbotello/Desktop/Advanced Quant/Lab 3.1/CB-subject-2.csv,legacy,5 2,Kafkaesque Koffka,3.2.8,0,n,0,right,1,left,right,NA,701,43067,2903,701,NA,2,legacy,2,1024,2,48000,-16,experiment,2,even,7,641755,46492,638367,639514,3369,129204,639527,315403,3415,126299,643769,644473,640543,643769,NA,Sternberg Task,84,79983,95,yes,1024
88.54166667,88.54166667,841.1145833,841.1145833,black,experiment,legacy,legacy,legacy,0,uniform,1,undefined,1,right,95,0,95,95,0,0,95,95,0,0,95,95,95,95,0,Thu Oct 24 13:42:33 2019,The main experiment item,yes,SternbergTask.osexp,/Users/cristianbotello/Desktop/Advanced Quant/Lab 3.1,no,mono,no,18,no,white,no,no,768,legacy,83,11,/Users/cristianbotello/Desktop/Advanced Quant/Lab 3.1/CB-subject-2.csv,legacy,5 9 2 3,Kafkaesque Koffka,3.2.8,0,n,0,right,1,left,right,NA,764,43067,2903,764,NA,2,legacy,4,1024,2,48000,-16,experiment,2,even,8,647877,46492,644488,645626,3369,129204,645648,315403,3415,126299,649891,650658,646663,649891,NA,Sternberg Task,85,80747,96,yes,1024
88.65979381,88.65979381,839.5051546,839.5051546,black,experiment,legacy,legacy,legacy,0,uniform,1,undefined,1,right,96,0,96,96,0,0,96,96,0,0,96,96,96,96,0,Thu Oct 24 13:42:33 2019,The main experiment item,yes,SternbergTask.osexp,/Users/cristianbotello/Desktop/Advanced Quant/Lab 3.1,no,mono,no,18,no,white,no,no,768,legacy,84,11,/Users/cristianbotello/Desktop/Advanced Quant/Lab 3.1/CB-subject-2.csv,legacy,7 1 5 6 3,Kafkaesque Koffka,3.2.8,0,n,0,right,1,left,right,NA,685,43067,2903,685,NA,2,legacy,5,1024,2,48000,-16,experiment,2,even,8,654076,46492,650674,651836,3369,129204,651848,315403,3415,126299,656090,656779,652864,656090,NA,Sternberg Task,86,81432,97,yes,1024
87.75510204,87.75510204,844.0204082,844.0204082,black,experiment,legacy,legacy,legacy,0,uniform,0,undefined,0,left,97,0,97,97,0,0,97,97,0,0,97,97,97,97,0,Thu Oct 24 13:42:33 2019,The main experiment item,yes,SternbergTask.osexp,/Users/cristianbotello/Desktop/Advanced Quant/Lab 3.1,no,mono,no,18,no,white,no,no,768,legacy,85,11,/Users/cristianbotello/Desktop/Advanced Quant/Lab 3.1/CB-subject-2.csv,legacy,4 7 6 8 2 3,Kafkaesque Koffka,3.2.8,6,y,0,right,1,left,right,NA,1282,43067,2903,1282,NA,2,legacy,6,1024,2,48000,-16,experiment,2,even,3,660193,46492,656794,657951,3369,129204,657965,315403,3415,126299,662206,663491,658981,662206,NA,Sternberg Task,86,82714,98,yes,1024
86.86868687,86.86868687,843.5757576,843.5757576,black,experiment,legacy,legacy,legacy,0,uniform,0,undefined,0,left,98,0,98,98,0,0,98,98,0,0,98,98,98,98,0,Thu Oct 24 13:42:33 2019,The main experiment item,yes,SternbergTask.osexp,/Users/cristianbotello/Desktop/Advanced Quant/Lab 3.1,no,mono,no,18,no,white,no,no,768,legacy,86,11,/Users/cristianbotello/Desktop/Advanced Quant/Lab 3.1/CB-subject-2.csv,legacy,3 9 6 2,Kafkaesque Koffka,3.2.8,4,y,0,right,1,left,right,NA,800,43067,2903,800,NA,2,legacy,4,1024,2,48000,-16,experiment,2,even,2,666892,46492,656794,664650,3369,129204,664664,663507,3415,126299,668905,669708,665679,668905,NA,Sternberg Task,86,83514,99,yes,1024
87,87,844.02,844.02,black,experiment,legacy,legacy,legacy,0,uniform,1,undefined,1,right,99,0,99,99,0,0,99,99,0,0,99,99,99,99,0,Thu Oct 24 13:42:33 2019,The main experiment item,yes,SternbergTask.osexp,/Users/cristianbotello/Desktop/Advanced Quant/Lab 3.1,no,mono,no,18,no,white,no,no,768,legacy,87,11,/Users/cristianbotello/Desktop/Advanced Quant/Lab 3.1/CB-subject-2.csv,legacy,1 7 5 2 9,Kafkaesque Koffka,3.2.8,0,n,0,right,1,left,right,NA,888,43067,2903,888,NA,2,legacy,5,1024,2,48000,-16,experiment,2,even,3,673130,46492,656794,670891,3369,129204,670903,669725,3415,126299,675143,676035,671918,675143,NA,Sternberg Task,87,84402,100,yes,1024
87.12871287,87.12871287,842.9405941,842.9405941,black,experiment,legacy,legacy,legacy,0,uniform,1,undefined,1,left,100,0,100,100,0,0,100,100,0,0,100,100,100,100,0,Thu Oct 24 13:42:33 2019,The main experiment item,yes,SternbergTask.osexp,/Users/cristianbotello/Desktop/Advanced Quant/Lab 3.1,no,mono,no,18,no,white,no,no,768,legacy,88,11,/Users/cristianbotello/Desktop/Advanced Quant/Lab 3.1/CB-subject-2.csv,legacy,9 8 4,Kafkaesque Koffka,3.2.8,1,y,0,left,1,left,left,NA,735,43067,2903,735,NA,2,legacy,3,1024,2,48000,-16,experiment,2,even,9,679455,46492,676052,677213,3369,129204,677226,669725,3415,126299,681471,682209,678241,681471,NA,Sternberg Task,88,85137,101,yes,1024
87.25490196,87.25490196,841.4411765,841.4411765,black,experiment,legacy,legacy,legacy,0,uniform,1,undefined,1,right,101,0,101,101,0,0,101,101,0,0,101,101,101,101,0,Thu Oct 24 13:42:33 2019,The main experiment item,yes,SternbergTask.osexp,/Users/cristianbotello/Desktop/Advanced Quant/Lab 3.1,no,mono,no,18,no,white,no,no,768,legacy,89,11,/Users/cristianbotello/Desktop/Advanced Quant/Lab 3.1/CB-subject-2.csv,legacy,7 3 2 8,Kafkaesque Koffka,3.2.8,0,n,0,right,1,left,right,NA,690,43067,2903,690,NA,2,legacy,4,1024,2,48000,-16,experiment,2,even,4,685632,46492,682225,683391,3369,129204,683404,669725,3415,126299,687646,688340,684419,687646,NA,Sternberg Task,89,85827,102,yes,1024
87.37864078,87.37864078,839.1650485,839.1650485,black,experiment,legacy,legacy,legacy,0,uniform,1,undefined,1,right,102,0,102,102,0,0,102,102,0,0,102,102,102,102,0,Thu Oct 24 13:42:33 2019,The main experiment item,yes,SternbergTask.osexp,/Users/cristianbotello/Desktop/Advanced Quant/Lab 3.1,no,mono,no,18,no,white,no,no,768,legacy,90,11,/Users/cristianbotello/Desktop/Advanced Quant/Lab 3.1/CB-subject-2.csv,legacy,4 2 6 9,Kafkaesque Koffka,3.2.8,0,n,0,right,1,left,right,NA,607,43067,2903,607,NA,2,legacy,4,1024,2,48000,-16,experiment,2,even,7,691756,46492,688358,689516,3369,129204,689528,669725,3415,126299,693770,694380,690544,693770,NA,Sternberg Task,90,86434,103,yes,1024
87.5,87.5,839.0961538,839.0961538,black,experiment,legacy,legacy,legacy,0,uniform,1,undefined,1,right,103,0,103,103,0,0,103,103,0,0,103,103,103,103,0,Thu Oct 24 13:42:33 2019,The main experiment item,yes,SternbergTask.osexp,/Users/cristianbotello/Desktop/Advanced Quant/Lab 3.1,no,mono,no,18,no,white,no,no,768,legacy,91,11,/Users/cristianbotello/Desktop/Advanced Quant/Lab 3.1/CB-subject-2.csv,legacy,1 4 3 6 5,Kafkaesque Koffka,3.2.8,0,n,0,right,1,left,right,NA,832,43067,2903,832,NA,2,legacy,5,1024,2,48000,-16,experiment,2,even,8,697795,46492,694396,695550,3369,129204,695564,669725,3415,126299,699809,700644,696580,699809,NA,Sternberg Task,91,87266,104,yes,1024
87.61904762,87.61904762,838.4190476,838.4190476,black,experiment,legacy,legacy,legacy,0,uniform,1,undefined,1,right,104,0,104,104,0,0,104,104,0,0,104,104,104,104,0,Thu Oct 24 13:42:33 2019,The main experiment item,yes,SternbergTask.osexp,/Users/cristianbotello/Desktop/Advanced Quant/Lab 3.1,no,mono,no,18,no,white,no,no,768,legacy,92,11,/Users/cristianbotello/Desktop/Advanced Quant/Lab 3.1/CB-subject-2.csv,legacy,7 1,Kafkaesque Koffka,3.2.8,0,n,0,right,1,left,right,NA,768,43067,2903,768,NA,2,legacy,2,1024,2,48000,-16,experiment,2,even,8,704046,46492,700662,701804,3369,129204,701818,669725,3415,126299,706061,706832,702834,706061,NA,Sternberg Task,92,88034,105,yes,1024
87.73584906,87.73584906,836.8396226,836.8396226,black,experiment,legacy,legacy,legacy,0,uniform,1,undefined,1,left,105,0,105,105,0,0,105,105,0,0,105,105,105,105,0,Thu Oct 24 13:42:33 2019,The main experiment item,yes,SternbergTask.osexp,/Users/cristianbotello/Desktop/Advanced Quant/Lab 3.1,no,mono,no,18,no,white,no,no,768,legacy,93,11,/Users/cristianbotello/Desktop/Advanced Quant/Lab 3.1/CB-subject-2.csv,legacy,6 2,Kafkaesque Koffka,3.2.8,1,y,0,left,1,left,left,NA,671,43067,2903,671,NA,2,legacy,2,1024,2,48000,-16,experiment,2,even,6,710245,46492,706849,708003,3369,129204,708015,669725,3415,126299,712260,712935,709031,712260,NA,Sternberg Task,93,88705,106,yes,1024
86.91588785,86.91588785,835.1682243,835.1682243,black,experiment,legacy,legacy,legacy,0,uniform,0,undefined,0,right,106,0,106,106,0,0,106,106,0,0,106,106,106,106,0,Thu Oct 24 13:42:33 2019,The main experiment item,yes,SternbergTask.osexp,/Users/cristianbotello/Desktop/Advanced Quant/Lab 3.1,no,mono,no,18,no,white,no,no,768,legacy,94,11,/Users/cristianbotello/Desktop/Advanced Quant/Lab 3.1/CB-subject-2.csv,legacy,5 7 3,Kafkaesque Koffka,3.2.8,0,n,0,left,1,left,left,NA,658,43067,2903,658,NA,2,legacy,3,1024,2,48000,-16,experiment,2,even,9,716347,46492,712952,714108,3369,129204,714122,669725,3415,126299,718361,719022,715134,718361,NA,Sternberg Task,93,89363,107,yes,1024
87.03703704,87.03703704,835.0648148,835.0648148,black,experiment,legacy,legacy,legacy,0,uniform,1,undefined,1,left,107,0,107,107,0,0,107,107,0,0,107,107,107,107,0,Thu Oct 24 13:42:33 2019,The main experiment item,yes,SternbergTask.osexp,/Users/cristianbotello/Desktop/Advanced Quant/Lab 3.1,no,mono,no,18,no,white,no,no,768,legacy,95,11,/Users/cristianbotello/Desktop/Advanced Quant/Lab 3.1/CB-subject-2.csv,legacy,6 7 8 5,Kafkaesque Koffka,3.2.8,3,y,0,left,1,left,left,NA,824,43067,2903,824,NA,2,legacy,4,1024,2,48000,-16,experiment,2,even,8,722431,46492,712952,720188,3369,129204,720202,719038,3415,126299,724445,725273,721218,724445,NA,Sternberg Task,94,90187,108,yes,1024
87.1559633,87.1559633,835.1926606,835.1926606,black,experiment,legacy,legacy,legacy,0,uniform,1,undefined,1,right,108,0,108,108,0,0,108,108,0,0,108,108,108,108,0,Thu Oct 24 13:42:33 2019,The main experiment item,yes,SternbergTask.osexp,/Users/cristianbotello/Desktop/Advanced Quant/Lab 3.1,no,mono,no,18,no,white,no,no,768,legacy,96,11,/Users/cristianbotello/Desktop/Advanced Quant/Lab 3.1/CB-subject-2.csv,legacy,2 7 5,Kafkaesque Koffka,3.2.8,0,n,0,right,1,left,right,NA,849,43067,2903,849,NA,2,legacy,3,1024,2,48000,-16,experiment,2,even,8,728696,46492,725289,726456,3369,129204,726470,719038,3415,126299,730710,731562,727484,730710,NA,Sternberg Task,95,91036,109,yes,1024
86.36363636,86.36363636,835.6363636,835.6363636,black,experiment,legacy,legacy,legacy,0,uniform,0,undefined,0,left,109,0,109,109,0,0,109,109,0,0,109,109,109,109,0,Thu Oct 24 13:42:33 2019,The main experiment item,yes,SternbergTask.osexp,/Users/cristianbotello/Desktop/Advanced Quant/Lab 3.1,no,mono,no,18,no,white,no,no,768,legacy,97,11,/Users/cristianbotello/Desktop/Advanced Quant/Lab 3.1/CB-subject-2.csv,legacy,3 2 1 4 7,Kafkaesque Koffka,3.2.8,2,y,0,right,1,left,right,NA,884,43067,2903,884,NA,2,legacy,5,1024,2,48000,-16,experiment,2,even,2,734955,46492,731578,732715,3369,129204,732728,719038,3415,126299,736968,737857,733743,736968,NA,Sternberg Task,95,91920,110,yes,1024
86.48648649,86.48648649,835.7837838,835.7837838,black,experiment,legacy,legacy,legacy,0,uniform,1,undefined,1,right,110,0,110,110,0,0,110,110,0,0,110,110,110,110,0,Thu Oct 24 13:42:33 2019,The main experiment item,yes,SternbergTask.osexp,/Users/cristianbotello/Desktop/Advanced Quant/Lab 3.1,no,mono,no,18,no,white,no,no,768,legacy,98,11,/Users/cristianbotello/Desktop/Advanced Quant/Lab 3.1/CB-subject-2.csv,legacy,6 2 9 3 8 4,Kafkaesque Koffka,3.2.8,0,n,0,right,1,left,right,NA,852,43067,2903,852,NA,2,legacy,6,1024,2,48000,-16,experiment,2,even,1,741260,46492,731578,739020,3369,129204,739032,737875,3415,126299,743274,744129,740048,743274,NA,Sternberg Task,96,92772,111,yes,1024
86.60714286,86.60714286,835.9642857,835.9642857,black,experiment,legacy,legacy,legacy,0,uniform,1,undefined,1,left,111,0,111,111,0,0,111,111,0,0,111,111,111,111,0,Thu Oct 24 13:42:33 2019,The main experiment item,yes,SternbergTask.osexp,/Users/cristianbotello/Desktop/Advanced Quant/Lab 3.1,no,mono,no,18,no,white,no,no,768,legacy,99,11,/Users/cristianbotello/Desktop/Advanced Quant/Lab 3.1/CB-subject-2.csv,legacy,2 3 7 4,Kafkaesque Koffka,3.2.8,1,y,0,left,1,left,left,NA,856,43067,2903,856,NA,2,legacy,4,1024,2,48000,-16,experiment,2,even,2,747585,46492,744150,745334,3369,129204,745352,737875,3415,126299,749598,750458,746367,749598,NA,Sternberg Task,97,93628,112,yes,1024
86.72566372,86.72566372,834.2477876,834.2477876,black,experiment,legacy,legacy,legacy,0,uniform,1,undefined,1,right,112,0,112,112,0,0,112,112,0,0,112,112,112,112,0,Thu Oct 24 13:42:33 2019,The main experiment item,yes,SternbergTask.osexp,/Users/cristianbotello/Desktop/Advanced Quant/Lab 3.1,no,mono,no,18,no,white,no,no,768,legacy,100,11,/Users/cristianbotello/Desktop/Advanced Quant/Lab 3.1/CB-subject-2.csv,legacy,7 9 1 6,Kafkaesque Koffka,3.2.8,0,n,0,right,1,left,right,NA,642,43067,2903,642,NA,2,legacy,4,1024,2,48000,-16,experiment,2,even,4,753868,46492,750474,751628,3369,129204,751641,737875,3415,126299,755882,756528,752656,755882,NA,Sternberg Task,98,94270,113,yes,1024
86.84210526,86.84210526,833.5964912,833.5964912,black,experiment,legacy,legacy,legacy,0,uniform,1,undefined,1,right,113,0,113,113,0,0,113,113,0,0,113,113,113,113,0,Thu Oct 24 13:42:33 2019,The main experiment item,yes,SternbergTask.osexp,/Users/cristianbotello/Desktop/Advanced Quant/Lab 3.1,no,mono,no,18,no,white,no,no,768,legacy,101,11,/Users/cristianbotello/Desktop/Advanced Quant/Lab 3.1/CB-subject-2.csv,legacy,8 4 3 9,Kafkaesque Koffka,3.2.8,0,n,0,right,1,left,right,NA,760,43067,2903,760,NA,2,legacy,4,1024,2,48000,-16,experiment,2,even,5,759952,46492,756545,757711,3369,129204,757724,737875,3415,126299,761966,762729,758739,761966,NA,Sternberg Task,99,95030,114,yes,1024
86.95652174,86.95652174,836.7217391,836.7217391,black,experiment,legacy,legacy,legacy,0,uniform,1,undefined,1,left,114,0,114,114,0,0,114,114,0,0,114,114,114,114,0,Thu Oct 24 13:42:33 2019,The main experiment item,yes,SternbergTask.osexp,/Users/cristianbotello/Desktop/Advanced Quant/Lab 3.1,no,mono,no,18,no,white,no,no,768,legacy,102,11,/Users/cristianbotello/Desktop/Advanced Quant/Lab 3.1/CB-subject-2.csv,legacy,9 6 2 4 1,Kafkaesque Koffka,3.2.8,4,y,0,left,1,left,left,NA,1193,43067,2903,1193,NA,2,legacy,5,1024,2,48000,-16,experiment,2,even,4,766141,46492,762747,763904,3369,129204,763916,737875,3415,126299,768155,769352,764929,768154,NA,Sternberg Task,100,96223,115,yes,1024
87.06896552,87.06896552,836.8189655,836.8189655,black,experiment,legacy,legacy,legacy,0,uniform,1,undefined,1,right,115,0,115,115,0,0,115,115,0,0,115,115,115,115,0,Thu Oct 24 13:42:33 2019,The main experiment item,yes,SternbergTask.osexp,/Users/cristianbotello/Desktop/Advanced Quant/Lab 3.1,no,mono,no,18,no,white,no,no,768,legacy,103,11,/Users/cristianbotello/Desktop/Advanced Quant/Lab 3.1/CB-subject-2.csv,legacy,2 3 8 5 6 7,Kafkaesque Koffka,3.2.8,0,n,0,right,1,left,right,NA,848,43067,2903,848,NA,2,legacy,6,1024,2,48000,-16,experiment,2,even,1,772775,46492,769367,770533,3369,129204,770546,737875,3415,126299,774789,775640,771559,774789,NA,Sternberg Task,101,97071,116,yes,1024
87.17948718,87.17948718,837.7521368,837.7521368,black,experiment,legacy,legacy,legacy,0,uniform,1,undefined,1,left,116,0,116,116,0,0,116,116,0,0,116,116,116,116,0,Thu Oct 24 13:42:33 2019,The main experiment item,yes,SternbergTask.osexp,/Users/cristianbotello/Desktop/Advanced Quant/Lab 3.1,no,mono,no,18,no,white,no,no,768,legacy,104,11,/Users/cristianbotello/Desktop/Advanced Quant/Lab 3.1/CB-subject-2.csv,legacy,8 5 4 7 3 1,Kafkaesque Koffka,3.2.8,2,y,0,left,1,left,left,NA,946,43067,2903,946,NA,2,legacy,6,1024,2,48000,-16,experiment,2,even,5,779050,46492,775659,776810,3369,129204,776823,737875,3415,126299,781064,782016,777838,781063,NA,Sternberg Task,102,98017,117,yes,1024
87.28813559,87.28813559,841.7881356,841.7881356,black,experiment,legacy,legacy,legacy,0,uniform,1,undefined,1,right,117,0,117,117,0,0,117,117,0,0,117,117,117,117,0,Thu Oct 24 13:42:33 2019,The main experiment item,yes,SternbergTask.osexp,/Users/cristianbotello/Desktop/Advanced Quant/Lab 3.1,no,mono,no,18,no,white,no,no,768,legacy,105,11,/Users/cristianbotello/Desktop/Advanced Quant/Lab 3.1/CB-subject-2.csv,legacy,3 4 9 6 7 8,Kafkaesque Koffka,3.2.8,0,n,0,right,1,left,right,NA,1314,43067,2903,1314,NA,2,legacy,6,1024,2,48000,-16,experiment,2,even,2,785435,46492,782032,783192,3369,129204,783205,737875,3415,126299,787448,788765,784220,787448,NA,Sternberg Task,103,99331,118,yes,1024
87.39495798,87.39495798,842.1176471,842.1176471,black,experiment,legacy,legacy,legacy,0,uniform,1,undefined,1,left,118,0,118,118,0,0,118,118,0,0,118,118,118,118,0,Thu Oct 24 13:42:33 2019,The main experiment item,yes,SternbergTask.osexp,/Users/cristianbotello/Desktop/Advanced Quant/Lab 3.1,no,mono,no,18,no,white,no,no,768,legacy,106,11,/Users/cristianbotello/Desktop/Advanced Quant/Lab 3.1/CB-subject-2.csv,legacy,7 4 2 6 3 5,Kafkaesque Koffka,3.2.8,6,y,0,left,1,left,left,NA,881,43067,2903,881,NA,2,legacy,6,1024,2,48000,-16,experiment,2,even,5,792183,46492,788784,789943,3369,129204,789955,737875,3415,126299,794197,795082,790971,794197,NA,Sternberg Task,104,100212,119,yes,1024
87.5,87.5,840.225,840.225,black,experiment,legacy,legacy,legacy,0,uniform,1,undefined,1,right,119,0,119,119,0,0,119,119,0,0,119,119,119,119,0,Thu Oct 24 13:42:33 2019,The main experiment item,yes,SternbergTask.osexp,/Users/cristianbotello/Desktop/Advanced Quant/Lab 3.1,no,mono,no,18,no,white,no,no,768,legacy,107,11,/Users/cristianbotello/Desktop/Advanced Quant/Lab 3.1/CB-subject-2.csv,legacy,6 7 5 9,Kafkaesque Koffka,3.2.8,0,n,0,right,1,left,right,NA,615,43067,2903,615,NA,2,legacy,4,1024,2,48000,-16,experiment,2,even,2,798483,46492,795097,796242,3369,129204,796255,737875,3415,126299,800497,801116,797270,800497,NA,Sternberg Task,105,100827,120,yes,1024
87.60330579,87.60330579,842.4628099,842.4628099,black,experiment,legacy,legacy,legacy,0,uniform,1,undefined,1,right,120,0,120,120,0,0,120,120,0,0,120,120,120,120,0,Thu Oct 24 13:42:33 2019,The main experiment item,yes,SternbergTask.osexp,/Users/cristianbotello/Desktop/Advanced Quant/Lab 3.1,no,mono,no,18,no,white,no,no,768,legacy,108,11,/Users/cristianbotello/Desktop/Advanced Quant/Lab 3.1/CB-subject-2.csv,legacy,8 2 1 4 5 9,Kafkaesque Koffka,3.2.8,0,n,0,right,1,left,right,NA,1111,43067,2903,1111,NA,2,legacy,6,1024,2,48000,-16,experiment,2,even,7,804521,46492,801132,802280,3369,129204,802292,737875,3415,126299,806534,807648,803308,806534,NA,Sternberg Task,106,101938,121,yes,1024
87.70491803,87.70491803,841.9754098,841.9754098,black,experiment,legacy,legacy,legacy,0,uniform,1,undefined,1,right,121,0,121,121,0,0,121,121,0,0,121,121,121,121,0,Thu Oct 24 13:42:33 2019,The main experiment item,yes,SternbergTask.osexp,/Users/cristianbotello/Desktop/Advanced Quant/Lab 3.1,no,mono,no,18,no,white,no,no,768,legacy,109,11,/Users/cristianbotello/Desktop/Advanced Quant/Lab 3.1/CB-subject-2.csv,legacy,6 8,Kafkaesque Koffka,3.2.8,0,n,0,right,1,left,right,NA,783,43067,2903,783,NA,2,legacy,2,1024,2,48000,-16,experiment,2,even,9,811068,46492,807667,808829,3369,129204,808842,737875,3415,126299,813082,813869,809856,813082,NA,Sternberg Task,107,102721,122,yes,1024
87.80487805,87.80487805,845.4552846,845.4552846,black,experiment,legacy,legacy,legacy,0,uniform,1,undefined,1,left,122,0,122,122,0,0,122,122,0,0,122,122,122,122,0,Thu Oct 24 13:42:33 2019,The main experiment item,yes,SternbergTask.osexp,/Users/cristianbotello/Desktop/Advanced Quant/Lab 3.1,no,mono,no,18,no,white,no,no,768,legacy,110,11,/Users/cristianbotello/Desktop/Advanced Quant/Lab 3.1/CB-subject-2.csv,legacy,5 2 9 6 1 7,Kafkaesque Koffka,3.2.8,3,y,0,left,1,left,left,NA,1270,43067,2903,1270,NA,2,legacy,6,1024,2,48000,-16,experiment,2,even,9,817290,46492,813886,815047,3369,129204,815061,737875,3415,126299,819305,820578,816078,819305,NA,Sternberg Task,108,103991,123,yes,1024
87.90322581,87.90322581,844.3467742,844.3467742,black,experiment,legacy,legacy,legacy,0,uniform,1,undefined,1,left,123,0,123,123,0,0,123,123,0,0,123,123,123,123,0,Thu Oct 24 13:42:33 2019,The main experiment item,yes,SternbergTask.osexp,/Users/cristianbotello/Desktop/Advanced Quant/Lab 3.1,no,mono,no,18,no,white,no,no,768,legacy,111,11,/Users/cristianbotello/Desktop/Advanced Quant/Lab 3.1/CB-subject-2.csv,legacy,6 1 2,Kafkaesque Koffka,3.2.8,3,y,0,left,1,left,left,NA,708,43067,2903,708,NA,2,legacy,3,1024,2,48000,-16,experiment,2,even,2,824012,46492,820598,821769,3369,129204,821783,737875,3415,126299,826026,826737,822796,826026,NA,Sternberg Task,109,104699,124,yes,1024
88,88,844.36,844.36,black,experiment,legacy,legacy,legacy,0,uniform,1,undefined,1,right,124,0,124,124,0,0,124,124,0,0,124,124,124,124,0,Thu Oct 24 13:42:33 2019,The main experiment item,yes,SternbergTask.osexp,/Users/cristianbotello/Desktop/Advanced Quant/Lab 3.1,no,mono,no,18,no,white,no,no,768,legacy,112,11,/Users/cristianbotello/Desktop/Advanced Quant/Lab 3.1/CB-subject-2.csv,legacy,6 9 4 5 2,Kafkaesque Koffka,3.2.8,0,n,0,right,1,left,right,NA,846,43067,2903,846,NA,2,legacy,5,1024,2,48000,-16,experiment,2,even,1,830155,46492,826753,827912,3369,129204,827924,737875,3415,126299,832170,833020,828943,832169,NA,Sternberg Task,110,105545,125,yes,1024
88.0952381,88.0952381,844.4206349,844.4206349,black,experiment,legacy,legacy,legacy,0,uniform,1,undefined,1,left,125,0,125,125,0,0,125,125,0,0,125,125,125,125,0,Thu Oct 24 13:42:33 2019,The main experiment item,yes,SternbergTask.osexp,/Users/cristianbotello/Desktop/Advanced Quant/Lab 3.1,no,mono,no,18,no,white,no,no,768,legacy,113,11,/Users/cristianbotello/Desktop/Advanced Quant/Lab 3.1/CB-subject-2.csv,legacy,4 6 2 5 1,Kafkaesque Koffka,3.2.8,5,y,0,left,1,left,left,NA,852,43067,2903,852,NA,2,legacy,5,1024,2,48000,-16,experiment,2,even,1,836421,46492,833036,834179,3369,129204,834192,737875,3415,126299,838435,839290,835209,838435,NA,Sternberg Task,111,106397,126,yes,1024
88.18897638,88.18897638,843.5275591,843.5275591,black,experiment,legacy,legacy,legacy,0,uniform,1,undefined,1,right,126,0,126,126,0,0,126,126,0,0,126,126,126,126,0,Thu Oct 24 13:42:33 2019,The main experiment item,yes,SternbergTask.osexp,/Users/cristianbotello/Desktop/Advanced Quant/Lab 3.1,no,mono,no,18,no,white,no,no,768,legacy,114,11,/Users/cristianbotello/Desktop/Advanced Quant/Lab 3.1/CB-subject-2.csv,legacy,3 4 2,Kafkaesque Koffka,3.2.8,0,n,0,right,1,left,right,NA,731,43067,2903,731,NA,2,legacy,3,1024,2,48000,-16,experiment,2,even,5,842712,46492,839305,840471,3369,129204,840484,737875,3415,126299,844729,845464,841498,844729,NA,Sternberg Task,112,107128,127,yes,1024
88.28125,88.28125,842.203125,842.203125,black,experiment,legacy,legacy,legacy,0,uniform,1,undefined,1,left,127,0,127,127,0,0,127,127,0,0,127,127,127,127,0,Thu Oct 24 13:42:33 2019,The main experiment item,yes,SternbergTask.osexp,/Users/cristianbotello/Desktop/Advanced Quant/Lab 3.1,no,mono,no,18,no,white,no,no,768,legacy,115,11,/Users/cristianbotello/Desktop/Advanced Quant/Lab 3.1/CB-subject-2.csv,legacy,4 3 2 5 8,Kafkaesque Koffka,3.2.8,2,y,0,left,1,left,left,NA,674,43067,2903,674,NA,2,legacy,5,1024,2,48000,-16,experiment,2,even,3,848889,46492,845485,846650,3369,129204,846662,737875,3415,126299,850903,851580,847674,850903,NA,Sternberg Task,113,107802,128,yes,1024
88.37209302,88.37209302,841.1085271,841.1085271,black,experiment,legacy,legacy,legacy,0,uniform,1,undefined,1,right,128,0,128,128,0,0,128,128,0,0,128,128,128,128,0,Thu Oct 24 13:42:33 2019,The main experiment item,yes,SternbergTask.osexp,/Users/cristianbotello/Desktop/Advanced Quant/Lab 3.1,no,mono,no,18,no,white,no,no,768,legacy,116,11,/Users/cristianbotello/Desktop/Advanced Quant/Lab 3.1/CB-subject-2.csv,legacy,6 9 5,Kafkaesque Koffka,3.2.8,0,n,0,right,1,left,right,NA,701,43067,2903,701,NA,2,legacy,3,1024,2,48000,-16,experiment,2,even,8,854999,46492,851596,852758,3369,129204,852770,737875,3415,126299,857012,857718,853786,857012,NA,Sternberg Task,114,108503,129,yes,1024
88.46153846,88.46153846,840.3153846,840.3153846,black,experiment,legacy,legacy,legacy,0,uniform,1,undefined,1,left,129,0,129,129,0,0,129,129,0,0,129,129,129,129,0,Thu Oct 24 13:42:33 2019,The main experiment item,yes,SternbergTask.osexp,/Users/cristianbotello/Desktop/Advanced Quant/Lab 3.1,no,mono,no,18,no,white,no,no,768,legacy,117,11,/Users/cristianbotello/Desktop/Advanced Quant/Lab 3.1/CB-subject-2.csv,legacy,6 9 7 4 5 1,Kafkaesque Koffka,3.2.8,2,y,0,left,1,left,left,NA,738,43067,2903,738,NA,2,legacy,6,1024,2,48000,-16,experiment,2,even,9,861120,46492,857734,858879,3369,129204,858892,737875,3415,126299,863135,863876,859908,863135,NA,Sternberg Task,115,109241,130,yes,1024
88.54961832,88.54961832,839.9694656,839.9694656,black,experiment,legacy,legacy,legacy,0,uniform,1,undefined,1,left,130,0,130,130,0,0,130,130,0,0,130,130,130,130,0,Thu Oct 24 13:42:33 2019,The main experiment item,yes,SternbergTask.osexp,/Users/cristianbotello/Desktop/Advanced Quant/Lab 3.1,no,mono,no,18,no,white,no,no,768,legacy,118,11,/Users/cristianbotello/Desktop/Advanced Quant/Lab 3.1/CB-subject-2.csv,legacy,6 8 9 3 4 9,Kafkaesque Koffka,3.2.8,5,y,0,left,1,left,left,NA,795,43067,2903,795,NA,2,legacy,6,1024,2,48000,-16,experiment,2,even,4,867293,46492,863892,865050,3369,129204,865063,737875,3415,126299,869307,870105,866077,869306,NA,Sternberg Task,116,110036,131,yes,1024
88.63636364,88.63636364,842.3939394,842.3939394,black,experiment,legacy,legacy,legacy,0,uniform,1,undefined,1,right,131,0,131,131,0,0,131,131,0,0,131,131,131,131,0,Thu Oct 24 13:42:33 2019,The main experiment item,yes,SternbergTask.osexp,/Users/cristianbotello/Desktop/Advanced Quant/Lab 3.1,no,mono,no,18,no,white,no,no,768,legacy,119,11,/Users/cristianbotello/Desktop/Advanced Quant/Lab 3.1/CB-subject-2.csv,legacy,7 9,Kafkaesque Koffka,3.2.8,0,n,0,right,1,left,right,NA,1160,43067,2903,1160,NA,2,legacy,2,1024,2,48000,-16,experiment,2,even,1,873508,46492,870121,871267,3369,129204,871280,737875,3415,126299,875521,876685,872296,875521,NA,Sternberg Task,117,111196,132,yes,1024
88.72180451,88.72180451,843.0902256,843.0902256,black,experiment,legacy,legacy,legacy,0,uniform,1,undefined,1,left,132,0,132,132,0,0,132,132,0,0,132,132,132,132,0,Thu Oct 24 13:42:33 2019,The main experiment item,yes,SternbergTask.osexp,/Users/cristianbotello/Desktop/Advanced Quant/Lab 3.1,no,mono,no,18,no,white,no,no,768,legacy,120,11,/Users/cristianbotello/Desktop/Advanced Quant/Lab 3.1/CB-subject-2.csv,legacy,8 3,Kafkaesque Koffka,3.2.8,2,y,0,left,1,left,left,NA,935,43067,2903,935,NA,2,legacy,2,1024,2,48000,-16,experiment,2,even,3,880094,46492,876701,877854,3369,129204,877867,737875,3415,126299,882108,883046,878882,882108,NA,Sternberg Task,118,112131,133,yes,1024
88.80597015,88.80597015,842.2686567,842.2686567,black,experiment,legacy,legacy,legacy,0,uniform,1,undefined,1,left,133,0,133,133,0,0,133,133,0,0,133,133,133,133,0,Thu Oct 24 13:42:33 2019,The main experiment item,yes,SternbergTask.osexp,/Users/cristianbotello/Desktop/Advanced Quant/Lab 3.1,no,mono,no,18,no,white,no,no,768,legacy,121,11,/Users/cristianbotello/Desktop/Advanced Quant/Lab 3.1/CB-subject-2.csv,legacy,8 1 6,Kafkaesque Koffka,3.2.8,3,y,0,left,1,left,left,NA,733,43067,2903,733,NA,2,legacy,3,1024,2,48000,-16,experiment,2,even,6,886455,46492,883063,884211,3369,129204,884225,737875,3415,126299,888471,889207,885240,888470,NA,Sternberg Task,119,112864,134,yes,1024
88.88888889,88.88888889,841.3925926,841.3925926,black,experiment,legacy,legacy,legacy,0,uniform,1,undefined,1,left,134,0,134,134,0,0,134,134,0,0,134,134,134,134,0,Thu Oct 24 13:42:33 2019,The main experiment item,yes,SternbergTask.osexp,/Users/cristianbotello/Desktop/Advanced Quant/Lab 3.1,no,mono,no,18,no,white,no,no,768,legacy,122,11,/Users/cristianbotello/Desktop/Advanced Quant/Lab 3.1/CB-subject-2.csv,legacy,3 5 9 6 2 4,Kafkaesque Koffka,3.2.8,1,y,0,left,1,left,left,NA,724,43067,2903,724,NA,2,legacy,6,1024,2,48000,-16,experiment,2,even,3,892623,46492,889223,890383,3369,129204,890396,737875,3415,126299,894637,895364,891411,894637,NA,Sternberg Task,120,113588,135,yes,1024
88.23529412,88.23529412,842.1176471,842.1176471,black,experiment,legacy,legacy,legacy,0,uniform,0,undefined,0,left,135,0,135,135,0,0,135,135,0,0,135,135,135,135,0,Thu Oct 24 13:42:33 2019,The main experiment item,yes,SternbergTask.osexp,/Users/cristianbotello/Desktop/Advanced Quant/Lab 3.1,no,mono,no,18,no,white,no,no,768,legacy,123,11,/Users/cristianbotello/Desktop/Advanced Quant/Lab 3.1/CB-subject-2.csv,legacy,6 5,Kafkaesque Koffka,3.2.8,2,y,0,right,1,left,right,NA,940,43067,2903,940,NA,2,legacy,2,1024,2,48000,-16,experiment,2,even,5,898777,46492,895381,896537,3369,129204,896550,737875,3415,126299,900791,901735,897564,900790,NA,Sternberg Task,120,114528,136,yes,1024
88.32116788,88.32116788,845.270073,845.270073,black,experiment,legacy,legacy,legacy,0,uniform,1,undefined,1,right,136,0,136,136,0,0,136,136,0,0,136,136,136,136,0,Thu Oct 24 13:42:33 2019,The main experiment item,yes,SternbergTask.osexp,/Users/cristianbotello/Desktop/Advanced Quant/Lab 3.1,no,mono,no,18,no,white,no,no,768,legacy,124,11,/Users/cristianbotello/Desktop/Advanced Quant/Lab 3.1/CB-subject-2.csv,legacy,1 3 2 6 9,Kafkaesque Koffka,3.2.8,0,n,0,right,1,left,right,NA,1274,43067,2903,1274,NA,2,legacy,5,1024,2,48000,-16,experiment,2,even,5,905141,46492,895381,902900,3369,129204,902913,901752,3415,126299,907155,908433,903928,907155,NA,Sternberg Task,121,115802,137,yes,1024
88.4057971,88.4057971,846.673913,846.673913,black,experiment,legacy,legacy,legacy,0,uniform,1,undefined,1,left,137,0,137,137,0,0,137,137,0,0,137,137,137,137,0,Thu Oct 24 13:42:33 2019,The main experiment item,yes,SternbergTask.osexp,/Users/cristianbotello/Desktop/Advanced Quant/Lab 3.1,no,mono,no,18,no,white,no,no,768,legacy,125,11,/Users/cristianbotello/Desktop/Advanced Quant/Lab 3.1/CB-subject-2.csv,legacy,5 7 3 6 2,Kafkaesque Koffka,3.2.8,5,y,0,left,1,left,left,NA,1039,43067,2903,1039,NA,2,legacy,5,1024,2,48000,-16,experiment,2,even,2,911855,46492,908451,909615,3369,129204,909627,901752,3415,126299,913869,914913,910643,913869,NA,Sternberg Task,122,116841,138,yes,1024