"acc","accuracy","average_response_time","avg_rt","background","block","canvas_backend","clock_backend","color_backend","compensation","coordinates","correct","correct_instruction1","correct_keyboard_response","correct_response","count_ISI","count_correctFeedback","count_expSequence","count_experiment","count_experimentLoop","count_fixation","count_incorrectFeedback","count_instruction1","count_instruction2","count_keyboard_response","count_logger","count_memorySet","count_practiceLoop","count_probe","count_thankYou","datetime","description","disable_garbage_collection","experiment_file","experiment_path","font_bold","font_family","font_italic","font_size","font_underline","foreground","form_clicks","fullscreen","height","keyboard_backend","live_row","live_row_practiceLoop","logfile","mouse_backend","numberSet","opensesame_codename","opensesame_version","posInSet","present","repeat_cycle","response","response_instruction1","response_instruction2","response_keyboard_response","response_thankYou","response_time","response_time_instruction1","response_time_instruction2","response_time_keyboard_response","response_time_thankYou","round_decimals","sampler_backend","setSize","sound_buf_size","sound_channels","sound_freq","sound_sample_size","start","subject_nr","subject_parity","target","time_ISI","time_correctFeedback","time_expSequence","time_experiment","time_experimentLoop","time_fixation","time_incorrectFeedback","time_instruction1","time_instruction2","time_keyboard_response","time_logger","time_memorySet","time_practiceLoop","time_probe","time_thankYou","title","total_correct","total_response_time","total_responses","uniform_coordinates","width"
"0","0","2000","2000","black","practice","legacy","legacy","legacy","0","uniform","0","undefined","0","right","0","0","0","0","0","0","0","0","0","0","0","0","0","0","0","Sat Oct 15 08:23:20 2022","The main experiment item","yes","SternbergTask.osexp","/Users/alexisparrish/Documents/Advanced Quant. Methods/Lab 3/Lab 3.1","no","mono","no","18","no","white","no","yes","768","legacy","0","0","/Users/alexisparrish/Documents/Advanced Quant. Methods/Lab 3/Lab 3.1/ARP-subject-1.csv","legacy","3 1 9 4","Lentiform Loewenfeld","3.3.12","0","n","0","None","caps lock","NA","None","NA","2000","14547","NA","2000","NA","2","legacy","4","1024","2","48000","-16","experiment","1","odd","6","21008","NA","18792","4011","NA","18798","NA","4027","NA","23013","25013","19803","18576","23013","NA","Sternberg Task","0","2000","1","yes","1024"
"50","50","1317.5","1317.5","black","practice","legacy","legacy","legacy","0","uniform","1","undefined","1","left","1","1","1","0","0","1","1","0","0","1","1","1","0","1","0","Sat Oct 15 08:23:20 2022","The main experiment item","yes","SternbergTask.osexp","/Users/alexisparrish/Documents/Advanced Quant. Methods/Lab 3/Lab 3.1","no","mono","no","18","no","white","no","yes","768","legacy","1","1","/Users/alexisparrish/Documents/Advanced Quant. Methods/Lab 3/Lab 3.1/ARP-subject-1.csv","legacy","1 5 2 9","Lentiform Loewenfeld","3.3.12","2","y","0","left","caps lock","NA","left","NA","635","14547","NA","635","NA","2","legacy","4","1024","2","48000","-16","experiment","1","odd","5","28368","NA","26153","4011","NA","26158","25076","4027","NA","30372","31008","27163","18576","30372","NA","Sternberg Task","1","2635","2","yes","1024"
"66.66666666666667","66.66666666666667","1095.6666666666667","1095.6666666666667","black","practice","legacy","legacy","legacy","0","uniform","1","undefined","1","right","2","2","2","0","0","2","2","0","0","2","2","2","0","2","0","Sat Oct 15 08:23:20 2022","The main experiment item","yes","SternbergTask.osexp","/Users/alexisparrish/Documents/Advanced Quant. Methods/Lab 3/Lab 3.1","no","mono","no","18","no","white","no","yes","768","legacy","2","2","/Users/alexisparrish/Documents/Advanced Quant. Methods/Lab 3/Lab 3.1/ARP-subject-1.csv","legacy","9 6 7 4 5","Lentiform Loewenfeld","3.3.12","0","n","0","right","caps lock","NA","right","NA","652","14547","NA","652","NA","2","legacy","5","1024","2","48000","-16","experiment","1","odd","3","34296","31018","32083","4011","NA","32087","25076","4027","NA","36300","36953","33091","18576","36300","NA","Sternberg Task","2","3287","3","yes","1024"
"75","75","1016","1016","black","practice","legacy","legacy","legacy","0","uniform","1","undefined","1","right","3","3","3","0","0","3","3","0","0","3","3","3","0","3","0","Sat Oct 15 08:23:20 2022","The main experiment item","yes","SternbergTask.osexp","/Users/alexisparrish/Documents/Advanced Quant. Methods/Lab 3/Lab 3.1","no","mono","no","18","no","white","no","yes","768","legacy","3","3","/Users/alexisparrish/Documents/Advanced Quant. Methods/Lab 3/Lab 3.1/ARP-subject-1.csv","legacy","4 1 5","Lentiform Loewenfeld","3.3.12","0","n","0","right","caps lock","NA","right","NA","777","14547","NA","777","NA","2","legacy","3","1024","2","48000","-16","experiment","1","odd","2","40239","36959","38025","4011","NA","38030","25076","4027","NA","42244","43025","39034","18576","42244","NA","Sternberg Task","3","4064","4","yes","1024"
"80","80","979.2","979.2","black","practice","legacy","legacy","legacy","0","uniform","1","undefined","1","right","4","4","4","0","0","4","4","0","0","4","4","4","0","4","0","Sat Oct 15 08:23:20 2022","The main experiment item","yes","SternbergTask.osexp","/Users/alexisparrish/Documents/Advanced Quant. Methods/Lab 3/Lab 3.1","no","mono","no","18","no","white","no","yes","768","legacy","4","4","/Users/alexisparrish/Documents/Advanced Quant. Methods/Lab 3/Lab 3.1/ARP-subject-1.csv","legacy","5 7 8 4 1 2","Lentiform Loewenfeld","3.3.12","0","n","0","right","caps lock","NA","right","NA","832","14547","NA","832","NA","2","legacy","6","1024","2","48000","-16","experiment","1","odd","6","46312","43033","44098","4011","NA","44103","25076","4027","NA","48316","49149","45107","18576","48316","NA","Sternberg Task","4","4896","5","yes","1024"
"83.33333333333333","83.33333333333333","958.8333333333334","958.8333333333334","black","practice","legacy","legacy","legacy","0","uniform","1","undefined","1","right","5","5","5","0","0","5","5","0","0","5","5","5","0","5","0","Sat Oct 15 08:23:20 2022","The main experiment item","yes","SternbergTask.osexp","/Users/alexisparrish/Documents/Advanced Quant. Methods/Lab 3/Lab 3.1","no","mono","no","18","no","white","no","yes","768","legacy","5","5","/Users/alexisparrish/Documents/Advanced Quant. Methods/Lab 3/Lab 3.1/ARP-subject-1.csv","legacy","5","Lentiform Loewenfeld","3.3.12","0","n","0","right","caps lock","NA","right","NA","857","14547","NA","857","NA","2","legacy","1","1024","2","48000","-16","experiment","1","odd","3","52440","49160","50226","4011","NA","50231","25076","4027","NA","54444","55302","51235","18576","54444","NA","Sternberg Task","5","5753","6","yes","1024"
"85.71428571428571","85.71428571428571","918.8571428571429","918.8571428571429","black","practice","legacy","legacy","legacy","0","uniform","1","undefined","1","left","6","6","6","0","0","6","6","0","0","6","6","6","0","6","0","Sat Oct 15 08:23:20 2022","The main experiment item","yes","SternbergTask.osexp","/Users/alexisparrish/Documents/Advanced Quant. Methods/Lab 3/Lab 3.1","no","mono","no","18","no","white","no","yes","768","legacy","6","6","/Users/alexisparrish/Documents/Advanced Quant. Methods/Lab 3/Lab 3.1/ARP-subject-1.csv","legacy","1 7 9 8 5","Lentiform Loewenfeld","3.3.12","4","y","0","left","caps lock","NA","left","NA","679","14547","NA","679","NA","2","legacy","5","1024","2","48000","-16","experiment","1","odd","8","58588","55307","56375","4011","NA","56379","25076","4027","NA","60593","61273","57384","18576","60592","NA","Sternberg Task","6","6432","7","yes","1024"
"87.5","87.5","888.625","888.625","black","practice","legacy","legacy","legacy","0","uniform","1","undefined","1","left","7","7","7","0","0","7","7","0","0","7","7","7","0","7","0","Sat Oct 15 08:23:20 2022","The main experiment item","yes","SternbergTask.osexp","/Users/alexisparrish/Documents/Advanced Quant. Methods/Lab 3/Lab 3.1","no","mono","no","18","no","white","no","yes","768","legacy","7","7","/Users/alexisparrish/Documents/Advanced Quant. Methods/Lab 3/Lab 3.1/ARP-subject-1.csv","legacy","6","Lentiform Loewenfeld","3.3.12","1","y","0","left","caps lock","NA","left","NA","677","14547","NA","677","NA","2","legacy","1","1024","2","48000","-16","experiment","1","odd","6","64555","61278","62341","4011","NA","62347","25076","4027","NA","66559","67237","63351","18576","66559","NA","Sternberg Task","7","7109","8","yes","1024"
"88.88888888888889","88.88888888888889","861.8888888888889","861.8888888888889","black","practice","legacy","legacy","legacy","0","uniform","1","undefined","1","right","8","8","8","0","0","8","8","0","0","8","8","8","0","8","0","Sat Oct 15 08:23:20 2022","The main experiment item","yes","SternbergTask.osexp","/Users/alexisparrish/Documents/Advanced Quant. Methods/Lab 3/Lab 3.1","no","mono","no","18","no","white","no","yes","768","legacy","8","8","/Users/alexisparrish/Documents/Advanced Quant. Methods/Lab 3/Lab 3.1/ARP-subject-1.csv","legacy","2 1","Lentiform Loewenfeld","3.3.12","0","n","0","right","caps lock","NA","right","NA","648","14547","NA","648","NA","2","legacy","2","1024","2","48000","-16","experiment","1","odd","5","70517","67243","68304","4011","NA","68309","25076","4027","NA","72521","73170","69313","18576","72521","NA","Sternberg Task","8","7757","9","yes","1024"
"90","90","849.2","849.2","black","practice","legacy","legacy","legacy","0","uniform","1","undefined","1","left","9","9","9","0","0","9","9","0","0","9","9","9","0","9","0","Sat Oct 15 08:23:20 2022","The main experiment item","yes","SternbergTask.osexp","/Users/alexisparrish/Documents/Advanced Quant. Methods/Lab 3/Lab 3.1","no","mono","no","18","no","white","no","yes","768","legacy","9","9","/Users/alexisparrish/Documents/Advanced Quant. Methods/Lab 3/Lab 3.1/ARP-subject-1.csv","legacy","4 3 1 7 9 8","Lentiform Loewenfeld","3.3.12","1","y","0","left","caps lock","NA","left","NA","735","14547","NA","735","NA","2","legacy","6","1024","2","48000","-16","experiment","1","odd","4","76453","73176","74239","4011","NA","74244","25076","4027","NA","78457","79193","75248","18576","78457","NA","Sternberg Task","9","8492","10","yes","1024"
"90.9090909090909","90.9090909090909","824.0909090909091","824.0909090909091","black","practice","legacy","legacy","legacy","0","uniform","1","undefined","1","left","10","10","10","0","0","10","10","0","0","10","10","10","0","10","0","Sat Oct 15 08:23:20 2022","The main experiment item","yes","SternbergTask.osexp","/Users/alexisparrish/Documents/Advanced Quant. Methods/Lab 3/Lab 3.1","no","mono","no","18","no","white","no","yes","768","legacy","10","10","/Users/alexisparrish/Documents/Advanced Quant. Methods/Lab 3/Lab 3.1/ARP-subject-1.csv","legacy","4 8","Lentiform Loewenfeld","3.3.12","1","y","0","left","caps lock","NA","left","NA","573","14547","NA","573","NA","2","legacy","2","1024","2","48000","-16","experiment","1","odd","4","82496","79200","80280","4011","NA","80287","25076","4027","NA","84500","85074","81291","18576","84500","NA","Sternberg Task","10","9065","11","yes","1024"
"91.66666666666667","91.66666666666667","801.4166666666666","801.4166666666666","black","practice","legacy","legacy","legacy","0","uniform","1","undefined","1","left","11","11","11","0","0","11","11","0","0","11","11","11","0","11","0","Sat Oct 15 08:23:20 2022","The main experiment item","yes","SternbergTask.osexp","/Users/alexisparrish/Documents/Advanced Quant. Methods/Lab 3/Lab 3.1","no","mono","no","18","no","white","no","yes","768","legacy","11","11","/Users/alexisparrish/Documents/Advanced Quant. Methods/Lab 3/Lab 3.1/ARP-subject-1.csv","legacy","2 9 4","Lentiform Loewenfeld","3.3.12","3","y","0","left","caps lock","NA","left","NA","552","14547","NA","552","NA","2","legacy","3","1024","2","48000","-16","experiment","1","odd","4","88378","85081","86162","4011","NA","86167","25076","4027","NA","90382","90935","87172","18576","90382","NA","Sternberg Task","11","9617","12","yes","1024"
"92.3076923076923","92.3076923076923","827.2307692307693","827.2307692307693","black","experiment","legacy","legacy","legacy","0","uniform","1","undefined","1","right","12","12","12","0","0","12","12","0","0","12","12","12","0","12","0","Sat Oct 15 08:23:20 2022","The main experiment item","yes","SternbergTask.osexp","/Users/alexisparrish/Documents/Advanced Quant. Methods/Lab 3/Lab 3.1","no","mono","no","18","no","white","no","yes","768","legacy","0","11","/Users/alexisparrish/Documents/Advanced Quant. Methods/Lab 3/Lab 3.1/ARP-subject-1.csv","legacy","8 4 3 9","Lentiform Loewenfeld","3.3.12","0","n","0","right","caps lock","left","right","NA","1137","14547","6982","1137","NA","2","legacy","4","1024","2","48000","-16","experiment","1","odd","5","101230","90940","99016","4011","98955","99021","25076","4027","91973","103234","104372","100025","18576","103234","NA","Sternberg Task","12","10754","13","yes","1024"
"92.85714285714286","92.85714285714286","813.0714285714286","813.0714285714286","black","experiment","legacy","legacy","legacy","0","uniform","1","undefined","1","right","13","13","13","0","0","13","13","0","0","13","13","13","0","13","0","Sat Oct 15 08:23:20 2022","The main experiment item","yes","SternbergTask.osexp","/Users/alexisparrish/Documents/Advanced Quant. Methods/Lab 3/Lab 3.1","no","mono","no","18","no","white","no","yes","768","legacy","1","11","/Users/alexisparrish/Documents/Advanced Quant. Methods/Lab 3/Lab 3.1/ARP-subject-1.csv","legacy","6 8 4","Lentiform Loewenfeld","3.3.12","0","n","0","right","caps lock","left","right","NA","629","14547","6982","629","NA","2","legacy","3","1024","2","48000","-16","experiment","1","odd","1","107655","104378","105441","4011","98955","105445","25076","4027","91973","109659","110289","106450","18576","109659","NA","Sternberg Task","13","11383","14","yes","1024"
"93.33333333333333","93.33333333333333","798.3333333333334","798.3333333333334","black","experiment","legacy","legacy","legacy","0","uniform","1","undefined","1","right","14","14","14","0","0","14","14","0","0","14","14","14","0","14","0","Sat Oct 15 08:23:20 2022","The main experiment item","yes","SternbergTask.osexp","/Users/alexisparrish/Documents/Advanced Quant. Methods/Lab 3/Lab 3.1","no","mono","no","18","no","white","no","yes","768","legacy","2","11","/Users/alexisparrish/Documents/Advanced Quant. Methods/Lab 3/Lab 3.1/ARP-subject-1.csv","legacy","9","Lentiform Loewenfeld","3.3.12","0","n","0","right","caps lock","left","right","NA","592","14547","6982","592","NA","2","legacy","1","1024","2","48000","-16","experiment","1","odd","6","113571","110296","111358","4011","98955","111362","25076","4027","91973","115575","116168","112366","18576","115575","NA","Sternberg Task","14","11975","15","yes","1024"
"93.75","93.75","791.1875","791.1875","black","experiment","legacy","legacy","legacy","0","uniform","1","undefined","1","right","15","15","15","0","0","15","15","0","0","15","15","15","0","15","0","Sat Oct 15 08:23:20 2022","The main experiment item","yes","SternbergTask.osexp","/Users/alexisparrish/Documents/Advanced Quant. Methods/Lab 3/Lab 3.1","no","mono","no","18","no","white","no","yes","768","legacy","3","11","/Users/alexisparrish/Documents/Advanced Quant. Methods/Lab 3/Lab 3.1/ARP-subject-1.csv","legacy","5","Lentiform Loewenfeld","3.3.12","0","n","0","right","caps lock","left","right","NA","684","14547","6982","684","NA","2","legacy","1","1024","2","48000","-16","experiment","1","odd","8","119448","116173","117234","4011","98955","117239","25076","4027","91973","121452","122137","118243","18576","121452","NA","Sternberg Task","15","12659","16","yes","1024"
"94.11764705882354","94.11764705882354","786.2941176470588","786.2941176470588","black","experiment","legacy","legacy","legacy","0","uniform","1","undefined","1","left","16","16","16","0","0","16","16","0","0","16","16","16","0","16","0","Sat Oct 15 08:23:20 2022","The main experiment item","yes","SternbergTask.osexp","/Users/alexisparrish/Documents/Advanced Quant. Methods/Lab 3/Lab 3.1","no","mono","no","18","no","white","no","yes","768","legacy","4","11","/Users/alexisparrish/Documents/Advanced Quant. Methods/Lab 3/Lab 3.1/ARP-subject-1.csv","legacy","4 3 2 5 8","Lentiform Loewenfeld","3.3.12","2","y","0","left","caps lock","left","left","NA","708","14547","6982","708","NA","2","legacy","5","1024","2","48000","-16","experiment","1","odd","3","125422","122143","123208","4011","98955","123212","25076","4027","91973","127426","128135","124217","18576","127426","NA","Sternberg Task","16","13367","17","yes","1024"
"94.44444444444444","94.44444444444444","799","799","black","experiment","legacy","legacy","legacy","0","uniform","1","undefined","1","left","17","17","17","0","0","17","17","0","0","17","17","17","0","17","0","Sat Oct 15 08:23:20 2022","The main experiment item","yes","SternbergTask.osexp","/Users/alexisparrish/Documents/Advanced Quant. Methods/Lab 3/Lab 3.1","no","mono","no","18","no","white","no","yes","768","legacy","5","11","/Users/alexisparrish/Documents/Advanced Quant. Methods/Lab 3/Lab 3.1/ARP-subject-1.csv","legacy","7 1 8 5 6 2","Lentiform Loewenfeld","3.3.12","2","y","0","left","caps lock","left","left","NA","1015","14547","6982","1015","NA","2","legacy","6","1024","2","48000","-16","experiment","1","odd","1","131426","128148","129212","4011","98955","129216","25076","4027","91973","133430","134446","130221","18576","133430","NA","Sternberg Task","17","14382","18","yes","1024"
"94.73684210526316","94.73684210526316","789.2631578947369","789.2631578947369","black","experiment","legacy","legacy","legacy","0","uniform","1","undefined","1","left","18","18","18","0","0","18","18","0","0","18","18","18","0","18","0","Sat Oct 15 08:23:20 2022","The main experiment item","yes","SternbergTask.osexp","/Users/alexisparrish/Documents/Advanced Quant. Methods/Lab 3/Lab 3.1","no","mono","no","18","no","white","no","yes","768","legacy","6","11","/Users/alexisparrish/Documents/Advanced Quant. Methods/Lab 3/Lab 3.1/ARP-subject-1.csv","legacy","8 7 3","Lentiform Loewenfeld","3.3.12","1","y","0","left","caps lock","left","left","NA","614","14547","6982","614","NA","2","legacy","3","1024","2","48000","-16","experiment","1","odd","8","137735","134457","135521","4011","98955","135526","25076","4027","91973","139739","140354","136530","18576","139739","NA","Sternberg Task","18","14996","19","yes","1024"
"95","95","794.45","794.45","black","experiment","legacy","legacy","legacy","0","uniform","1","undefined","1","right","19","19","19","0","0","19","19","0","0","19","19","19","0","19","0","Sat Oct 15 08:23:20 2022","The main experiment item","yes","SternbergTask.osexp","/Users/alexisparrish/Documents/Advanced Quant. Methods/Lab 3/Lab 3.1","no","mono","no","18","no","white","no","yes","768","legacy","7","11","/Users/alexisparrish/Documents/Advanced Quant. Methods/Lab 3/Lab 3.1/ARP-subject-1.csv","legacy","8 5 4 2 9 6","Lentiform Loewenfeld","3.3.12","0","n","0","right","caps lock","left","right","NA","893","14547","6982","893","NA","2","legacy","6","1024","2","48000","-16","experiment","1","odd","3","143637","140361","141424","4011","98955","141429","25076","4027","91973","145642","146536","142433","18576","145642","NA","Sternberg Task","19","15889","20","yes","1024"
"95.23809523809524","95.23809523809524","787.1428571428571","787.1428571428571","black","experiment","legacy","legacy","legacy","0","uniform","1","undefined","1","left","20","20","20","0","0","20","20","0","0","20","20","20","0","20","0","Sat Oct 15 08:23:20 2022","The main experiment item","yes","SternbergTask.osexp","/Users/alexisparrish/Documents/Advanced Quant. Methods/Lab 3/Lab 3.1","no","mono","no","18","no","white","no","yes","768","legacy","8","11","/Users/alexisparrish/Documents/Advanced Quant. Methods/Lab 3/Lab 3.1/ARP-subject-1.csv","legacy","9 4 2","Lentiform Loewenfeld","3.3.12","1","y","0","left","caps lock","left","left","NA","641","14547","6982","641","NA","2","legacy","3","1024","2","48000","-16","experiment","1","odd","9","149818","146543","147605","4011","98955","147609","25076","4027","91973","151822","152464","148613","18576","151822","NA","Sternberg Task","20","16530","21","yes","1024"
"95.45454545454545","95.45454545454545","787.1818181818181","787.1818181818181","black","experiment","legacy","legacy","legacy","0","uniform","1","undefined","1","right","21","21","21","0","0","21","21","0","0","21","21","21","0","21","0","Sat Oct 15 08:23:20 2022","The main experiment item","yes","SternbergTask.osexp","/Users/alexisparrish/Documents/Advanced Quant. Methods/Lab 3/Lab 3.1","no","mono","no","18","no","white","no","yes","768","legacy","9","11","/Users/alexisparrish/Documents/Advanced Quant. Methods/Lab 3/Lab 3.1/ARP-subject-1.csv","legacy","1 4 9 3","Lentiform Loewenfeld","3.3.12","0","n","0","right","caps lock","left","right","NA","788","14547","6982","788","NA","2","legacy","4","1024","2","48000","-16","experiment","1","odd","5","155745","152469","153531","4011","98955","153536","25076","4027","91973","157749","158538","154540","18576","157749","NA","Sternberg Task","21","17318","22","yes","1024"
"95.65217391304348","95.65217391304348","790.7391304347826","790.7391304347826","black","experiment","legacy","legacy","legacy","0","uniform","1","undefined","1","right","22","22","22","0","0","22","22","0","0","22","22","22","0","22","0","Sat Oct 15 08:23:20 2022","The main experiment item","yes","SternbergTask.osexp","/Users/alexisparrish/Documents/Advanced Quant. Methods/Lab 3/Lab 3.1","no","mono","no","18","no","white","no","yes","768","legacy","10","11","/Users/alexisparrish/Documents/Advanced Quant. Methods/Lab 3/Lab 3.1/ARP-subject-1.csv","legacy","5 9 2 3","Lentiform Loewenfeld","3.3.12","0","n","0","right","caps lock","left","right","NA","869","14547","6982","869","NA","2","legacy","4","1024","2","48000","-16","experiment","1","odd","8","161827","158545","159613","4011","98955","159618","25076","4027","91973","163831","164701","160622","18576","163831","NA","Sternberg Task","22","18187","23","yes","1024"
"95.83333333333333","95.83333333333333","778.6666666666666","778.6666666666666","black","experiment","legacy","legacy","legacy","0","uniform","1","undefined","1","left","23","23","23","0","0","23","23","0","0","23","23","23","0","23","0","Sat Oct 15 08:23:20 2022","The main experiment item","yes","SternbergTask.osexp","/Users/alexisparrish/Documents/Advanced Quant. Methods/Lab 3/Lab 3.1","no","mono","no","18","no","white","no","yes","768","legacy","11","11","/Users/alexisparrish/Documents/Advanced Quant. Methods/Lab 3/Lab 3.1/ARP-subject-1.csv","legacy","6 9 7 4 5 1","Lentiform Loewenfeld","3.3.12","2","y","0","left","caps lock","left","left","NA","501","14547","6982","501","NA","2","legacy","6","1024","2","48000","-16","experiment","1","odd","9","167995","164712","165781","4011","98955","165786","25076","4027","91973","169999","170501","166790","18576","169999","NA","Sternberg Task","23","18688","24","yes","1024"
"96","96","770.6","770.6","black","experiment","legacy","legacy","legacy","0","uniform","1","undefined","1","left","24","24","24","0","0","24","24","0","0","24","24","24","0","24","0","Sat Oct 15 08:23:20 2022","The main experiment item","yes","SternbergTask.osexp","/Users/alexisparrish/Documents/Advanced Quant. Methods/Lab 3/Lab 3.1","no","mono","no","18","no","white","no","yes","768","legacy","12","11","/Users/alexisparrish/Documents/Advanced Quant. Methods/Lab 3/Lab 3.1/ARP-subject-1.csv","legacy","6 2","Lentiform Loewenfeld","3.3.12","1","y","0","left","caps lock","left","left","NA","577","14547","6982","577","NA","2","legacy","2","1024","2","48000","-16","experiment","1","odd","6","173790","170512","171577","4011","98955","171581","25076","4027","91973","175794","176372","172585","18576","175794","NA","Sternberg Task","24","19265","25","yes","1024"
"96.15384615384616","96.15384615384616","772.3846153846154","772.3846153846154","black","experiment","legacy","legacy","legacy","0","uniform","1","undefined","1","left","25","25","25","0","0","25","25","0","0","25","25","25","0","25","0","Sat Oct 15 08:23:20 2022","The main experiment item","yes","SternbergTask.osexp","/Users/alexisparrish/Documents/Advanced Quant. Methods/Lab 3/Lab 3.1","no","mono","no","18","no","white","no","yes","768","legacy","13","11","/Users/alexisparrish/Documents/Advanced Quant. Methods/Lab 3/Lab 3.1/ARP-subject-1.csv","legacy","5 2 9 6 1 7","Lentiform Loewenfeld","3.3.12","3","y","0","left","caps lock","left","left","NA","817","14547","6982","817","NA","2","legacy","6","1024","2","48000","-16","experiment","1","odd","9","179666","176383","177452","4011","98955","177457","25076","4027","91973","181670","182488","178461","18576","181670","NA","Sternberg Task","25","20082","26","yes","1024"
"96.29629629629629","96.29629629629629","766.1111111111111","766.1111111111111","black","experiment","legacy","legacy","legacy","0","uniform","1","undefined","1","left","26","26","26","0","0","26","26","0","0","26","26","26","0","26","0","Sat Oct 15 08:23:20 2022","The main experiment item","yes","SternbergTask.osexp","/Users/alexisparrish/Documents/Advanced Quant. Methods/Lab 3/Lab 3.1","no","mono","no","18","no","white","no","yes","768","legacy","14","11","/Users/alexisparrish/Documents/Advanced Quant. Methods/Lab 3/Lab 3.1/ARP-subject-1.csv","legacy","6 5","Lentiform Loewenfeld","3.3.12","2","y","0","left","caps lock","left","left","NA","603","14547","6982","603","NA","2","legacy","2","1024","2","48000","-16","experiment","1","odd","5","185786","182504","183572","4011","98955","183576","25076","4027","91973","187790","188394","184581","18576","187790","NA","Sternberg Task","26","20685","27","yes","1024"
"96.42857142857143","96.42857142857143","758.6785714285714","758.6785714285714","black","experiment","legacy","legacy","legacy","0","uniform","1","undefined","1","right","27","27","27","0","0","27","27","0","0","27","27","27","0","27","0","Sat Oct 15 08:23:20 2022","The main experiment item","yes","SternbergTask.osexp","/Users/alexisparrish/Documents/Advanced Quant. Methods/Lab 3/Lab 3.1","no","mono","no","18","no","white","no","yes","768","legacy","15","11","/Users/alexisparrish/Documents/Advanced Quant. Methods/Lab 3/Lab 3.1/ARP-subject-1.csv","legacy","6 8","Lentiform Loewenfeld","3.3.12","0","n","0","right","caps lock","left","right","NA","558","14547","6982","558","NA","2","legacy","2","1024","2","48000","-16","experiment","1","odd","9","191685","188405","189470","4011","98955","189475","25076","4027","91973","193689","194248","190479","18576","193689","NA","Sternberg Task","27","21243","28","yes","1024"
"96.55172413793103","96.55172413793103","751.2758620689655","751.2758620689655","black","experiment","legacy","legacy","legacy","0","uniform","1","undefined","1","right","28","28","28","0","0","28","28","0","0","28","28","28","0","28","0","Sat Oct 15 08:23:20 2022","The main experiment item","yes","SternbergTask.osexp","/Users/alexisparrish/Documents/Advanced Quant. Methods/Lab 3/Lab 3.1","no","mono","no","18","no","white","no","yes","768","legacy","16","11","/Users/alexisparrish/Documents/Advanced Quant. Methods/Lab 3/Lab 3.1/ARP-subject-1.csv","legacy","7 9","Lentiform Loewenfeld","3.3.12","0","n","0","right","caps lock","left","right","NA","544","14547","6982","544","NA","2","legacy","2","1024","2","48000","-16","experiment","1","odd","1","197540","194260","195327","4011","98955","195331","25076","4027","91973","199544","200089","196335","18576","199544","NA","Sternberg Task","28","21787","29","yes","1024"
"96.66666666666667","96.66666666666667","753.6666666666666","753.6666666666666","black","experiment","legacy","legacy","legacy","0","uniform","1","undefined","1","right","29","29","29","0","0","29","29","0","0","29","29","29","0","29","0","Sat Oct 15 08:23:20 2022","The main experiment item","yes","SternbergTask.osexp","/Users/alexisparrish/Documents/Advanced Quant. Methods/Lab 3/Lab 3.1","no","mono","no","18","no","white","no","yes","768","legacy","17","11","/Users/alexisparrish/Documents/Advanced Quant. Methods/Lab 3/Lab 3.1/ARP-subject-1.csv","legacy","1 3 2 6 9","Lentiform Loewenfeld","3.3.12","0","n","0","right","caps lock","left","right","NA","823","14547","6982","823","NA","2","legacy","5","1024","2","48000","-16","experiment","1","odd","5","203388","200101","201168","4011","98955","201172","25076","4027","91973","205392","206216","202183","18576","205392","NA","Sternberg Task","29","22610","30","yes","1024"
"96.7741935483871","96.7741935483871","757.1612903225806","757.1612903225806","black","experiment","legacy","legacy","legacy","0","uniform","1","undefined","1","right","30","30","30","0","0","30","30","0","0","30","30","30","0","30","0","Sat Oct 15 08:23:20 2022","The main experiment item","yes","SternbergTask.osexp","/Users/alexisparrish/Documents/Advanced Quant. Methods/Lab 3/Lab 3.1","no","mono","no","18","no","white","no","yes","768","legacy","18","11","/Users/alexisparrish/Documents/Advanced Quant. Methods/Lab 3/Lab 3.1/ARP-subject-1.csv","legacy","3 9 1","Lentiform Loewenfeld","3.3.12","0","n","0","right","caps lock","left","right","NA","862","14547","6982","862","NA","2","legacy","3","1024","2","48000","-16","experiment","1","odd","7","209504","206228","207291","4011","98955","207295","25076","4027","91973","211509","212371","208299","18576","211509","NA","Sternberg Task","30","23472","31","yes","1024"
"96.875","96.875","760.96875","760.96875","black","experiment","legacy","legacy","legacy","0","uniform","1","undefined","1","right","31","31","31","0","0","31","31","0","0","31","31","31","0","31","0","Sat Oct 15 08:23:20 2022","The main experiment item","yes","SternbergTask.osexp","/Users/alexisparrish/Documents/Advanced Quant. Methods/Lab 3/Lab 3.1","no","mono","no","18","no","white","no","yes","768","legacy","19","11","/Users/alexisparrish/Documents/Advanced Quant. Methods/Lab 3/Lab 3.1/ARP-subject-1.csv","legacy","8 5 7 3 6","Lentiform Loewenfeld","3.3.12","0","n","0","right","caps lock","left","right","NA","879","14547","6982","879","NA","2","legacy","5","1024","2","48000","-16","experiment","1","odd","9","215664","212382","213446","4011","98955","213450","25076","4027","91973","217668","218548","214454","18576","217668","NA","Sternberg Task","31","24351","32","yes","1024"
"93.93939393939394","93.93939393939394","754.4545454545455","754.4545454545455","black","experiment","legacy","legacy","legacy","0","uniform","0","undefined","0","left","32","32","32","0","0","32","32","0","0","32","32","32","0","32","0","Sat Oct 15 08:23:20 2022","The main experiment item","yes","SternbergTask.osexp","/Users/alexisparrish/Documents/Advanced Quant. Methods/Lab 3/Lab 3.1","no","mono","no","18","no","white","no","yes","768","legacy","20","11","/Users/alexisparrish/Documents/Advanced Quant. Methods/Lab 3/Lab 3.1/ARP-subject-1.csv","legacy","6 1 2","Lentiform Loewenfeld","3.3.12","3","y","0","right","caps lock","left","right","NA","546","14547","6982","546","NA","2","legacy","3","1024","2","48000","-16","experiment","1","odd","2","221840","218559","219626","4011","98955","219631","25076","4027","91973","223844","224391","220635","18576","223844","NA","Sternberg Task","31","24897","33","yes","1024"
"94.11764705882354","94.11764705882354","756.0588235294117","756.0588235294117","black","experiment","legacy","legacy","legacy","0","uniform","1","undefined","1","right","33","33","33","0","0","33","33","0","0","33","33","33","0","33","0","Sat Oct 15 08:23:20 2022","The main experiment item","yes","SternbergTask.osexp","/Users/alexisparrish/Documents/Advanced Quant. Methods/Lab 3/Lab 3.1","no","mono","no","18","no","white","no","yes","768","legacy","21","11","/Users/alexisparrish/Documents/Advanced Quant. Methods/Lab 3/Lab 3.1/ARP-subject-1.csv","legacy","2 5 1 4","Lentiform Loewenfeld","3.3.12","0","n","0","right","caps lock","left","right","NA","809","14547","6982","809","NA","2","legacy","4","1024","2","48000","-16","experiment","1","odd","6","227685","218559","225472","4011","98955","225476","224403","4027","91973","229689","230499","226480","18576","229689","NA","Sternberg Task","32","25706","34","yes","1024"
"94.28571428571429","94.28571428571429","759.6","759.6","black","experiment","legacy","legacy","legacy","0","uniform","1","undefined","1","right","34","34","34","0","0","34","34","0","0","34","34","34","0","34","0","Sat Oct 15 08:23:20 2022","The main experiment item","yes","SternbergTask.osexp","/Users/alexisparrish/Documents/Advanced Quant. Methods/Lab 3/Lab 3.1","no","mono","no","18","no","white","no","yes","768","legacy","22","11","/Users/alexisparrish/Documents/Advanced Quant. Methods/Lab 3/Lab 3.1/ARP-subject-1.csv","legacy","7 6 4 8 1 2","Lentiform Loewenfeld","3.3.12","0","n","0","right","caps lock","left","right","NA","880","14547","6982","880","NA","2","legacy","6","1024","2","48000","-16","experiment","1","odd","9","233782","230504","231569","4011","98955","231573","224403","4027","91973","235786","236667","232577","18576","235786","NA","Sternberg Task","33","26586","35","yes","1024"
"94.44444444444444","94.44444444444444","767.4444444444445","767.4444444444445","black","experiment","legacy","legacy","legacy","0","uniform","1","undefined","1","right","35","35","35","0","0","35","35","0","0","35","35","35","0","35","0","Sat Oct 15 08:23:20 2022","The main experiment item","yes","SternbergTask.osexp","/Users/alexisparrish/Documents/Advanced Quant. Methods/Lab 3/Lab 3.1","no","mono","no","18","no","white","no","yes","768","legacy","23","11","/Users/alexisparrish/Documents/Advanced Quant. Methods/Lab 3/Lab 3.1/ARP-subject-1.csv","legacy","4 1","Lentiform Loewenfeld","3.3.12","0","n","0","right","caps lock","left","right","NA","1042","14547","6982","1042","NA","2","legacy","2","1024","2","48000","-16","experiment","1","odd","6","239953","236678","237740","4011","98955","237744","224403","4027","91973","241957","243000","238748","18576","241957","NA","Sternberg Task","34","27628","36","yes","1024"
"94.5945945945946","94.5945945945946","763.027027027027","763.027027027027","black","experiment","legacy","legacy","legacy","0","uniform","1","undefined","1","left","36","36","36","0","0","36","36","0","0","36","36","36","0","36","0","Sat Oct 15 08:23:20 2022","The main experiment item","yes","SternbergTask.osexp","/Users/alexisparrish/Documents/Advanced Quant. Methods/Lab 3/Lab 3.1","no","mono","no","18","no","white","no","yes","768","legacy","24","11","/Users/alexisparrish/Documents/Advanced Quant. Methods/Lab 3/Lab 3.1/ARP-subject-1.csv","legacy","4","Lentiform Loewenfeld","3.3.12","1","y","0","left","caps lock","left","left","NA","604","14547","6982","604","NA","2","legacy","1","1024","2","48000","-16","experiment","1","odd","4","246292","243013","244077","4011","98955","244082","224403","4027","91973","248296","248901","245086","18576","248296","NA","Sternberg Task","35","28232","37","yes","1024"
"94.73684210526316","94.73684210526316","764.6578947368421","764.6578947368421","black","experiment","legacy","legacy","legacy","0","uniform","1","undefined","1","right","37","37","37","0","0","37","37","0","0","37","37","37","0","37","0","Sat Oct 15 08:23:20 2022","The main experiment item","yes","SternbergTask.osexp","/Users/alexisparrish/Documents/Advanced Quant. Methods/Lab 3/Lab 3.1","no","mono","no","18","no","white","no","yes","768","legacy","25","11","/Users/alexisparrish/Documents/Advanced Quant. Methods/Lab 3/Lab 3.1/ARP-subject-1.csv","legacy","9 7 4 5 8","Lentiform Loewenfeld","3.3.12","0","n","0","right","caps lock","left","right","NA","825","14547","6982","825","NA","2","legacy","5","1024","2","48000","-16","experiment","1","odd","6","252191","248913","249977","4011","98955","249982","224403","4027","91973","254195","255021","250986","18576","254195","NA","Sternberg Task","36","29057","38","yes","1024"
"94.87179487179488","94.87179487179488","763.7435897435897","763.7435897435897","black","experiment","legacy","legacy","legacy","0","uniform","1","undefined","1","left","38","38","38","0","0","38","38","0","0","38","38","38","0","38","0","Sat Oct 15 08:23:20 2022","The main experiment item","yes","SternbergTask.osexp","/Users/alexisparrish/Documents/Advanced Quant. Methods/Lab 3/Lab 3.1","no","mono","no","18","no","white","no","yes","768","legacy","26","11","/Users/alexisparrish/Documents/Advanced Quant. Methods/Lab 3/Lab 3.1/ARP-subject-1.csv","legacy","8 5 1 3 9","Lentiform Loewenfeld","3.3.12","4","y","0","left","caps lock","left","left","NA","729","14547","6982","729","NA","2","legacy","5","1024","2","48000","-16","experiment","1","odd","3","258313","255032","256100","4011","98955","256104","224403","4027","91973","260317","261047","257108","18576","260317","NA","Sternberg Task","37","29786","39","yes","1024"
"95","95","759.675","759.675","black","experiment","legacy","legacy","legacy","0","uniform","1","undefined","1","right","39","39","39","0","0","39","39","0","0","39","39","39","0","39","0","Sat Oct 15 08:23:20 2022","The main experiment item","yes","SternbergTask.osexp","/Users/alexisparrish/Documents/Advanced Quant. Methods/Lab 3/Lab 3.1","no","mono","no","18","no","white","no","yes","768","legacy","27","11","/Users/alexisparrish/Documents/Advanced Quant. Methods/Lab 3/Lab 3.1/ARP-subject-1.csv","legacy","5 2","Lentiform Loewenfeld","3.3.12","0","n","0","right","caps lock","left","right","NA","601","14547","6982","601","NA","2","legacy","2","1024","2","48000","-16","experiment","1","odd","7","264335","261058","262122","4011","98955","262126","224403","4027","91973","266339","266941","263130","18576","266339","NA","Sternberg Task","38","30387","40","yes","1024"
"95.1219512195122","95.1219512195122","757.780487804878","757.780487804878","black","experiment","legacy","legacy","legacy","0","uniform","1","undefined","1","right","40","40","40","0","0","40","40","0","0","40","40","40","0","40","0","Sat Oct 15 08:23:20 2022","The main experiment item","yes","SternbergTask.osexp","/Users/alexisparrish/Documents/Advanced Quant. Methods/Lab 3/Lab 3.1","no","mono","no","18","no","white","no","yes","768","legacy","28","11","/Users/alexisparrish/Documents/Advanced Quant. Methods/Lab 3/Lab 3.1/ARP-subject-1.csv","legacy","1 6 4","Lentiform Loewenfeld","3.3.12","0","n","0","right","caps lock","left","right","NA","682","14547","6982","682","NA","2","legacy","3","1024","2","48000","-16","experiment","1","odd","7","270234","266951","268020","4011","98955","268025","224403","4027","91973","272238","272921","269029","18576","272238","NA","Sternberg Task","39","31069","41","yes","1024"
"95.23809523809524","95.23809523809524","755.9761904761905","755.9761904761905","black","experiment","legacy","legacy","legacy","0","uniform","1","undefined","1","right","41","41","41","0","0","41","41","0","0","41","41","41","0","41","0","Sat Oct 15 08:23:20 2022","The main experiment item","yes","SternbergTask.osexp","/Users/alexisparrish/Documents/Advanced Quant. Methods/Lab 3/Lab 3.1","no","mono","no","18","no","white","no","yes","768","legacy","29","11","/Users/alexisparrish/Documents/Advanced Quant. Methods/Lab 3/Lab 3.1/ARP-subject-1.csv","legacy","2 3 8 5 6 7","Lentiform Loewenfeld","3.3.12","0","n","0","right","caps lock","left","right","NA","682","14547","6982","682","NA","2","legacy","6","1024","2","48000","-16","experiment","1","odd","1","276216","272934","274002","4011","98955","274007","224403","4027","91973","278221","278904","275011","18576","278221","NA","Sternberg Task","40","31751","42","yes","1024"
"95.34883720930233","95.34883720930233","760.7441860465116","760.7441860465116","black","experiment","legacy","legacy","legacy","0","uniform","1","undefined","1","left","42","42","42","0","0","42","42","0","0","42","42","42","0","42","0","Sat Oct 15 08:23:20 2022","The main experiment item","yes","SternbergTask.osexp","/Users/alexisparrish/Documents/Advanced Quant. Methods/Lab 3/Lab 3.1","no","mono","no","18","no","white","no","yes","768","legacy","30","11","/Users/alexisparrish/Documents/Advanced Quant. Methods/Lab 3/Lab 3.1/ARP-subject-1.csv","legacy","6 9 3 1","Lentiform Loewenfeld","3.3.12","4","y","0","left","caps lock","left","left","NA","961","14547","6982","961","NA","2","legacy","4","1024","2","48000","-16","experiment","1","odd","1","282197","278916","279983","4011","98955","279988","224403","4027","91973","284202","285164","280992","18576","284202","NA","Sternberg Task","41","32712","43","yes","1024"
"95.45454545454545","95.45454545454545","758.0454545454545","758.0454545454545","black","experiment","legacy","legacy","legacy","0","uniform","1","undefined","1","left","43","43","43","0","0","43","43","0","0","43","43","43","0","43","0","Sat Oct 15 08:23:20 2022","The main experiment item","yes","SternbergTask.osexp","/Users/alexisparrish/Documents/Advanced Quant. Methods/Lab 3/Lab 3.1","no","mono","no","18","no","white","no","yes","768","legacy","31","11","/Users/alexisparrish/Documents/Advanced Quant. Methods/Lab 3/Lab 3.1/ARP-subject-1.csv","legacy","9 3 1 2 5","Lentiform Loewenfeld","3.3.12","4","y","0","left","caps lock","left","left","NA","642","14547","6982","642","NA","2","legacy","5","1024","2","48000","-16","experiment","1","odd","2","288457","285176","286243","4011","98955","286248","224403","4027","91973","290462","291105","287252","18576","290462","NA","Sternberg Task","42","33354","44","yes","1024"
"95.55555555555556","95.55555555555556","755.0444444444445","755.0444444444445","black","experiment","legacy","legacy","legacy","0","uniform","1","undefined","1","right","44","44","44","0","0","44","44","0","0","44","44","44","0","44","0","Sat Oct 15 08:23:20 2022","The main experiment item","yes","SternbergTask.osexp","/Users/alexisparrish/Documents/Advanced Quant. Methods/Lab 3/Lab 3.1","no","mono","no","18","no","white","no","yes","768","legacy","32","11","/Users/alexisparrish/Documents/Advanced Quant. Methods/Lab 3/Lab 3.1/ARP-subject-1.csv","legacy","7 9 1 6","Lentiform Loewenfeld","3.3.12","0","n","0","right","caps lock","left","right","NA","623","14547","6982","623","NA","2","legacy","4","1024","2","48000","-16","experiment","1","odd","4","294395","291117","292181","4011","98955","292185","224403","4027","91973","296399","297023","293190","18576","296399","NA","Sternberg Task","43","33977","45","yes","1024"
"95.65217391304348","95.65217391304348","750.0434782608696","750.0434782608696","black","experiment","legacy","legacy","legacy","0","uniform","1","undefined","1","left","45","45","45","0","0","45","45","0","0","45","45","45","0","45","0","Sat Oct 15 08:23:20 2022","The main experiment item","yes","SternbergTask.osexp","/Users/alexisparrish/Documents/Advanced Quant. Methods/Lab 3/Lab 3.1","no","mono","no","18","no","white","no","yes","768","legacy","33","11","/Users/alexisparrish/Documents/Advanced Quant. Methods/Lab 3/Lab 3.1/ARP-subject-1.csv","legacy","2 3 7 4","Lentiform Loewenfeld","3.3.12","1","y","0","left","caps lock","left","left","NA","525","14547","6982","525","NA","2","legacy","4","1024","2","48000","-16","experiment","1","odd","2","300317","297035","298103","4011","98955","298107","224403","4027","91973","302321","302847","299112","18576","302321","NA","Sternberg Task","44","34502","46","yes","1024"
"95.74468085106383","95.74468085106383","744.2340425531914","744.2340425531914","black","experiment","legacy","legacy","legacy","0","uniform","1","undefined","1","left","46","46","46","0","0","46","46","0","0","46","46","46","0","46","0","Sat Oct 15 08:23:20 2022","The main experiment item","yes","SternbergTask.osexp","/Users/alexisparrish/Documents/Advanced Quant. Methods/Lab 3/Lab 3.1","no","mono","no","18","no","white","no","yes","768","legacy","34","11","/Users/alexisparrish/Documents/Advanced Quant. Methods/Lab 3/Lab 3.1/ARP-subject-1.csv","legacy","4 1 8 7 5","Lentiform Loewenfeld","3.3.12","3","y","0","left","caps lock","left","left","NA","477","14547","6982","477","NA","2","legacy","5","1024","2","48000","-16","experiment","1","odd","8","306138","302857","303925","4011","98955","303929","224403","4027","91973","308142","308620","304933","18576","308142","NA","Sternberg Task","45","34979","47","yes","1024"
"95.83333333333333","95.83333333333333","737.3333333333334","737.3333333333334","black","experiment","legacy","legacy","legacy","0","uniform","1","undefined","1","left","47","47","47","0","0","47","47","0","0","47","47","47","0","47","0","Sat Oct 15 08:23:20 2022","The main experiment item","yes","SternbergTask.osexp","/Users/alexisparrish/Documents/Advanced Quant. Methods/Lab 3/Lab 3.1","no","mono","no","18","no","white","no","yes","768","legacy","35","11","/Users/alexisparrish/Documents/Advanced Quant. Methods/Lab 3/Lab 3.1/ARP-subject-1.csv","legacy","6 8 9 3 4 9","Lentiform Loewenfeld","3.3.12","5","y","0","left","caps lock","left","left","NA","413","14547","6982","413","NA","2","legacy","6","1024","2","48000","-16","experiment","1","odd","4","311915","308632","309701","4011","98955","309706","224403","4027","91973","313919","314333","310710","18576","313919","NA","Sternberg Task","46","35392","48","yes","1024"
"95.91836734693878","95.91836734693878","731.469387755102","731.469387755102","black","experiment","legacy","legacy","legacy","0","uniform","1","undefined","1","left","48","48","48","0","0","48","48","0","0","48","48","48","0","48","0","Sat Oct 15 08:23:20 2022","The main experiment item","yes","SternbergTask.osexp","/Users/alexisparrish/Documents/Advanced Quant. Methods/Lab 3/Lab 3.1","no","mono","no","18","no","white","no","yes","768","legacy","36","11","/Users/alexisparrish/Documents/Advanced Quant. Methods/Lab 3/Lab 3.1/ARP-subject-1.csv","legacy","9 6 2 4 1","Lentiform Loewenfeld","3.3.12","4","y","0","left","caps lock","left","left","NA","450","14547","6982","450","NA","2","legacy","5","1024","2","48000","-16","experiment","1","odd","4","317627","314344","315413","4011","98955","315418","224403","4027","91973","319631","320081","316422","18576","319631","NA","Sternberg Task","47","35842","49","yes","1024"
"96","96","727.06","727.06","black","experiment","legacy","legacy","legacy","0","uniform","1","undefined","1","right","49","49","49","0","0","49","49","0","0","49","49","49","0","49","0","Sat Oct 15 08:23:20 2022","The main experiment item","yes","SternbergTask.osexp","/Users/alexisparrish/Documents/Advanced Quant. Methods/Lab 3/Lab 3.1","no","mono","no","18","no","white","no","yes","768","legacy","37","11","/Users/alexisparrish/Documents/Advanced Quant. Methods/Lab 3/Lab 3.1/ARP-subject-1.csv","legacy","8 9","Lentiform Loewenfeld","3.3.12","0","n","0","right","caps lock","left","right","NA","511","14547","6982","511","NA","2","legacy","2","1024","2","48000","-16","experiment","1","odd","5","323371","320093","321157","4011","98955","321162","224403","4027","91973","325375","325887","322166","18576","325375","NA","Sternberg Task","48","36353","50","yes","1024"
"96.07843137254902","96.07843137254902","727.156862745098","727.156862745098","black","experiment","legacy","legacy","legacy","0","uniform","1","undefined","1","left","50","50","50","0","0","50","50","0","0","50","50","50","0","50","0","Sat Oct 15 08:23:20 2022","The main experiment item","yes","SternbergTask.osexp","/Users/alexisparrish/Documents/Advanced Quant. Methods/Lab 3/Lab 3.1","no","mono","no","18","no","white","no","yes","768","legacy","38","11","/Users/alexisparrish/Documents/Advanced Quant. Methods/Lab 3/Lab 3.1/ARP-subject-1.csv","legacy","1 4 9 3 2 5","Lentiform Loewenfeld","3.3.12","3","y","0","left","caps lock","left","left","NA","732","14547","6982","732","NA","2","legacy","6","1024","2","48000","-16","experiment","1","odd","9","329182","325899","326969","4011","98955","326973","224403","4027","91973","331186","331919","327977","18576","331186","NA","Sternberg Task","49","37085","51","yes","1024"
"96.15384615384616","96.15384615384616","724.7692307692307","724.7692307692307","black","experiment","legacy","legacy","legacy","0","uniform","1","undefined","1","right","51","51","51","0","0","51","51","0","0","51","51","51","0","51","0","Sat Oct 15 08:23:20 2022","The main experiment item","yes","SternbergTask.osexp","/Users/alexisparrish/Documents/Advanced Quant. Methods/Lab 3/Lab 3.1","no","mono","no","18","no","white","no","yes","768","legacy","39","11","/Users/alexisparrish/Documents/Advanced Quant. Methods/Lab 3/Lab 3.1/ARP-subject-1.csv","legacy","1 7 8 3 9","Lentiform Loewenfeld","3.3.12","0","n","0","right","caps lock","left","right","NA","603","14547","6982","603","NA","2","legacy","5","1024","2","48000","-16","experiment","1","odd","2","335208","331930","332994","4011","98955","332999","224403","4027","91973","337212","337816","334003","18576","337212","NA","Sternberg Task","50","37688","52","yes","1024"
"96.22641509433963","96.22641509433963","724.6415094339623","724.6415094339623","black","experiment","legacy","legacy","legacy","0","uniform","1","undefined","1","right","52","52","52","0","0","52","52","0","0","52","52","52","0","52","0","Sat Oct 15 08:23:20 2022","The main experiment item","yes","SternbergTask.osexp","/Users/alexisparrish/Documents/Advanced Quant. Methods/Lab 3/Lab 3.1","no","mono","no","18","no","white","no","yes","768","legacy","40","11","/Users/alexisparrish/Documents/Advanced Quant. Methods/Lab 3/Lab 3.1/ARP-subject-1.csv","legacy","8 4 3 5","Lentiform Loewenfeld","3.3.12","0","n","0","right","caps lock","left","right","NA","718","14547","6982","718","NA","2","legacy","4","1024","2","48000","-16","experiment","1","odd","6","341108","337827","338894","4011","98955","338898","224403","4027","91973","343112","343831","339902","18576","343112","NA","Sternberg Task","51","38406","53","yes","1024"
"96.29629629629629","96.29629629629629","721.7407407407408","721.7407407407408","black","experiment","legacy","legacy","legacy","0","uniform","1","undefined","1","right","53","53","53","0","0","53","53","0","0","53","53","53","0","53","0","Sat Oct 15 08:23:20 2022","The main experiment item","yes","SternbergTask.osexp","/Users/alexisparrish/Documents/Advanced Quant. Methods/Lab 3/Lab 3.1","no","mono","no","18","no","white","no","yes","768","legacy","41","11","/Users/alexisparrish/Documents/Advanced Quant. Methods/Lab 3/Lab 3.1/ARP-subject-1.csv","legacy","1","Lentiform Loewenfeld","3.3.12","0","n","0","right","caps lock","left","right","NA","568","14547","6982","568","NA","2","legacy","1","1024","2","48000","-16","experiment","1","odd","7","347119","343843","344906","4011","98955","344910","224403","4027","91973","349123","349692","345914","18576","349123","NA","Sternberg Task","52","38974","54","yes","1024"
"96.36363636363636","96.36363636363636","723","723","black","experiment","legacy","legacy","legacy","0","uniform","1","undefined","1","left","54","54","54","0","0","54","54","0","0","54","54","54","0","54","0","Sat Oct 15 08:23:20 2022","The main experiment item","yes","SternbergTask.osexp","/Users/alexisparrish/Documents/Advanced Quant. Methods/Lab 3/Lab 3.1","no","mono","no","18","no","white","no","yes","768","legacy","42","11","/Users/alexisparrish/Documents/Advanced Quant. Methods/Lab 3/Lab 3.1/ARP-subject-1.csv","legacy","3 2 1 4 7","Lentiform Loewenfeld","3.3.12","2","y","0","left","caps lock","left","left","NA","791","14547","6982","791","NA","2","legacy","5","1024","2","48000","-16","experiment","1","odd","2","352986","349703","350772","4011","98955","350776","224403","4027","91973","354990","355782","351780","18576","354990","NA","Sternberg Task","53","39765","55","yes","1024"
"96.42857142857143","96.42857142857143","720.8571428571429","720.8571428571429","black","experiment","legacy","legacy","legacy","0","uniform","1","undefined","1","right","55","55","55","0","0","55","55","0","0","55","55","55","0","55","0","Sat Oct 15 08:23:20 2022","The main experiment item","yes","SternbergTask.osexp","/Users/alexisparrish/Documents/Advanced Quant. Methods/Lab 3/Lab 3.1","no","mono","no","18","no","white","no","yes","768","legacy","43","11","/Users/alexisparrish/Documents/Advanced Quant. Methods/Lab 3/Lab 3.1/ARP-subject-1.csv","legacy","8 6 3 4 7","Lentiform Loewenfeld","3.3.12","0","n","0","right","caps lock","left","right","NA","603","14547","6982","603","NA","2","legacy","5","1024","2","48000","-16","experiment","1","odd","1","359075","355793","356861","4011","98955","356866","224403","4027","91973","361079","361683","357870","18576","361079","NA","Sternberg Task","54","40368","56","yes","1024"
"96.49122807017544","96.49122807017544","718.0877192982456","718.0877192982456","black","experiment","legacy","legacy","legacy","0","uniform","1","undefined","1","right","56","56","56","0","0","56","56","0","0","56","56","56","0","56","0","Sat Oct 15 08:23:20 2022","The main experiment item","yes","SternbergTask.osexp","/Users/alexisparrish/Documents/Advanced Quant. Methods/Lab 3/Lab 3.1","no","mono","no","18","no","white","no","yes","768","legacy","44","11","/Users/alexisparrish/Documents/Advanced Quant. Methods/Lab 3/Lab 3.1/ARP-subject-1.csv","legacy","2 6 4 3 9","Lentiform Loewenfeld","3.3.12","0","n","0","right","caps lock","left","right","NA","563","14547","6982","563","NA","2","legacy","5","1024","2","48000","-16","experiment","1","odd","1","364972","361694","362758","4011","98955","362763","224403","4027","91973","366977","367541","363767","18576","366977","NA","Sternberg Task","55","40931","57","yes","1024"
"96.55172413793103","96.55172413793103","718.3448275862069","718.3448275862069","black","experiment","legacy","legacy","legacy","0","uniform","1","undefined","1","right","57","57","57","0","0","57","57","0","0","57","57","57","0","57","0","Sat Oct 15 08:23:20 2022","The main experiment item","yes","SternbergTask.osexp","/Users/alexisparrish/Documents/Advanced Quant. Methods/Lab 3/Lab 3.1","no","mono","no","18","no","white","no","yes","768","legacy","45","11","/Users/alexisparrish/Documents/Advanced Quant. Methods/Lab 3/Lab 3.1/ARP-subject-1.csv","legacy","6 3 1 7 9 8","Lentiform Loewenfeld","3.3.12","0","n","0","right","caps lock","left","right","NA","733","14547","6982","733","NA","2","legacy","6","1024","2","48000","-16","experiment","1","odd","4","370832","367553","368618","4011","98955","368623","224403","4027","91973","372836","373570","369627","18576","372836","NA","Sternberg Task","56","41664","58","yes","1024"
"96.61016949152543","96.61016949152543","716.7966101694915","716.7966101694915","black","experiment","legacy","legacy","legacy","0","uniform","1","undefined","1","right","58","58","58","0","0","58","58","0","0","58","58","58","0","58","0","Sat Oct 15 08:23:20 2022","The main experiment item","yes","SternbergTask.osexp","/Users/alexisparrish/Documents/Advanced Quant. Methods/Lab 3/Lab 3.1","no","mono","no","18","no","white","no","yes","768","legacy","46","11","/Users/alexisparrish/Documents/Advanced Quant. Methods/Lab 3/Lab 3.1/ARP-subject-1.csv","legacy","4 2 7 6 1 3","Lentiform Loewenfeld","3.3.12","0","n","0","right","caps lock","left","right","NA","627","14547","6982","627","NA","2","legacy","6","1024","2","48000","-16","experiment","1","odd","8","376859","373581","374646","4011","98955","374650","224403","4027","91973","378863","379491","375654","18576","378863","NA","Sternberg Task","57","42291","59","yes","1024"
"96.66666666666667","96.66666666666667","715.0333333333333","715.0333333333333","black","experiment","legacy","legacy","legacy","0","uniform","1","undefined","1","left","59","59","59","0","0","59","59","0","0","59","59","59","0","59","0","Sat Oct 15 08:23:20 2022","The main experiment item","yes","SternbergTask.osexp","/Users/alexisparrish/Documents/Advanced Quant. Methods/Lab 3/Lab 3.1","no","mono","no","18","no","white","no","yes","768","legacy","47","11","/Users/alexisparrish/Documents/Advanced Quant. Methods/Lab 3/Lab 3.1/ARP-subject-1.csv","legacy","5 7 3 6 2","Lentiform Loewenfeld","3.3.12","5","y","0","left","caps lock","left","left","NA","611","14547","6982","611","NA","2","legacy","5","1024","2","48000","-16","experiment","1","odd","2","382781","379502","380568","4011","98955","380573","224403","4027","91973","384785","385397","381577","18576","384785","NA","Sternberg Task","58","42902","60","yes","1024"
"96.72131147540983","96.72131147540983","714.311475409836","714.311475409836","black","experiment","legacy","legacy","legacy","0","uniform","1","undefined","1","right","60","60","60","0","0","60","60","0","0","60","60","60","0","60","0","Sat Oct 15 08:23:20 2022","The main experiment item","yes","SternbergTask.osexp","/Users/alexisparrish/Documents/Advanced Quant. Methods/Lab 3/Lab 3.1","no","mono","no","18","no","white","no","yes","768","legacy","48","11","/Users/alexisparrish/Documents/Advanced Quant. Methods/Lab 3/Lab 3.1/ARP-subject-1.csv","legacy","7 1 8 4 9 3","Lentiform Loewenfeld","3.3.12","0","n","0","right","caps lock","left","right","NA","671","14547","6982","671","NA","2","legacy","6","1024","2","48000","-16","experiment","1","odd","6","388686","385409","386473","4011","98955","386477","224403","4027","91973","390690","391362","387481","18576","390690","NA","Sternberg Task","59","43573","61","yes","1024"
"95.16129032258064","95.16129032258064","716","716","black","experiment","legacy","legacy","legacy","0","uniform","0","undefined","0","right","61","61","61","0","0","61","61","0","0","61","61","61","0","61","0","Sat Oct 15 08:23:20 2022","The main experiment item","yes","SternbergTask.osexp","/Users/alexisparrish/Documents/Advanced Quant. Methods/Lab 3/Lab 3.1","no","mono","no","18","no","white","no","yes","768","legacy","49","11","/Users/alexisparrish/Documents/Advanced Quant. Methods/Lab 3/Lab 3.1/ARP-subject-1.csv","legacy","6 9 4 5 3 2","Lentiform Loewenfeld","3.3.12","0","n","0","left","caps lock","left","left","NA","819","14547","6982","819","NA","2","legacy","6","1024","2","48000","-16","experiment","1","odd","8","394657","391373","392442","4011","98955","392447","224403","4027","91973","396661","397481","393452","18576","396661","NA","Sternberg Task","59","44392","62","yes","1024"
"95.23809523809524","95.23809523809524","715.2063492063492","715.2063492063492","black","experiment","legacy","legacy","legacy","0","uniform","1","undefined","1","right","62","62","62","0","0","62","62","0","0","62","62","62","0","62","0","Sat Oct 15 08:23:20 2022","The main experiment item","yes","SternbergTask.osexp","/Users/alexisparrish/Documents/Advanced Quant. Methods/Lab 3/Lab 3.1","no","mono","no","18","no","white","no","yes","768","legacy","50","11","/Users/alexisparrish/Documents/Advanced Quant. Methods/Lab 3/Lab 3.1/ARP-subject-1.csv","legacy","7 3 2 8","Lentiform Loewenfeld","3.3.12","0","n","0","right","caps lock","left","right","NA","666","14547","6982","666","NA","2","legacy","4","1024","2","48000","-16","experiment","1","odd","4","400771","391373","398558","4011","98955","398562","397492","4027","91973","402776","403443","399566","18576","402776","NA","Sternberg Task","60","45058","63","yes","1024"
"95.3125","95.3125","717.78125","717.78125","black","experiment","legacy","legacy","legacy","0","uniform","1","undefined","1","left","63","63","63","0","0","63","63","0","0","63","63","63","0","63","0","Sat Oct 15 08:23:20 2022","The main experiment item","yes","SternbergTask.osexp","/Users/alexisparrish/Documents/Advanced Quant. Methods/Lab 3/Lab 3.1","no","mono","no","18","no","white","no","yes","768","legacy","51","11","/Users/alexisparrish/Documents/Advanced Quant. Methods/Lab 3/Lab 3.1/ARP-subject-1.csv","legacy","3 5 4 7","Lentiform Loewenfeld","3.3.12","1","y","0","left","caps lock","left","left","NA","880","14547","6982","880","NA","2","legacy","4","1024","2","48000","-16","experiment","1","odd","3","406736","403455","404523","4011","98955","404528","397492","4027","91973","408740","409620","405532","18576","408740","NA","Sternberg Task","61","45938","64","yes","1024"
"95.38461538461539","95.38461538461539","721.3692307692307","721.3692307692307","black","experiment","legacy","legacy","legacy","0","uniform","1","undefined","1","right","64","64","64","0","0","64","64","0","0","64","64","64","0","64","0","Sat Oct 15 08:23:20 2022","The main experiment item","yes","SternbergTask.osexp","/Users/alexisparrish/Documents/Advanced Quant. Methods/Lab 3/Lab 3.1","no","mono","no","18","no","white","no","yes","768","legacy","52","11","/Users/alexisparrish/Documents/Advanced Quant. Methods/Lab 3/Lab 3.1/ARP-subject-1.csv","legacy","7 8 6 1","Lentiform Loewenfeld","3.3.12","0","n","0","right","caps lock","left","right","NA","951","14547","6982","951","NA","2","legacy","4","1024","2","48000","-16","experiment","1","odd","3","412910","409632","410697","4011","98955","410701","397492","4027","91973","414915","415867","411705","18576","414915","NA","Sternberg Task","62","46889","65","yes","1024"
"95.45454545454545","95.45454545454545","719.0151515151515","719.0151515151515","black","experiment","legacy","legacy","legacy","0","uniform","1","undefined","1","left","65","65","65","0","0","65","65","0","0","65","65","65","0","65","0","Sat Oct 15 08:23:20 2022","The main experiment item","yes","SternbergTask.osexp","/Users/alexisparrish/Documents/Advanced Quant. Methods/Lab 3/Lab 3.1","no","mono","no","18","no","white","no","yes","768","legacy","53","11","/Users/alexisparrish/Documents/Advanced Quant. Methods/Lab 3/Lab 3.1/ARP-subject-1.csv","legacy","9 8 4","Lentiform Loewenfeld","3.3.12","1","y","0","left","caps lock","left","left","NA","566","14547","6982","566","NA","2","legacy","3","1024","2","48000","-16","experiment","1","odd","9","419155","415879","416941","4011","98955","416946","397492","4027","91973","421159","421726","417950","18576","421159","NA","Sternberg Task","63","47455","66","yes","1024"
"95.5223880597015","95.5223880597015","718.6716417910447","718.6716417910447","black","experiment","legacy","legacy","legacy","0","uniform","1","undefined","1","left","66","66","66","0","0","66","66","0","0","66","66","66","0","66","0","Sat Oct 15 08:23:20 2022","The main experiment item","yes","SternbergTask.osexp","/Users/alexisparrish/Documents/Advanced Quant. Methods/Lab 3/Lab 3.1","no","mono","no","18","no","white","no","yes","768","legacy","54","11","/Users/alexisparrish/Documents/Advanced Quant. Methods/Lab 3/Lab 3.1/ARP-subject-1.csv","legacy","8 3","Lentiform Loewenfeld","3.3.12","2","y","0","left","caps lock","left","left","NA","696","14547","6982","696","NA","2","legacy","2","1024","2","48000","-16","experiment","1","odd","3","425029","421738","422806","4011","98955","422810","397492","4027","91973","427033","427730","423823","18576","427033","NA","Sternberg Task","64","48151","67","yes","1024"
"95.58823529411765","95.58823529411765","720.2941176470588","720.2941176470588","black","experiment","legacy","legacy","legacy","0","uniform","1","undefined","1","right","67","67","67","0","0","67","67","0","0","67","67","67","0","67","0","Sat Oct 15 08:23:20 2022","The main experiment item","yes","SternbergTask.osexp","/Users/alexisparrish/Documents/Advanced Quant. Methods/Lab 3/Lab 3.1","no","mono","no","18","no","white","no","yes","768","legacy","55","11","/Users/alexisparrish/Documents/Advanced Quant. Methods/Lab 3/Lab 3.1/ARP-subject-1.csv","legacy","1 4 9 2 5","Lentiform Loewenfeld","3.3.12","0","n","0","right","caps lock","left","right","NA","829","14547","6982","829","NA","2","legacy","5","1024","2","48000","-16","experiment","1","odd","7","431022","427741","428809","4011","98955","428813","397492","4027","91973","433026","433856","429817","18576","433026","NA","Sternberg Task","65","48980","68","yes","1024"
"95.65217391304348","95.65217391304348","717.304347826087","717.304347826087","black","experiment","legacy","legacy","legacy","0","uniform","1","undefined","1","left","68","68","68","0","0","68","68","0","0","68","68","68","0","68","0","Sat Oct 15 08:23:20 2022","The main experiment item","yes","SternbergTask.osexp","/Users/alexisparrish/Documents/Advanced Quant. Methods/Lab 3/Lab 3.1","no","mono","no","18","no","white","no","yes","768","legacy","56","11","/Users/alexisparrish/Documents/Advanced Quant. Methods/Lab 3/Lab 3.1/ARP-subject-1.csv","legacy","4 7 6 8 2 3","Lentiform Loewenfeld","3.3.12","6","y","0","left","caps lock","left","left","NA","514","14547","6982","514","NA","2","legacy","6","1024","2","48000","-16","experiment","1","odd","3","437151","433868","434937","4011","98955","434941","397492","4027","91973","439155","439670","435946","18576","439155","NA","Sternberg Task","66","49494","69","yes","1024"
"95.71428571428571","95.71428571428571","718.6285714285714","718.6285714285714","black","experiment","legacy","legacy","legacy","0","uniform","1","undefined","1","left","69","69","69","0","0","69","69","0","0","69","69","69","0","69","0","Sat Oct 15 08:23:20 2022","The main experiment item","yes","SternbergTask.osexp","/Users/alexisparrish/Documents/Advanced Quant. Methods/Lab 3/Lab 3.1","no","mono","no","18","no","white","no","yes","768","legacy","57","11","/Users/alexisparrish/Documents/Advanced Quant. Methods/Lab 3/Lab 3.1/ARP-subject-1.csv","legacy","2 4 8 5 1 3","Lentiform Loewenfeld","3.3.12","1","y","0","left","caps lock","left","left","NA","810","14547","6982","810","NA","2","legacy","6","1024","2","48000","-16","experiment","1","odd","2","442963","439681","440749","4011","98955","440753","397492","4027","91973","444967","445779","441758","18576","444967","NA","Sternberg Task","67","50304","70","yes","1024"
"94.36619718309859","94.36619718309859","715.9295774647887","715.9295774647887","black","experiment","legacy","legacy","legacy","0","uniform","0","undefined","0","left","70","70","70","0","0","70","70","0","0","70","70","70","0","70","0","Sat Oct 15 08:23:20 2022","The main experiment item","yes","SternbergTask.osexp","/Users/alexisparrish/Documents/Advanced Quant. Methods/Lab 3/Lab 3.1","no","mono","no","18","no","white","no","yes","768","legacy","58","11","/Users/alexisparrish/Documents/Advanced Quant. Methods/Lab 3/Lab 3.1/ARP-subject-1.csv","legacy","7 6","Lentiform Loewenfeld","3.3.12","2","y","0","right","caps lock","left","right","NA","527","14547","6982","527","NA","2","legacy","2","1024","2","48000","-16","experiment","1","odd","6","449069","445789","446855","4011","98955","446859","397492","4027","91973","451073","451601","447864","18576","451073","NA","Sternberg Task","67","50831","71","yes","1024"
"94.44444444444444","94.44444444444444","719.0694444444445","719.0694444444445","black","experiment","legacy","legacy","legacy","0","uniform","1","undefined","1","right","71","71","71","0","0","71","71","0","0","71","71","71","0","71","0","Sat Oct 15 08:23:20 2022","The main experiment item","yes","SternbergTask.osexp","/Users/alexisparrish/Documents/Advanced Quant. Methods/Lab 3/Lab 3.1","no","mono","no","18","no","white","no","yes","768","legacy","59","11","/Users/alexisparrish/Documents/Advanced Quant. Methods/Lab 3/Lab 3.1/ARP-subject-1.csv","legacy","1 6 4 3 9 7","Lentiform Loewenfeld","3.3.12","0","n","0","right","caps lock","left","right","NA","942","14547","6982","942","NA","2","legacy","6","1024","2","48000","-16","experiment","1","odd","8","454896","445789","452683","4011","98955","452687","451612","4027","91973","456900","457844","453691","18576","456900","NA","Sternberg Task","68","51773","72","yes","1024"
"94.52054794520548","94.52054794520548","717.1643835616438","717.1643835616438","black","experiment","legacy","legacy","legacy","0","uniform","1","undefined","1","left","72","72","72","0","0","72","72","0","0","72","72","72","0","72","0","Sat Oct 15 08:23:20 2022","The main experiment item","yes","SternbergTask.osexp","/Users/alexisparrish/Documents/Advanced Quant. Methods/Lab 3/Lab 3.1","no","mono","no","18","no","white","no","yes","768","legacy","60","11","/Users/alexisparrish/Documents/Advanced Quant. Methods/Lab 3/Lab 3.1/ARP-subject-1.csv","legacy","7 8 6 3 1","Lentiform Loewenfeld","3.3.12","5","y","0","left","caps lock","left","left","NA","580","14547","6982","580","NA","2","legacy","5","1024","2","48000","-16","experiment","1","odd","1","461132","457851","458918","4011","98955","458923","451612","4027","91973","463136","463718","459927","18576","463136","NA","Sternberg Task","69","52353","73","yes","1024"
"94.5945945945946","94.5945945945946","717.8783783783783","717.8783783783783","black","experiment","legacy","legacy","legacy","0","uniform","1","undefined","1","right","73","73","73","0","0","73","73","0","0","73","73","73","0","73","0","Sat Oct 15 08:23:20 2022","The main experiment item","yes","SternbergTask.osexp","/Users/alexisparrish/Documents/Advanced Quant. Methods/Lab 3/Lab 3.1","no","mono","no","18","no","white","no","yes","768","legacy","61","11","/Users/alexisparrish/Documents/Advanced Quant. Methods/Lab 3/Lab 3.1/ARP-subject-1.csv","legacy","5 3 8 7 2 4","Lentiform Loewenfeld","3.3.12","0","n","0","right","caps lock","left","right","NA","770","14547","6982","770","NA","2","legacy","6","1024","2","48000","-16","experiment","1","odd","9","467011","463729","464797","4011","98955","464802","451612","4027","91973","469015","469786","465806","18576","469015","NA","Sternberg Task","70","53123","74","yes","1024"
"94.66666666666667","94.66666666666667","715.0266666666666","715.0266666666666","black","experiment","legacy","legacy","legacy","0","uniform","1","undefined","1","left","74","74","74","0","0","74","74","0","0","74","74","74","0","74","0","Sat Oct 15 08:23:20 2022","The main experiment item","yes","SternbergTask.osexp","/Users/alexisparrish/Documents/Advanced Quant. Methods/Lab 3/Lab 3.1","no","mono","no","18","no","white","no","yes","768","legacy","62","11","/Users/alexisparrish/Documents/Advanced Quant. Methods/Lab 3/Lab 3.1/ARP-subject-1.csv","legacy","5 2 6","Lentiform Loewenfeld","3.3.12","2","y","0","left","caps lock","left","left","NA","504","14547","6982","504","NA","2","legacy","3","1024","2","48000","-16","experiment","1","odd","2","473079","469798","470864","4011","98955","470869","451612","4027","91973","475083","475588","471873","18576","475083","NA","Sternberg Task","71","53627","75","yes","1024"
"94.73684210526316","94.73684210526316","712.5394736842105","712.5394736842105","black","experiment","legacy","legacy","legacy","0","uniform","1","undefined","1","left","75","75","75","0","0","75","75","0","0","75","75","75","0","75","0","Sat Oct 15 08:23:20 2022","The main experiment item","yes","SternbergTask.osexp","/Users/alexisparrish/Documents/Advanced Quant. Methods/Lab 3/Lab 3.1","no","mono","no","18","no","white","no","yes","768","legacy","63","11","/Users/alexisparrish/Documents/Advanced Quant. Methods/Lab 3/Lab 3.1/ARP-subject-1.csv","legacy","7 1 3","Lentiform Loewenfeld","3.3.12","2","y","0","left","caps lock","left","left","NA","526","14547","6982","526","NA","2","legacy","3","1024","2","48000","-16","experiment","1","odd","1","478870","475595","476656","4011","98955","476661","451612","4027","91973","480874","481401","477665","18576","480874","NA","Sternberg Task","72","54153","76","yes","1024"
"94.8051948051948","94.8051948051948","713.6753246753246","713.6753246753246","black","experiment","legacy","legacy","legacy","0","uniform","1","undefined","1","left","76","76","76","0","0","76","76","0","0","76","76","76","0","76","0","Sat Oct 15 08:23:20 2022","The main experiment item","yes","SternbergTask.osexp","/Users/alexisparrish/Documents/Advanced Quant. Methods/Lab 3/Lab 3.1","no","mono","no","18","no","white","no","yes","768","legacy","64","11","/Users/alexisparrish/Documents/Advanced Quant. Methods/Lab 3/Lab 3.1/ARP-subject-1.csv","legacy","7 8 4 6 9 5","Lentiform Loewenfeld","3.3.12","4","y","0","left","caps lock","left","left","NA","800","14547","6982","800","NA","2","legacy","6","1024","2","48000","-16","experiment","1","odd","6","484718","481413","482503","4011","98955","482509","451612","4027","91973","486722","487523","483513","18576","486722","NA","Sternberg Task","73","54953","77","yes","1024"
"94.87179487179488","94.87179487179488","716.9102564102565","716.9102564102565","black","experiment","legacy","legacy","legacy","0","uniform","1","undefined","1","right","77","77","77","0","0","77","77","0","0","77","77","77","0","77","0","Sat Oct 15 08:23:20 2022","The main experiment item","yes","SternbergTask.osexp","/Users/alexisparrish/Documents/Advanced Quant. Methods/Lab 3/Lab 3.1","no","mono","no","18","no","white","no","yes","768","legacy","65","11","/Users/alexisparrish/Documents/Advanced Quant. Methods/Lab 3/Lab 3.1/ARP-subject-1.csv","legacy","9 5 3 2 8 6","Lentiform Loewenfeld","3.3.12","0","n","0","right","caps lock","left","right","NA","966","14547","6982","966","NA","2","legacy","6","1024","2","48000","-16","experiment","1","odd","7","490813","487533","488599","4011","98955","488603","451612","4027","91973","492817","493785","489608","18576","492817","NA","Sternberg Task","74","55919","78","yes","1024"
"94.9367088607595","94.9367088607595","713.3924050632911","713.3924050632911","black","experiment","legacy","legacy","legacy","0","uniform","1","undefined","1","left","78","78","78","0","0","78","78","0","0","78","78","78","0","78","0","Sat Oct 15 08:23:20 2022","The main experiment item","yes","SternbergTask.osexp","/Users/alexisparrish/Documents/Advanced Quant. Methods/Lab 3/Lab 3.1","no","mono","no","18","no","white","no","yes","768","legacy","66","11","/Users/alexisparrish/Documents/Advanced Quant. Methods/Lab 3/Lab 3.1/ARP-subject-1.csv","legacy","4 6 5 8","Lentiform Loewenfeld","3.3.12","1","y","0","left","caps lock","left","left","NA","439","14547","6982","439","NA","2","legacy","4","1024","2","48000","-16","experiment","1","odd","4","497074","493795","494861","4011","98955","494865","451612","4027","91973","499078","499518","495869","18576","499078","NA","Sternberg Task","75","56358","79","yes","1024"
"95","95","713.4625","713.4625","black","experiment","legacy","legacy","legacy","0","uniform","1","undefined","1","right","79","79","79","0","0","79","79","0","0","79","79","79","0","79","0","Sat Oct 15 08:23:20 2022","The main experiment item","yes","SternbergTask.osexp","/Users/alexisparrish/Documents/Advanced Quant. Methods/Lab 3/Lab 3.1","no","mono","no","18","no","white","no","yes","768","legacy","67","11","/Users/alexisparrish/Documents/Advanced Quant. Methods/Lab 3/Lab 3.1/ARP-subject-1.csv","legacy","3 9 8 1 6 4","Lentiform Loewenfeld","3.3.12","0","n","0","right","caps lock","left","right","NA","719","14547","6982","719","NA","2","legacy","6","1024","2","48000","-16","experiment","1","odd","7","502816","499530","500599","4011","98955","500604","451612","4027","91973","504820","505540","501608","18576","504820","NA","Sternberg Task","76","57077","80","yes","1024"
"95.06172839506173","95.06172839506173","711.2962962962963","711.2962962962963","black","experiment","legacy","legacy","legacy","0","uniform","1","undefined","1","left","80","80","80","0","0","80","80","0","0","80","80","80","0","80","0","Sat Oct 15 08:23:20 2022","The main experiment item","yes","SternbergTask.osexp","/Users/alexisparrish/Documents/Advanced Quant. Methods/Lab 3/Lab 3.1","no","mono","no","18","no","white","no","yes","768","legacy","68","11","/Users/alexisparrish/Documents/Advanced Quant. Methods/Lab 3/Lab 3.1/ARP-subject-1.csv","legacy","4 1 5","Lentiform Loewenfeld","3.3.12","2","y","0","left","caps lock","left","left","NA","538","14547","6982","538","NA","2","legacy","3","1024","2","48000","-16","experiment","1","odd","1","508835","505552","506621","4011","98955","506626","451612","4027","91973","510839","511378","507630","18576","510839","NA","Sternberg Task","77","57615","81","yes","1024"
"95.1219512195122","95.1219512195122","709.5365853658536","709.5365853658536","black","experiment","legacy","legacy","legacy","0","uniform","1","undefined","1","left","81","81","81","0","0","81","81","0","0","81","81","81","0","81","0","Sat Oct 15 08:23:20 2022","The main experiment item","yes","SternbergTask.osexp","/Users/alexisparrish/Documents/Advanced Quant. Methods/Lab 3/Lab 3.1","no","mono","no","18","no","white","no","yes","768","legacy","69","11","/Users/alexisparrish/Documents/Advanced Quant. Methods/Lab 3/Lab 3.1/ARP-subject-1.csv","legacy","2 5 4 8 7","Lentiform Loewenfeld","3.3.12","3","y","0","left","caps lock","left","left","NA","567","14547","6982","567","NA","2","legacy","5","1024","2","48000","-16","experiment","1","odd","4","514682","511390","512468","4011","98955","512473","451612","4027","91973","516693","517261","513477","18576","516693","NA","Sternberg Task","78","58182","82","yes","1024"
"95.18072289156626","95.18072289156626","710.7469879518072","710.7469879518072","black","experiment","legacy","legacy","legacy","0","uniform","1","undefined","1","right","82","82","82","0","0","82","82","0","0","82","82","82","0","82","0","Sat Oct 15 08:23:20 2022","The main experiment item","yes","SternbergTask.osexp","/Users/alexisparrish/Documents/Advanced Quant. Methods/Lab 3/Lab 3.1","no","mono","no","18","no","white","no","yes","768","legacy","70","11","/Users/alexisparrish/Documents/Advanced Quant. Methods/Lab 3/Lab 3.1/ARP-subject-1.csv","legacy","6 9 5","Lentiform Loewenfeld","3.3.12","0","n","0","right","caps lock","left","right","NA","810","14547","6982","810","NA","2","legacy","3","1024","2","48000","-16","experiment","1","odd","8","520551","517271","518337","4011","98955","518341","451612","4027","91973","522555","523366","519346","18576","522555","NA","Sternberg Task","79","58992","83","yes","1024"
"95.23809523809524","95.23809523809524","710.4285714285714","710.4285714285714","black","experiment","legacy","legacy","legacy","0","uniform","1","undefined","1","left","83","83","83","0","0","83","83","0","0","83","83","83","0","83","0","Sat Oct 15 08:23:20 2022","The main experiment item","yes","SternbergTask.osexp","/Users/alexisparrish/Documents/Advanced Quant. Methods/Lab 3/Lab 3.1","no","mono","no","18","no","white","no","yes","768","legacy","71","11","/Users/alexisparrish/Documents/Advanced Quant. Methods/Lab 3/Lab 3.1/ARP-subject-1.csv","legacy","9 5 3 8 4","Lentiform Loewenfeld","3.3.12","1","y","0","left","caps lock","left","left","NA","684","14547","6982","684","NA","2","legacy","5","1024","2","48000","-16","experiment","1","odd","9","526655","523376","524441","4011","98955","524446","451612","4027","91973","528659","529344","525450","18576","528659","NA","Sternberg Task","80","59676","84","yes","1024"
"95.29411764705883","95.29411764705883","710.035294117647","710.035294117647","black","experiment","legacy","legacy","legacy","0","uniform","1","undefined","1","left","84","84","84","0","0","84","84","0","0","84","84","84","0","84","0","Sat Oct 15 08:23:20 2022","The main experiment item","yes","SternbergTask.osexp","/Users/alexisparrish/Documents/Advanced Quant. Methods/Lab 3/Lab 3.1","no","mono","no","18","no","white","no","yes","768","legacy","72","11","/Users/alexisparrish/Documents/Advanced Quant. Methods/Lab 3/Lab 3.1/ARP-subject-1.csv","legacy","3 5 7 1","Lentiform Loewenfeld","3.3.12","3","y","0","left","caps lock","left","left","NA","677","14547","6982","677","NA","2","legacy","4","1024","2","48000","-16","experiment","1","odd","7","532633","529356","530420","4011","98955","530424","451612","4027","91973","534637","535316","531428","18576","534637","NA","Sternberg Task","81","60353","85","yes","1024"
"95.34883720930233","95.34883720930233","712.4069767441861","712.4069767441861","black","experiment","legacy","legacy","legacy","0","uniform","1","undefined","1","right","85","85","85","0","0","85","85","0","0","85","85","85","0","85","0","Sat Oct 15 08:23:20 2022","The main experiment item","yes","SternbergTask.osexp","/Users/alexisparrish/Documents/Advanced Quant. Methods/Lab 3/Lab 3.1","no","mono","no","18","no","white","no","yes","768","legacy","73","11","/Users/alexisparrish/Documents/Advanced Quant. Methods/Lab 3/Lab 3.1/ARP-subject-1.csv","legacy","6 9 4 5 2","Lentiform Loewenfeld","3.3.12","0","n","0","right","caps lock","left","right","NA","914","14547","6982","914","NA","2","legacy","5","1024","2","48000","-16","experiment","1","odd","1","538610","535327","536396","4011","98955","536401","451612","4027","91973","540614","541529","537405","18576","540614","NA","Sternberg Task","82","61267","86","yes","1024"
"95.40229885057471","95.40229885057471","712.0689655172414","712.0689655172414","black","experiment","legacy","legacy","legacy","0","uniform","1","undefined","1","left","86","86","86","0","0","86","86","0","0","86","86","86","0","86","0","Sat Oct 15 08:23:20 2022","The main experiment item","yes","SternbergTask.osexp","/Users/alexisparrish/Documents/Advanced Quant. Methods/Lab 3/Lab 3.1","no","mono","no","18","no","white","no","yes","768","legacy","74","11","/Users/alexisparrish/Documents/Advanced Quant. Methods/Lab 3/Lab 3.1/ARP-subject-1.csv","legacy","7 2 3","Lentiform Loewenfeld","3.3.12","3","y","0","left","caps lock","left","left","NA","683","14547","6982","683","NA","2","legacy","3","1024","2","48000","-16","experiment","1","odd","3","544818","541538","542604","4011","98955","542609","451612","4027","91973","546822","547507","543613","18576","546822","NA","Sternberg Task","83","61950","87","yes","1024"
"95.45454545454545","95.45454545454545","713.3181818181819","713.3181818181819","black","experiment","legacy","legacy","legacy","0","uniform","1","undefined","1","right","87","87","87","0","0","87","87","0","0","87","87","87","0","87","0","Sat Oct 15 08:23:20 2022","The main experiment item","yes","SternbergTask.osexp","/Users/alexisparrish/Documents/Advanced Quant. Methods/Lab 3/Lab 3.1","no","mono","no","18","no","white","no","yes","768","legacy","75","11","/Users/alexisparrish/Documents/Advanced Quant. Methods/Lab 3/Lab 3.1/ARP-subject-1.csv","legacy","6 7 5 9","Lentiform Loewenfeld","3.3.12","0","n","0","right","caps lock","left","right","NA","822","14547","6982","822","NA","2","legacy","4","1024","2","48000","-16","experiment","1","odd","2","550801","547518","548587","4011","98955","548592","451612","4027","91973","552805","553628","549596","18576","552805","NA","Sternberg Task","84","62772","88","yes","1024"
"95.50561797752809","95.50561797752809","715.1797752808989","715.1797752808989","black","experiment","legacy","legacy","legacy","0","uniform","1","undefined","1","left","88","88","88","0","0","88","88","0","0","88","88","88","0","88","0","Sat Oct 15 08:23:20 2022","The main experiment item","yes","SternbergTask.osexp","/Users/alexisparrish/Documents/Advanced Quant. Methods/Lab 3/Lab 3.1","no","mono","no","18","no","white","no","yes","768","legacy","76","11","/Users/alexisparrish/Documents/Advanced Quant. Methods/Lab 3/Lab 3.1/ARP-subject-1.csv","legacy","4 9 7 8 5 3","Lentiform Loewenfeld","3.3.12","4","y","0","left","caps lock","left","left","NA","879","14547","6982","879","NA","2","legacy","6","1024","2","48000","-16","experiment","1","odd","8","556921","553640","554707","4011","98955","554712","451612","4027","91973","558925","559805","555716","18576","558925","NA","Sternberg Task","85","63651","89","yes","1024"
"95.55555555555556","95.55555555555556","718","718","black","experiment","legacy","legacy","legacy","0","uniform","1","undefined","1","right","89","89","89","0","0","89","89","0","0","89","89","89","0","89","0","Sat Oct 15 08:23:20 2022","The main experiment item","yes","SternbergTask.osexp","/Users/alexisparrish/Documents/Advanced Quant. Methods/Lab 3/Lab 3.1","no","mono","no","18","no","white","no","yes","768","legacy","77","11","/Users/alexisparrish/Documents/Advanced Quant. Methods/Lab 3/Lab 3.1/ARP-subject-1.csv","legacy","2 8 6 3 1","Lentiform Loewenfeld","3.3.12","0","n","0","right","caps lock","left","right","NA","969","14547","6982","969","NA","2","legacy","5","1024","2","48000","-16","experiment","1","odd","7","563095","559817","560881","4011","98955","560886","451612","4027","91973","565099","566069","561890","18576","565099","NA","Sternberg Task","86","64620","90","yes","1024"
"95.6043956043956","95.6043956043956","717.8791208791209","717.8791208791209","black","experiment","legacy","legacy","legacy","0","uniform","1","undefined","1","right","90","90","90","0","0","90","90","0","0","90","90","90","0","90","0","Sat Oct 15 08:23:20 2022","The main experiment item","yes","SternbergTask.osexp","/Users/alexisparrish/Documents/Advanced Quant. Methods/Lab 3/Lab 3.1","no","mono","no","18","no","white","no","yes","768","legacy","78","11","/Users/alexisparrish/Documents/Advanced Quant. Methods/Lab 3/Lab 3.1/ARP-subject-1.csv","legacy","9 8 2 7 4","Lentiform Loewenfeld","3.3.12","0","n","0","right","caps lock","left","right","NA","707","14547","6982","707","NA","2","legacy","5","1024","2","48000","-16","experiment","1","odd","5","569356","566080","567142","4011","98955","567147","451612","4027","91973","571360","572068","568151","18576","571360","NA","Sternberg Task","87","65327","91","yes","1024"
"95.65217391304348","95.65217391304348","716.7717391304348","716.7717391304348","black","experiment","legacy","legacy","legacy","0","uniform","1","undefined","1","left","91","91","91","0","0","91","91","0","0","91","91","91","0","91","0","Sat Oct 15 08:23:20 2022","The main experiment item","yes","SternbergTask.osexp","/Users/alexisparrish/Documents/Advanced Quant. Methods/Lab 3/Lab 3.1","no","mono","no","18","no","white","no","yes","768","legacy","79","11","/Users/alexisparrish/Documents/Advanced Quant. Methods/Lab 3/Lab 3.1/ARP-subject-1.csv","legacy","2 4 6 9","Lentiform Loewenfeld","3.3.12","3","y","0","left","caps lock","left","left","NA","616","14547","6982","616","NA","2","legacy","4","1024","2","48000","-16","experiment","1","odd","6","575352","572075","573138","4011","98955","573143","451612","4027","91973","577356","577973","574147","18576","577356","NA","Sternberg Task","88","65943","92","yes","1024"
"95.6989247311828","95.6989247311828","715.2688172043011","715.2688172043011","black","experiment","legacy","legacy","legacy","0","uniform","1","undefined","1","left","92","92","92","0","0","92","92","0","0","92","92","92","0","92","0","Sat Oct 15 08:23:20 2022","The main experiment item","yes","SternbergTask.osexp","/Users/alexisparrish/Documents/Advanced Quant. Methods/Lab 3/Lab 3.1","no","mono","no","18","no","white","no","yes","768","legacy","80","11","/Users/alexisparrish/Documents/Advanced Quant. Methods/Lab 3/Lab 3.1/ARP-subject-1.csv","legacy","7 4 2 6 3 5","Lentiform Loewenfeld","3.3.12","6","y","0","left","caps lock","left","left","NA","577","14547","6982","577","NA","2","legacy","6","1024","2","48000","-16","experiment","1","odd","5","581262","577984","579048","4011","98955","579052","451612","4027","91973","583266","583844","580057","18576","583266","NA","Sternberg Task","89","66520","93","yes","1024"
"95.74468085106383","95.74468085106383","713.6063829787234","713.6063829787234","black","experiment","legacy","legacy","legacy","0","uniform","1","undefined","1","left","93","93","93","0","0","93","93","0","0","93","93","93","0","93","0","Sat Oct 15 08:23:20 2022","The main experiment item","yes","SternbergTask.osexp","/Users/alexisparrish/Documents/Advanced Quant. Methods/Lab 3/Lab 3.1","no","mono","no","18","no","white","no","yes","768","legacy","81","11","/Users/alexisparrish/Documents/Advanced Quant. Methods/Lab 3/Lab 3.1/ARP-subject-1.csv","legacy","3 4 9 6 2 9","Lentiform Loewenfeld","3.3.12","5","y","0","left","caps lock","left","left","NA","559","14547","6982","559","NA","2","legacy","6","1024","2","48000","-16","experiment","1","odd","2","587137","583854","584923","4011","98955","584928","451612","4027","91973","589141","589701","585932","18576","589141","NA","Sternberg Task","90","67079","94","yes","1024"
"95.78947368421052","95.78947368421052","712.3789473684211","712.3789473684211","black","experiment","legacy","legacy","legacy","0","uniform","1","undefined","1","right","94","94","94","0","0","94","94","0","0","94","94","94","0","94","0","Sat Oct 15 08:23:20 2022","The main experiment item","yes","SternbergTask.osexp","/Users/alexisparrish/Documents/Advanced Quant. Methods/Lab 3/Lab 3.1","no","mono","no","18","no","white","no","yes","768","legacy","82","11","/Users/alexisparrish/Documents/Advanced Quant. Methods/Lab 3/Lab 3.1/ARP-subject-1.csv","legacy","5 7 3","Lentiform Loewenfeld","3.3.12","0","n","0","right","caps lock","left","right","NA","597","14547","6982","597","NA","2","legacy","3","1024","2","48000","-16","experiment","1","odd","9","592991","589713","590778","4011","98955","590782","451612","4027","91973","594995","595594","591786","18576","594995","NA","Sternberg Task","91","67676","95","yes","1024"
"95.83333333333333","95.83333333333333","714.0520833333334","714.0520833333334","black","experiment","legacy","legacy","legacy","0","uniform","1","undefined","1","right","95","95","95","0","0","95","95","0","0","95","95","95","0","95","0","Sat Oct 15 08:23:20 2022","The main experiment item","yes","SternbergTask.osexp","/Users/alexisparrish/Documents/Advanced Quant. Methods/Lab 3/Lab 3.1","no","mono","no","18","no","white","no","yes","768","legacy","83","11","/Users/alexisparrish/Documents/Advanced Quant. Methods/Lab 3/Lab 3.1/ARP-subject-1.csv","legacy","3 4 9 6 7 8","Lentiform Loewenfeld","3.3.12","0","n","0","right","caps lock","left","right","NA","873","14547","6982","873","NA","2","legacy","6","1024","2","48000","-16","experiment","1","odd","2","598878","595604","596664","4011","98955","596669","451612","4027","91973","600882","601756","597673","18576","600882","NA","Sternberg Task","92","68549","96","yes","1024"
"95.87628865979381","95.87628865979381","715.8969072164948","715.8969072164948","black","experiment","legacy","legacy","legacy","0","uniform","1","undefined","1","right","96","96","96","0","0","96","96","0","0","96","96","96","0","96","0","Sat Oct 15 08:23:20 2022","The main experiment item","yes","SternbergTask.osexp","/Users/alexisparrish/Documents/Advanced Quant. Methods/Lab 3/Lab 3.1","no","mono","no","18","no","white","no","yes","768","legacy","84","11","/Users/alexisparrish/Documents/Advanced Quant. Methods/Lab 3/Lab 3.1/ARP-subject-1.csv","legacy","2 7 5","Lentiform Loewenfeld","3.3.12","0","n","0","right","caps lock","left","right","NA","893","14547","6982","893","NA","2","legacy","3","1024","2","48000","-16","experiment","1","odd","8","605044","601768","602831","4011","98955","602835","451612","4027","91973","607048","607942","603839","18576","607048","NA","Sternberg Task","93","69442","97","yes","1024"
"95.91836734693878","95.91836734693878","714.7142857142857","714.7142857142857","black","experiment","legacy","legacy","legacy","0","uniform","1","undefined","1","left","97","97","97","0","0","97","97","0","0","97","97","97","0","97","0","Sat Oct 15 08:23:20 2022","The main experiment item","yes","SternbergTask.osexp","/Users/alexisparrish/Documents/Advanced Quant. Methods/Lab 3/Lab 3.1","no","mono","no","18","no","white","no","yes","768","legacy","85","11","/Users/alexisparrish/Documents/Advanced Quant. Methods/Lab 3/Lab 3.1/ARP-subject-1.csv","legacy","4 6 2 5 1","Lentiform Loewenfeld","3.3.12","5","y","0","left","caps lock","left","left","NA","600","14547","6982","600","NA","2","legacy","5","1024","2","48000","-16","experiment","1","odd","1","611235","607954","609021","4011","98955","609026","451612","4027","91973","613239","613840","610030","18576","613239","NA","Sternberg Task","94","70042","98","yes","1024"
"95.95959595959596","95.95959595959596","713.939393939394","713.939393939394","black","experiment","legacy","legacy","legacy","0","uniform","1","undefined","1","left","98","98","98","0","0","98","98","0","0","98","98","98","0","98","0","Sat Oct 15 08:23:20 2022","The main experiment item","yes","SternbergTask.osexp","/Users/alexisparrish/Documents/Advanced Quant. Methods/Lab 3/Lab 3.1","no","mono","no","18","no","white","no","yes","768","legacy","86","11","/Users/alexisparrish/Documents/Advanced Quant. Methods/Lab 3/Lab 3.1/ARP-subject-1.csv","legacy","3 4","Lentiform Loewenfeld","3.3.12","1","y","0","left","caps lock","left","left","NA","638","14547","6982","638","NA","2","legacy","2","1024","2","48000","-16","experiment","1","odd","3","617133","613852","614919","4011","98955","614923","451612","4027","91973","619137","619776","615928","18576","619137","NA","Sternberg Task","95","70680","99","yes","1024"
"96","96","713.09","713.09","black","experiment","legacy","legacy","legacy","0","uniform","1","undefined","1","left","99","99","99","0","0","99","99","0","0","99","99","99","0","99","0","Sat Oct 15 08:23:20 2022","The main experiment item","yes","SternbergTask.osexp","/Users/alexisparrish/Documents/Advanced Quant. Methods/Lab 3/Lab 3.1","no","mono","no","18","no","white","no","yes","768","legacy","87","11","/Users/alexisparrish/Documents/Advanced Quant. Methods/Lab 3/Lab 3.1/ARP-subject-1.csv","legacy","5 7 8 2 3 8","Lentiform Loewenfeld","3.3.12","5","y","0","left","caps lock","left","left","NA","629","14547","6982","629","NA","2","legacy","6","1024","2","48000","-16","experiment","1","odd","3","623068","619787","620854","4011","98955","620859","451612","4027","91973","625072","625702","621863","18576","625072","NA","Sternberg Task","96","71309","100","yes","1024"
"96.03960396039604","96.03960396039604","712.1386138613861","712.1386138613861","black","experiment","legacy","legacy","legacy","0","uniform","1","undefined","1","left","100","100","100","0","0","100","100","0","0","100","100","100","0","100","0","Sat Oct 15 08:23:20 2022","The main experiment item","yes","SternbergTask.osexp","/Users/alexisparrish/Documents/Advanced Quant. Methods/Lab 3/Lab 3.1","no","mono","no","18","no","white","no","yes","768","legacy","88","11","/Users/alexisparrish/Documents/Advanced Quant. Methods/Lab 3/Lab 3.1/ARP-subject-1.csv","legacy","6 7 9 3 1 2","Lentiform Loewenfeld","3.3.12","1","y","0","left","caps lock","left","left","NA","617","14547","6982","617","NA","2","legacy","6","1024","2","48000","-16","experiment","1","odd","6","628992","625714","626778","4011","98955","626782","451612","4027","91973","630996","631614","627787","18576","630996","NA","Sternberg Task","97","71926","101","yes","1024"
"96.07843137254902","96.07843137254902","710.9117647058823","710.9117647058823","black","experiment","legacy","legacy","legacy","0","uniform","1","undefined","1","right","101","101","101","0","0","101","101","0","0","101","101","101","0","101","0","Sat Oct 15 08:23:20 2022","The main experiment item","yes","SternbergTask.osexp","/Users/alexisparrish/Documents/Advanced Quant. Methods/Lab 3/Lab 3.1","no","mono","no","18","no","white","no","yes","768","legacy","89","11","/Users/alexisparrish/Documents/Advanced Quant. Methods/Lab 3/Lab 3.1/ARP-subject-1.csv","legacy","4 8 1 2","Lentiform Loewenfeld","3.3.12","0","n","0","right","caps lock","left","right","NA","587","14547","6982","587","NA","2","legacy","4","1024","2","48000","-16","experiment","1","odd","7","634906","631626","632692","4011","98955","632697","451612","4027","91973","636910","637499","633701","18576","636910","NA","Sternberg Task","98","72513","102","yes","1024"
"96.11650485436893","96.11650485436893","711.3592233009708","711.3592233009708","black","experiment","legacy","legacy","legacy","0","uniform","1","undefined","1","right","102","102","102","0","0","102","102","0","0","102","102","102","0","102","0","Sat Oct 15 08:23:20 2022","The main experiment item","yes","SternbergTask.osexp","/Users/alexisparrish/Documents/Advanced Quant. Methods/Lab 3/Lab 3.1","no","mono","no","18","no","white","no","yes","768","legacy","90","11","/Users/alexisparrish/Documents/Advanced Quant. Methods/Lab 3/Lab 3.1/ARP-subject-1.csv","legacy","6 2 9 3 8 4","Lentiform Loewenfeld","3.3.12","0","n","0","right","caps lock","left","right","NA","757","14547","6982","757","NA","2","legacy","6","1024","2","48000","-16","experiment","1","odd","1","640788","637510","638574","4011","98955","638579","451612","4027","91973","642793","643551","639583","18576","642793","NA","Sternberg Task","99","73270","103","yes","1024"
"96.15384615384616","96.15384615384616","710.6826923076923","710.6826923076923","black","experiment","legacy","legacy","legacy","0","uniform","1","undefined","1","right","103","103","103","0","0","103","103","0","0","103","103","103","0","103","0","Sat Oct 15 08:23:20 2022","The main experiment item","yes","SternbergTask.osexp","/Users/alexisparrish/Documents/Advanced Quant. Methods/Lab 3/Lab 3.1","no","mono","no","18","no","white","no","yes","768","legacy","91","11","/Users/alexisparrish/Documents/Advanced Quant. Methods/Lab 3/Lab 3.1/ARP-subject-1.csv","legacy","7 1","Lentiform Loewenfeld","3.3.12","0","n","0","right","caps lock","left","right","NA","641","14547","6982","641","NA","2","legacy","2","1024","2","48000","-16","experiment","1","odd","8","646842","643563","644629","4011","98955","644633","451612","4027","91973","648846","649488","645637","18576","648846","NA","Sternberg Task","100","73911","104","yes","1024"
"96.19047619047619","96.19047619047619","710.4285714285714","710.4285714285714","black","experiment","legacy","legacy","legacy","0","uniform","1","undefined","1","right","104","104","104","0","0","104","104","0","0","104","104","104","0","104","0","Sat Oct 15 08:23:20 2022","The main experiment item","yes","SternbergTask.osexp","/Users/alexisparrish/Documents/Advanced Quant. Methods/Lab 3/Lab 3.1","no","mono","no","18","no","white","no","yes","768","legacy","92","11","/Users/alexisparrish/Documents/Advanced Quant. Methods/Lab 3/Lab 3.1/ARP-subject-1.csv","legacy","1 7 5 2 9","Lentiform Loewenfeld","3.3.12","0","n","0","right","caps lock","left","right","NA","684","14547","6982","684","NA","2","legacy","5","1024","2","48000","-16","experiment","1","odd","3","652782","649500","650568","4011","98955","650573","451612","4027","91973","654786","655471","651577","18576","654786","NA","Sternberg Task","101","74595","105","yes","1024"
"96.22641509433963","96.22641509433963","709.9433962264151","709.9433962264151","black","experiment","legacy","legacy","legacy","0","uniform","1","undefined","1","right","105","105","105","0","0","105","105","0","0","105","105","105","0","105","0","Sat Oct 15 08:23:20 2022","The main experiment item","yes","SternbergTask.osexp","/Users/alexisparrish/Documents/Advanced Quant. Methods/Lab 3/Lab 3.1","no","mono","no","18","no","white","no","yes","768","legacy","93","11","/Users/alexisparrish/Documents/Advanced Quant. Methods/Lab 3/Lab 3.1/ARP-subject-1.csv","legacy","6 9 7 3 8 2","Lentiform Loewenfeld","3.3.12","0","n","0","right","caps lock","left","right","NA","659","14547","6982","659","NA","2","legacy","6","1024","2","48000","-16","experiment","1","odd","5","658765","655483","656552","4011","98955","656556","451612","4027","91973","660769","661430","657560","18576","660769","NA","Sternberg Task","102","75254","106","yes","1024"
"96.26168224299066","96.26168224299066","710.5981308411215","710.5981308411215","black","experiment","legacy","legacy","legacy","0","uniform","1","undefined","1","left","106","106","106","0","0","106","106","0","0","106","106","106","0","106","0","Sat Oct 15 08:23:20 2022","The main experiment item","yes","SternbergTask.osexp","/Users/alexisparrish/Documents/Advanced Quant. Methods/Lab 3/Lab 3.1","no","mono","no","18","no","white","no","yes","768","legacy","94","11","/Users/alexisparrish/Documents/Advanced Quant. Methods/Lab 3/Lab 3.1/ARP-subject-1.csv","legacy","2 8 5 1","Lentiform Loewenfeld","3.3.12","4","y","0","left","caps lock","left","left","NA","780","14547","6982","780","NA","2","legacy","4","1024","2","48000","-16","experiment","1","odd","1","664741","661441","662528","4011","98955","662532","451612","4027","91973","666745","667526","663536","18576","666745","NA","Sternberg Task","103","76034","107","yes","1024"
