"acc","accuracy","average_response_time","avg_rt","background","block","canvas_backend","clock_backend","color_backend","compensation","coordinates","correct","correct_Keyboard_response","correct_instructions1","correct_response","count_Fixation","count_ISI","count_Keyboard_response","count_Logger","count_Probe","count_Thankyou","count_correctFeedback","count_expSequence","count_experiment","count_experimentalLoop","count_incorrectFeedback","count_instructions1","count_instructions2","count_memorySet","count_practiceLoop","datetime","description","disable_garbage_collection","experiment_file","experiment_path","font_bold","font_family","font_italic","font_size","font_underline","foreground","form_clicks","fullscreen","height","keyboard_backend","live_row","live_row_practiceLoop","logfile","mouse_backend","numberSet","opensesame_codename","opensesame_version","posInSet","present","repeat_cycle","response","response_Keyboard_response","response_Thankyou","response_instructions1","response_instructions2","response_time","response_time_Keyboard_response","response_time_Thankyou","response_time_instructions1","response_time_instructions2","round_decimals","sampler_backend","setSize","sound_buf_size","sound_channels","sound_freq","sound_sample_size","start","subject_nr","subject_parity","target","time_Fixation","time_ISI","time_Keyboard_response","time_Logger","time_Probe","time_Thankyou","time_correctFeedback","time_expSequence","time_experiment","time_experimentalLoop","time_incorrectFeedback","time_instructions1","time_instructions2","time_memorySet","time_practiceLoop","title","total_correct","total_response_time","total_responses","uniform_coordinates","width"
"0","0","1434","1434","black","practice","legacy","legacy","legacy","0","uniform","0","0","undefined","left","0","0","0","0","0","0","0","0","0","0","0","0","0","0","0","10/22/22 19:25:09","The main experiment item","yes","Sternbergtask.osexp","C:\Users\ayesh\OneDrive\Desktop","no","mono","no","18","no","white","no","yes","768","legacy","0","0","C:/Users/ayesh/OneDrive/Desktop/MK-subject-2.csv","legacy","1 5 2 9","Lentiform Loewenfeld","3.3.12","2","y","0","right","right","NA","right","NA","1434","1434","NA","68939","NA","2","legacy","4","1024","2","48000","-16","experiment","1","odd","5","80964","83169","85170","86604","85170","NA","NA","80962","11440","NA","NA","11442","NA","81965","80382","Sternberg task ","0","1434","1","yes","1024"
"50","50","1522.5","1522.5","black","practice","legacy","legacy","legacy","0","uniform","1","1","undefined","right","1","1","1","1","1","0","1","1","0","0","1","0","0","1","0","10/22/22 19:25:09","The main experiment item","yes","Sternbergtask.osexp","C:\Users\ayesh\OneDrive\Desktop","no","mono","no","18","no","white","no","yes","768","legacy","1","1","C:/Users/ayesh/OneDrive/Desktop/MK-subject-2.csv","legacy","3 1 9 4","Lentiform Loewenfeld","3.3.12","0","n","0","right","right","NA","right","NA","1611","1611","NA","68939","NA","2","legacy","4","1024","2","48000","-16","experiment","1","odd","6","87763","89968","91969","93581","91969","NA","NA","87762","11440","NA","86676","11442","NA","88764","80382","Sternberg task ","1","3045","2","yes","1024"
"33.3333333333","33.3333333333","1327","1327","black","practice","legacy","legacy","legacy","0","uniform","0","0","undefined","right","2","2","2","2","2","0","2","2","0","0","2","0","0","2","0","10/22/22 19:25:09","The main experiment item","yes","Sternbergtask.osexp","C:\Users\ayesh\OneDrive\Desktop","no","mono","no","18","no","white","no","yes","768","legacy","2","2","C:/Users/ayesh/OneDrive/Desktop/MK-subject-2.csv","legacy","5 7 8 4 1 2","Lentiform Loewenfeld","3.3.12","0","n","0","left","left","NA","right","NA","936","936","NA","68939","NA","2","legacy","6","1024","2","48000","-16","experiment","1","odd","6","94661","96867","98868","99805","98868","NA","93588","94660","11440","NA","86676","11442","NA","95663","80382","Sternberg task ","1","3981","3","yes","1024"
"25","25","1495.25","1495.25","black","practice","legacy","legacy","legacy","0","uniform","0","0","undefined","right","3","3","3","3","3","0","3","3","0","0","3","0","0","3","0","10/22/22 19:25:09","The main experiment item","yes","Sternbergtask.osexp","C:\Users\ayesh\OneDrive\Desktop","no","mono","no","18","no","white","no","yes","768","legacy","3","3","C:/Users/ayesh/OneDrive/Desktop/MK-subject-2.csv","legacy","5","Lentiform Loewenfeld","3.3.12","0","n","0","None","None","NA","right","NA","2000","2000","NA","68939","NA","2","legacy","1","1024","2","48000","-16","experiment","1","odd","3","100881","103087","105088","107088","105088","NA","93588","100878","11440","NA","99808","11442","NA","101882","80382","Sternberg task ","1","5981","4","yes","1024"
"40","40","1435.8","1435.8","black","practice","legacy","legacy","legacy","0","uniform","1","1","undefined","left","4","4","4","4","4","0","4","4","0","0","4","0","0","4","0","10/22/22 19:25:09","The main experiment item","yes","Sternbergtask.osexp","C:\Users\ayesh\OneDrive\Desktop","no","mono","no","18","no","white","no","yes","768","legacy","4","4","C:/Users/ayesh/OneDrive/Desktop/MK-subject-2.csv","legacy","6","Lentiform Loewenfeld","3.3.12","1","y","0","left","left","NA","right","NA","1198","1198","NA","68939","NA","2","legacy","1","1024","2","48000","-16","experiment","1","odd","6","108170","110374","112375","113573","112375","NA","93588","108168","11440","NA","107092","11442","NA","109171","80382","Sternberg task ","2","7179","5","yes","1024"
"50","50","1387.66666667","1387.66666667","black","practice","legacy","legacy","legacy","0","uniform","1","1","undefined","left","5","5","5","5","5","0","5","5","0","0","5","0","0","5","0","10/22/22 19:25:09","The main experiment item","yes","Sternbergtask.osexp","C:\Users\ayesh\OneDrive\Desktop","no","mono","no","18","no","white","no","yes","768","legacy","5","5","C:/Users/ayesh/OneDrive/Desktop/MK-subject-2.csv","legacy","4 8","Lentiform Loewenfeld","3.3.12","1","y","0","left","left","NA","right","NA","1147","1147","NA","68939","NA","2","legacy","2","1024","2","48000","-16","experiment","1","odd","4","114650","116855","118857","120005","118857","NA","113577","114648","11440","NA","107092","11442","NA","115651","80382","Sternberg task ","3","8326","6","yes","1024"
"57.1428571429","57.1428571429","1271.71428571","1271.71428571","black","practice","legacy","legacy","legacy","0","uniform","1","1","undefined","right","6","6","6","6","6","0","6","6","0","0","6","0","0","6","0","10/22/22 19:25:09","The main experiment item","yes","Sternbergtask.osexp","C:\Users\ayesh\OneDrive\Desktop","no","mono","no","18","no","white","no","yes","768","legacy","6","6","C:/Users/ayesh/OneDrive/Desktop/MK-subject-2.csv","legacy","2 1","Lentiform Loewenfeld","3.3.12","0","n","0","right","right","NA","right","NA","576","576","NA","68939","NA","2","legacy","2","1024","2","48000","-16","experiment","1","odd","5","121101","123307","125308","125885","125308","NA","120011","121099","11440","NA","107092","11442","NA","122103","80382","Sternberg task ","4","8902","7","yes","1024"
"62.5","62.5","1254.25","1254.25","black","practice","legacy","legacy","legacy","0","uniform","1","1","undefined","left","7","7","7","7","7","0","7","7","0","0","7","0","0","7","0","10/22/22 19:25:09","The main experiment item","yes","Sternbergtask.osexp","C:\Users\ayesh\OneDrive\Desktop","no","mono","no","18","no","white","no","yes","768","legacy","7","7","C:/Users/ayesh/OneDrive/Desktop/MK-subject-2.csv","legacy","1 7 9 8 5","Lentiform Loewenfeld","3.3.12","4","y","0","left","left","NA","right","NA","1132","1132","NA","68939","NA","2","legacy","5","1024","2","48000","-16","experiment","1","odd","8","126961","129166","131168","132301","131168","NA","125889","126960","11440","NA","107092","11442","NA","127962","80382","Sternberg task ","5","10034","8","yes","1024"
"66.6666666667","66.6666666667","1211.11111111","1211.11111111","black","practice","legacy","legacy","legacy","0","uniform","1","1","undefined","left","8","8","8","8","8","0","8","8","0","0","8","0","0","8","0","10/22/22 19:25:09","The main experiment item","yes","Sternbergtask.osexp","C:\Users\ayesh\OneDrive\Desktop","no","mono","no","18","no","white","no","yes","768","legacy","8","8","C:/Users/ayesh/OneDrive/Desktop/MK-subject-2.csv","legacy","4 3 1 7 9 8","Lentiform Loewenfeld","3.3.12","1","y","0","left","left","NA","right","NA","866","866","NA","68939","NA","2","legacy","6","1024","2","48000","-16","experiment","1","odd","4","133380","135584","137585","138452","137585","NA","132306","133378","11440","NA","107092","11442","NA","134381","80382","Sternberg task ","6","10900","9","yes","1024"
"70","70","1166.5","1166.5","black","practice","legacy","legacy","legacy","0","uniform","1","1","undefined","left","9","9","9","9","9","0","9","9","0","0","9","0","0","9","0","10/22/22 19:25:09","The main experiment item","yes","Sternbergtask.osexp","C:\Users\ayesh\OneDrive\Desktop","no","mono","no","18","no","white","no","yes","768","legacy","9","9","C:/Users/ayesh/OneDrive/Desktop/MK-subject-2.csv","legacy","2 9 4","Lentiform Loewenfeld","3.3.12","3","y","0","left","left","NA","right","NA","765","765","NA","68939","NA","2","legacy","3","1024","2","48000","-16","experiment","1","odd","4","139529","141734","143735","144501","143735","NA","138456","139527","11440","NA","107092","11442","NA","140530","80382","Sternberg task ","7","11665","10","yes","1024"
"72.7272727273","72.7272727273","1175.27272727","1175.27272727","black","practice","legacy","legacy","legacy","0","uniform","1","1","undefined","right","10","10","10","10","10","0","10","10","0","0","10","0","0","10","0","10/22/22 19:25:09","The main experiment item","yes","Sternbergtask.osexp","C:\Users\ayesh\OneDrive\Desktop","no","mono","no","18","no","white","no","yes","768","legacy","10","10","C:/Users/ayesh/OneDrive/Desktop/MK-subject-2.csv","legacy","4 1 5","Lentiform Loewenfeld","3.3.12","0","n","0","right","right","NA","right","NA","1263","1263","NA","68939","NA","2","legacy","3","1024","2","48000","-16","experiment","1","odd","2","145580","147788","149789","151053","149789","NA","144507","145578","11440","NA","107092","11442","NA","146584","80382","Sternberg task ","8","12928","11","yes","1024"
"75","75","1154.08333333","1154.08333333","black","practice","legacy","legacy","legacy","0","uniform","1","1","undefined","right","11","11","11","11","11","0","11","11","0","0","11","0","0","11","0","10/22/22 19:25:09","The main experiment item","yes","Sternbergtask.osexp","C:\Users\ayesh\OneDrive\Desktop","no","mono","no","18","no","white","no","yes","768","legacy","11","11","C:/Users/ayesh/OneDrive/Desktop/MK-subject-2.csv","legacy","9 6 7 4 5","Lentiform Loewenfeld","3.3.12","0","n","0","right","right","NA","right","NA","921","921","NA","68939","NA","2","legacy","5","1024","2","48000","-16","experiment","1","odd","3","152132","154338","156339","157261","156339","NA","151057","152130","11440","NA","107092","11442","NA","153133","80382","Sternberg task ","9","13849","12","yes","1024"
"69.2307692308","69.2307692308","1122","1122","black","experiment","legacy","legacy","legacy","0","uniform","0","0","undefined","left","12","12","12","12","12","0","12","12","0","0","12","0","0","12","0","10/22/22 19:25:09","The main experiment item","yes","Sternbergtask.osexp","C:\Users\ayesh\OneDrive\Desktop","no","mono","no","18","no","white","no","yes","768","legacy","0","11","C:/Users/ayesh/OneDrive/Desktop/MK-subject-2.csv","legacy","7 2 3","Lentiform Loewenfeld","3.3.12","3","y","0","right","right","NA","right","right","737","737","NA","68939","50565","2","legacy","3","1024","2","48000","-16","experiment","1","odd","3","208957","211162","213163","213901","213163","NA","157266","208955","11440","208846","107092","11442","158280","209958","80382","Sternberg task ","9","14586","13","yes","1024"
"71.4285714286","71.4285714286","1121.64285714","1121.64285714","black","experiment","legacy","legacy","legacy","0","uniform","1","1","undefined","right","13","13","13","13","13","0","13","13","0","0","13","0","0","13","0","10/22/22 19:25:09","The main experiment item","yes","Sternbergtask.osexp","C:\Users\ayesh\OneDrive\Desktop","no","mono","no","18","no","white","no","yes","768","legacy","1","11","C:/Users/ayesh/OneDrive/Desktop/MK-subject-2.csv","legacy","6 2 9 3 8 4","Lentiform Loewenfeld","3.3.12","0","n","0","right","right","NA","right","right","1117","1117","NA","68939","50565","2","legacy","6","1024","2","48000","-16","experiment","1","odd","1","214978","217183","219184","220302","219184","NA","157266","214976","11440","208846","213905","11442","158280","215979","80382","Sternberg task ","10","15703","14","yes","1024"
"73.3333333333","73.3333333333","1108.26666667","1108.26666667","black","experiment","legacy","legacy","legacy","0","uniform","1","1","undefined","left","14","14","14","14","14","0","14","14","0","0","14","0","0","14","0","10/22/22 19:25:09","The main experiment item","yes","Sternbergtask.osexp","C:\Users\ayesh\OneDrive\Desktop","no","mono","no","18","no","white","no","yes","768","legacy","2","11","C:/Users/ayesh/OneDrive/Desktop/MK-subject-2.csv","legacy","9 3 1 2 5","Lentiform Loewenfeld","3.3.12","4","y","0","left","left","NA","right","right","921","921","NA","68939","50565","2","legacy","5","1024","2","48000","-16","experiment","1","odd","2","221389","223592","225596","226517","225596","NA","220305","221387","11440","208846","213905","11442","158280","222390","80382","Sternberg task ","11","16624","15","yes","1024"
"75","75","1097","1097","black","experiment","legacy","legacy","legacy","0","uniform","1","1","undefined","left","15","15","15","15","15","0","15","15","0","0","15","0","0","15","0","10/22/22 19:25:09","The main experiment item","yes","Sternbergtask.osexp","C:\Users\ayesh\OneDrive\Desktop","no","mono","no","18","no","white","no","yes","768","legacy","3","11","C:/Users/ayesh/OneDrive/Desktop/MK-subject-2.csv","legacy","7 1 8 5 6 2","Lentiform Loewenfeld","3.3.12","2","y","0","left","left","NA","right","right","928","928","NA","68939","50565","2","legacy","6","1024","2","48000","-16","experiment","1","odd","1","227594","229804","231805","232734","231805","NA","226521","227593","11440","208846","213905","11442","158280","228599","80382","Sternberg task ","12","17552","16","yes","1024"
"76.4705882353","76.4705882353","1110.58823529","1110.58823529","black","experiment","legacy","legacy","legacy","0","uniform","1","1","undefined","left","16","16","16","16","16","0","16","16","0","0","16","0","0","16","0","10/22/22 19:25:09","The main experiment item","yes","Sternbergtask.osexp","C:\Users\ayesh\OneDrive\Desktop","no","mono","no","18","no","white","no","yes","768","legacy","4","11","C:/Users/ayesh/OneDrive/Desktop/MK-subject-2.csv","legacy","3 2 1 4 7","Lentiform Loewenfeld","3.3.12","2","y","0","left","left","NA","right","right","1328","1328","NA","68939","50565","2","legacy","5","1024","2","48000","-16","experiment","1","odd","2","233822","236027","238029","239357","238028","NA","232739","233820","11440","208846","213905","11442","158280","234823","80382","Sternberg task ","13","18880","17","yes","1024"
"77.7777777778","77.7777777778","1093.55555556","1093.55555556","black","experiment","legacy","legacy","legacy","0","uniform","1","1","undefined","right","17","17","17","17","17","0","17","17","0","0","17","0","0","17","0","10/22/22 19:25:09","The main experiment item","yes","Sternbergtask.osexp","C:\Users\ayesh\OneDrive\Desktop","no","mono","no","18","no","white","no","yes","768","legacy","5","11","C:/Users/ayesh/OneDrive/Desktop/MK-subject-2.csv","legacy","1 7 5 2","Lentiform Loewenfeld","3.3.12","0","n","0","right","right","NA","right","right","804","804","NA","68939","50565","2","legacy","4","1024","2","48000","-16","experiment","1","odd","3","240433","242639","244641","245446","244641","NA","239361","240432","11440","208846","213905","11442","158280","241435","80382","Sternberg task ","14","19684","18","yes","1024"
"78.9473684211","78.9473684211","1088.36842105","1088.36842105","black","experiment","legacy","legacy","legacy","0","uniform","1","1","undefined","right","18","18","18","18","18","0","18","18","0","0","18","0","0","18","0","10/22/22 19:25:09","The main experiment item","yes","Sternbergtask.osexp","C:\Users\ayesh\OneDrive\Desktop","no","mono","no","18","no","white","no","yes","768","legacy","6","11","C:/Users/ayesh/OneDrive/Desktop/MK-subject-2.csv","legacy","6 9 5","Lentiform Loewenfeld","3.3.12","0","n","0","right","right","NA","right","right","995","995","NA","68939","50565","2","legacy","3","1024","2","48000","-16","experiment","1","odd","8","246523","248728","250729","251724","250729","NA","245449","246522","11440","208846","213905","11442","158280","247524","80382","Sternberg task ","15","20679","19","yes","1024"
"80","80","1076.9","1076.9","black","experiment","legacy","legacy","legacy","0","uniform","1","1","undefined","right","19","19","19","19","19","0","19","19","0","0","19","0","0","19","0","10/22/22 19:25:09","The main experiment item","yes","Sternbergtask.osexp","C:\Users\ayesh\OneDrive\Desktop","no","mono","no","18","no","white","no","yes","768","legacy","7","11","C:/Users/ayesh/OneDrive/Desktop/MK-subject-2.csv","legacy","5 9 2 3","Lentiform Loewenfeld","3.3.12","0","n","0","right","right","NA","right","right","859","859","NA","68939","50565","2","legacy","4","1024","2","48000","-16","experiment","1","odd","8","252815","255024","257025","257885","257025","NA","251728","252813","11440","208846","213905","11442","158280","253818","80382","Sternberg task ","16","21538","20","yes","1024"
"80.9523809524","80.9523809524","1069.71428571","1069.71428571","black","experiment","legacy","legacy","legacy","0","uniform","1","1","undefined","left","20","20","20","20","20","0","20","20","0","0","20","0","0","20","0","10/22/22 19:25:09","The main experiment item","yes","Sternbergtask.osexp","C:\Users\ayesh\OneDrive\Desktop","no","mono","no","18","no","white","no","yes","768","legacy","8","11","C:/Users/ayesh/OneDrive/Desktop/MK-subject-2.csv","legacy","5 2 9 6 1 7","Lentiform Loewenfeld","3.3.12","3","y","0","left","left","NA","right","right","926","926","NA","68939","50565","2","legacy","6","1024","2","48000","-16","experiment","1","odd","9","258982","261188","263190","264117","263190","NA","257893","258980","11440","208846","213905","11442","158280","259984","80382","Sternberg task ","17","22464","21","yes","1024"
"81.8181818182","81.8181818182","1058.31818182","1058.31818182","black","experiment","legacy","legacy","legacy","0","uniform","1","1","undefined","right","21","21","21","21","21","0","21","21","0","0","21","0","0","21","0","10/22/22 19:25:09","The main experiment item","yes","Sternbergtask.osexp","C:\Users\ayesh\OneDrive\Desktop","no","mono","no","18","no","white","no","yes","768","legacy","9","11","C:/Users/ayesh/OneDrive/Desktop/MK-subject-2.csv","legacy","8 9","Lentiform Loewenfeld","3.3.12","0","n","0","right","right","NA","right","right","819","819","NA","68939","50565","2","legacy","2","1024","2","48000","-16","experiment","1","odd","5","265194","267400","269401","270221","269401","NA","264121","265192","11440","208846","213905","11442","158280","266195","80382","Sternberg task ","18","23283","22","yes","1024"
"82.6086956522","82.6086956522","1062.69565217","1062.69565217","black","experiment","legacy","legacy","legacy","0","uniform","1","1","undefined","left","22","22","22","22","22","0","22","22","0","0","22","0","0","22","0","10/22/22 19:25:09","The main experiment item","yes","Sternbergtask.osexp","C:\Users\ayesh\OneDrive\Desktop","no","mono","no","18","no","white","no","yes","768","legacy","10","11","C:/Users/ayesh/OneDrive/Desktop/MK-subject-2.csv","legacy","9 8 4","Lentiform Loewenfeld","3.3.12","1","y","0","left","left","NA","right","right","1159","1159","NA","68939","50565","2","legacy","3","1024","2","48000","-16","experiment","1","odd","9","271299","273501","275502","276662","275502","NA","270225","271296","11440","208846","213905","11442","158280","272300","80382","Sternberg task ","19","24442","23","yes","1024"
"83.3333333333","83.3333333333","1050.625","1050.625","black","experiment","legacy","legacy","legacy","0","uniform","1","1","undefined","right","23","23","23","23","23","0","23","23","0","0","23","0","0","23","0","10/22/22 19:25:09","The main experiment item","yes","Sternbergtask.osexp","C:\Users\ayesh\OneDrive\Desktop","no","mono","no","18","no","white","no","yes","768","legacy","11","11","C:/Users/ayesh/OneDrive/Desktop/MK-subject-2.csv","legacy","6 3 1 7 9 8","Lentiform Loewenfeld","3.3.12","0","n","0","right","right","NA","right","right","773","773","NA","68939","50565","2","legacy","6","1024","2","48000","-16","experiment","1","odd","4","277741","279950","281952","282726","281952","NA","276666","277740","11440","208846","213905","11442","158280","278746","80382","Sternberg task ","20","25215","24","yes","1024"
"84","84","1049.36","1049.36","black","experiment","legacy","legacy","legacy","0","uniform","1","1","undefined","left","24","24","24","24","24","0","24","24","0","0","24","0","0","24","0","10/22/22 19:25:09","The main experiment item","yes","Sternbergtask.osexp","C:\Users\ayesh\OneDrive\Desktop","no","mono","no","18","no","white","no","yes","768","legacy","12","11","C:/Users/ayesh/OneDrive/Desktop/MK-subject-2.csv","legacy","6 8 9 3 4 9","Lentiform Loewenfeld","3.3.12","5","y","0","left","left","NA","right","right","1019","1019","NA","68939","50565","2","legacy","6","1024","2","48000","-16","experiment","1","odd","4","283803","286008","288010","289030","288010","NA","282730","283801","11440","208846","213905","11442","158280","284804","80382","Sternberg task ","21","26234","25","yes","1024"
"84.6153846154","84.6153846154","1047.38461538","1047.38461538","black","experiment","legacy","legacy","legacy","0","uniform","1","1","undefined","right","25","25","25","25","25","0","25","25","0","0","25","0","0","25","0","10/22/22 19:25:09","The main experiment item","yes","Sternbergtask.osexp","C:\Users\ayesh\OneDrive\Desktop","no","mono","no","18","no","white","no","yes","768","legacy","13","11","C:/Users/ayesh/OneDrive/Desktop/MK-subject-2.csv","legacy","8 5 7 3 6","Lentiform Loewenfeld","3.3.12","0","n","0","right","right","NA","right","right","998","998","NA","68939","50565","2","legacy","5","1024","2","48000","-16","experiment","1","odd","9","290105","292310","294311","295310","294311","NA","289033","290103","11440","208846","213905","11442","158280","291106","80382","Sternberg task ","22","27232","26","yes","1024"
"85.1851851852","85.1851851852","1040.07407407","1040.07407407","black","experiment","legacy","legacy","legacy","0","uniform","1","1","undefined","right","26","26","26","26","26","0","26","26","0","0","26","0","0","26","0","10/22/22 19:25:09","The main experiment item","yes","Sternbergtask.osexp","C:\Users\ayesh\OneDrive\Desktop","no","mono","no","18","no","white","no","yes","768","legacy","14","11","C:/Users/ayesh/OneDrive/Desktop/MK-subject-2.csv","legacy","8 6 3 4 7","Lentiform Loewenfeld","3.3.12","0","n","0","right","right","NA","right","right","850","850","NA","68939","50565","2","legacy","5","1024","2","48000","-16","experiment","1","odd","1","296388","298594","300595","301446","300595","NA","295313","296385","11440","208846","213905","11442","158280","297390","80382","Sternberg task ","23","28082","27","yes","1024"
"85.7142857143","85.7142857143","1030.57142857","1030.57142857","black","experiment","legacy","legacy","legacy","0","uniform","1","1","undefined","left","27","27","27","27","27","0","27","27","0","0","27","0","0","27","0","10/22/22 19:25:09","The main experiment item","yes","Sternbergtask.osexp","C:\Users\ayesh\OneDrive\Desktop","no","mono","no","18","no","white","no","yes","768","legacy","15","11","C:/Users/ayesh/OneDrive/Desktop/MK-subject-2.csv","legacy","2 4 8 5 1 3","Lentiform Loewenfeld","3.3.12","1","y","0","left","left","NA","right","right","774","774","NA","68939","50565","2","legacy","6","1024","2","48000","-16","experiment","1","odd","2","302521","304726","306727","307502","306727","NA","301449","302520","11440","208846","213905","11442","158280","303522","80382","Sternberg task ","24","28856","28","yes","1024"
"86.2068965517","86.2068965517","1020.31034483","1020.31034483","black","experiment","legacy","legacy","legacy","0","uniform","1","1","undefined","right","28","28","28","28","28","0","28","28","0","0","28","0","0","28","0","10/22/22 19:25:09","The main experiment item","yes","Sternbergtask.osexp","C:\Users\ayesh\OneDrive\Desktop","no","mono","no","18","no","white","no","yes","768","legacy","16","11","C:/Users/ayesh/OneDrive/Desktop/MK-subject-2.csv","legacy","3 4 9 6 7 8","Lentiform Loewenfeld","3.3.12","0","n","0","right","right","NA","right","right","733","733","NA","68939","50565","2","legacy","6","1024","2","48000","-16","experiment","1","odd","2","308577","310782","312783","313517","312783","NA","307505","308575","11440","208846","213905","11442","158280","309578","80382","Sternberg task ","25","29589","29","yes","1024"
"86.6666666667","86.6666666667","1026.06666667","1026.06666667","black","experiment","legacy","legacy","legacy","0","uniform","1","1","undefined","left","29","29","29","29","29","0","29","29","0","0","29","0","0","29","0","10/22/22 19:25:09","The main experiment item","yes","Sternbergtask.osexp","C:\Users\ayesh\OneDrive\Desktop","no","mono","no","18","no","white","no","yes","768","legacy","17","11","C:/Users/ayesh/OneDrive/Desktop/MK-subject-2.csv","legacy","2 6 1 7 4","Lentiform Loewenfeld","3.3.12","2","y","0","left","left","NA","right","right","1193","1193","NA","68939","50565","2","legacy","5","1024","2","48000","-16","experiment","1","odd","6","314612","316818","318819","320013","318819","NA","313521","314610","11440","208846","213905","11442","158280","315614","80382","Sternberg task ","26","30782","30","yes","1024"
"87.0967741935","87.0967741935","1013.41935484","1013.41935484","black","experiment","legacy","legacy","legacy","0","uniform","1","1","undefined","left","30","30","30","30","30","0","30","30","0","0","30","0","0","30","0","10/22/22 19:25:09","The main experiment item","yes","Sternbergtask.osexp","C:\Users\ayesh\OneDrive\Desktop","no","mono","no","18","no","white","no","yes","768","legacy","18","11","C:/Users/ayesh/OneDrive/Desktop/MK-subject-2.csv","legacy","8 9 5 6 7","Lentiform Loewenfeld","3.3.12","1","y","0","left","left","NA","right","right","634","634","NA","68939","50565","2","legacy","5","1024","2","48000","-16","experiment","1","odd","8","321100","323305","325307","325942","325307","NA","320028","321099","11440","208846","213905","11442","158280","322101","80382","Sternberg task ","27","31416","31","yes","1024"
"87.5","87.5","1011.375","1011.375","black","experiment","legacy","legacy","legacy","0","uniform","1","1","undefined","left","31","31","31","31","31","0","31","31","0","0","31","0","0","31","0","10/22/22 19:25:09","The main experiment item","yes","Sternbergtask.osexp","C:\Users\ayesh\OneDrive\Desktop","no","mono","no","18","no","white","no","yes","768","legacy","19","11","C:/Users/ayesh/OneDrive/Desktop/MK-subject-2.csv","legacy","3 9 7 6 4","Lentiform Loewenfeld","3.3.12","3","y","0","left","left","NA","right","right","948","948","NA","68939","50565","2","legacy","5","1024","2","48000","-16","experiment","1","odd","7","327018","329223","331224","332173","331224","NA","325945","327017","11440","208846","213905","11442","158280","328019","80382","Sternberg task ","28","32364","32","yes","1024"
"87.8787878788","87.8787878788","1008.96969697","1008.96969697","black","experiment","legacy","legacy","legacy","0","uniform","1","1","undefined","right","32","32","32","32","32","0","32","32","0","0","32","0","0","32","0","10/22/22 19:25:09","The main experiment item","yes","Sternbergtask.osexp","C:\Users\ayesh\OneDrive\Desktop","no","mono","no","18","no","white","no","yes","768","legacy","20","11","C:/Users/ayesh/OneDrive/Desktop/MK-subject-2.csv","legacy","3 9 1","Lentiform Loewenfeld","3.3.12","0","n","0","right","right","NA","right","right","932","932","NA","68939","50565","2","legacy","3","1024","2","48000","-16","experiment","1","odd","7","333250","335455","337456","338389","337456","NA","332177","333248","11440","208846","213905","11442","158280","334251","80382","Sternberg task ","29","33296","33","yes","1024"
"88.2352941176","88.2352941176","1001.14705882","1001.14705882","black","experiment","legacy","legacy","legacy","0","uniform","1","1","undefined","right","33","33","33","33","33","0","33","33","0","0","33","0","0","33","0","10/22/22 19:25:09","The main experiment item","yes","Sternbergtask.osexp","C:\Users\ayesh\OneDrive\Desktop","no","mono","no","18","no","white","no","yes","768","legacy","21","11","C:/Users/ayesh/OneDrive/Desktop/MK-subject-2.csv","legacy","9 7 4 5 8","Lentiform Loewenfeld","3.3.12","0","n","0","right","right","NA","right","right","743","743","NA","68939","50565","2","legacy","5","1024","2","48000","-16","experiment","1","odd","6","339470","341676","343677","344421","343677","NA","338393","339468","11440","208846","213905","11442","158280","340471","80382","Sternberg task ","30","34039","34","yes","1024"
"88.5714285714","88.5714285714","992.657142857","992.657142857","black","experiment","legacy","legacy","legacy","0","uniform","1","1","undefined","left","34","34","34","34","34","0","34","34","0","0","34","0","0","34","0","10/22/22 19:25:09","The main experiment item","yes","Sternbergtask.osexp","C:\Users\ayesh\OneDrive\Desktop","no","mono","no","18","no","white","no","yes","768","legacy","22","11","C:/Users/ayesh/OneDrive/Desktop/MK-subject-2.csv","legacy","4 9 7 8 5 3","Lentiform Loewenfeld","3.3.12","4","y","0","left","left","NA","right","right","704","704","NA","68939","50565","2","legacy","6","1024","2","48000","-16","experiment","1","odd","8","345502","347707","349709","350414","349709","NA","344426","345500","11440","208846","213905","11442","158280","346503","80382","Sternberg task ","31","34743","35","yes","1024"
"88.8888888889","88.8888888889","981.805555556","981.805555556","black","experiment","legacy","legacy","legacy","0","uniform","1","1","undefined","right","35","35","35","35","35","0","35","35","0","0","35","0","0","35","0","10/22/22 19:25:09","The main experiment item","yes","Sternbergtask.osexp","C:\Users\ayesh\OneDrive\Desktop","no","mono","no","18","no","white","no","yes","768","legacy","23","11","C:/Users/ayesh/OneDrive/Desktop/MK-subject-2.csv","legacy","7 9 1 6","Lentiform Loewenfeld","3.3.12","0","n","0","right","right","NA","right","right","602","602","NA","68939","50565","2","legacy","4","1024","2","48000","-16","experiment","1","odd","4","351506","353713","355714","356317","355714","NA","350418","351505","11440","208846","213905","11442","158280","352508","80382","Sternberg task ","32","35345","36","yes","1024"
"89.1891891892","89.1891891892","974.351351351","974.351351351","black","experiment","legacy","legacy","legacy","0","uniform","1","1","undefined","left","36","36","36","36","36","0","36","36","0","0","36","0","0","36","0","10/22/22 19:25:09","The main experiment item","yes","Sternbergtask.osexp","C:\Users\ayesh\OneDrive\Desktop","no","mono","no","18","no","white","no","yes","768","legacy","24","11","C:/Users/ayesh/OneDrive/Desktop/MK-subject-2.csv","legacy","5 2 6","Lentiform Loewenfeld","3.3.12","2","y","0","left","left","NA","right","right","706","706","NA","68939","50565","2","legacy","3","1024","2","48000","-16","experiment","1","odd","2","357395","359601","361602","362309","361602","NA","356321","357394","11440","208846","213905","11442","158280","358397","80382","Sternberg task ","33","36051","37","yes","1024"
"89.4736842105","89.4736842105","967.631578947","967.631578947","black","experiment","legacy","legacy","legacy","0","uniform","1","1","undefined","left","37","37","37","37","37","0","37","37","0","0","37","0","0","37","0","10/22/22 19:25:09","The main experiment item","yes","Sternbergtask.osexp","C:\Users\ayesh\OneDrive\Desktop","no","mono","no","18","no","white","no","yes","768","legacy","25","11","C:/Users/ayesh/OneDrive/Desktop/MK-subject-2.csv","legacy","4 6 5 8","Lentiform Loewenfeld","3.3.12","1","y","0","left","left","NA","right","right","719","719","NA","68939","50565","2","legacy","4","1024","2","48000","-16","experiment","1","odd","4","363413","365621","367622","368341","367622","NA","362327","363411","11440","208846","213905","11442","158280","364417","80382","Sternberg task ","34","36770","38","yes","1024"
"89.7435897436","89.7435897436","973.282051282","973.282051282","black","experiment","legacy","legacy","legacy","0","uniform","1","1","undefined","left","38","38","38","38","38","0","38","38","0","0","38","0","0","38","0","10/22/22 19:25:09","The main experiment item","yes","Sternbergtask.osexp","C:\Users\ayesh\OneDrive\Desktop","no","mono","no","18","no","white","no","yes","768","legacy","26","11","C:/Users/ayesh/OneDrive/Desktop/MK-subject-2.csv","legacy","2 4 6 9","Lentiform Loewenfeld","3.3.12","3","y","0","left","left","NA","right","right","1188","1188","NA","68939","50565","2","legacy","4","1024","2","48000","-16","experiment","1","odd","6","369419","371624","373625","374814","373625","NA","368345","369417","11440","208846","213905","11442","158280","370420","80382","Sternberg task ","35","37958","39","yes","1024"
"90","90","975.375","975.375","black","experiment","legacy","legacy","legacy","0","uniform","1","1","undefined","right","39","39","39","39","39","0","39","39","0","0","39","0","0","39","0","10/22/22 19:25:09","The main experiment item","yes","Sternbergtask.osexp","C:\Users\ayesh\OneDrive\Desktop","no","mono","no","18","no","white","no","yes","768","legacy","27","11","C:/Users/ayesh/OneDrive/Desktop/MK-subject-2.csv","legacy","7 3 2 8","Lentiform Loewenfeld","3.3.12","0","n","0","right","right","NA","right","right","1057","1057","NA","68939","50565","2","legacy","4","1024","2","48000","-16","experiment","1","odd","4","375906","378114","380115","381173","380115","NA","374831","375905","11440","208846","213905","11442","158280","376909","80382","Sternberg task ","36","39015","40","yes","1024"
"90.243902439","90.243902439","963.756097561","963.756097561","black","experiment","legacy","legacy","legacy","0","uniform","1","1","undefined","left","40","40","40","40","40","0","40","40","0","0","40","0","0","40","0","10/22/22 19:25:09","The main experiment item","yes","Sternbergtask.osexp","C:\Users\ayesh\OneDrive\Desktop","no","mono","no","18","no","white","no","yes","768","legacy","28","11","C:/Users/ayesh/OneDrive/Desktop/MK-subject-2.csv","legacy","3 5 9 6 2 4","Lentiform Loewenfeld","3.3.12","1","y","0","left","left","NA","right","right","499","499","NA","68939","50565","2","legacy","6","1024","2","48000","-16","experiment","1","odd","3","382250","384456","386458","386958","386458","NA","381177","382249","11440","208846","213905","11442","158280","383252","80382","Sternberg task ","37","39514","41","yes","1024"
"90.4761904762","90.4761904762","956.571428571","956.571428571","black","experiment","legacy","legacy","legacy","0","uniform","1","1","undefined","right","41","41","41","41","41","0","41","41","0","0","41","0","0","41","0","10/22/22 19:25:09","The main experiment item","yes","Sternbergtask.osexp","C:\Users\ayesh\OneDrive\Desktop","no","mono","no","18","no","white","no","yes","768","legacy","29","11","C:/Users/ayesh/OneDrive/Desktop/MK-subject-2.csv","legacy","3 9 8 1 6 4","Lentiform Loewenfeld","3.3.12","0","n","0","right","right","NA","right","right","662","662","NA","68939","50565","2","legacy","6","1024","2","48000","-16","experiment","1","odd","7","388038","390244","392247","392910","392247","NA","386963","388036","11440","208846","213905","11442","158280","389039","80382","Sternberg task ","38","40176","42","yes","1024"
"90.6976744186","90.6976744186","952.348837209","952.348837209","black","experiment","legacy","legacy","legacy","0","uniform","1","1","undefined","right","42","42","42","42","42","0","42","42","0","0","42","0","0","42","0","10/22/22 19:25:09","The main experiment item","yes","Sternbergtask.osexp","C:\Users\ayesh\OneDrive\Desktop","no","mono","no","18","no","white","no","yes","768","legacy","30","11","C:/Users/ayesh/OneDrive/Desktop/MK-subject-2.csv","legacy","1 4 9 3","Lentiform Loewenfeld","3.3.12","0","n","0","right","right","NA","right","right","775","775","NA","68939","50565","2","legacy","4","1024","2","48000","-16","experiment","1","odd","5","393997","396202","398205","398981","398205","NA","392914","393994","11440","208846","213905","11442","158280","394998","80382","Sternberg task ","39","40951","43","yes","1024"
"90.9090909091","90.9090909091","946.704545455","946.704545455","black","experiment","legacy","legacy","legacy","0","uniform","1","1","undefined","right","43","43","43","43","43","0","43","43","0","0","43","0","0","43","0","10/22/22 19:25:09","The main experiment item","yes","Sternbergtask.osexp","C:\Users\ayesh\OneDrive\Desktop","no","mono","no","18","no","white","no","yes","768","legacy","31","11","C:/Users/ayesh/OneDrive/Desktop/MK-subject-2.csv","legacy","6 8","Lentiform Loewenfeld","3.3.12","0","n","0","right","right","NA","right","right","704","704","NA","68939","50565","2","legacy","2","1024","2","48000","-16","experiment","1","odd","9","400061","402267","404268","404973","404268","NA","398985","400057","11440","208846","213905","11442","158280","401062","80382","Sternberg task ","40","41655","44","yes","1024"
"91.1111111111","91.1111111111","943.688888889","943.688888889","black","experiment","legacy","legacy","legacy","0","uniform","1","1","undefined","right","44","44","44","44","44","0","44","44","0","0","44","0","0","44","0","10/22/22 19:25:09","The main experiment item","yes","Sternbergtask.osexp","C:\Users\ayesh\OneDrive\Desktop","no","mono","no","18","no","white","no","yes","768","legacy","32","11","C:/Users/ayesh/OneDrive/Desktop/MK-subject-2.csv","legacy","1 4 3 6 5","Lentiform Loewenfeld","3.3.12","0","n","0","right","right","NA","right","right","811","811","NA","68939","50565","2","legacy","5","1024","2","48000","-16","experiment","1","odd","8","406061","408264","410265","411077","410265","NA","404978","406059","11440","208846","213905","11442","158280","407063","80382","Sternberg task ","41","42466","45","yes","1024"
"91.3043478261","91.3043478261","939.52173913","939.52173913","black","experiment","legacy","legacy","legacy","0","uniform","1","1","undefined","left","45","45","45","45","45","0","45","45","0","0","45","0","0","45","0","10/22/22 19:25:09","The main experiment item","yes","Sternbergtask.osexp","C:\Users\ayesh\OneDrive\Desktop","no","mono","no","18","no","white","no","yes","768","legacy","33","11","C:/Users/ayesh/OneDrive/Desktop/MK-subject-2.csv","legacy","8 5 3 7 4 6","Lentiform Loewenfeld","3.3.12","6","y","0","left","left","NA","right","right","752","752","NA","68939","50565","2","legacy","6","1024","2","48000","-16","experiment","1","odd","6","412169","414371","416372","417125","416372","NA","411081","412167","11440","208846","213905","11442","158280","413170","80382","Sternberg task ","42","43218","46","yes","1024"
"89.3617021277","89.3617021277","933.319148936","933.319148936","black","experiment","legacy","legacy","legacy","0","uniform","0","0","undefined","left","46","46","46","46","46","0","46","46","0","0","46","0","0","46","0","10/22/22 19:25:09","The main experiment item","yes","Sternbergtask.osexp","C:\Users\ayesh\OneDrive\Desktop","no","mono","no","18","no","white","no","yes","768","legacy","34","11","C:/Users/ayesh/OneDrive/Desktop/MK-subject-2.csv","legacy","3 9 6 2","Lentiform Loewenfeld","3.3.12","4","y","0","right","right","NA","right","right","648","648","NA","68939","50565","2","legacy","4","1024","2","48000","-16","experiment","1","odd","2","418209","420411","422412","423060","422412","NA","417129","418207","11440","208846","213905","11442","158280","419210","80382","Sternberg task ","42","43866","47","yes","1024"
"89.5833333333","89.5833333333","935.541666667","935.541666667","black","experiment","legacy","legacy","legacy","0","uniform","1","1","undefined","left","47","47","47","47","47","0","47","47","0","0","47","0","0","47","0","10/22/22 19:25:09","The main experiment item","yes","Sternbergtask.osexp","C:\Users\ayesh\OneDrive\Desktop","no","mono","no","18","no","white","no","yes","768","legacy","35","11","C:/Users/ayesh/OneDrive/Desktop/MK-subject-2.csv","legacy","9 5 8 1","Lentiform Loewenfeld","3.3.12","2","y","0","left","left","NA","right","right","1040","1040","NA","68939","50565","2","legacy","4","1024","2","48000","-16","experiment","1","odd","5","424145","426347","428348","429389","428348","NA","417129","424143","11440","208846","423065","11442","158280","425146","80382","Sternberg task ","43","44906","48","yes","1024"
"89.7959183673","89.7959183673","933.142857143","933.142857143","black","experiment","legacy","legacy","legacy","0","uniform","1","1","undefined","left","48","48","48","48","48","0","48","48","0","0","48","0","0","48","0","10/22/22 19:25:09","The main experiment item","yes","Sternbergtask.osexp","C:\Users\ayesh\OneDrive\Desktop","no","mono","no","18","no","white","no","yes","768","legacy","36","11","C:/Users/ayesh/OneDrive/Desktop/MK-subject-2.csv","legacy","4","Lentiform Loewenfeld","3.3.12","1","y","0","left","left","NA","right","right","818","818","NA","68939","50565","2","legacy","1","1024","2","48000","-16","experiment","1","odd","4","430468","432673","434674","435493","434674","NA","429393","430467","11440","208846","423065","11442","158280","431469","80382","Sternberg task ","44","45724","49","yes","1024"
"90","90","933.42","933.42","black","experiment","legacy","legacy","legacy","0","uniform","1","1","undefined","left","49","49","49","49","49","0","49","49","0","0","49","0","0","49","0","10/22/22 19:25:09","The main experiment item","yes","Sternbergtask.osexp","C:\Users\ayesh\OneDrive\Desktop","no","mono","no","18","no","white","no","yes","768","legacy","37","11","C:/Users/ayesh/OneDrive/Desktop/MK-subject-2.csv","legacy","2 8 5 1","Lentiform Loewenfeld","3.3.12","4","y","0","left","left","NA","right","right","947","947","NA","68939","50565","2","legacy","4","1024","2","48000","-16","experiment","1","odd","1","436604","438808","440809","441757","440809","NA","435522","436603","11440","208846","423065","11442","158280","437607","80382","Sternberg task ","45","46671","50","yes","1024"
"90.1960784314","90.1960784314","936.156862745","936.156862745","black","experiment","legacy","legacy","legacy","0","uniform","1","1","undefined","right","50","50","50","50","50","0","50","50","0","0","50","0","0","50","0","10/22/22 19:25:09","The main experiment item","yes","Sternbergtask.osexp","C:\Users\ayesh\OneDrive\Desktop","no","mono","no","18","no","white","no","yes","768","legacy","38","11","C:/Users/ayesh/OneDrive/Desktop/MK-subject-2.csv","legacy","7 1 5 6 3","Lentiform Loewenfeld","3.3.12","0","n","0","right","right","NA","right","right","1073","1073","NA","68939","50565","2","legacy","5","1024","2","48000","-16","experiment","1","odd","8","442841","445043","447044","448117","447044","NA","441760","442839","11440","208846","423065","11442","158280","443842","80382","Sternberg task ","46","47744","51","yes","1024"
"90.3846153846","90.3846153846","937.884615385","937.884615385","black","experiment","legacy","legacy","legacy","0","uniform","1","1","undefined","right","51","51","51","51","51","0","51","51","0","0","51","0","0","51","0","10/22/22 19:25:09","The main experiment item","yes","Sternbergtask.osexp","C:\Users\ayesh\OneDrive\Desktop","no","mono","no","18","no","white","no","yes","768","legacy","39","11","C:/Users/ayesh/OneDrive/Desktop/MK-subject-2.csv","legacy","9 5 3 2 8 6","Lentiform Loewenfeld","3.3.12","0","n","0","right","right","NA","right","right","1026","1026","NA","68939","50565","2","legacy","6","1024","2","48000","-16","experiment","1","odd","7","449206","451409","453410","454437","453410","NA","448125","449204","11440","208846","423065","11442","158280","450208","80382","Sternberg task ","47","48770","52","yes","1024"
"90.5660377358","90.5660377358","937.471698113","937.471698113","black","experiment","legacy","legacy","legacy","0","uniform","1","1","undefined","left","52","52","52","52","52","0","52","52","0","0","52","0","0","52","0","10/22/22 19:25:09","The main experiment item","yes","Sternbergtask.osexp","C:\Users\ayesh\OneDrive\Desktop","no","mono","no","18","no","white","no","yes","768","legacy","40","11","C:/Users/ayesh/OneDrive/Desktop/MK-subject-2.csv","legacy","9 5 3 8 4","Lentiform Loewenfeld","3.3.12","1","y","0","left","left","NA","right","right","916","916","NA","68939","50565","2","legacy","5","1024","2","48000","-16","experiment","1","odd","9","455521","457727","459728","460645","459728","NA","454444","455519","11440","208846","423065","11442","158280","456523","80382","Sternberg task ","48","49686","53","yes","1024"
"90.7407407407","90.7407407407","933.296296296","933.296296296","black","experiment","legacy","legacy","legacy","0","uniform","1","1","undefined","left","53","53","53","53","53","0","53","53","0","0","53","0","0","53","0","10/22/22 19:25:09","The main experiment item","yes","Sternbergtask.osexp","C:\Users\ayesh\OneDrive\Desktop","no","mono","no","18","no","white","no","yes","768","legacy","41","11","C:/Users/ayesh/OneDrive/Desktop/MK-subject-2.csv","legacy","6 1 2","Lentiform Loewenfeld","3.3.12","3","y","0","left","left","NA","right","right","712","712","NA","68939","50565","2","legacy","3","1024","2","48000","-16","experiment","1","odd","2","461731","463939","465940","466654","465940","NA","460655","461730","11440","208846","423065","11442","158280","462735","80382","Sternberg task ","49","50398","54","yes","1024"
"90.9090909091","90.9090909091","928.763636364","928.763636364","black","experiment","legacy","legacy","legacy","0","uniform","1","1","undefined","right","54","54","54","54","54","0","54","54","0","0","54","0","0","54","0","10/22/22 19:25:09","The main experiment item","yes","Sternbergtask.osexp","C:\Users\ayesh\OneDrive\Desktop","no","mono","no","18","no","white","no","yes","768","legacy","42","11","C:/Users/ayesh/OneDrive/Desktop/MK-subject-2.csv","legacy","8 4 3 5","Lentiform Loewenfeld","3.3.12","0","n","0","right","right","NA","right","right","684","684","NA","68939","50565","2","legacy","4","1024","2","48000","-16","experiment","1","odd","6","467729","469935","471936","472621","471936","NA","466657","467728","11440","208846","423065","11442","158280","468731","80382","Sternberg task ","50","51082","55","yes","1024"
"91.0714285714","91.0714285714","928.303571429","928.303571429","black","experiment","legacy","legacy","legacy","0","uniform","1","1","undefined","right","55","55","55","55","55","0","55","55","0","0","55","0","0","55","0","10/22/22 19:25:09","The main experiment item","yes","Sternbergtask.osexp","C:\Users\ayesh\OneDrive\Desktop","no","mono","no","18","no","white","no","yes","768","legacy","43","11","C:/Users/ayesh/OneDrive/Desktop/MK-subject-2.csv","legacy","7 1","Lentiform Loewenfeld","3.3.12","0","n","0","right","right","NA","right","right","903","903","NA","68939","50565","2","legacy","2","1024","2","48000","-16","experiment","1","odd","8","473702","475908","477910","478814","477910","NA","472629","473700","11440","208846","423065","11442","158280","474705","80382","Sternberg task ","51","51985","56","yes","1024"
"91.2280701754","91.2280701754","928.052631579","928.052631579","black","experiment","legacy","legacy","legacy","0","uniform","1","1","undefined","left","56","56","56","56","56","0","56","56","0","0","56","0","0","56","0","10/22/22 19:25:09","The main experiment item","yes","Sternbergtask.osexp","C:\Users\ayesh\OneDrive\Desktop","no","mono","no","18","no","white","no","yes","768","legacy","44","11","C:/Users/ayesh/OneDrive/Desktop/MK-subject-2.csv","legacy","6 2","Lentiform Loewenfeld","3.3.12","1","y","0","left","left","NA","right","right","914","914","NA","68939","50565","2","legacy","2","1024","2","48000","-16","experiment","1","odd","6","479889","482098","484099","485014","484099","NA","478817","479888","11440","208846","423065","11442","158280","480893","80382","Sternberg task ","52","52899","57","yes","1024"
"91.3793103448","91.3793103448","926.137931034","926.137931034","black","experiment","legacy","legacy","legacy","0","uniform","1","1","undefined","left","57","57","57","57","57","0","57","57","0","0","57","0","0","57","0","10/22/22 19:25:09","The main experiment item","yes","Sternbergtask.osexp","C:\Users\ayesh\OneDrive\Desktop","no","mono","no","18","no","white","no","yes","768","legacy","45","11","C:/Users/ayesh/OneDrive/Desktop/MK-subject-2.csv","legacy","4 1 8 7 5","Lentiform Loewenfeld","3.3.12","3","y","0","left","left","NA","right","right","817","817","NA","68939","50565","2","legacy","5","1024","2","48000","-16","experiment","1","odd","8","486093","488298","490299","491117","490299","NA","485019","486091","11440","208846","423065","11442","158280","487094","80382","Sternberg task ","53","53716","58","yes","1024"
"91.5254237288","91.5254237288","924.372881356","924.372881356","black","experiment","legacy","legacy","legacy","0","uniform","1","1","undefined","left","58","58","58","58","58","0","58","58","0","0","58","0","0","58","0","10/22/22 19:25:09","The main experiment item","yes","Sternbergtask.osexp","C:\Users\ayesh\OneDrive\Desktop","no","mono","no","18","no","white","no","yes","768","legacy","46","11","C:/Users/ayesh/OneDrive/Desktop/MK-subject-2.csv","legacy","7 4 2 6 3 5","Lentiform Loewenfeld","3.3.12","6","y","0","left","left","NA","right","right","822","822","NA","68939","50565","2","legacy","6","1024","2","48000","-16","experiment","1","odd","5","492207","494413","496414","497237","496414","NA","491121","492205","11440","208846","423065","11442","158280","493208","80382","Sternberg task ","54","54538","59","yes","1024"
"91.6666666667","91.6666666667","928.683333333","928.683333333","black","experiment","legacy","legacy","legacy","0","uniform","1","1","undefined","left","59","59","59","59","59","0","59","59","0","0","59","0","0","59","0","10/22/22 19:25:09","The main experiment item","yes","Sternbergtask.osexp","C:\Users\ayesh\OneDrive\Desktop","no","mono","no","18","no","white","no","yes","768","legacy","47","11","C:/Users/ayesh/OneDrive/Desktop/MK-subject-2.csv","legacy","3 4 9 6 2 9","Lentiform Loewenfeld","3.3.12","5","y","0","left","left","NA","right","right","1183","1183","NA","68939","50565","2","legacy","6","1024","2","48000","-16","experiment","1","odd","2","498316","500523","502525","503709","502525","NA","497241","498315","11440","208846","423065","11442","158280","499319","80382","Sternberg task ","55","55721","60","yes","1024"
"91.8032786885","91.8032786885","928.06557377","928.06557377","black","experiment","legacy","legacy","legacy","0","uniform","1","1","undefined","left","60","60","60","60","60","0","60","60","0","0","60","0","0","60","0","10/22/22 19:25:09","The main experiment item","yes","Sternbergtask.osexp","C:\Users\ayesh\OneDrive\Desktop","no","mono","no","18","no","white","no","yes","768","legacy","48","11","C:/Users/ayesh/OneDrive/Desktop/MK-subject-2.csv","legacy","8","Lentiform Loewenfeld","3.3.12","1","y","0","left","left","NA","right","right","891","891","NA","68939","50565","2","legacy","1","1024","2","48000","-16","experiment","1","odd","8","504786","506992","508994","509886","508994","NA","503713","504785","11440","208846","423065","11442","158280","505788","80382","Sternberg task ","56","56612","61","yes","1024"
"91.935483871","91.935483871","924.822580645","924.822580645","black","experiment","legacy","legacy","legacy","0","uniform","1","1","undefined","right","61","61","61","61","61","0","61","61","0","0","61","0","0","61","0","10/22/22 19:25:09","The main experiment item","yes","Sternbergtask.osexp","C:\Users\ayesh\OneDrive\Desktop","no","mono","no","18","no","white","no","yes","768","legacy","49","11","C:/Users/ayesh/OneDrive/Desktop/MK-subject-2.csv","legacy","2 3 8 5 6 7","Lentiform Loewenfeld","3.3.12","0","n","0","right","right","NA","right","right","727","727","NA","68939","50565","2","legacy","6","1024","2","48000","-16","experiment","1","odd","1","510967","513172","515174","515902","515174","NA","509893","510966","11440","208846","423065","11442","158280","511968","80382","Sternberg task ","57","57339","62","yes","1024"
"92.0634920635","92.0634920635","923.793650794","923.793650794","black","experiment","legacy","legacy","legacy","0","uniform","1","1","undefined","right","62","62","62","62","62","0","62","62","0","0","62","0","0","62","0","10/22/22 19:25:09","The main experiment item","yes","Sternbergtask.osexp","C:\Users\ayesh\OneDrive\Desktop","no","mono","no","18","no","white","no","yes","768","legacy","50","11","C:/Users/ayesh/OneDrive/Desktop/MK-subject-2.csv","legacy","6 9 7 3 8 2","Lentiform Loewenfeld","3.3.12","0","n","0","right","right","NA","right","right","860","860","NA","68939","50565","2","legacy","6","1024","2","48000","-16","experiment","1","odd","5","516994","519200","521201","522061","521201","NA","515906","516992","11440","208846","423065","11442","158280","517995","80382","Sternberg task ","58","58199","63","yes","1024"
"92.1875","92.1875","918.203125","918.203125","black","experiment","legacy","legacy","legacy","0","uniform","1","1","undefined","left","63","63","63","63","63","0","63","63","0","0","63","0","0","63","0","10/22/22 19:25:09","The main experiment item","yes","Sternbergtask.osexp","C:\Users\ayesh\OneDrive\Desktop","no","mono","no","18","no","white","no","yes","768","legacy","51","11","C:/Users/ayesh/OneDrive/Desktop/MK-subject-2.csv","legacy","8 5 4 7 3 1","Lentiform Loewenfeld","3.3.12","2","y","0","left","left","NA","right","right","566","566","NA","68939","50565","2","legacy","6","1024","2","48000","-16","experiment","1","odd","5","523143","525349","527350","527917","527350","NA","522070","523141","11440","208846","423065","11442","158280","524144","80382","Sternberg task ","59","58765","64","yes","1024"
"92.3076923077","92.3076923077","915.630769231","915.630769231","black","experiment","legacy","legacy","legacy","0","uniform","1","1","undefined","right","64","64","64","64","64","0","64","64","0","0","64","0","0","64","0","10/22/22 19:25:09","The main experiment item","yes","Sternbergtask.osexp","C:\Users\ayesh\OneDrive\Desktop","no","mono","no","18","no","white","no","yes","768","legacy","52","11","C:/Users/ayesh/OneDrive/Desktop/MK-subject-2.csv","legacy","4 2 6 9","Lentiform Loewenfeld","3.3.12","0","n","0","right","right","NA","right","right","751","751","NA","68939","50565","2","legacy","4","1024","2","48000","-16","experiment","1","odd","7","528999","531204","533205","533957","533205","NA","527923","528997","11440","208846","423065","11442","158280","530000","80382","Sternberg task ","60","59516","65","yes","1024"
"92.4242424242","92.4242424242","914.651515152","914.651515152","black","experiment","legacy","legacy","legacy","0","uniform","1","1","undefined","right","65","65","65","65","65","0","65","65","0","0","65","0","0","65","0","10/22/22 19:25:09","The main experiment item","yes","Sternbergtask.osexp","C:\Users\ayesh\OneDrive\Desktop","no","mono","no","18","no","white","no","yes","768","legacy","53","11","C:/Users/ayesh/OneDrive/Desktop/MK-subject-2.csv","legacy","1","Lentiform Loewenfeld","3.3.12","0","n","0","right","right","NA","right","right","851","851","NA","68939","50565","2","legacy","1","1024","2","48000","-16","experiment","1","odd","7","535051","537256","539258","540110","539258","NA","533961","535049","11440","208846","423065","11442","158280","536052","80382","Sternberg task ","61","60367","66","yes","1024"
"92.5373134328","92.5373134328","913.134328358","913.134328358","black","experiment","legacy","legacy","legacy","0","uniform","1","1","undefined","right","66","66","66","66","66","0","66","66","0","0","66","0","0","66","0","10/22/22 19:25:09","The main experiment item","yes","Sternbergtask.osexp","C:\Users\ayesh\OneDrive\Desktop","no","mono","no","18","no","white","no","yes","768","legacy","54","11","C:/Users/ayesh/OneDrive/Desktop/MK-subject-2.csv","legacy","8 2 1 4 5 9","Lentiform Loewenfeld","3.3.12","0","n","0","right","right","NA","right","right","813","813","NA","68939","50565","2","legacy","6","1024","2","48000","-16","experiment","1","odd","7","541202","543407","545408","546222","545408","NA","540115","541200","11440","208846","423065","11442","158280","542203","80382","Sternberg task ","62","61180","67","yes","1024"
"92.6470588235","92.6470588235","915.176470588","915.176470588","black","experiment","legacy","legacy","legacy","0","uniform","1","1","undefined","right","67","67","67","67","67","0","67","67","0","0","67","0","0","67","0","10/22/22 19:25:09","The main experiment item","yes","Sternbergtask.osexp","C:\Users\ayesh\OneDrive\Desktop","no","mono","no","18","no","white","no","yes","768","legacy","55","11","C:/Users/ayesh/OneDrive/Desktop/MK-subject-2.csv","legacy","4 1","Lentiform Loewenfeld","3.3.12","0","n","0","right","right","NA","right","right","1052","1052","NA","68939","50565","2","legacy","2","1024","2","48000","-16","experiment","1","odd","6","547298","549503","551505","552558","551505","NA","546226","547297","11440","208846","423065","11442","158280","548299","80382","Sternberg task ","63","62232","68","yes","1024"
"92.7536231884","92.7536231884","914.289855072","914.289855072","black","experiment","legacy","legacy","legacy","0","uniform","1","1","undefined","right","68","68","68","68","68","0","68","68","0","0","68","0","0","68","0","10/22/22 19:25:09","The main experiment item","yes","Sternbergtask.osexp","C:\Users\ayesh\OneDrive\Desktop","no","mono","no","18","no","white","no","yes","768","legacy","56","11","C:/Users/ayesh/OneDrive/Desktop/MK-subject-2.csv","legacy","2 8 9","Lentiform Loewenfeld","3.3.12","0","n","0","right","right","NA","right","right","854","854","NA","68939","50565","2","legacy","3","1024","2","48000","-16","experiment","1","odd","6","553663","555869","557870","558726","557870","NA","552574","553661","11440","208846","423065","11442","158280","554664","80382","Sternberg task ","64","63086","69","yes","1024"
"92.8571428571","92.8571428571","911.214285714","911.214285714","black","experiment","legacy","legacy","legacy","0","uniform","1","1","undefined","right","69","69","69","69","69","0","69","69","0","0","69","0","0","69","0","10/22/22 19:25:09","The main experiment item","yes","Sternbergtask.osexp","C:\Users\ayesh\OneDrive\Desktop","no","mono","no","18","no","white","no","yes","768","legacy","57","11","C:/Users/ayesh/OneDrive/Desktop/MK-subject-2.csv","legacy","6 9 4 5 2","Lentiform Loewenfeld","3.3.12","0","n","0","right","right","NA","right","right","699","699","NA","68939","50565","2","legacy","5","1024","2","48000","-16","experiment","1","odd","1","559802","562007","564009","564709","564009","NA","558729","559800","11440","208846","423065","11442","158280","560803","80382","Sternberg task ","65","63785","70","yes","1024"
"92.9577464789","92.9577464789","913.394366197","913.394366197","black","experiment","legacy","legacy","legacy","0","uniform","1","1","undefined","left","70","70","70","70","70","0","70","70","0","0","70","0","0","70","0","10/22/22 19:25:09","The main experiment item","yes","Sternbergtask.osexp","C:\Users\ayesh\OneDrive\Desktop","no","mono","no","18","no","white","no","yes","768","legacy","58","11","C:/Users/ayesh/OneDrive/Desktop/MK-subject-2.csv","legacy","6 7 8 5","Lentiform Loewenfeld","3.3.12","3","y","0","left","left","NA","right","right","1066","1066","NA","68939","50565","2","legacy","4","1024","2","48000","-16","experiment","1","odd","8","565788","567992","569994","571062","569994","NA","564713","565787","11440","208846","423065","11442","158280","566789","80382","Sternberg task ","66","64851","71","yes","1024"
"93.0555555556","93.0555555556","912.152777778","912.152777778","black","experiment","legacy","legacy","legacy","0","uniform","1","1","undefined","left","71","71","71","71","71","0","71","71","0","0","71","0","0","71","0","10/22/22 19:25:09","The main experiment item","yes","Sternbergtask.osexp","C:\Users\ayesh\OneDrive\Desktop","no","mono","no","18","no","white","no","yes","768","legacy","59","11","C:/Users/ayesh/OneDrive/Desktop/MK-subject-2.csv","legacy","8 7 3","Lentiform Loewenfeld","3.3.12","1","y","0","left","left","NA","right","right","824","824","NA","68939","50565","2","legacy","3","1024","2","48000","-16","experiment","1","odd","8","572150","574355","576356","577182","576356","NA","571069","572148","11440","208846","423065","11442","158280","573151","80382","Sternberg task ","67","65675","72","yes","1024"
"93.1506849315","93.1506849315","911.917808219","911.917808219","black","experiment","legacy","legacy","legacy","0","uniform","1","1","undefined","left","72","72","72","72","72","0","72","72","0","0","72","0","0","72","0","10/22/22 19:25:09","The main experiment item","yes","Sternbergtask.osexp","C:\Users\ayesh\OneDrive\Desktop","no","mono","no","18","no","white","no","yes","768","legacy","60","11","C:/Users/ayesh/OneDrive/Desktop/MK-subject-2.csv","legacy","3 4","Lentiform Loewenfeld","3.3.12","1","y","0","left","left","NA","right","right","895","895","NA","68939","50565","2","legacy","2","1024","2","48000","-16","experiment","1","odd","3","578260","580468","582470","583366","582470","NA","577187","578259","11440","208846","423065","11442","158280","579264","80382","Sternberg task ","68","66570","73","yes","1024"
"93.2432432432","93.2432432432","909.702702703","909.702702703","black","experiment","legacy","legacy","legacy","0","uniform","1","1","undefined","right","73","73","73","73","73","0","73","73","0","0","73","0","0","73","0","10/22/22 19:25:09","The main experiment item","yes","Sternbergtask.osexp","C:\Users\ayesh\OneDrive\Desktop","no","mono","no","18","no","white","no","yes","768","legacy","61","11","C:/Users/ayesh/OneDrive/Desktop/MK-subject-2.csv","legacy","7 1 8 4 9 3","Lentiform Loewenfeld","3.3.12","0","n","0","right","right","NA","right","right","748","748","NA","68939","50565","2","legacy","6","1024","2","48000","-16","experiment","1","odd","6","584443","586648","588649","589399","588649","NA","583370","584442","11440","208846","423065","11442","158280","585444","80382","Sternberg task ","69","67318","74","yes","1024"
"93.3333333333","93.3333333333","907.32","907.32","black","experiment","legacy","legacy","legacy","0","uniform","1","1","undefined","left","74","74","74","74","74","0","74","74","0","0","74","0","0","74","0","10/22/22 19:25:09","The main experiment item","yes","Sternbergtask.osexp","C:\Users\ayesh\OneDrive\Desktop","no","mono","no","18","no","white","no","yes","768","legacy","62","11","C:/Users/ayesh/OneDrive/Desktop/MK-subject-2.csv","legacy","8 9 6 1","Lentiform Loewenfeld","3.3.12","2","y","0","left","left","NA","right","right","731","731","NA","68939","50565","2","legacy","4","1024","2","48000","-16","experiment","1","odd","9","590491","592696","594697","595429","594697","NA","589405","590489","11440","208846","423065","11442","158280","591492","80382","Sternberg task ","70","68049","75","yes","1024"
"93.4210526316","93.4210526316","904.5","904.5","black","experiment","legacy","legacy","legacy","0","uniform","1","1","undefined","right","75","75","75","75","75","0","75","75","0","0","75","0","0","75","0","10/22/22 19:25:09","The main experiment item","yes","Sternbergtask.osexp","C:\Users\ayesh\OneDrive\Desktop","no","mono","no","18","no","white","no","yes","768","legacy","63","11","C:/Users/ayesh/OneDrive/Desktop/MK-subject-2.csv","legacy","2 5 1 4","Lentiform Loewenfeld","3.3.12","0","n","0","right","right","NA","right","right","693","693","NA","68939","50565","2","legacy","4","1024","2","48000","-16","experiment","1","odd","6","596509","598718","600720","601414","600720","NA","595436","596507","11440","208846","423065","11442","158280","597513","80382","Sternberg task ","71","68742","76","yes","1024"
"93.5064935065","93.5064935065","901.506493506","901.506493506","black","experiment","legacy","legacy","legacy","0","uniform","1","1","undefined","right","76","76","76","76","76","0","76","76","0","0","76","0","0","76","0","10/22/22 19:25:09","The main experiment item","yes","Sternbergtask.osexp","C:\Users\ayesh\OneDrive\Desktop","no","mono","no","18","no","white","no","yes","768","legacy","64","11","C:/Users/ayesh/OneDrive/Desktop/MK-subject-2.csv","legacy","5 2","Lentiform Loewenfeld","3.3.12","0","n","0","right","right","NA","right","right","674","674","NA","68939","50565","2","legacy","2","1024","2","48000","-16","experiment","1","odd","7","602491","604696","606698","607373","606698","NA","601417","602489","11440","208846","423065","11442","158280","603492","80382","Sternberg task ","72","69416","77","yes","1024"
"93.5897435897","93.5897435897","898.282051282","898.282051282","black","experiment","legacy","legacy","legacy","0","uniform","1","1","undefined","right","77","77","77","77","77","0","77","77","0","0","77","0","0","77","0","10/22/22 19:25:09","The main experiment item","yes","Sternbergtask.osexp","C:\Users\ayesh\OneDrive\Desktop","no","mono","no","18","no","white","no","yes","768","legacy","65","11","C:/Users/ayesh/OneDrive/Desktop/MK-subject-2.csv","legacy","7 9","Lentiform Loewenfeld","3.3.12","0","n","0","right","right","NA","right","right","650","650","NA","68939","50565","2","legacy","2","1024","2","48000","-16","experiment","1","odd","1","608452","610658","612659","613310","612659","NA","607377","608448","11440","208846","423065","11442","158280","609453","80382","Sternberg task ","73","70066","78","yes","1024"
"92.4050632911","92.4050632911","895.721518987","895.721518987","black","experiment","legacy","legacy","legacy","0","uniform","0","0","undefined","left","78","78","78","78","78","0","78","78","0","0","78","0","0","78","0","10/22/22 19:25:09","The main experiment item","yes","Sternbergtask.osexp","C:\Users\ayesh\OneDrive\Desktop","no","mono","no","18","no","white","no","yes","768","legacy","66","11","C:/Users/ayesh/OneDrive/Desktop/MK-subject-2.csv","legacy","8 1 6","Lentiform Loewenfeld","3.3.12","3","y","0","right","right","NA","right","right","696","696","NA","68939","50565","2","legacy","3","1024","2","48000","-16","experiment","1","odd","6","614385","616591","618597","619294","618596","NA","613314","614384","11440","208846","423065","11442","158280","615387","80382","Sternberg task ","73","70762","79","yes","1024"
"92.5","92.5","895.775","895.775","black","experiment","legacy","legacy","legacy","0","uniform","1","1","undefined","right","79","79","79","79","79","0","79","79","0","0","79","0","0","79","0","10/22/22 19:25:09","The main experiment item","yes","Sternbergtask.osexp","C:\Users\ayesh\OneDrive\Desktop","no","mono","no","18","no","white","no","yes","768","legacy","67","11","C:/Users/ayesh/OneDrive/Desktop/MK-subject-2.csv","legacy","7 4 2 8 1 9","Lentiform Loewenfeld","3.3.12","0","n","0","right","right","NA","right","right","900","900","NA","68939","50565","2","legacy","6","1024","2","48000","-16","experiment","1","odd","5","620371","622576","624577","625478","624577","NA","613314","620369","11440","208846","619297","11442","158280","621372","80382","Sternberg task ","74","71662","80","yes","1024"
"92.5925925926","92.5925925926","895.518518519","895.518518519","black","experiment","legacy","legacy","legacy","0","uniform","1","1","undefined","right","80","80","80","80","80","0","80","80","0","0","80","0","0","80","0","10/22/22 19:25:09","The main experiment item","yes","Sternbergtask.osexp","C:\Users\ayesh\OneDrive\Desktop","no","mono","no","18","no","white","no","yes","768","legacy","68","11","C:/Users/ayesh/OneDrive/Desktop/MK-subject-2.csv","legacy","2 8 6 3 1","Lentiform Loewenfeld","3.3.12","0","n","0","right","right","NA","right","right","875","875","NA","68939","50565","2","legacy","5","1024","2","48000","-16","experiment","1","odd","7","626560","628765","630770","631645","630769","NA","625487","626558","11440","208846","619297","11442","158280","627561","80382","Sternberg task ","75","72537","81","yes","1024"
"92.6829268293","92.6829268293","895.853658537","895.853658537","black","experiment","legacy","legacy","legacy","0","uniform","1","1","undefined","right","81","81","81","81","81","0","81","81","0","0","81","0","0","81","0","10/22/22 19:25:09","The main experiment item","yes","Sternbergtask.osexp","C:\Users\ayesh\OneDrive\Desktop","no","mono","no","18","no","white","no","yes","768","legacy","69","11","C:/Users/ayesh/OneDrive/Desktop/MK-subject-2.csv","legacy","5 3 2 6 9 8","Lentiform Loewenfeld","3.3.12","0","n","0","right","right","NA","right","right","923","923","NA","68939","50565","2","legacy","6","1024","2","48000","-16","experiment","1","odd","4","632723","634929","636930","637854","636930","NA","631651","632722","11440","208846","619297","11442","158280","633724","80382","Sternberg task ","76","73460","82","yes","1024"
"92.7710843373","92.7710843373","897.048192771","897.048192771","black","experiment","legacy","legacy","legacy","0","uniform","1","1","undefined","left","82","82","82","82","82","0","82","82","0","0","82","0","0","82","0","10/22/22 19:25:09","The main experiment item","yes","Sternbergtask.osexp","C:\Users\ayesh\OneDrive\Desktop","no","mono","no","18","no","white","no","yes","768","legacy","70","11","C:/Users/ayesh/OneDrive/Desktop/MK-subject-2.csv","legacy","2 5 4 8 7","Lentiform Loewenfeld","3.3.12","3","y","0","left","left","NA","right","right","995","995","NA","68939","50565","2","legacy","5","1024","2","48000","-16","experiment","1","odd","4","638931","641137","643138","644134","643138","NA","637858","638929","11440","208846","619297","11442","158280","639933","80382","Sternberg task ","77","74455","83","yes","1024"
"92.8571428571","92.8571428571","896","896","black","experiment","legacy","legacy","legacy","0","uniform","1","1","undefined","right","83","83","83","83","83","0","83","83","0","0","83","0","0","83","0","10/22/22 19:25:09","The main experiment item","yes","Sternbergtask.osexp","C:\Users\ayesh\OneDrive\Desktop","no","mono","no","18","no","white","no","yes","768","legacy","71","11","C:/Users/ayesh/OneDrive/Desktop/MK-subject-2.csv","legacy","2 6 4 3 9","Lentiform Loewenfeld","3.3.12","0","n","0","right","right","NA","right","right","809","809","NA","68939","50565","2","legacy","5","1024","2","48000","-16","experiment","1","odd","1","645229","647435","649436","650246","649436","NA","644138","645228","11440","208846","619297","11442","158280","646230","80382","Sternberg task ","78","75264","84","yes","1024"
"92.9411764706","92.9411764706","897.247058824","897.247058824","black","experiment","legacy","legacy","legacy","0","uniform","1","1","undefined","right","84","84","84","84","84","0","84","84","0","0","84","0","0","84","0","10/22/22 19:25:09","The main experiment item","yes","Sternbergtask.osexp","C:\Users\ayesh\OneDrive\Desktop","no","mono","no","18","no","white","no","yes","768","legacy","72","11","C:/Users/ayesh/OneDrive/Desktop/MK-subject-2.csv","legacy","1 7 5 2 9","Lentiform Loewenfeld","3.3.12","0","n","0","right","right","NA","right","right","1002","1002","NA","68939","50565","2","legacy","5","1024","2","48000","-16","experiment","1","odd","3","651323","653529","655530","656534","655530","NA","650250","651321","11440","208846","619297","11442","158280","652324","80382","Sternberg task ","79","76266","85","yes","1024"
"93.023255814","93.023255814","896.279069767","896.279069767","black","experiment","legacy","legacy","legacy","0","uniform","1","1","undefined","right","85","85","85","85","85","0","85","85","0","0","85","0","0","85","0","10/22/22 19:25:09","The main experiment item","yes","Sternbergtask.osexp","C:\Users\ayesh\OneDrive\Desktop","no","mono","no","18","no","white","no","yes","768","legacy","73","11","C:/Users/ayesh/OneDrive/Desktop/MK-subject-2.csv","legacy","5 3 8 7 2 4","Lentiform Loewenfeld","3.3.12","0","n","0","right","right","NA","right","right","814","814","NA","68939","50565","2","legacy","6","1024","2","48000","-16","experiment","1","odd","9","657617","659822","661823","662638","661823","NA","656541","657616","11440","208846","619297","11442","158280","658617","80382","Sternberg task ","80","77080","86","yes","1024"
"93.1034482759","93.1034482759","894.942528736","894.942528736","black","experiment","legacy","legacy","legacy","0","uniform","1","1","undefined","right","86","86","86","86","86","0","86","86","0","0","86","0","0","86","0","10/22/22 19:25:09","The main experiment item","yes","Sternbergtask.osexp","C:\Users\ayesh\OneDrive\Desktop","no","mono","no","18","no","white","no","yes","768","legacy","74","11","C:/Users/ayesh/OneDrive/Desktop/MK-subject-2.csv","legacy","6 8 4","Lentiform Loewenfeld","3.3.12","0","n","0","right","right","NA","right","right","780","780","NA","68939","50565","2","legacy","3","1024","2","48000","-16","experiment","1","odd","1","663713","665919","667921","668702","667921","NA","662641","663711","11440","208846","619297","11442","158280","664714","80382","Sternberg task ","81","77860","87","yes","1024"
"93.1818181818","93.1818181818","893.102272727","893.102272727","black","experiment","legacy","legacy","legacy","0","uniform","1","1","undefined","right","87","87","87","87","87","0","87","87","0","0","87","0","0","87","0","10/22/22 19:25:09","The main experiment item","yes","Sternbergtask.osexp","C:\Users\ayesh\OneDrive\Desktop","no","mono","no","18","no","white","no","yes","768","legacy","75","11","C:/Users/ayesh/OneDrive/Desktop/MK-subject-2.csv","legacy","5","Lentiform Loewenfeld","3.3.12","0","n","0","right","right","NA","right","right","733","733","NA","68939","50565","2","legacy","1","1024","2","48000","-16","experiment","1","odd","8","669778","671982","673984","674718","673984","NA","668705","669775","11440","208846","619297","11442","158280","670779","80382","Sternberg task ","82","78593","88","yes","1024"
"93.2584269663","93.2584269663","892.258426966","892.258426966","black","experiment","legacy","legacy","legacy","0","uniform","1","1","undefined","right","88","88","88","88","88","0","88","88","0","0","88","0","0","88","0","10/22/22 19:25:09","The main experiment item","yes","Sternbergtask.osexp","C:\Users\ayesh\OneDrive\Desktop","no","mono","no","18","no","white","no","yes","768","legacy","76","11","C:/Users/ayesh/OneDrive/Desktop/MK-subject-2.csv","legacy","1 7 8 3 9","Lentiform Loewenfeld","3.3.12","0","n","0","right","right","NA","right","right","818","818","NA","68939","50565","2","legacy","5","1024","2","48000","-16","experiment","1","odd","2","675795","678001","680003","680822","680003","NA","674721","675793","11440","208846","619297","11442","158280","676797","80382","Sternberg task ","83","79411","89","yes","1024"
"93.3333333333","93.3333333333","890.744444444","890.744444444","black","experiment","legacy","legacy","legacy","0","uniform","1","1","undefined","right","89","89","89","89","89","0","89","89","0","0","89","0","0","89","0","10/22/22 19:25:09","The main experiment item","yes","Sternbergtask.osexp","C:\Users\ayesh\OneDrive\Desktop","no","mono","no","18","no","white","no","yes","768","legacy","77","11","C:/Users/ayesh/OneDrive/Desktop/MK-subject-2.csv","legacy","8 4 3 9","Lentiform Loewenfeld","3.3.12","0","n","0","right","right","NA","right","right","756","756","NA","68939","50565","2","legacy","4","1024","2","48000","-16","experiment","1","odd","5","681911","684118","686120","686877","686120","NA","680826","681909","11440","208846","619297","11442","158280","682915","80382","Sternberg task ","84","80167","90","yes","1024"
"93.4065934066","93.4065934066","889.153846154","889.153846154","black","experiment","legacy","legacy","legacy","0","uniform","1","1","undefined","left","90","90","90","90","90","0","90","90","0","0","90","0","0","90","0","10/22/22 19:25:09","The main experiment item","yes","Sternbergtask.osexp","C:\Users\ayesh\OneDrive\Desktop","no","mono","no","18","no","white","no","yes","768","legacy","78","11","C:/Users/ayesh/OneDrive/Desktop/MK-subject-2.csv","legacy","9 3 8 2 1 4","Lentiform Loewenfeld","3.3.12","3","y","0","left","left","NA","right","right","746","746","NA","68939","50565","2","legacy","6","1024","2","48000","-16","experiment","1","odd","8","687956","690162","692163","692910","692163","NA","686881","687954","11440","208846","619297","11442","158280","688958","80382","Sternberg task ","85","80913","91","yes","1024"
"92.3913043478","92.3913043478","891.836956522","891.836956522","black","experiment","legacy","legacy","legacy","0","uniform","0","0","undefined","left","91","91","91","91","91","0","91","91","0","0","91","0","0","91","0","10/22/22 19:25:09","The main experiment item","yes","Sternbergtask.osexp","C:\Users\ayesh\OneDrive\Desktop","no","mono","no","18","no","white","no","yes","768","legacy","79","11","C:/Users/ayesh/OneDrive/Desktop/MK-subject-2.csv","legacy","5 7 3 6 2","Lentiform Loewenfeld","3.3.12","5","y","0","right","right","NA","right","right","1136","1136","NA","68939","50565","2","legacy","5","1024","2","48000","-16","experiment","1","odd","2","693998","696203","698205","699342","698205","NA","692914","693996","11440","208846","619297","11442","158280","694999","80382","Sternberg task ","85","82049","92","yes","1024"
"92.4731182796","92.4731182796","890.311827957","890.311827957","black","experiment","legacy","legacy","legacy","0","uniform","1","1","undefined","right","92","92","92","92","92","0","92","92","0","0","92","0","0","92","0","10/22/22 19:25:09","The main experiment item","yes","Sternbergtask.osexp","C:\Users\ayesh\OneDrive\Desktop","no","mono","no","18","no","white","no","yes","768","legacy","80","11","C:/Users/ayesh/OneDrive/Desktop/MK-subject-2.csv","legacy","1 4 9 2 5","Lentiform Loewenfeld","3.3.12","0","n","0","right","right","NA","right","right","750","750","NA","68939","50565","2","legacy","5","1024","2","48000","-16","experiment","1","odd","7","700420","702622","704623","705374","704623","NA","692914","700418","11440","208846","699347","11442","158280","701421","80382","Sternberg task ","86","82799","93","yes","1024"
"92.5531914894","92.5531914894","888.180851064","888.180851064","black","experiment","legacy","legacy","legacy","0","uniform","1","1","undefined","left","93","93","93","93","93","0","93","93","0","0","93","0","0","93","0","10/22/22 19:25:09","The main experiment item","yes","Sternbergtask.osexp","C:\Users\ayesh\OneDrive\Desktop","no","mono","no","18","no","white","no","yes","768","legacy","81","11","C:/Users/ayesh/OneDrive/Desktop/MK-subject-2.csv","legacy","6 7 9 3 1 2","Lentiform Loewenfeld","3.3.12","1","y","0","left","left","NA","right","right","690","690","NA","68939","50565","2","legacy","6","1024","2","48000","-16","experiment","1","odd","6","706454","708656","710658","711349","710658","NA","705379","706452","11440","208846","699347","11442","158280","707455","80382","Sternberg task ","87","83489","94","yes","1024"
"91.5789473684","91.5789473684","893","893","black","experiment","legacy","legacy","legacy","0","uniform","0","0","undefined","left","94","94","94","94","94","0","94","94","0","0","94","0","0","94","0","10/22/22 19:25:09","The main experiment item","yes","Sternbergtask.osexp","C:\Users\ayesh\OneDrive\Desktop","no","mono","no","18","no","white","no","yes","768","legacy","82","11","C:/Users/ayesh/OneDrive/Desktop/MK-subject-2.csv","legacy","5 7 8 2 3 8","Lentiform Loewenfeld","3.3.12","5","y","0","right","right","NA","right","right","1346","1346","NA","68939","50565","2","legacy","6","1024","2","48000","-16","experiment","1","odd","3","712427","714632","716634","717982","716634","NA","711354","712424","11440","208846","699347","11442","158280","713428","80382","Sternberg task ","87","84835","95","yes","1024"
"91.6666666667","91.6666666667","896.78125","896.78125","black","experiment","legacy","legacy","legacy","0","uniform","1","1","undefined","left","95","95","95","95","95","0","95","95","0","0","95","0","0","95","0","10/22/22 19:25:09","The main experiment item","yes","Sternbergtask.osexp","C:\Users\ayesh\OneDrive\Desktop","no","mono","no","18","no","white","no","yes","768","legacy","83","11","C:/Users/ayesh/OneDrive/Desktop/MK-subject-2.csv","legacy","1 4 9 3 2 5","Lentiform Loewenfeld","3.3.12","3","y","0","left","left","NA","right","right","1256","1256","NA","68939","50565","2","legacy","6","1024","2","48000","-16","experiment","1","odd","9","719061","721267","723268","724526","723268","NA","711354","719059","11440","208846","717986","11442","158280","720062","80382","Sternberg task ","88","86091","96","yes","1024"
"91.7525773196","91.7525773196","895.041237113","895.041237113","black","experiment","legacy","legacy","legacy","0","uniform","1","1","undefined","left","96","96","96","96","96","0","96","96","0","0","96","0","0","96","0","10/22/22 19:25:09","The main experiment item","yes","Sternbergtask.osexp","C:\Users\ayesh\OneDrive\Desktop","no","mono","no","18","no","white","no","yes","768","legacy","84","11","C:/Users/ayesh/OneDrive/Desktop/MK-subject-2.csv","legacy","2 3 7 4","Lentiform Loewenfeld","3.3.12","1","y","0","left","left","NA","right","right","728","728","NA","68939","50565","2","legacy","4","1024","2","48000","-16","experiment","1","odd","2","725608","727811","729812","730542","729812","NA","724532","725606","11440","208846","717986","11442","158280","726609","80382","Sternberg task ","89","86819","97","yes","1024"
"91.8367346939","91.8367346939","893.193877551","893.193877551","black","experiment","legacy","legacy","legacy","0","uniform","1","1","undefined","left","97","97","97","97","97","0","97","97","0","0","97","0","0","97","0","10/22/22 19:25:09","The main experiment item","yes","Sternbergtask.osexp","C:\Users\ayesh\OneDrive\Desktop","no","mono","no","18","no","white","no","yes","768","legacy","85","11","C:/Users/ayesh/OneDrive/Desktop/MK-subject-2.csv","legacy","6 5","Lentiform Loewenfeld","3.3.12","2","y","0","left","left","NA","right","right","714","714","NA","68939","50565","2","legacy","2","1024","2","48000","-16","experiment","1","odd","5","731620","733826","735827","736542","735827","NA","730547","731618","11440","208846","717986","11442","158280","732621","80382","Sternberg task ","90","87533","98","yes","1024"
"91.9191919192","91.9191919192","890.777777778","890.777777778","black","experiment","legacy","legacy","legacy","0","uniform","1","1","undefined","right","98","98","98","98","98","0","98","98","0","0","98","0","0","98","0","10/22/22 19:25:09","The main experiment item","yes","Sternbergtask.osexp","C:\Users\ayesh\OneDrive\Desktop","no","mono","no","18","no","white","no","yes","768","legacy","86","11","C:/Users/ayesh/OneDrive/Desktop/MK-subject-2.csv","legacy","6 7 5 9","Lentiform Loewenfeld","3.3.12","0","n","0","right","right","NA","right","right","654","654","NA","68939","50565","2","legacy","4","1024","2","48000","-16","experiment","1","odd","2","737620","739829","741830","742486","741830","NA","736546","737618","11440","208846","717986","11442","158280","738624","80382","Sternberg task ","91","88187","99","yes","1024"
"92","92","889.69","889.69","black","experiment","legacy","legacy","legacy","0","uniform","1","1","undefined","left","99","99","99","99","99","0","99","99","0","0","99","0","0","99","0","10/22/22 19:25:09","The main experiment item","yes","Sternbergtask.osexp","C:\Users\ayesh\OneDrive\Desktop","no","mono","no","18","no","white","no","yes","768","legacy","87","11","C:/Users/ayesh/OneDrive/Desktop/MK-subject-2.csv","legacy","7","Lentiform Loewenfeld","3.3.12","1","y","0","left","left","NA","right","right","782","782","NA","68939","50565","2","legacy","1","1024","2","48000","-16","experiment","1","odd","7","743580","745786","747791","748574","747790","NA","742492","743578","11440","208846","717986","11442","158280","744581","80382","Sternberg task ","92","88969","100","yes","1024"
"92.0792079208","92.0792079208","890.138613861","890.138613861","black","experiment","legacy","legacy","legacy","0","uniform","1","1","undefined","left","100","100","100","100","100","0","100","100","0","0","100","0","0","100","0","10/22/22 19:25:09","The main experiment item","yes","Sternbergtask.osexp","C:\Users\ayesh\OneDrive\Desktop","no","mono","no","18","no","white","no","yes","768","legacy","88","11","C:/Users/ayesh/OneDrive/Desktop/MK-subject-2.csv","legacy","7 1 3","Lentiform Loewenfeld","3.3.12","2","y","0","left","left","NA","right","right","935","935","NA","68939","50565","2","legacy","3","1024","2","48000","-16","experiment","1","odd","1","749662","751867","753869","754805","753869","NA","748578","749660","11440","208846","717986","11442","158280","750663","80382","Sternberg task ","93","89904","101","yes","1024"
"92.1568627451","92.1568627451","888.637254902","888.637254902","black","experiment","legacy","legacy","legacy","0","uniform","1","1","undefined","right","101","101","101","101","101","0","101","101","0","0","101","0","0","101","0","10/22/22 19:25:09","The main experiment item","yes","Sternbergtask.osexp","C:\Users\ayesh\OneDrive\Desktop","no","mono","no","18","no","white","no","yes","768","legacy","89","11","C:/Users/ayesh/OneDrive/Desktop/MK-subject-2.csv","legacy","2 8 7 9 5 3","Lentiform Loewenfeld","3.3.12","0","n","0","right","right","NA","right","right","737","737","NA","68939","50565","2","legacy","6","1024","2","48000","-16","experiment","1","odd","6","755885","758090","760092","760830","760092","NA","754810","755882","11440","208846","717986","11442","158280","756886","80382","Sternberg task ","94","90641","102","yes","1024"
"92.2330097087","92.2330097087","888.815533981","888.815533981","black","experiment","legacy","legacy","legacy","0","uniform","1","1","undefined","left","102","102","102","102","102","0","102","102","0","0","102","0","0","102","0","10/22/22 19:25:09","The main experiment item","yes","Sternbergtask.osexp","C:\Users\ayesh\OneDrive\Desktop","no","mono","no","18","no","white","no","yes","768","legacy","90","11","C:/Users/ayesh/OneDrive/Desktop/MK-subject-2.csv","legacy","7 8 4 6 9 5","Lentiform Loewenfeld","3.3.12","4","y","0","left","left","NA","right","right","907","907","NA","68939","50565","2","legacy","6","1024","2","48000","-16","experiment","1","odd","6","761906","764113","766114","767022","766114","NA","760834","761904","11440","208846","717986","11442","158280","762908","80382","Sternberg task ","95","91548","103","yes","1024"
"92.3076923077","92.3076923077","887.528846154","887.528846154","black","experiment","legacy","legacy","legacy","0","uniform","1","1","undefined","right","103","103","103","103","103","0","103","103","0","0","103","0","0","103","0","10/22/22 19:25:09","The main experiment item","yes","Sternbergtask.osexp","C:\Users\ayesh\OneDrive\Desktop","no","mono","no","18","no","white","no","yes","768","legacy","91","11","C:/Users/ayesh/OneDrive/Desktop/MK-subject-2.csv","legacy","1 3 2 6 9","Lentiform Loewenfeld","3.3.12","0","n","0","right","right","NA","right","right","755","755","NA","68939","50565","2","legacy","5","1024","2","48000","-16","experiment","1","odd","5","768099","770305","772306","773062","772306","NA","767026","768097","11440","208846","717986","11442","158280","769100","80382","Sternberg task ","96","92303","104","yes","1024"
"92.380952381","92.380952381","887.961904762","887.961904762","black","experiment","legacy","legacy","legacy","0","uniform","1","1","undefined","left","104","104","104","104","104","0","104","104","0","0","104","0","0","104","0","10/22/22 19:25:09","The main experiment item","yes","Sternbergtask.osexp","C:\Users\ayesh\OneDrive\Desktop","no","mono","no","18","no","white","no","yes","768","legacy","92","11","C:/Users/ayesh/OneDrive/Desktop/MK-subject-2.csv","legacy","6 9 3 1","Lentiform Loewenfeld","3.3.12","4","y","0","left","left","NA","right","right","933","933","NA","68939","50565","2","legacy","4","1024","2","48000","-16","experiment","1","odd","1","774137","776343","778344","779279","778344","NA","773065","774135","11440","208846","717986","11442","158280","775138","80382","Sternberg task ","97","93236","105","yes","1024"
"91.5094339623","91.5094339623","888.367924528","888.367924528","black","experiment","legacy","legacy","legacy","0","uniform","0","0","undefined","right","105","105","105","105","105","0","105","105","0","0","105","0","0","105","0","10/22/22 19:25:09","The main experiment item","yes","Sternbergtask.osexp","C:\Users\ayesh\OneDrive\Desktop","no","mono","no","18","no","white","no","yes","768","legacy","93","11","C:/Users/ayesh/OneDrive/Desktop/MK-subject-2.csv","legacy","5 7 3","Lentiform Loewenfeld","3.3.12","0","n","0","left","left","NA","right","right","931","931","NA","68939","50565","2","legacy","3","1024","2","48000","-16","experiment","1","odd","9","780356","782561","784562","785494","784562","NA","779283","780354","11440","208846","717986","11442","158280","781357","80382","Sternberg task ","97","94167","106","yes","1024"
"91.5887850467","91.5887850467","891.962616822","891.962616822","black","experiment","legacy","legacy","legacy","0","uniform","1","1","undefined","left","106","106","106","106","106","0","106","106","0","0","106","0","0","106","0","10/22/22 19:25:09","The main experiment item","yes","Sternbergtask.osexp","C:\Users\ayesh\OneDrive\Desktop","no","mono","no","18","no","white","no","yes","768","legacy","94","11","C:/Users/ayesh/OneDrive/Desktop/MK-subject-2.csv","legacy","3 5 4 7","Lentiform Loewenfeld","3.3.12","1","y","0","left","left","NA","right","right","1273","1273","NA","68939","50565","2","legacy","4","1024","2","48000","-16","experiment","1","odd","3","786573","788778","790780","792054","790779","NA","779283","786571","11440","208846","785501","11442","158280","787574","80382","Sternberg task ","98","95440","107","yes","1024"
"91.6666666667","91.6666666667","892.546296296","892.546296296","black","experiment","legacy","legacy","legacy","0","uniform","1","1","undefined","right","107","107","107","107","107","0","107","107","0","0","107","0","0","107","0","10/22/22 19:25:09","The main experiment item","yes","Sternbergtask.osexp","C:\Users\ayesh\OneDrive\Desktop","no","mono","no","18","no","white","no","yes","768","legacy","95","11","C:/Users/ayesh/OneDrive/Desktop/MK-subject-2.csv","legacy","1 6 4","Lentiform Loewenfeld","3.3.12","0","n","0","right","right","NA","right","right","955","955","NA","68939","50565","2","legacy","3","1024","2","48000","-16","experiment","1","odd","7","793130","795336","797338","798294","797338","NA","792057","793128","11440","208846","785501","11442","158280","794131","80382","Sternberg task ","99","96395","108","yes","1024"
"91.7431192661","91.7431192661","892.779816514","892.779816514","black","experiment","legacy","legacy","legacy","0","uniform","1","1","undefined","left","108","108","108","108","108","0","108","108","0","0","108","0","0","108","0","10/22/22 19:25:09","The main experiment item","yes","Sternbergtask.osexp","C:\Users\ayesh\OneDrive\Desktop","no","mono","no","18","no","white","no","yes","768","legacy","96","11","C:/Users/ayesh/OneDrive/Desktop/MK-subject-2.csv","legacy","8 9 5 7 1 6","Lentiform Loewenfeld","3.3.12","4","y","0","left","left","NA","right","right","918","918","NA","68939","50565","2","legacy","6","1024","2","48000","-16","experiment","1","odd","7","799371","801577","803578","804497","803578","NA","798298","799369","11440","208846","785501","11442","158280","800372","80382","Sternberg task ","100","97313","109","yes","1024"
"91.8181818182","91.8181818182","892.163636364","892.163636364","black","experiment","legacy","legacy","legacy","0","uniform","1","1","undefined","left","109","109","109","109","109","0","109","109","0","0","109","0","0","109","0","10/22/22 19:25:09","The main experiment item","yes","Sternbergtask.osexp","C:\Users\ayesh\OneDrive\Desktop","no","mono","no","18","no","white","no","yes","768","legacy","97","11","C:/Users/ayesh/OneDrive/Desktop/MK-subject-2.csv","legacy","6 9 7 4 5 1","Lentiform Loewenfeld","3.3.12","2","y","0","left","left","NA","right","right","825","825","NA","68939","50565","2","legacy","6","1024","2","48000","-16","experiment","1","odd","9","805574","807779","809780","810607","809780","NA","804502","805573","11440","208846","785501","11442","158280","806578","80382","Sternberg task ","101","98138","110","yes","1024"
"91.8918918919","91.8918918919","892.396396396","892.396396396","black","experiment","legacy","legacy","legacy","0","uniform","1","1","undefined","left","110","110","110","110","110","0","110","110","0","0","110","0","0","110","0","10/22/22 19:25:09","The main experiment item","yes","Sternbergtask.osexp","C:\Users\ayesh\OneDrive\Desktop","no","mono","no","18","no","white","no","yes","768","legacy","98","11","C:/Users/ayesh/OneDrive/Desktop/MK-subject-2.csv","legacy","7 8 6 3 1","Lentiform Loewenfeld","3.3.12","5","y","0","left","left","NA","right","right","918","918","NA","68939","50565","2","legacy","5","1024","2","48000","-16","experiment","1","odd","1","811686","813892","815894","816814","815894","NA","810612","811685","11440","208846","785501","11442","158280","812688","80382","Sternberg task ","102","99056","111","yes","1024"
"91.9642857143","91.9642857143","890.383928571","890.383928571","black","experiment","legacy","legacy","legacy","0","uniform","1","1","undefined","left","111","111","111","111","111","0","111","111","0","0","111","0","0","111","0","10/22/22 19:25:09","The main experiment item","yes","Sternbergtask.osexp","C:\Users\ayesh\OneDrive\Desktop","no","mono","no","18","no","white","no","yes","768","legacy","99","11","C:/Users/ayesh/OneDrive/Desktop/MK-subject-2.csv","legacy","9 1 7 2","Lentiform Loewenfeld","3.3.12","2","y","0","left","left","NA","right","right","667","667","NA","68939","50565","2","legacy","4","1024","2","48000","-16","experiment","1","odd","1","817891","820097","822098","822766","822098","NA","816817","817889","11440","208846","785501","11442","158280","818893","80382","Sternberg task ","103","99723","112","yes","1024"
"92.0353982301","92.0353982301","888.796460177","888.796460177","black","experiment","legacy","legacy","legacy","0","uniform","1","1","undefined","left","112","112","112","112","112","0","112","112","0","0","112","0","0","112","0","10/22/22 19:25:09","The main experiment item","yes","Sternbergtask.osexp","C:\Users\ayesh\OneDrive\Desktop","no","mono","no","18","no","white","no","yes","768","legacy","100","11","C:/Users/ayesh/OneDrive/Desktop/MK-subject-2.csv","legacy","4 3 2 5 8","Lentiform Loewenfeld","3.3.12","2","y","0","left","left","NA","right","right","711","711","NA","68939","50565","2","legacy","5","1024","2","48000","-16","experiment","1","odd","3","823842","826045","828046","828758","828046","NA","822770","823840","11440","208846","785501","11442","158280","824843","80382","Sternberg task ","104","100434","113","yes","1024"
"92.1052631579","92.1052631579","888.561403509","888.561403509","black","experiment","legacy","legacy","legacy","0","uniform","1","1","undefined","right","113","113","113","113","113","0","113","113","0","0","113","0","0","113","0","10/22/22 19:25:09","The main experiment item","yes","Sternbergtask.osexp","C:\Users\ayesh\OneDrive\Desktop","no","mono","no","18","no","white","no","yes","768","legacy","101","11","C:/Users/ayesh/OneDrive/Desktop/MK-subject-2.csv","legacy","7 8 6 1","Lentiform Loewenfeld","3.3.12","0","n","0","right","right","NA","right","right","862","862","NA","68939","50565","2","legacy","4","1024","2","48000","-16","experiment","1","odd","3","829834","832038","834039","834902","834039","NA","828762","829832","11440","208846","785501","11442","158280","830835","80382","Sternberg task ","105","101296","114","yes","1024"
"92.1739130435","92.1739130435","891.486956522","891.486956522","black","experiment","legacy","legacy","legacy","0","uniform","1","1","undefined","left","114","114","114","114","114","0","114","114","0","0","114","0","0","114","0","10/22/22 19:25:09","The main experiment item","yes","Sternbergtask.osexp","C:\Users\ayesh\OneDrive\Desktop","no","mono","no","18","no","white","no","yes","768","legacy","102","11","C:/Users/ayesh/OneDrive/Desktop/MK-subject-2.csv","legacy","4 7 6 8 2 3","Lentiform Loewenfeld","3.3.12","6","y","0","left","left","NA","right","right","1225","1225","NA","68939","50565","2","legacy","6","1024","2","48000","-16","experiment","1","odd","3","835980","838186","840187","841413","840187","NA","834907","835979","11440","208846","785501","11442","158280","836981","80382","Sternberg task ","106","102521","115","yes","1024"
"92.2413793103","92.2413793103","892.681034483","892.681034483","black","experiment","legacy","legacy","legacy","0","uniform","1","1","undefined","right","115","115","115","115","115","0","115","115","0","0","115","0","0","115","0","10/22/22 19:25:09","The main experiment item","yes","Sternbergtask.osexp","C:\Users\ayesh\OneDrive\Desktop","no","mono","no","18","no","white","no","yes","768","legacy","103","11","C:/Users/ayesh/OneDrive/Desktop/MK-subject-2.csv","legacy","7 6 4 8 1 2","Lentiform Loewenfeld","3.3.12","0","n","0","right","right","NA","right","right","1030","1030","NA","68939","50565","2","legacy","6","1024","2","48000","-16","experiment","1","odd","9","842497","844702","846703","847734","846703","NA","841417","842495","11440","208846","785501","11442","158280","843498","80382","Sternberg task ","107","103551","116","yes","1024"
"92.3076923077","92.3076923077","893.264957265","893.264957265","black","experiment","legacy","legacy","legacy","0","uniform","1","1","undefined","left","116","116","116","116","116","0","116","116","0","0","116","0","0","116","0","10/22/22 19:25:09","The main experiment item","yes","Sternbergtask.osexp","C:\Users\ayesh\OneDrive\Desktop","no","mono","no","18","no","white","no","yes","768","legacy","104","11","C:/Users/ayesh/OneDrive/Desktop/MK-subject-2.csv","legacy","2 3","Lentiform Loewenfeld","3.3.12","1","y","0","left","left","NA","right","right","961","961","NA","68939","50565","2","legacy","2","1024","2","48000","-16","experiment","1","odd","2","848813","851019","853020","853982","853020","NA","847738","848811","11440","208846","785501","11442","158280","849814","80382","Sternberg task ","108","104512","117","yes","1024"
"92.3728813559","92.3728813559","893.889830508","893.889830508","black","experiment","legacy","legacy","legacy","0","uniform","1","1","undefined","right","117","117","117","117","117","0","117","117","0","0","117","0","0","117","0","10/22/22 19:25:09","The main experiment item","yes","Sternbergtask.osexp","C:\Users\ayesh\OneDrive\Desktop","no","mono","no","18","no","white","no","yes","768","legacy","105","11","C:/Users/ayesh/OneDrive/Desktop/MK-subject-2.csv","legacy","4 2 7 6 1 3","Lentiform Loewenfeld","3.3.12","0","n","0","right","right","NA","right","right","967","967","NA","68939","50565","2","legacy","6","1024","2","48000","-16","experiment","1","odd","8","855070","857276","859278","860246","859278","NA","853985","855069","11440","208846","785501","11442","158280","856072","80382","Sternberg task ","109","105479","118","yes","1024"
