"acc","accuracy","average_response_time","avg_rt","background","block","canvas_backend","clock_backend","color_backend","compensation","coordinates","correct","correct_instruction1","correct_keyboard_response","correct_response","count_ISI","count_correctFeedback","count_expSequence","count_experiment","count_experimentLoop","count_fixation","count_incorrectFeedback","count_instruction1","count_instructions2","count_keyboard_response","count_logger","count_memorySet","count_practiceLoop","count_probe","count_thankYou","datetime","description","disable_garbage_collection","experiment_file","experiment_path","font_bold","font_family","font_italic","font_size","font_underline","foreground","form_clicks","fullscreen","height","keyboard_backend","live_row","live_row_practiceLoop","logfile","mouse_backend","numberSet","opensesame_codename","opensesame_version","posInSet","present","repeat_cycle","response","response_instruction1","response_instructions2","response_keyboard_response","response_thankYou","response_time","response_time_instruction1","response_time_instructions2","response_time_keyboard_response","response_time_thankYou","round_decimals","sampler_backend","setSize","sound_buf_size","sound_channels","sound_freq","sound_sample_size","start","subject_nr","subject_parity","target","time_ISI","time_correctFeedback","time_expSequence","time_experiment","time_experimentLoop","time_fixation","time_incorrectFeedback","time_instruction1","time_instructions2","time_keyboard_response","time_logger","time_memorySet","time_practiceLoop","time_probe","time_thankYou","title","total_correct","total_response_time","total_responses","uniform_coordinates","width"
"0","0","553","553","black","practice","legacy","legacy","legacy","0","uniform","0","undefined","0","left","0","0","0","0","0","0","0","0","0","0","0","0","0","0","0","Thu Oct 20 16:52:27 2022","The main experiment item","yes","Sternbergtask.osexp","/Users/katherinehays/Desktop/PSYC 5316 - R and OpenSesame/Lab 3","no","mono","no","18","no","white","no","no","768","legacy","0","0","/Users/katherinehays/Desktop/PSYC 5316 - R and OpenSesame/Lab 3/KH-subject-2.csv","legacy","2 9 4","Lentiform Loewenfeld","3.3.12","3","y","0","right","right","NA","right","NA","553","34099","NA","553","NA","2","legacy","3","1024","2","48000","-16","experiment","2","even","4","38292","NA","36068","1628","NA","36073","NA","1793","NA","40305","40858","37080","35975","40305","NA","Sternberg task","0","553","1","yes","1024"
"0","0","511.5","511.5","black","practice","legacy","legacy","legacy","0","uniform","0","undefined","0","right","1","1","1","0","0","1","1","0","0","1","1","1","0","1","0","Thu Oct 20 16:52:27 2022","The main experiment item","yes","Sternbergtask.osexp","/Users/katherinehays/Desktop/PSYC 5316 - R and OpenSesame/Lab 3","no","mono","no","18","no","white","no","no","768","legacy","1","1","/Users/katherinehays/Desktop/PSYC 5316 - R and OpenSesame/Lab 3/KH-subject-2.csv","legacy","4 1 5","Lentiform Loewenfeld","3.3.12","0","n","0","left","right","NA","left","NA","470","34099","NA","470","NA","2","legacy","3","1024","2","48000","-16","experiment","2","even","2","44336","NA","42097","1628","NA","42101","40900","1793","NA","46347","46817","43113","35975","46347","NA","Sternberg task","0","1023","2","yes","1024"
"0","0","465.6666666666667","465.6666666666667","black","practice","legacy","legacy","legacy","0","uniform","0","undefined","0","right","2","2","2","0","0","2","2","0","0","2","2","2","0","2","0","Thu Oct 20 16:52:27 2022","The main experiment item","yes","Sternbergtask.osexp","/Users/katherinehays/Desktop/PSYC 5316 - R and OpenSesame/Lab 3","no","mono","no","18","no","white","no","no","768","legacy","2","2","/Users/katherinehays/Desktop/PSYC 5316 - R and OpenSesame/Lab 3/KH-subject-2.csv","legacy","3 1 9 4","Lentiform Loewenfeld","3.3.12","0","n","0","left","right","NA","left","NA","374","34099","NA","374","NA","2","legacy","4","1024","2","48000","-16","experiment","2","even","6","50162","NA","47916","1628","NA","47921","46824","1793","NA","52172","52547","48953","35975","52172","NA","Sternberg task","0","1397","3","yes","1024"
"25","25","431.5","431.5","black","practice","legacy","legacy","legacy","0","uniform","1","undefined","1","right","3","3","3","0","0","3","3","0","0","3","3","3","0","3","0","Thu Oct 20 16:52:27 2022","The main experiment item","yes","Sternbergtask.osexp","/Users/katherinehays/Desktop/PSYC 5316 - R and OpenSesame/Lab 3","no","mono","no","18","no","white","no","no","768","legacy","3","3","/Users/katherinehays/Desktop/PSYC 5316 - R and OpenSesame/Lab 3/KH-subject-2.csv","legacy","9 6 7 4 5","Lentiform Loewenfeld","3.3.12","0","n","0","right","right","NA","right","NA","329","34099","NA","329","NA","2","legacy","5","1024","2","48000","-16","experiment","2","even","3","55889","NA","53659","1628","NA","53665","52555","1793","NA","57898","58227","54676","35975","57898","NA","Sternberg task","1","1726","4","yes","1024"
"20","20","404.8","404.8","black","practice","legacy","legacy","legacy","0","uniform","0","undefined","0","left","4","4","4","0","0","4","4","0","0","4","4","4","0","4","0","Thu Oct 20 16:52:27 2022","The main experiment item","yes","Sternbergtask.osexp","/Users/katherinehays/Desktop/PSYC 5316 - R and OpenSesame/Lab 3","no","mono","no","18","no","white","no","no","768","legacy","4","4","/Users/katherinehays/Desktop/PSYC 5316 - R and OpenSesame/Lab 3/KH-subject-2.csv","legacy","4 3 1 7 9 8","Lentiform Loewenfeld","3.3.12","1","y","0","right","right","NA","right","NA","298","34099","NA","298","NA","2","legacy","6","1024","2","48000","-16","experiment","2","even","4","61543","58234","59314","1628","NA","59319","52555","1793","NA","63553","63851","60329","35975","63553","NA","Sternberg task","1","2024","5","yes","1024"
"16.666666666666668","16.666666666666668","387.8333333333333","387.8333333333333","black","practice","legacy","legacy","legacy","0","uniform","0","undefined","0","left","5","5","5","0","0","5","5","0","0","5","5","5","0","5","0","Thu Oct 20 16:52:27 2022","The main experiment item","yes","Sternbergtask.osexp","/Users/katherinehays/Desktop/PSYC 5316 - R and OpenSesame/Lab 3","no","mono","no","18","no","white","no","no","768","legacy","5","5","/Users/katherinehays/Desktop/PSYC 5316 - R and OpenSesame/Lab 3/KH-subject-2.csv","legacy","1 5 2 9","Lentiform Loewenfeld","3.3.12","2","y","0","right","right","NA","right","NA","303","34099","NA","303","NA","2","legacy","4","1024","2","48000","-16","experiment","2","even","5","67183","58234","64951","1628","NA","64956","63855","1793","NA","69195","69498","65966","35975","69194","NA","Sternberg task","1","2327","6","yes","1024"
"28.571428571428573","28.571428571428573","385.85714285714283","385.85714285714283","black","practice","legacy","legacy","legacy","0","uniform","1","undefined","1","right","6","6","6","0","0","6","6","0","0","6","6","6","0","6","0","Thu Oct 20 16:52:27 2022","The main experiment item","yes","Sternbergtask.osexp","/Users/katherinehays/Desktop/PSYC 5316 - R and OpenSesame/Lab 3","no","mono","no","18","no","white","no","no","768","legacy","6","6","/Users/katherinehays/Desktop/PSYC 5316 - R and OpenSesame/Lab 3/KH-subject-2.csv","legacy","5","Lentiform Loewenfeld","3.3.12","0","n","0","right","right","NA","right","NA","374","34099","NA","374","NA","2","legacy","1","1024","2","48000","-16","experiment","2","even","3","72815","58234","70585","1628","NA","70591","69503","1793","NA","74827","75201","71601","35975","74827","NA","Sternberg task","2","2701","7","yes","1024"
"25","25","567","567","black","practice","legacy","legacy","legacy","0","uniform","0","undefined","0","left","7","7","7","0","0","7","7","0","0","7","7","7","0","7","0","Thu Oct 20 16:52:27 2022","The main experiment item","yes","Sternbergtask.osexp","/Users/katherinehays/Desktop/PSYC 5316 - R and OpenSesame/Lab 3","no","mono","no","18","no","white","no","no","768","legacy","7","7","/Users/katherinehays/Desktop/PSYC 5316 - R and OpenSesame/Lab 3/KH-subject-2.csv","legacy","4 8","Lentiform Loewenfeld","3.3.12","1","y","0","right","right","NA","right","NA","1835","34099","NA","1835","NA","2","legacy","2","1024","2","48000","-16","experiment","2","even","4","78528","75209","76300","1628","NA","76305","69503","1793","NA","80539","82374","77316","35975","80538","NA","Sternberg task","2","4536","8","yes","1024"
"33.333333333333336","33.333333333333336","553.5555555555555","553.5555555555555","black","practice","legacy","legacy","legacy","0","uniform","1","undefined","1","left","8","8","8","0","0","8","8","0","0","8","8","8","0","8","0","Thu Oct 20 16:52:27 2022","The main experiment item","yes","Sternbergtask.osexp","/Users/katherinehays/Desktop/PSYC 5316 - R and OpenSesame/Lab 3","no","mono","no","18","no","white","no","no","768","legacy","8","8","/Users/katherinehays/Desktop/PSYC 5316 - R and OpenSesame/Lab 3/KH-subject-2.csv","legacy","6","Lentiform Loewenfeld","3.3.12","1","y","0","left","right","NA","left","NA","446","34099","NA","446","NA","2","legacy","1","1024","2","48000","-16","experiment","2","even","6","85700","75209","83472","1628","NA","83476","82379","1793","NA","87711","88157","84487","35975","87710","NA","Sternberg task","3","4982","9","yes","1024"
"40","40","587.2","587.2","black","practice","legacy","legacy","legacy","0","uniform","1","undefined","1","right","9","9","9","0","0","9","9","0","0","9","9","9","0","9","0","Thu Oct 20 16:52:27 2022","The main experiment item","yes","Sternbergtask.osexp","/Users/katherinehays/Desktop/PSYC 5316 - R and OpenSesame/Lab 3","no","mono","no","18","no","white","no","no","768","legacy","9","9","/Users/katherinehays/Desktop/PSYC 5316 - R and OpenSesame/Lab 3/KH-subject-2.csv","legacy","5 7 8 4 1 2","Lentiform Loewenfeld","3.3.12","0","n","0","right","right","NA","right","NA","890","34099","NA","890","NA","2","legacy","6","1024","2","48000","-16","experiment","2","even","6","91484","88164","89258","1628","NA","89263","82379","1793","NA","93494","94384","90273","35975","93494","NA","Sternberg task","4","5872","10","yes","1024"
"45.45454545454545","45.45454545454545","552.4545454545455","552.4545454545455","black","practice","legacy","legacy","legacy","0","uniform","1","undefined","1","right","10","10","10","0","0","10","10","0","0","10","10","10","0","10","0","Thu Oct 20 16:52:27 2022","The main experiment item","yes","Sternbergtask.osexp","/Users/katherinehays/Desktop/PSYC 5316 - R and OpenSesame/Lab 3","no","mono","no","18","no","white","no","no","768","legacy","10","10","/Users/katherinehays/Desktop/PSYC 5316 - R and OpenSesame/Lab 3/KH-subject-2.csv","legacy","2 1","Lentiform Loewenfeld","3.3.12","0","n","0","right","right","NA","right","NA","205","34099","NA","205","NA","2","legacy","2","1024","2","48000","-16","experiment","2","even","5","97663","94388","95450","1628","NA","95453","82379","1793","NA","99673","99879","96459","35975","99673","NA","Sternberg task","5","6077","11","yes","1024"
"41.666666666666664","41.666666666666664","594.75","594.75","black","practice","legacy","legacy","legacy","0","uniform","0","undefined","0","left","11","11","11","0","0","11","11","0","0","11","11","11","0","11","0","Thu Oct 20 16:52:27 2022","The main experiment item","yes","Sternbergtask.osexp","/Users/katherinehays/Desktop/PSYC 5316 - R and OpenSesame/Lab 3","no","mono","no","18","no","white","no","no","768","legacy","11","11","/Users/katherinehays/Desktop/PSYC 5316 - R and OpenSesame/Lab 3/KH-subject-2.csv","legacy","1 7 9 8 5","Lentiform Loewenfeld","3.3.12","4","y","0","right","right","NA","right","NA","1060","34099","NA","1060","NA","2","legacy","5","1024","2","48000","-16","experiment","2","even","8","103192","99887","100963","1628","NA","100968","82379","1793","NA","105201","106262","101982","35975","105201","NA","Sternberg task","5","7137","12","yes","1024"
"38.46153846153846","38.46153846153846","605.6153846153846","605.6153846153846","black","experiment","legacy","legacy","legacy","0","uniform","0","undefined","0","right","12","12","12","0","0","12","12","0","0","12","12","12","0","12","0","Thu Oct 20 16:52:27 2022","The main experiment item","yes","Sternbergtask.osexp","/Users/katherinehays/Desktop/PSYC 5316 - R and OpenSesame/Lab 3","no","mono","no","18","no","white","no","no","768","legacy","0","11","/Users/katherinehays/Desktop/PSYC 5316 - R and OpenSesame/Lab 3/KH-subject-2.csv","legacy","1 4 3 6 5","Lentiform Loewenfeld","3.3.12","0","n","0","left","right","right","left","NA","736","34099","21740","736","NA","2","legacy","5","1024","2","48000","-16","experiment","2","even","8","131333","99887","129106","1628","129077","129109","106266","1793","107336","133343","134079","130120","35975","133343","NA","Sternberg task","5","7873","13","yes","1024"
"35.714285714285715","35.714285714285715","626.9285714285714","626.9285714285714","black","experiment","legacy","legacy","legacy","0","uniform","0","undefined","0","right","13","13","13","0","0","13","13","0","0","13","13","13","0","13","0","Thu Oct 20 16:52:27 2022","The main experiment item","yes","Sternbergtask.osexp","/Users/katherinehays/Desktop/PSYC 5316 - R and OpenSesame/Lab 3","no","mono","no","18","no","white","no","no","768","legacy","1","11","/Users/katherinehays/Desktop/PSYC 5316 - R and OpenSesame/Lab 3/KH-subject-2.csv","legacy","6 3 1 7 9 8","Lentiform Loewenfeld","3.3.12","0","n","0","left","right","right","left","NA","904","34099","21740","904","NA","2","legacy","6","1024","2","48000","-16","experiment","2","even","4","137462","99887","135232","1628","129077","135237","134087","1793","107336","139478","140383","136254","35975","139478","NA","Sternberg task","5","8777","14","yes","1024"
"40","40","587.1333333333333","587.1333333333333","black","experiment","legacy","legacy","legacy","0","uniform","1","undefined","1","right","14","14","14","0","0","14","14","0","0","14","14","14","0","14","0","Thu Oct 20 16:52:27 2022","The main experiment item","yes","Sternbergtask.osexp","/Users/katherinehays/Desktop/PSYC 5316 - R and OpenSesame/Lab 3","no","mono","no","18","no","white","no","no","768","legacy","2","11","/Users/katherinehays/Desktop/PSYC 5316 - R and OpenSesame/Lab 3/KH-subject-2.csv","legacy","6 9 4 5 2","Lentiform Loewenfeld","3.3.12","0","n","0","right","right","right","right","NA","30","34099","21740","30","NA","2","legacy","5","1024","2","48000","-16","experiment","2","even","1","143655","99887","141441","1628","129077","141445","140387","1793","107336","145666","145697","142449","35975","145666","NA","Sternberg task","6","8807","15","yes","1024"
"37.5","37.5","602.3125","602.3125","black","experiment","legacy","legacy","legacy","0","uniform","0","undefined","0","left","15","15","15","0","0","15","15","0","0","15","15","15","0","15","0","Thu Oct 20 16:52:27 2022","The main experiment item","yes","Sternbergtask.osexp","/Users/katherinehays/Desktop/PSYC 5316 - R and OpenSesame/Lab 3","no","mono","no","18","no","white","no","no","768","legacy","3","11","/Users/katherinehays/Desktop/PSYC 5316 - R and OpenSesame/Lab 3/KH-subject-2.csv","legacy","2 4 6 9","Lentiform Loewenfeld","3.3.12","3","y","0","right","right","right","right","NA","830","34099","21740","830","NA","2","legacy","4","1024","2","48000","-16","experiment","2","even","6","149017","145706","146789","1628","129077","146793","140387","1793","107336","151029","151859","147803","35975","151029","NA","Sternberg task","6","9637","16","yes","1024"
"41.1764705882353","41.1764705882353","599.5882352941177","599.5882352941177","black","experiment","legacy","legacy","legacy","0","uniform","1","undefined","1","left","16","16","16","0","0","16","16","0","0","16","16","16","0","16","0","Thu Oct 20 16:52:27 2022","The main experiment item","yes","Sternbergtask.osexp","/Users/katherinehays/Desktop/PSYC 5316 - R and OpenSesame/Lab 3","no","mono","no","18","no","white","no","no","768","legacy","4","11","/Users/katherinehays/Desktop/PSYC 5316 - R and OpenSesame/Lab 3/KH-subject-2.csv","legacy","8 9 6 1","Lentiform Loewenfeld","3.3.12","2","y","0","left","right","right","left","NA","556","34099","21740","556","NA","2","legacy","4","1024","2","48000","-16","experiment","2","even","9","155167","145706","152938","1628","129077","152944","151866","1793","107336","157176","157733","153961","35975","157175","NA","Sternberg task","7","10193","17","yes","1024"
"44.44444444444444","44.44444444444444","618.1666666666666","618.1666666666666","black","experiment","legacy","legacy","legacy","0","uniform","1","undefined","1","right","17","17","17","0","0","17","17","0","0","17","17","17","0","17","0","Thu Oct 20 16:52:27 2022","The main experiment item","yes","Sternbergtask.osexp","/Users/katherinehays/Desktop/PSYC 5316 - R and OpenSesame/Lab 3","no","mono","no","18","no","white","no","no","768","legacy","5","11","/Users/katherinehays/Desktop/PSYC 5316 - R and OpenSesame/Lab 3/KH-subject-2.csv","legacy","5 7 3","Lentiform Loewenfeld","3.3.12","0","n","0","right","right","right","right","NA","934","34099","21740","934","NA","2","legacy","3","1024","2","48000","-16","experiment","2","even","9","161053","157738","158828","1628","129077","158832","151866","1793","107336","163062","163997","159843","35975","163062","NA","Sternberg task","8","11127","18","yes","1024"
"47.36842105263158","47.36842105263158","651.421052631579","651.421052631579","black","experiment","legacy","legacy","legacy","0","uniform","1","undefined","1","left","18","18","18","0","0","18","18","0","0","18","18","18","0","18","0","Thu Oct 20 16:52:27 2022","The main experiment item","yes","Sternbergtask.osexp","/Users/katherinehays/Desktop/PSYC 5316 - R and OpenSesame/Lab 3","no","mono","no","18","no","white","no","no","768","legacy","6","11","/Users/katherinehays/Desktop/PSYC 5316 - R and OpenSesame/Lab 3/KH-subject-2.csv","legacy","5 7 3 6 2","Lentiform Loewenfeld","3.3.12","5","y","0","left","right","right","left","NA","1250","34099","21740","1250","NA","2","legacy","5","1024","2","48000","-16","experiment","2","even","2","167277","164001","165060","1628","129077","165064","151866","1793","107336","169285","170535","166068","35975","169285","NA","Sternberg task","9","12377","19","yes","1024"
"45","45","633.55","633.55","black","experiment","legacy","legacy","legacy","0","uniform","0","undefined","0","right","19","19","19","0","0","19","19","0","0","19","19","19","0","19","0","Thu Oct 20 16:52:27 2022","The main experiment item","yes","Sternbergtask.osexp","/Users/katherinehays/Desktop/PSYC 5316 - R and OpenSesame/Lab 3","no","mono","no","18","no","white","no","no","768","legacy","7","11","/Users/katherinehays/Desktop/PSYC 5316 - R and OpenSesame/Lab 3/KH-subject-2.csv","legacy","2 6 4 3 9","Lentiform Loewenfeld","3.3.12","0","n","0","left","right","right","left","NA","294","34099","21740","294","NA","2","legacy","5","1024","2","48000","-16","experiment","2","even","1","173847","170540","171618","1628","129077","171622","151866","1793","107336","175856","176151","172634","35975","175856","NA","Sternberg task","9","12671","20","yes","1024"
"47.61904761904762","47.61904761904762","640.8571428571429","640.8571428571429","black","experiment","legacy","legacy","legacy","0","uniform","1","undefined","1","right","20","20","20","0","0","20","20","0","0","20","20","20","0","20","0","Thu Oct 20 16:52:27 2022","The main experiment item","yes","Sternbergtask.osexp","/Users/katherinehays/Desktop/PSYC 5316 - R and OpenSesame/Lab 3","no","mono","no","18","no","white","no","no","768","legacy","8","11","/Users/katherinehays/Desktop/PSYC 5316 - R and OpenSesame/Lab 3/KH-subject-2.csv","legacy","8 5 4 2 9 6","Lentiform Loewenfeld","3.3.12","0","n","0","right","right","right","right","NA","787","34099","21740","787","NA","2","legacy","6","1024","2","48000","-16","experiment","2","even","3","179465","170540","177236","1628","129077","177240","176154","1793","107336","181475","182262","178250","35975","181474","NA","Sternberg task","10","13458","21","yes","1024"
"50","50","638.1363636363636","638.1363636363636","black","experiment","legacy","legacy","legacy","0","uniform","1","undefined","1","left","21","21","21","0","0","21","21","0","0","21","21","21","0","21","0","Thu Oct 20 16:52:27 2022","The main experiment item","yes","Sternbergtask.osexp","/Users/katherinehays/Desktop/PSYC 5316 - R and OpenSesame/Lab 3","no","mono","no","18","no","white","no","no","768","legacy","9","11","/Users/katherinehays/Desktop/PSYC 5316 - R and OpenSesame/Lab 3/KH-subject-2.csv","legacy","7 4 2 6 3 5","Lentiform Loewenfeld","3.3.12","6","y","0","left","right","right","left","NA","581","34099","21740","581","NA","2","legacy","6","1024","2","48000","-16","experiment","2","even","5","185582","182267","183358","1628","129077","183363","176154","1793","107336","187595","188177","184374","35975","187595","NA","Sternberg task","11","14039","22","yes","1024"
"47.82608695652174","47.82608695652174","628.1304347826087","628.1304347826087","black","experiment","legacy","legacy","legacy","0","uniform","0","undefined","0","left","22","22","22","0","0","22","22","0","0","22","22","22","0","22","0","Thu Oct 20 16:52:27 2022","The main experiment item","yes","Sternbergtask.osexp","/Users/katherinehays/Desktop/PSYC 5316 - R and OpenSesame/Lab 3","no","mono","no","18","no","white","no","no","768","legacy","10","11","/Users/katherinehays/Desktop/PSYC 5316 - R and OpenSesame/Lab 3/KH-subject-2.csv","legacy","6 5","Lentiform Loewenfeld","3.3.12","2","y","0","right","right","right","right","NA","408","34099","21740","408","NA","2","legacy","2","1024","2","48000","-16","experiment","2","even","5","191503","188185","189276","1628","129077","189281","176154","1793","107336","193511","193919","190292","35975","193511","NA","Sternberg task","11","14447","23","yes","1024"
"50","50","633.2083333333334","633.2083333333334","black","experiment","legacy","legacy","legacy","0","uniform","1","undefined","1","left","23","23","23","0","0","23","23","0","0","23","23","23","0","23","0","Thu Oct 20 16:52:27 2022","The main experiment item","yes","Sternbergtask.osexp","/Users/katherinehays/Desktop/PSYC 5316 - R and OpenSesame/Lab 3","no","mono","no","18","no","white","no","no","768","legacy","11","11","/Users/katherinehays/Desktop/PSYC 5316 - R and OpenSesame/Lab 3/KH-subject-2.csv","legacy","7 1 3","Lentiform Loewenfeld","3.3.12","2","y","0","left","right","right","left","NA","750","34099","21740","750","NA","2","legacy","3","1024","2","48000","-16","experiment","2","even","1","197244","188185","195014","1628","129077","195019","193925","1793","107336","199254","200004","196032","35975","199253","NA","Sternberg task","12","15197","24","yes","1024"
"52","52","625.16","625.16","black","experiment","legacy","legacy","legacy","0","uniform","1","undefined","1","left","24","24","24","0","0","24","24","0","0","24","24","24","0","24","0","Thu Oct 20 16:52:27 2022","The main experiment item","yes","Sternbergtask.osexp","/Users/katherinehays/Desktop/PSYC 5316 - R and OpenSesame/Lab 3","no","mono","no","18","no","white","no","no","768","legacy","12","11","/Users/katherinehays/Desktop/PSYC 5316 - R and OpenSesame/Lab 3/KH-subject-2.csv","legacy","9 1 6 7 8","Lentiform Loewenfeld","3.3.12","1","y","0","left","right","right","left","NA","432","34099","21740","432","NA","2","legacy","5","1024","2","48000","-16","experiment","2","even","9","203310","200011","201081","1628","129077","201086","193925","1793","107336","205317","205749","202103","35975","205317","NA","Sternberg task","13","15629","25","yes","1024"
"53.84615384615385","53.84615384615385","636.7692307692307","636.7692307692307","black","experiment","legacy","legacy","legacy","0","uniform","1","undefined","1","right","25","25","25","0","0","25","25","0","0","25","25","25","0","25","0","Thu Oct 20 16:52:27 2022","The main experiment item","yes","Sternbergtask.osexp","/Users/katherinehays/Desktop/PSYC 5316 - R and OpenSesame/Lab 3","no","mono","no","18","no","white","no","no","768","legacy","13","11","/Users/katherinehays/Desktop/PSYC 5316 - R and OpenSesame/Lab 3/KH-subject-2.csv","legacy","2 5 1 4","Lentiform Loewenfeld","3.3.12","0","n","0","right","right","right","right","NA","927","34099","21740","927","NA","2","legacy","4","1024","2","48000","-16","experiment","2","even","6","209070","205756","206844","1628","129077","206849","193925","1793","107336","211078","212006","207859","35975","211078","NA","Sternberg task","14","16556","26","yes","1024"
"55.55555555555556","55.55555555555556","679.3333333333334","679.3333333333334","black","experiment","legacy","legacy","legacy","0","uniform","1","undefined","1","right","26","26","26","0","0","26","26","0","0","26","26","26","0","26","0","Thu Oct 20 16:52:27 2022","The main experiment item","yes","Sternbergtask.osexp","/Users/katherinehays/Desktop/PSYC 5316 - R and OpenSesame/Lab 3","no","mono","no","18","no","white","no","no","768","legacy","14","11","/Users/katherinehays/Desktop/PSYC 5316 - R and OpenSesame/Lab 3/KH-subject-2.csv","legacy","7 6 4 8 1 2","Lentiform Loewenfeld","3.3.12","0","n","0","right","right","right","right","NA","1786","34099","21740","1786","NA","2","legacy","6","1024","2","48000","-16","experiment","2","even","9","215278","212010","213066","1628","129077","213070","193925","1793","107336","217286","219072","214073","35975","217285","NA","Sternberg task","15","18342","27","yes","1024"
"57.142857142857146","57.142857142857146","687.8928571428571","687.8928571428571","black","experiment","legacy","legacy","legacy","0","uniform","1","undefined","1","left","27","27","27","0","0","27","27","0","0","27","27","27","0","27","0","Thu Oct 20 16:52:27 2022","The main experiment item","yes","Sternbergtask.osexp","/Users/katherinehays/Desktop/PSYC 5316 - R and OpenSesame/Lab 3","no","mono","no","18","no","white","no","no","768","legacy","15","11","/Users/katherinehays/Desktop/PSYC 5316 - R and OpenSesame/Lab 3/KH-subject-2.csv","legacy","8 5 4 7 3 1","Lentiform Loewenfeld","3.3.12","2","y","0","left","right","right","left","NA","919","34099","21740","919","NA","2","legacy","6","1024","2","48000","-16","experiment","2","even","5","222393","219079","220161","1628","129077","220166","193925","1793","107336","224405","225325","221178","35975","224405","NA","Sternberg task","16","19261","28","yes","1024"
"58.62068965517241","58.62068965517241","691.6206896551724","691.6206896551724","black","experiment","legacy","legacy","legacy","0","uniform","1","undefined","1","right","28","28","28","0","0","28","28","0","0","28","28","28","0","28","0","Thu Oct 20 16:52:27 2022","The main experiment item","yes","Sternbergtask.osexp","/Users/katherinehays/Desktop/PSYC 5316 - R and OpenSesame/Lab 3","no","mono","no","18","no","white","no","no","768","legacy","16","11","/Users/katherinehays/Desktop/PSYC 5316 - R and OpenSesame/Lab 3/KH-subject-2.csv","legacy","2 3 8 5 6 7","Lentiform Loewenfeld","3.3.12","0","n","0","right","right","right","right","NA","796","34099","21740","796","NA","2","legacy","6","1024","2","48000","-16","experiment","2","even","1","228605","225328","226390","1628","129077","226394","193925","1793","107336","230615","231411","227398","35975","230615","NA","Sternberg task","17","20057","29","yes","1024"
"60","60","700.0666666666667","700.0666666666667","black","experiment","legacy","legacy","legacy","0","uniform","1","undefined","1","right","29","29","29","0","0","29","29","0","0","29","29","29","0","29","0","Thu Oct 20 16:52:27 2022","The main experiment item","yes","Sternbergtask.osexp","/Users/katherinehays/Desktop/PSYC 5316 - R and OpenSesame/Lab 3","no","mono","no","18","no","white","no","no","768","legacy","17","11","/Users/katherinehays/Desktop/PSYC 5316 - R and OpenSesame/Lab 3/KH-subject-2.csv","legacy","7 8 6 1","Lentiform Loewenfeld","3.3.12","0","n","0","right","right","right","right","NA","945","34099","21740","945","NA","2","legacy","4","1024","2","48000","-16","experiment","2","even","3","234714","231416","232490","1628","129077","232494","193925","1793","107336","236719","237664","233502","35975","236719","NA","Sternberg task","18","21002","30","yes","1024"
"61.29032258064516","61.29032258064516","716.3870967741935","716.3870967741935","black","experiment","legacy","legacy","legacy","0","uniform","1","undefined","1","right","30","30","30","0","0","30","30","0","0","30","30","30","0","30","0","Thu Oct 20 16:52:27 2022","The main experiment item","yes","Sternbergtask.osexp","/Users/katherinehays/Desktop/PSYC 5316 - R and OpenSesame/Lab 3","no","mono","no","18","no","white","no","no","768","legacy","18","11","/Users/katherinehays/Desktop/PSYC 5316 - R and OpenSesame/Lab 3/KH-subject-2.csv","legacy","2 7 5","Lentiform Loewenfeld","3.3.12","0","n","0","right","right","right","right","NA","1206","34099","21740","1206","NA","2","legacy","3","1024","2","48000","-16","experiment","2","even","8","240971","237669","238742","1628","129077","238746","193925","1793","107336","242979","244186","239757","35975","242978","NA","Sternberg task","19","22208","31","yes","1024"
"59.375","59.375","713.8125","713.8125","black","experiment","legacy","legacy","legacy","0","uniform","0","undefined","0","right","31","31","31","0","0","31","31","0","0","31","31","31","0","31","0","Thu Oct 20 16:52:27 2022","The main experiment item","yes","Sternbergtask.osexp","/Users/katherinehays/Desktop/PSYC 5316 - R and OpenSesame/Lab 3","no","mono","no","18","no","white","no","no","768","legacy","19","11","/Users/katherinehays/Desktop/PSYC 5316 - R and OpenSesame/Lab 3/KH-subject-2.csv","legacy","4 1","Lentiform Loewenfeld","3.3.12","0","n","0","left","right","right","left","NA","634","34099","21740","634","NA","2","legacy","2","1024","2","48000","-16","experiment","2","even","6","247506","244190","245272","1628","129077","245275","193925","1793","107336","249511","250146","246291","35975","249511","NA","Sternberg task","19","22842","32","yes","1024"
"57.57575757575758","57.57575757575758","712.7878787878788","712.7878787878788","black","experiment","legacy","legacy","legacy","0","uniform","0","undefined","0","left","32","32","32","0","0","32","32","0","0","32","32","32","0","32","0","Thu Oct 20 16:52:27 2022","The main experiment item","yes","Sternbergtask.osexp","/Users/katherinehays/Desktop/PSYC 5316 - R and OpenSesame/Lab 3","no","mono","no","18","no","white","no","no","768","legacy","20","11","/Users/katherinehays/Desktop/PSYC 5316 - R and OpenSesame/Lab 3/KH-subject-2.csv","legacy","4 7 6 8 2 3","Lentiform Loewenfeld","3.3.12","6","y","0","right","right","right","right","NA","680","34099","21740","680","NA","2","legacy","6","1024","2","48000","-16","experiment","2","even","3","253447","244190","251220","1628","129077","251224","250150","1793","107336","255456","256137","252235","35975","255456","NA","Sternberg task","19","23522","33","yes","1024"
"55.88235294117647","55.88235294117647","711.6470588235294","711.6470588235294","black","experiment","legacy","legacy","legacy","0","uniform","0","undefined","0","right","33","33","33","0","0","33","33","0","0","33","33","33","0","33","0","Thu Oct 20 16:52:27 2022","The main experiment item","yes","Sternbergtask.osexp","/Users/katherinehays/Desktop/PSYC 5316 - R and OpenSesame/Lab 3","no","mono","no","18","no","white","no","no","768","legacy","21","11","/Users/katherinehays/Desktop/PSYC 5316 - R and OpenSesame/Lab 3/KH-subject-2.csv","legacy","1 3 2 6 9","Lentiform Loewenfeld","3.3.12","0","n","0","left","right","right","left","NA","674","34099","21740","674","NA","2","legacy","5","1024","2","48000","-16","experiment","2","even","5","259463","244190","257235","1628","129077","257239","256141","1793","107336","261473","262147","258249","35975","261473","NA","Sternberg task","19","24196","34","yes","1024"
"57.142857142857146","57.142857142857146","711.1428571428571","711.1428571428571","black","experiment","legacy","legacy","legacy","0","uniform","1","undefined","1","right","34","34","34","0","0","34","34","0","0","34","34","34","0","34","0","Thu Oct 20 16:52:27 2022","The main experiment item","yes","Sternbergtask.osexp","/Users/katherinehays/Desktop/PSYC 5316 - R and OpenSesame/Lab 3","no","mono","no","18","no","white","no","no","768","legacy","22","11","/Users/katherinehays/Desktop/PSYC 5316 - R and OpenSesame/Lab 3/KH-subject-2.csv","legacy","6 8","Lentiform Loewenfeld","3.3.12","0","n","0","right","right","right","right","NA","694","34099","21740","694","NA","2","legacy","2","1024","2","48000","-16","experiment","2","even","9","265463","244190","263236","1628","129077","263241","262153","1793","107336","267472","268167","264251","35975","267472","NA","Sternberg task","20","24890","35","yes","1024"
"55.55555555555556","55.55555555555556","716.6388888888889","716.6388888888889","black","experiment","legacy","legacy","legacy","0","uniform","0","undefined","0","right","35","35","35","0","0","35","35","0","0","35","35","35","0","35","0","Thu Oct 20 16:52:27 2022","The main experiment item","yes","Sternbergtask.osexp","/Users/katherinehays/Desktop/PSYC 5316 - R and OpenSesame/Lab 3","no","mono","no","18","no","white","no","no","768","legacy","23","11","/Users/katherinehays/Desktop/PSYC 5316 - R and OpenSesame/Lab 3/KH-subject-2.csv","legacy","6 8 4","Lentiform Loewenfeld","3.3.12","0","n","0","left","right","right","left","NA","909","34099","21740","909","NA","2","legacy","3","1024","2","48000","-16","experiment","2","even","1","271488","268172","269262","1628","129077","269267","262153","1793","107336","273496","274405","270278","35975","273496","NA","Sternberg task","20","25799","36","yes","1024"
"56.75675675675676","56.75675675675676","716.8378378378378","716.8378378378378","black","experiment","legacy","legacy","legacy","0","uniform","1","undefined","1","right","36","36","36","0","0","36","36","0","0","36","36","36","0","36","0","Thu Oct 20 16:52:27 2022","The main experiment item","yes","Sternbergtask.osexp","/Users/katherinehays/Desktop/PSYC 5316 - R and OpenSesame/Lab 3","no","mono","no","18","no","white","no","no","768","legacy","24","11","/Users/katherinehays/Desktop/PSYC 5316 - R and OpenSesame/Lab 3/KH-subject-2.csv","legacy","1","Lentiform Loewenfeld","3.3.12","0","n","0","right","right","right","right","NA","724","34099","21740","724","NA","2","legacy","1","1024","2","48000","-16","experiment","2","even","7","277678","268172","275465","1628","129077","275469","274409","1793","107336","279690","280415","276472","35975","279690","NA","Sternberg task","21","26523","37","yes","1024"
"57.89473684210526","57.89473684210526","717.1315789473684","717.1315789473684","black","experiment","legacy","legacy","legacy","0","uniform","1","undefined","1","right","37","37","37","0","0","37","37","0","0","37","37","37","0","37","0","Thu Oct 20 16:52:27 2022","The main experiment item","yes","Sternbergtask.osexp","/Users/katherinehays/Desktop/PSYC 5316 - R and OpenSesame/Lab 3","no","mono","no","18","no","white","no","no","768","legacy","25","11","/Users/katherinehays/Desktop/PSYC 5316 - R and OpenSesame/Lab 3/KH-subject-2.csv","legacy","3 4 9 6 7 8","Lentiform Loewenfeld","3.3.12","0","n","0","right","right","right","right","NA","728","34099","21740","728","NA","2","legacy","6","1024","2","48000","-16","experiment","2","even","2","283678","280419","281468","1628","129077","281471","274409","1793","107336","285688","286416","282474","35975","285688","NA","Sternberg task","22","27251","38","yes","1024"
"58.97435897435897","58.97435897435897","722.2307692307693","722.2307692307693","black","experiment","legacy","legacy","legacy","0","uniform","1","undefined","1","left","38","38","38","0","0","38","38","0","0","38","38","38","0","38","0","Thu Oct 20 16:52:27 2022","The main experiment item","yes","Sternbergtask.osexp","/Users/katherinehays/Desktop/PSYC 5316 - R and OpenSesame/Lab 3","no","mono","no","18","no","white","no","no","768","legacy","26","11","/Users/katherinehays/Desktop/PSYC 5316 - R and OpenSesame/Lab 3/KH-subject-2.csv","legacy","3 9 6 2","Lentiform Loewenfeld","3.3.12","4","y","0","left","right","right","left","NA","916","34099","21740","916","NA","2","legacy","4","1024","2","48000","-16","experiment","2","even","2","289697","286422","287477","1628","129077","287483","274409","1793","107336","291706","292622","288492","35975","291706","NA","Sternberg task","23","28167","39","yes","1024"
"60","60","720.95","720.95","black","experiment","legacy","legacy","legacy","0","uniform","1","undefined","1","right","39","39","39","0","0","39","39","0","0","39","39","39","0","39","0","Thu Oct 20 16:52:27 2022","The main experiment item","yes","Sternbergtask.osexp","/Users/katherinehays/Desktop/PSYC 5316 - R and OpenSesame/Lab 3","no","mono","no","18","no","white","no","no","768","legacy","27","11","/Users/katherinehays/Desktop/PSYC 5316 - R and OpenSesame/Lab 3/KH-subject-2.csv","legacy","2 8 6 3 1","Lentiform Loewenfeld","3.3.12","0","n","0","right","right","right","right","NA","671","34099","21740","671","NA","2","legacy","5","1024","2","48000","-16","experiment","2","even","7","295896","292626","293683","1628","129077","293687","274409","1793","107336","297908","298580","294690","35975","297908","NA","Sternberg task","24","28838","40","yes","1024"
"60.97560975609756","60.97560975609756","728.560975609756","728.560975609756","black","experiment","legacy","legacy","legacy","0","uniform","1","undefined","1","left","40","40","40","0","0","40","40","0","0","40","40","40","0","40","0","Thu Oct 20 16:52:27 2022","The main experiment item","yes","Sternbergtask.osexp","/Users/katherinehays/Desktop/PSYC 5316 - R and OpenSesame/Lab 3","no","mono","no","18","no","white","no","no","768","legacy","28","11","/Users/katherinehays/Desktop/PSYC 5316 - R and OpenSesame/Lab 3/KH-subject-2.csv","legacy","8 9 5 7 1 6","Lentiform Loewenfeld","3.3.12","4","y","0","left","right","right","left","NA","1033","34099","21740","1033","NA","2","legacy","6","1024","2","48000","-16","experiment","2","even","7","301846","298584","299633","1628","129077","299637","274409","1793","107336","303854","304888","300643","35975","303854","NA","Sternberg task","25","29871","41","yes","1024"
"61.904761904761905","61.904761904761905","727.8333333333334","727.8333333333334","black","experiment","legacy","legacy","legacy","0","uniform","1","undefined","1","left","41","41","41","0","0","41","41","0","0","41","41","41","0","41","0","Thu Oct 20 16:52:27 2022","The main experiment item","yes","Sternbergtask.osexp","/Users/katherinehays/Desktop/PSYC 5316 - R and OpenSesame/Lab 3","no","mono","no","18","no","white","no","no","768","legacy","29","11","/Users/katherinehays/Desktop/PSYC 5316 - R and OpenSesame/Lab 3/KH-subject-2.csv","legacy","6 9 7 4 5 1","Lentiform Loewenfeld","3.3.12","2","y","0","left","right","right","left","NA","698","34099","21740","698","NA","2","legacy","6","1024","2","48000","-16","experiment","2","even","9","308197","304892","305971","1628","129077","305975","274409","1793","107336","310200","310898","306985","35975","310200","NA","Sternberg task","26","30569","42","yes","1024"
"62.7906976744186","62.7906976744186","727.1162790697674","727.1162790697674","black","experiment","legacy","legacy","legacy","0","uniform","1","undefined","1","right","42","42","42","0","0","42","42","0","0","42","42","42","0","42","0","Thu Oct 20 16:52:27 2022","The main experiment item","yes","Sternbergtask.osexp","/Users/katherinehays/Desktop/PSYC 5316 - R and OpenSesame/Lab 3","no","mono","no","18","no","white","no","no","768","legacy","30","11","/Users/katherinehays/Desktop/PSYC 5316 - R and OpenSesame/Lab 3/KH-subject-2.csv","legacy","4 2 6 9","Lentiform Loewenfeld","3.3.12","0","n","0","right","right","right","right","NA","697","34099","21740","697","NA","2","legacy","4","1024","2","48000","-16","experiment","2","even","7","314215","310903","311982","1628","129077","311986","274409","1793","107336","316224","316921","313002","35975","316224","NA","Sternberg task","27","31266","43","yes","1024"
"63.63636363636363","63.63636363636363","730.4545454545455","730.4545454545455","black","experiment","legacy","legacy","legacy","0","uniform","1","undefined","1","right","43","43","43","0","0","43","43","0","0","43","43","43","0","43","0","Thu Oct 20 16:52:27 2022","The main experiment item","yes","Sternbergtask.osexp","/Users/katherinehays/Desktop/PSYC 5316 - R and OpenSesame/Lab 3","no","mono","no","18","no","white","no","no","768","legacy","31","11","/Users/katherinehays/Desktop/PSYC 5316 - R and OpenSesame/Lab 3/KH-subject-2.csv","legacy","6 9 7 3 8 2","Lentiform Loewenfeld","3.3.12","0","n","0","right","right","right","right","NA","874","34099","21740","874","NA","2","legacy","6","1024","2","48000","-16","experiment","2","even","5","320250","316929","318022","1628","129077","318028","274409","1793","107336","322264","323139","319038","35975","322264","NA","Sternberg task","28","32140","44","yes","1024"
"62.22222222222222","62.22222222222222","734.4666666666667","734.4666666666667","black","experiment","legacy","legacy","legacy","0","uniform","0","undefined","0","left","44","44","44","0","0","44","44","0","0","44","44","44","0","44","0","Thu Oct 20 16:52:27 2022","The main experiment item","yes","Sternbergtask.osexp","/Users/katherinehays/Desktop/PSYC 5316 - R and OpenSesame/Lab 3","no","mono","no","18","no","white","no","no","768","legacy","32","11","/Users/katherinehays/Desktop/PSYC 5316 - R and OpenSesame/Lab 3/KH-subject-2.csv","legacy","9 6 2 4 1","Lentiform Loewenfeld","3.3.12","4","y","0","right","right","right","right","NA","911","34099","21740","911","NA","2","legacy","5","1024","2","48000","-16","experiment","2","even","4","326410","323143","324198","1628","129077","324201","274409","1793","107336","328419","329330","325207","35975","328419","NA","Sternberg task","28","33051","45","yes","1024"
"63.04347826086956","63.04347826086956","736.3478260869565","736.3478260869565","black","experiment","legacy","legacy","legacy","0","uniform","1","undefined","1","right","45","45","45","0","0","45","45","0","0","45","45","45","0","45","0","Thu Oct 20 16:52:27 2022","The main experiment item","yes","Sternbergtask.osexp","/Users/katherinehays/Desktop/PSYC 5316 - R and OpenSesame/Lab 3","no","mono","no","18","no","white","no","no","768","legacy","33","11","/Users/katherinehays/Desktop/PSYC 5316 - R and OpenSesame/Lab 3/KH-subject-2.csv","legacy","8 4 3 5","Lentiform Loewenfeld","3.3.12","0","n","0","right","right","right","right","NA","821","34099","21740","821","NA","2","legacy","4","1024","2","48000","-16","experiment","2","even","6","332630","323143","330408","1628","129077","330412","329334","1793","107336","334634","335456","331418","35975","334633","NA","Sternberg task","29","33872","46","yes","1024"
"63.829787234042556","63.829787234042556","746.468085106383","746.468085106383","black","experiment","legacy","legacy","legacy","0","uniform","1","undefined","1","right","46","46","46","0","0","46","46","0","0","46","46","46","0","46","0","Thu Oct 20 16:52:27 2022","The main experiment item","yes","Sternbergtask.osexp","/Users/katherinehays/Desktop/PSYC 5316 - R and OpenSesame/Lab 3","no","mono","no","18","no","white","no","no","768","legacy","34","11","/Users/katherinehays/Desktop/PSYC 5316 - R and OpenSesame/Lab 3/KH-subject-2.csv","legacy","3 9 1","Lentiform Loewenfeld","3.3.12","0","n","0","right","right","right","right","NA","1212","34099","21740","1212","NA","2","legacy","3","1024","2","48000","-16","experiment","2","even","7","338774","335460","336538","1628","129077","336542","329334","1793","107336","340783","341995","337559","35975","340783","NA","Sternberg task","30","35084","47","yes","1024"
"64.58333333333333","64.58333333333333","747.8958333333334","747.8958333333334","black","experiment","legacy","legacy","legacy","0","uniform","1","undefined","1","right","47","47","47","0","0","47","47","0","0","47","47","47","0","47","0","Thu Oct 20 16:52:27 2022","The main experiment item","yes","Sternbergtask.osexp","/Users/katherinehays/Desktop/PSYC 5316 - R and OpenSesame/Lab 3","no","mono","no","18","no","white","no","no","768","legacy","35","11","/Users/katherinehays/Desktop/PSYC 5316 - R and OpenSesame/Lab 3/KH-subject-2.csv","legacy","8 5 7 3 6","Lentiform Loewenfeld","3.3.12","0","n","0","right","right","right","right","NA","815","34099","21740","815","NA","2","legacy","5","1024","2","48000","-16","experiment","2","even","9","345325","342003","343097","1628","129077","343101","329334","1793","107336","347333","348148","344118","35975","347333","NA","Sternberg task","31","35899","48","yes","1024"
"63.265306122448976","63.265306122448976","746.4489795918367","746.4489795918367","black","experiment","legacy","legacy","legacy","0","uniform","0","undefined","0","left","48","48","48","0","0","48","48","0","0","48","48","48","0","48","0","Thu Oct 20 16:52:27 2022","The main experiment item","yes","Sternbergtask.osexp","/Users/katherinehays/Desktop/PSYC 5316 - R and OpenSesame/Lab 3","no","mono","no","18","no","white","no","no","768","legacy","36","11","/Users/katherinehays/Desktop/PSYC 5316 - R and OpenSesame/Lab 3/KH-subject-2.csv","legacy","3 2 1 4 7","Lentiform Loewenfeld","3.3.12","2","y","0","right","right","right","right","NA","677","34099","21740","677","NA","2","legacy","5","1024","2","48000","-16","experiment","2","even","2","351436","348154","349219","1628","129077","349222","329334","1793","107336","353446","354124","350232","35975","353445","NA","Sternberg task","31","36576","49","yes","1024"
"64","64","745.18","745.18","black","experiment","legacy","legacy","legacy","0","uniform","1","undefined","1","left","49","49","49","0","0","49","49","0","0","49","49","49","0","49","0","Thu Oct 20 16:52:27 2022","The main experiment item","yes","Sternbergtask.osexp","/Users/katherinehays/Desktop/PSYC 5316 - R and OpenSesame/Lab 3","no","mono","no","18","no","white","no","no","768","legacy","37","11","/Users/katherinehays/Desktop/PSYC 5316 - R and OpenSesame/Lab 3/KH-subject-2.csv","legacy","6 8 9 3 4 9","Lentiform Loewenfeld","3.3.12","5","y","0","left","right","right","left","NA","683","34099","21740","683","NA","2","legacy","6","1024","2","48000","-16","experiment","2","even","4","357428","348154","355207","1628","129077","355211","354130","1793","107336","359437","360121","356222","35975","359437","NA","Sternberg task","32","37259","50","yes","1024"
"64.70588235294117","64.70588235294117","739.9803921568628","739.9803921568628","black","experiment","legacy","legacy","legacy","0","uniform","1","undefined","1","left","50","50","50","0","0","50","50","0","0","50","50","50","0","50","0","Thu Oct 20 16:52:27 2022","The main experiment item","yes","Sternbergtask.osexp","/Users/katherinehays/Desktop/PSYC 5316 - R and OpenSesame/Lab 3","no","mono","no","18","no","white","no","no","768","legacy","38","11","/Users/katherinehays/Desktop/PSYC 5316 - R and OpenSesame/Lab 3/KH-subject-2.csv","legacy","2 5 4 8 7","Lentiform Loewenfeld","3.3.12","3","y","0","left","right","right","left","NA","480","34099","21740","480","NA","2","legacy","5","1024","2","48000","-16","experiment","2","even","4","363444","360126","361219","1628","129077","361225","354130","1793","107336","365453","365933","362236","35975","365453","NA","Sternberg task","33","37739","51","yes","1024"
"65.38461538461539","65.38461538461539","741.6538461538462","741.6538461538462","black","experiment","legacy","legacy","legacy","0","uniform","1","undefined","1","left","51","51","51","0","0","51","51","0","0","51","51","51","0","51","0","Thu Oct 20 16:52:27 2022","The main experiment item","yes","Sternbergtask.osexp","/Users/katherinehays/Desktop/PSYC 5316 - R and OpenSesame/Lab 3","no","mono","no","18","no","white","no","no","768","legacy","39","11","/Users/katherinehays/Desktop/PSYC 5316 - R and OpenSesame/Lab 3/KH-subject-2.csv","legacy","7 2 3","Lentiform Loewenfeld","3.3.12","3","y","0","left","right","right","left","NA","827","34099","21740","827","NA","2","legacy","3","1024","2","48000","-16","experiment","2","even","3","369264","365944","367036","1628","129077","367041","354130","1793","107336","371273","372101","368051","35975","371272","NA","Sternberg task","34","38566","52","yes","1024"
"64.15094339622641","64.15094339622641","743.9622641509434","743.9622641509434","black","experiment","legacy","legacy","legacy","0","uniform","0","undefined","0","right","52","52","52","0","0","52","52","0","0","52","52","52","0","52","0","Thu Oct 20 16:52:27 2022","The main experiment item","yes","Sternbergtask.osexp","/Users/katherinehays/Desktop/PSYC 5316 - R and OpenSesame/Lab 3","no","mono","no","18","no","white","no","no","768","legacy","40","11","/Users/katherinehays/Desktop/PSYC 5316 - R and OpenSesame/Lab 3/KH-subject-2.csv","legacy","6 7 5 9","Lentiform Loewenfeld","3.3.12","0","n","0","left","right","right","left","NA","864","34099","21740","864","NA","2","legacy","4","1024","2","48000","-16","experiment","2","even","2","375399","372106","373179","1628","129077","373184","354130","1793","107336","377407","378272","374195","35975","377407","NA","Sternberg task","34","39430","53","yes","1024"
"62.96296296296296","62.96296296296296","743.3148148148148","743.3148148148148","black","experiment","legacy","legacy","legacy","0","uniform","0","undefined","0","left","53","53","53","0","0","53","53","0","0","53","53","53","0","53","0","Thu Oct 20 16:52:27 2022","The main experiment item","yes","Sternbergtask.osexp","/Users/katherinehays/Desktop/PSYC 5316 - R and OpenSesame/Lab 3","no","mono","no","18","no","white","no","no","768","legacy","41","11","/Users/katherinehays/Desktop/PSYC 5316 - R and OpenSesame/Lab 3/KH-subject-2.csv","legacy","2 6 1 7 4","Lentiform Loewenfeld","3.3.12","2","y","0","right","right","right","right","NA","709","34099","21740","709","NA","2","legacy","5","1024","2","48000","-16","experiment","2","even","6","381549","372106","379334","1628","129077","379338","378275","1793","107336","383558","384267","380342","35975","383558","NA","Sternberg task","34","40139","54","yes","1024"
"63.63636363636363","63.63636363636363","742.0727272727273","742.0727272727273","black","experiment","legacy","legacy","legacy","0","uniform","1","undefined","1","right","54","54","54","0","0","54","54","0","0","54","54","54","0","54","0","Thu Oct 20 16:52:27 2022","The main experiment item","yes","Sternbergtask.osexp","/Users/katherinehays/Desktop/PSYC 5316 - R and OpenSesame/Lab 3","no","mono","no","18","no","white","no","no","768","legacy","42","11","/Users/katherinehays/Desktop/PSYC 5316 - R and OpenSesame/Lab 3/KH-subject-2.csv","legacy","1 6 4 3 9 7","Lentiform Loewenfeld","3.3.12","0","n","0","right","right","right","right","NA","675","34099","21740","675","NA","2","legacy","6","1024","2","48000","-16","experiment","2","even","8","387527","372106","385318","1628","129077","385321","384271","1793","107336","389535","390211","386324","35975","389534","NA","Sternberg task","35","40814","55","yes","1024"
"64.28571428571429","64.28571428571429","743.3571428571429","743.3571428571429","black","experiment","legacy","legacy","legacy","0","uniform","1","undefined","1","right","55","55","55","0","0","55","55","0","0","55","55","55","0","55","0","Thu Oct 20 16:52:27 2022","The main experiment item","yes","Sternbergtask.osexp","/Users/katherinehays/Desktop/PSYC 5316 - R and OpenSesame/Lab 3","no","mono","no","18","no","white","no","no","768","legacy","43","11","/Users/katherinehays/Desktop/PSYC 5316 - R and OpenSesame/Lab 3/KH-subject-2.csv","legacy","5","Lentiform Loewenfeld","3.3.12","0","n","0","right","right","right","right","NA","814","34099","21740","814","NA","2","legacy","1","1024","2","48000","-16","experiment","2","even","8","393526","390217","391286","1628","129077","391292","384271","1793","107336","395536","396350","392319","35975","395535","NA","Sternberg task","36","41628","56","yes","1024"
"64.91228070175438","64.91228070175438","746.859649122807","746.859649122807","black","experiment","legacy","legacy","legacy","0","uniform","1","undefined","1","left","56","56","56","0","0","56","56","0","0","56","56","56","0","56","0","Thu Oct 20 16:52:27 2022","The main experiment item","yes","Sternbergtask.osexp","/Users/katherinehays/Desktop/PSYC 5316 - R and OpenSesame/Lab 3","no","mono","no","18","no","white","no","no","768","legacy","44","11","/Users/katherinehays/Desktop/PSYC 5316 - R and OpenSesame/Lab 3/KH-subject-2.csv","legacy","8 7 3","Lentiform Loewenfeld","3.3.12","1","y","0","left","right","right","left","NA","943","34099","21740","943","NA","2","legacy","3","1024","2","48000","-16","experiment","2","even","8","399615","396354","397404","1628","129077","397408","384271","1793","107336","401624","402568","398412","35975","401624","NA","Sternberg task","37","42571","57","yes","1024"
"63.793103448275865","63.793103448275865","744.9655172413793","744.9655172413793","black","experiment","legacy","legacy","legacy","0","uniform","0","undefined","0","left","57","57","57","0","0","57","57","0","0","57","57","57","0","57","0","Thu Oct 20 16:52:27 2022","The main experiment item","yes","Sternbergtask.osexp","/Users/katherinehays/Desktop/PSYC 5316 - R and OpenSesame/Lab 3","no","mono","no","18","no","white","no","no","768","legacy","45","11","/Users/katherinehays/Desktop/PSYC 5316 - R and OpenSesame/Lab 3/KH-subject-2.csv","legacy","3 4 9 6 2 9","Lentiform Loewenfeld","3.3.12","5","y","0","right","right","right","right","NA","637","34099","21740","637","NA","2","legacy","6","1024","2","48000","-16","experiment","2","even","2","405883","402572","403656","1628","129077","403660","384271","1793","107336","407887","408524","404669","35975","407887","NA","Sternberg task","37","43208","58","yes","1024"
"64.40677966101696","64.40677966101696","741.4067796610169","741.4067796610169","black","experiment","legacy","legacy","legacy","0","uniform","1","undefined","1","left","58","58","58","0","0","58","58","0","0","58","58","58","0","58","0","Thu Oct 20 16:52:27 2022","The main experiment item","yes","Sternbergtask.osexp","/Users/katherinehays/Desktop/PSYC 5316 - R and OpenSesame/Lab 3","no","mono","no","18","no","white","no","no","768","legacy","46","11","/Users/katherinehays/Desktop/PSYC 5316 - R and OpenSesame/Lab 3/KH-subject-2.csv","legacy","3 5 9 6 2 4","Lentiform Loewenfeld","3.3.12","1","y","0","left","right","right","left","NA","535","34099","21740","535","NA","2","legacy","6","1024","2","48000","-16","experiment","2","even","3","411820","402572","409593","1628","129077","409597","408529","1793","107336","413830","414365","410607","35975","413830","NA","Sternberg task","38","43743","59","yes","1024"
"63.333333333333336","63.333333333333336","738.2333333333333","738.2333333333333","black","experiment","legacy","legacy","legacy","0","uniform","0","undefined","0","left","59","59","59","0","0","59","59","0","0","59","59","59","0","59","0","Thu Oct 20 16:52:27 2022","The main experiment item","yes","Sternbergtask.osexp","/Users/katherinehays/Desktop/PSYC 5316 - R and OpenSesame/Lab 3","no","mono","no","18","no","white","no","no","768","legacy","47","11","/Users/katherinehays/Desktop/PSYC 5316 - R and OpenSesame/Lab 3/KH-subject-2.csv","legacy","9 4 2","Lentiform Loewenfeld","3.3.12","1","y","0","right","right","right","right","NA","551","34099","21740","551","NA","2","legacy","3","1024","2","48000","-16","experiment","2","even","9","417681","414369","415454","1628","129077","415458","408529","1793","107336","419691","420243","416468","35975","419691","NA","Sternberg task","38","44294","60","yes","1024"
"62.295081967213115","62.295081967213115","737.4098360655738","737.4098360655738","black","experiment","legacy","legacy","legacy","0","uniform","0","undefined","0","right","60","60","60","0","0","60","60","0","0","60","60","60","0","60","0","Thu Oct 20 16:52:27 2022","The main experiment item","yes","Sternbergtask.osexp","/Users/katherinehays/Desktop/PSYC 5316 - R and OpenSesame/Lab 3","no","mono","no","18","no","white","no","no","768","legacy","48","11","/Users/katherinehays/Desktop/PSYC 5316 - R and OpenSesame/Lab 3/KH-subject-2.csv","legacy","1 6 4","Lentiform Loewenfeld","3.3.12","0","n","0","left","right","right","left","NA","688","34099","21740","688","NA","2","legacy","3","1024","2","48000","-16","experiment","2","even","7","423569","414369","421339","1628","129077","421344","420249","1793","107336","425579","426268","422354","35975","425579","NA","Sternberg task","38","44982","61","yes","1024"
"62.903225806451616","62.903225806451616","740.5322580645161","740.5322580645161","black","experiment","legacy","legacy","legacy","0","uniform","1","undefined","1","left","61","61","61","0","0","61","61","0","0","61","61","61","0","61","0","Thu Oct 20 16:52:27 2022","The main experiment item","yes","Sternbergtask.osexp","/Users/katherinehays/Desktop/PSYC 5316 - R and OpenSesame/Lab 3","no","mono","no","18","no","white","no","no","768","legacy","49","11","/Users/katherinehays/Desktop/PSYC 5316 - R and OpenSesame/Lab 3/KH-subject-2.csv","legacy","7","Lentiform Loewenfeld","3.3.12","1","y","0","left","right","right","left","NA","931","34099","21740","931","NA","2","legacy","1","1024","2","48000","-16","experiment","2","even","7","429589","414369","427357","1628","129077","427362","426273","1793","107336","431598","432529","428373","35975","431598","NA","Sternberg task","39","45913","62","yes","1024"
"63.492063492063494","63.492063492063494","739.5396825396825","739.5396825396825","black","experiment","legacy","legacy","legacy","0","uniform","1","undefined","1","right","62","62","62","0","0","62","62","0","0","62","62","62","0","62","0","Thu Oct 20 16:52:27 2022","The main experiment item","yes","Sternbergtask.osexp","/Users/katherinehays/Desktop/PSYC 5316 - R and OpenSesame/Lab 3","no","mono","no","18","no","white","no","no","768","legacy","50","11","/Users/katherinehays/Desktop/PSYC 5316 - R and OpenSesame/Lab 3/KH-subject-2.csv","legacy","6 9 4 5 3 2","Lentiform Loewenfeld","3.3.12","0","n","0","right","right","right","right","NA","678","34099","21740","678","NA","2","legacy","6","1024","2","48000","-16","experiment","2","even","8","435800","432533","433589","1628","129077","433592","426273","1793","107336","437808","438487","434595","35975","437808","NA","Sternberg task","40","46591","63","yes","1024"
"64.0625","64.0625","742.90625","742.90625","black","experiment","legacy","legacy","legacy","0","uniform","1","undefined","1","left","63","63","63","0","0","63","63","0","0","63","63","63","0","63","0","Thu Oct 20 16:52:27 2022","The main experiment item","yes","Sternbergtask.osexp","/Users/katherinehays/Desktop/PSYC 5316 - R and OpenSesame/Lab 3","no","mono","no","18","no","white","no","no","768","legacy","51","11","/Users/katherinehays/Desktop/PSYC 5316 - R and OpenSesame/Lab 3/KH-subject-2.csv","legacy","4 1 8 7 5","Lentiform Loewenfeld","3.3.12","3","y","0","left","right","right","left","NA","955","34099","21740","955","NA","2","legacy","5","1024","2","48000","-16","experiment","2","even","8","441771","438491","439553","1628","129077","439556","426273","1793","107336","443780","444736","440565","35975","443780","NA","Sternberg task","41","47546","64","yes","1024"
"64.61538461538461","64.61538461538461","742.7076923076924","742.7076923076924","black","experiment","legacy","legacy","legacy","0","uniform","1","undefined","1","left","64","64","64","0","0","64","64","0","0","64","64","64","0","64","0","Thu Oct 20 16:52:27 2022","The main experiment item","yes","Sternbergtask.osexp","/Users/katherinehays/Desktop/PSYC 5316 - R and OpenSesame/Lab 3","no","mono","no","18","no","white","no","no","768","legacy","52","11","/Users/katherinehays/Desktop/PSYC 5316 - R and OpenSesame/Lab 3/KH-subject-2.csv","legacy","9 1 7 2","Lentiform Loewenfeld","3.3.12","2","y","0","left","right","right","left","NA","730","34099","21740","730","NA","2","legacy","4","1024","2","48000","-16","experiment","2","even","1","448037","444740","445814","1628","129077","445818","426273","1793","107336","450041","450772","446825","35975","450041","NA","Sternberg task","42","48276","65","yes","1024"
"65.15151515151516","65.15151515151516","742.530303030303","742.530303030303","black","experiment","legacy","legacy","legacy","0","uniform","1","undefined","1","right","65","65","65","0","0","65","65","0","0","65","65","65","0","65","0","Thu Oct 20 16:52:27 2022","The main experiment item","yes","Sternbergtask.osexp","/Users/katherinehays/Desktop/PSYC 5316 - R and OpenSesame/Lab 3","no","mono","no","18","no","white","no","no","768","legacy","53","11","/Users/katherinehays/Desktop/PSYC 5316 - R and OpenSesame/Lab 3/KH-subject-2.csv","legacy","8 6 3 4 7","Lentiform Loewenfeld","3.3.12","0","n","0","right","right","right","right","NA","731","34099","21740","731","NA","2","legacy","5","1024","2","48000","-16","experiment","2","even","1","454083","450776","451855","1628","129077","451859","426273","1793","107336","456091","456823","452870","35975","456091","NA","Sternberg task","43","49007","66","yes","1024"
"65.67164179104478","65.67164179104478","740.8955223880597","740.8955223880597","black","experiment","legacy","legacy","legacy","0","uniform","1","undefined","1","right","66","66","66","0","0","66","66","0","0","66","66","66","0","66","0","Thu Oct 20 16:52:27 2022","The main experiment item","yes","Sternbergtask.osexp","/Users/katherinehays/Desktop/PSYC 5316 - R and OpenSesame/Lab 3","no","mono","no","18","no","white","no","no","768","legacy","54","11","/Users/katherinehays/Desktop/PSYC 5316 - R and OpenSesame/Lab 3/KH-subject-2.csv","legacy","6 2 9 3 8 4","Lentiform Loewenfeld","3.3.12","0","n","0","right","right","right","right","NA","633","34099","21740","633","NA","2","legacy","6","1024","2","48000","-16","experiment","2","even","1","460151","456831","457914","1628","129077","457919","426273","1793","107336","462160","462793","458930","35975","462160","NA","Sternberg task","44","49640","67","yes","1024"
"66.17647058823529","66.17647058823529","750","750","black","experiment","legacy","legacy","legacy","0","uniform","1","undefined","1","right","67","67","67","0","0","67","67","0","0","67","67","67","0","67","0","Thu Oct 20 16:52:27 2022","The main experiment item","yes","Sternbergtask.osexp","/Users/katherinehays/Desktop/PSYC 5316 - R and OpenSesame/Lab 3","no","mono","no","18","no","white","no","no","768","legacy","55","11","/Users/katherinehays/Desktop/PSYC 5316 - R and OpenSesame/Lab 3/KH-subject-2.csv","legacy","9 7 4 5 8","Lentiform Loewenfeld","3.3.12","0","n","0","right","right","right","right","NA","1360","34099","21740","1360","NA","2","legacy","5","1024","2","48000","-16","experiment","2","even","6","466120","462799","463890","1628","129077","463895","426273","1793","107336","468129","469489","464906","35975","468128","NA","Sternberg task","45","51000","68","yes","1024"
"66.66666666666667","66.66666666666667","751.4347826086956","751.4347826086956","black","experiment","legacy","legacy","legacy","0","uniform","1","undefined","1","left","68","68","68","0","0","68","68","0","0","68","68","68","0","68","0","Thu Oct 20 16:52:27 2022","The main experiment item","yes","Sternbergtask.osexp","/Users/katherinehays/Desktop/PSYC 5316 - R and OpenSesame/Lab 3","no","mono","no","18","no","white","no","no","768","legacy","56","11","/Users/katherinehays/Desktop/PSYC 5316 - R and OpenSesame/Lab 3/KH-subject-2.csv","legacy","5 2 6","Lentiform Loewenfeld","3.3.12","2","y","0","left","right","right","left","NA","849","34099","21740","849","NA","2","legacy","3","1024","2","48000","-16","experiment","2","even","2","472802","469493","470573","1628","129077","470577","426273","1793","107336","474811","475660","471589","35975","474811","NA","Sternberg task","46","51849","69","yes","1024"
"67.14285714285714","67.14285714285714","751.6","751.6","black","experiment","legacy","legacy","legacy","0","uniform","1","undefined","1","right","69","69","69","0","0","69","69","0","0","69","69","69","0","69","0","Thu Oct 20 16:52:27 2022","The main experiment item","yes","Sternbergtask.osexp","/Users/katherinehays/Desktop/PSYC 5316 - R and OpenSesame/Lab 3","no","mono","no","18","no","white","no","no","768","legacy","57","11","/Users/katherinehays/Desktop/PSYC 5316 - R and OpenSesame/Lab 3/KH-subject-2.csv","legacy","2 8 9","Lentiform Loewenfeld","3.3.12","0","n","0","right","right","right","right","NA","763","34099","21740","763","NA","2","legacy","3","1024","2","48000","-16","experiment","2","even","6","478980","475665","476754","1628","129077","476758","426273","1793","107336","480987","481751","477768","35975","480987","NA","Sternberg task","47","52612","70","yes","1024"
"66.19718309859155","66.19718309859155","757.4084507042254","757.4084507042254","black","experiment","legacy","legacy","legacy","0","uniform","0","undefined","0","right","70","70","70","0","0","70","70","0","0","70","70","70","0","70","0","Thu Oct 20 16:52:27 2022","The main experiment item","yes","Sternbergtask.osexp","/Users/katherinehays/Desktop/PSYC 5316 - R and OpenSesame/Lab 3","no","mono","no","18","no","white","no","no","768","legacy","58","11","/Users/katherinehays/Desktop/PSYC 5316 - R and OpenSesame/Lab 3/KH-subject-2.csv","legacy","9","Lentiform Loewenfeld","3.3.12","0","n","0","left","right","right","left","NA","1164","34099","21740","1164","NA","2","legacy","1","1024","2","48000","-16","experiment","2","even","6","485044","481758","482823","1628","129077","482828","426273","1793","107336","487053","488217","483838","35975","487053","NA","Sternberg task","47","53776","71","yes","1024"
"66.66666666666667","66.66666666666667","761.9583333333334","761.9583333333334","black","experiment","legacy","legacy","legacy","0","uniform","1","undefined","1","left","71","71","71","0","0","71","71","0","0","71","71","71","0","71","0","Thu Oct 20 16:52:27 2022","The main experiment item","yes","Sternbergtask.osexp","/Users/katherinehays/Desktop/PSYC 5316 - R and OpenSesame/Lab 3","no","mono","no","18","no","white","no","no","768","legacy","59","11","/Users/katherinehays/Desktop/PSYC 5316 - R and OpenSesame/Lab 3/KH-subject-2.csv","legacy","9 3 1 2 5","Lentiform Loewenfeld","3.3.12","4","y","0","left","right","right","left","NA","1085","34099","21740","1085","NA","2","legacy","5","1024","2","48000","-16","experiment","2","even","2","491527","481758","489300","1628","129077","489304","488221","1793","107336","493532","494618","490315","35975","493532","NA","Sternberg task","48","54861","72","yes","1024"
"67.12328767123287","67.12328767123287","763.2328767123288","763.2328767123288","black","experiment","legacy","legacy","legacy","0","uniform","1","undefined","1","left","72","72","72","0","0","72","72","0","0","72","72","72","0","72","0","Thu Oct 20 16:52:27 2022","The main experiment item","yes","Sternbergtask.osexp","/Users/katherinehays/Desktop/PSYC 5316 - R and OpenSesame/Lab 3","no","mono","no","18","no","white","no","no","768","legacy","60","11","/Users/katherinehays/Desktop/PSYC 5316 - R and OpenSesame/Lab 3/KH-subject-2.csv","legacy","1 4 9 3 2 5","Lentiform Loewenfeld","3.3.12","3","y","0","left","right","right","left","NA","855","34099","21740","855","NA","2","legacy","6","1024","2","48000","-16","experiment","2","even","9","497946","494625","495714","1628","129077","495719","488221","1793","107336","499955","500811","496730","35975","499955","NA","Sternberg task","49","55716","73","yes","1024"
"67.56756756756756","67.56756756756756","761.8378378378378","761.8378378378378","black","experiment","legacy","legacy","legacy","0","uniform","1","undefined","1","right","73","73","73","0","0","73","73","0","0","73","73","73","0","73","0","Thu Oct 20 16:52:27 2022","The main experiment item","yes","Sternbergtask.osexp","/Users/katherinehays/Desktop/PSYC 5316 - R and OpenSesame/Lab 3","no","mono","no","18","no","white","no","no","768","legacy","61","11","/Users/katherinehays/Desktop/PSYC 5316 - R and OpenSesame/Lab 3/KH-subject-2.csv","legacy","8 4 3 9","Lentiform Loewenfeld","3.3.12","0","n","0","right","right","right","right","NA","660","34099","21740","660","NA","2","legacy","4","1024","2","48000","-16","experiment","2","even","5","504077","500815","501865","1628","129077","501868","488221","1793","107336","506087","506747","502874","35975","506087","NA","Sternberg task","50","56376","74","yes","1024"
"66.66666666666667","66.66666666666667","760.88","760.88","black","experiment","legacy","legacy","legacy","0","uniform","0","undefined","0","left","74","74","74","0","0","74","74","0","0","74","74","74","0","74","0","Thu Oct 20 16:52:27 2022","The main experiment item","yes","Sternbergtask.osexp","/Users/katherinehays/Desktop/PSYC 5316 - R and OpenSesame/Lab 3","no","mono","no","18","no","white","no","no","768","legacy","62","11","/Users/katherinehays/Desktop/PSYC 5316 - R and OpenSesame/Lab 3/KH-subject-2.csv","legacy","3 9 7 6 4","Lentiform Loewenfeld","3.3.12","3","y","0","right","right","right","right","NA","690","34099","21740","690","NA","2","legacy","5","1024","2","48000","-16","experiment","2","even","7","510052","506753","507824","1628","129077","507829","488221","1793","107336","512061","512751","508847","35975","512060","NA","Sternberg task","50","57066","75","yes","1024"
"67.10526315789474","67.10526315789474","758.6447368421053","758.6447368421053","black","experiment","legacy","legacy","legacy","0","uniform","1","undefined","1","left","75","75","75","0","0","75","75","0","0","75","75","75","0","75","0","Thu Oct 20 16:52:27 2022","The main experiment item","yes","Sternbergtask.osexp","/Users/katherinehays/Desktop/PSYC 5316 - R and OpenSesame/Lab 3","no","mono","no","18","no","white","no","no","768","legacy","63","11","/Users/katherinehays/Desktop/PSYC 5316 - R and OpenSesame/Lab 3/KH-subject-2.csv","legacy","4 1 5","Lentiform Loewenfeld","3.3.12","2","y","0","left","right","right","left","NA","591","34099","21740","591","NA","2","legacy","3","1024","2","48000","-16","experiment","2","even","1","516083","506753","513860","1628","129077","513864","512759","1793","107336","518092","518684","514875","35975","518092","NA","Sternberg task","51","57657","76","yes","1024"
"67.53246753246754","67.53246753246754","758.2207792207793","758.2207792207793","black","experiment","legacy","legacy","legacy","0","uniform","1","undefined","1","left","76","76","76","0","0","76","76","0","0","76","76","76","0","76","0","Thu Oct 20 16:52:27 2022","The main experiment item","yes","Sternbergtask.osexp","/Users/katherinehays/Desktop/PSYC 5316 - R and OpenSesame/Lab 3","no","mono","no","18","no","white","no","no","768","legacy","64","11","/Users/katherinehays/Desktop/PSYC 5316 - R and OpenSesame/Lab 3/KH-subject-2.csv","legacy","9 5 3 8 4","Lentiform Loewenfeld","3.3.12","1","y","0","left","right","right","left","NA","726","34099","21740","726","NA","2","legacy","5","1024","2","48000","-16","experiment","2","even","9","522021","518693","519790","1628","129077","519795","512759","1793","107336","524029","524755","520806","35975","524029","NA","Sternberg task","52","58383","77","yes","1024"
"67.94871794871794","67.94871794871794","755.5641025641025","755.5641025641025","black","experiment","legacy","legacy","legacy","0","uniform","1","undefined","1","left","77","77","77","0","0","77","77","0","0","77","77","77","0","77","0","Thu Oct 20 16:52:27 2022","The main experiment item","yes","Sternbergtask.osexp","/Users/katherinehays/Desktop/PSYC 5316 - R and OpenSesame/Lab 3","no","mono","no","18","no","white","no","no","768","legacy","65","11","/Users/katherinehays/Desktop/PSYC 5316 - R and OpenSesame/Lab 3/KH-subject-2.csv","legacy","9 3 8 2 1 4","Lentiform Loewenfeld","3.3.12","3","y","0","left","right","right","left","NA","551","34099","21740","551","NA","2","legacy","6","1024","2","48000","-16","experiment","2","even","8","528057","524764","525835","1628","129077","525838","512759","1793","107336","530066","530618","526849","35975","530066","NA","Sternberg task","53","58934","78","yes","1024"
"68.35443037974683","68.35443037974683","750.9367088607595","750.9367088607595","black","experiment","legacy","legacy","legacy","0","uniform","1","undefined","1","left","78","78","78","0","0","78","78","0","0","78","78","78","0","78","0","Thu Oct 20 16:52:27 2022","The main experiment item","yes","Sternbergtask.osexp","/Users/katherinehays/Desktop/PSYC 5316 - R and OpenSesame/Lab 3","no","mono","no","18","no","white","no","no","768","legacy","66","11","/Users/katherinehays/Desktop/PSYC 5316 - R and OpenSesame/Lab 3/KH-subject-2.csv","legacy","9 8 4","Lentiform Loewenfeld","3.3.12","1","y","0","left","right","right","left","NA","390","34099","21740","390","NA","2","legacy","3","1024","2","48000","-16","experiment","2","even","9","533941","530625","531715","1628","129077","531720","512759","1793","107336","535951","536342","532732","35975","535951","NA","Sternberg task","54","59324","79","yes","1024"
"68.75","68.75","746.55","746.55","black","experiment","legacy","legacy","legacy","0","uniform","1","undefined","1","left","79","79","79","0","0","79","79","0","0","79","79","79","0","79","0","Thu Oct 20 16:52:27 2022","The main experiment item","yes","Sternbergtask.osexp","/Users/katherinehays/Desktop/PSYC 5316 - R and OpenSesame/Lab 3","no","mono","no","18","no","white","no","no","768","legacy","67","11","/Users/katherinehays/Desktop/PSYC 5316 - R and OpenSesame/Lab 3/KH-subject-2.csv","legacy","3 5 4 7","Lentiform Loewenfeld","3.3.12","1","y","0","left","right","right","left","NA","400","34099","21740","400","NA","2","legacy","4","1024","2","48000","-16","experiment","2","even","3","539663","536349","537435","1628","129077","537440","512759","1793","107336","541672","542073","538451","35975","541672","NA","Sternberg task","55","59724","80","yes","1024"
"69.1358024691358","69.1358024691358","761.8641975308642","761.8641975308642","black","experiment","legacy","legacy","legacy","0","uniform","1","undefined","1","right","80","80","80","0","0","80","80","0","0","80","80","80","0","80","0","Thu Oct 20 16:52:27 2022","The main experiment item","yes","Sternbergtask.osexp","/Users/katherinehays/Desktop/PSYC 5316 - R and OpenSesame/Lab 3","no","mono","no","18","no","white","no","no","768","legacy","68","11","/Users/katherinehays/Desktop/PSYC 5316 - R and OpenSesame/Lab 3/KH-subject-2.csv","legacy","6 9 5","Lentiform Loewenfeld","3.3.12","0","n","0","right","right","right","right","NA","1987","34099","21740","1987","NA","2","legacy","3","1024","2","48000","-16","experiment","2","even","8","545402","542081","543173","1628","129077","543178","512759","1793","107336","547413","549401","544188","35975","547413","NA","Sternberg task","56","61711","81","yes","1024"
"68.29268292682927","68.29268292682927","762.0121951219512","762.0121951219512","black","experiment","legacy","legacy","legacy","0","uniform","0","undefined","0","left","81","81","81","0","0","81","81","0","0","81","81","81","0","81","0","Thu Oct 20 16:52:27 2022","The main experiment item","yes","Sternbergtask.osexp","/Users/katherinehays/Desktop/PSYC 5316 - R and OpenSesame/Lab 3","no","mono","no","18","no","white","no","no","768","legacy","69","11","/Users/katherinehays/Desktop/PSYC 5316 - R and OpenSesame/Lab 3/KH-subject-2.csv","legacy","2 8 5 1","Lentiform Loewenfeld","3.3.12","4","y","0","right","right","right","right","NA","774","34099","21740","774","NA","2","legacy","4","1024","2","48000","-16","experiment","2","even","1","552760","549409","550534","1628","129077","550540","512759","1793","107336","554770","555545","551549","35975","554769","NA","Sternberg task","56","62485","82","yes","1024"
"68.67469879518072","68.67469879518072","763.0843373493976","763.0843373493976","black","experiment","legacy","legacy","legacy","0","uniform","1","undefined","1","right","82","82","82","0","0","82","82","0","0","82","82","82","0","82","0","Thu Oct 20 16:52:27 2022","The main experiment item","yes","Sternbergtask.osexp","/Users/katherinehays/Desktop/PSYC 5316 - R and OpenSesame/Lab 3","no","mono","no","18","no","white","no","no","768","legacy","70","11","/Users/katherinehays/Desktop/PSYC 5316 - R and OpenSesame/Lab 3/KH-subject-2.csv","legacy","1 5 3 2 8","Lentiform Loewenfeld","3.3.12","0","n","0","right","right","right","right","NA","851","34099","21740","851","NA","2","legacy","5","1024","2","48000","-16","experiment","2","even","4","558846","549409","556624","1628","129077","556629","555556","1793","107336","560855","561707","557641","35975","560855","NA","Sternberg task","57","63336","83","yes","1024"
"67.85714285714286","67.85714285714286","758.6071428571429","758.6071428571429","black","experiment","legacy","legacy","legacy","0","uniform","0","undefined","0","right","83","83","83","0","0","83","83","0","0","83","83","83","0","83","0","Thu Oct 20 16:52:27 2022","The main experiment item","yes","Sternbergtask.osexp","/Users/katherinehays/Desktop/PSYC 5316 - R and OpenSesame/Lab 3","no","mono","no","18","no","white","no","no","768","legacy","71","11","/Users/katherinehays/Desktop/PSYC 5316 - R and OpenSesame/Lab 3/KH-subject-2.csv","legacy","2 8 7 9 5 3","Lentiform Loewenfeld","3.3.12","0","n","0","left","right","right","left","NA","387","34099","21740","387","NA","2","legacy","6","1024","2","48000","-16","experiment","2","even","6","564992","561710","562776","1628","129077","562780","555556","1793","107336","567001","567389","563789","35975","567001","NA","Sternberg task","57","63723","84","yes","1024"
"68.23529411764706","68.23529411764706","759.035294117647","759.035294117647","black","experiment","legacy","legacy","legacy","0","uniform","1","undefined","1","left","84","84","84","0","0","84","84","0","0","84","84","84","0","84","0","Thu Oct 20 16:52:27 2022","The main experiment item","yes","Sternbergtask.osexp","/Users/katherinehays/Desktop/PSYC 5316 - R and OpenSesame/Lab 3","no","mono","no","18","no","white","no","no","768","legacy","72","11","/Users/katherinehays/Desktop/PSYC 5316 - R and OpenSesame/Lab 3/KH-subject-2.csv","legacy","7 6","Lentiform Loewenfeld","3.3.12","2","y","0","left","right","right","left","NA","795","34099","21740","795","NA","2","legacy","2","1024","2","48000","-16","experiment","2","even","6","570712","561710","568480","1628","129077","568486","567396","1793","107336","572721","573517","569496","35975","572721","NA","Sternberg task","58","64518","85","yes","1024"
"68.6046511627907","68.6046511627907","758.6162790697674","758.6162790697674","black","experiment","legacy","legacy","legacy","0","uniform","1","undefined","1","right","85","85","85","0","0","85","85","0","0","85","85","85","0","85","0","Thu Oct 20 16:52:27 2022","The main experiment item","yes","Sternbergtask.osexp","/Users/katherinehays/Desktop/PSYC 5316 - R and OpenSesame/Lab 3","no","mono","no","18","no","white","no","no","768","legacy","73","11","/Users/katherinehays/Desktop/PSYC 5316 - R and OpenSesame/Lab 3/KH-subject-2.csv","legacy","5 9 2 3","Lentiform Loewenfeld","3.3.12","0","n","0","right","right","right","right","NA","723","34099","21740","723","NA","2","legacy","4","1024","2","48000","-16","experiment","2","even","8","576816","573521","574592","1628","129077","574597","567396","1793","107336","578824","579548","575609","35975","578823","NA","Sternberg task","59","65241","86","yes","1024"
"68.96551724137932","68.96551724137932","756.9310344827586","756.9310344827586","black","experiment","legacy","legacy","legacy","0","uniform","1","undefined","1","right","86","86","86","0","0","86","86","0","0","86","86","86","0","86","0","Thu Oct 20 16:52:27 2022","The main experiment item","yes","Sternbergtask.osexp","/Users/katherinehays/Desktop/PSYC 5316 - R and OpenSesame/Lab 3","no","mono","no","18","no","white","no","no","768","legacy","74","11","/Users/katherinehays/Desktop/PSYC 5316 - R and OpenSesame/Lab 3/KH-subject-2.csv","legacy","5 2","Lentiform Loewenfeld","3.3.12","0","n","0","right","right","right","right","NA","612","34099","21740","612","NA","2","legacy","2","1024","2","48000","-16","experiment","2","even","7","582852","579554","580634","1628","129077","580637","567396","1793","107336","584861","585474","581647","35975","584861","NA","Sternberg task","60","65853","87","yes","1024"
"69.31818181818181","69.31818181818181","756.0454545454545","756.0454545454545","black","experiment","legacy","legacy","legacy","0","uniform","1","undefined","1","left","87","87","87","0","0","87","87","0","0","87","87","87","0","87","0","Thu Oct 20 16:52:27 2022","The main experiment item","yes","Sternbergtask.osexp","/Users/katherinehays/Desktop/PSYC 5316 - R and OpenSesame/Lab 3","no","mono","no","18","no","white","no","no","768","legacy","75","11","/Users/katherinehays/Desktop/PSYC 5316 - R and OpenSesame/Lab 3/KH-subject-2.csv","legacy","5 7 8 2 3 8","Lentiform Loewenfeld","3.3.12","5","y","0","left","right","right","left","NA","679","34099","21740","679","NA","2","legacy","6","1024","2","48000","-16","experiment","2","even","3","588804","585485","586579","1628","129077","586584","567396","1793","107336","590813","591493","587595","35975","590813","NA","Sternberg task","61","66532","88","yes","1024"
"69.66292134831461","69.66292134831461","753.8202247191011","753.8202247191011","black","experiment","legacy","legacy","legacy","0","uniform","1","undefined","1","left","88","88","88","0","0","88","88","0","0","88","88","88","0","88","0","Thu Oct 20 16:52:27 2022","The main experiment item","yes","Sternbergtask.osexp","/Users/katherinehays/Desktop/PSYC 5316 - R and OpenSesame/Lab 3","no","mono","no","18","no","white","no","no","768","legacy","76","11","/Users/katherinehays/Desktop/PSYC 5316 - R and OpenSesame/Lab 3/KH-subject-2.csv","legacy","8 3","Lentiform Loewenfeld","3.3.12","2","y","0","left","right","right","left","NA","558","34099","21740","558","NA","2","legacy","2","1024","2","48000","-16","experiment","2","even","3","594815","591503","592592","1628","129077","592596","567396","1793","107336","596824","597383","593607","35975","596824","NA","Sternberg task","62","67090","89","yes","1024"
"70","70","752.1555555555556","752.1555555555556","black","experiment","legacy","legacy","legacy","0","uniform","1","undefined","1","left","89","89","89","0","0","89","89","0","0","89","89","89","0","89","0","Thu Oct 20 16:52:27 2022","The main experiment item","yes","Sternbergtask.osexp","/Users/katherinehays/Desktop/PSYC 5316 - R and OpenSesame/Lab 3","no","mono","no","18","no","white","no","no","768","legacy","77","11","/Users/katherinehays/Desktop/PSYC 5316 - R and OpenSesame/Lab 3/KH-subject-2.csv","legacy","2 3 7 4","Lentiform Loewenfeld","3.3.12","1","y","0","left","right","right","left","NA","604","34099","21740","604","NA","2","legacy","4","1024","2","48000","-16","experiment","2","even","2","600710","597394","598485","1628","129077","598490","567396","1793","107336","602720","603325","599501","35975","602720","NA","Sternberg task","63","67694","90","yes","1024"
"70.32967032967034","70.32967032967034","749.2087912087912","749.2087912087912","black","experiment","legacy","legacy","legacy","0","uniform","1","undefined","1","left","90","90","90","0","0","90","90","0","0","90","90","90","0","90","0","Thu Oct 20 16:52:27 2022","The main experiment item","yes","Sternbergtask.osexp","/Users/katherinehays/Desktop/PSYC 5316 - R and OpenSesame/Lab 3","no","mono","no","18","no","white","no","no","768","legacy","78","11","/Users/katherinehays/Desktop/PSYC 5316 - R and OpenSesame/Lab 3/KH-subject-2.csv","legacy","6 2","Lentiform Loewenfeld","3.3.12","1","y","0","left","right","right","left","NA","484","34099","21740","484","NA","2","legacy","2","1024","2","48000","-16","experiment","2","even","6","606651","603333","604422","1628","129077","604427","567396","1793","107336","608658","609143","605438","35975","608658","NA","Sternberg task","64","68178","91","yes","1024"
"69.56521739130434","69.56521739130434","752.445652173913","752.445652173913","black","experiment","legacy","legacy","legacy","0","uniform","0","undefined","0","right","91","91","91","0","0","91","91","0","0","91","91","91","0","91","0","Thu Oct 20 16:52:27 2022","The main experiment item","yes","Sternbergtask.osexp","/Users/katherinehays/Desktop/PSYC 5316 - R and OpenSesame/Lab 3","no","mono","no","18","no","white","no","no","768","legacy","79","11","/Users/katherinehays/Desktop/PSYC 5316 - R and OpenSesame/Lab 3/KH-subject-2.csv","legacy","9 8 2 7 4","Lentiform Loewenfeld","3.3.12","0","n","0","left","right","right","left","NA","1047","34099","21740","1047","NA","2","legacy","5","1024","2","48000","-16","experiment","2","even","5","612465","609151","610237","1628","129077","610242","567396","1793","107336","614474","615521","611254","35975","614474","NA","Sternberg task","64","69225","92","yes","1024"
"68.81720430107526","68.81720430107526","751.5591397849462","751.5591397849462","black","experiment","legacy","legacy","legacy","0","uniform","0","undefined","0","right","92","92","92","0","0","92","92","0","0","92","92","92","0","92","0","Thu Oct 20 16:52:27 2022","The main experiment item","yes","Sternbergtask.osexp","/Users/katherinehays/Desktop/PSYC 5316 - R and OpenSesame/Lab 3","no","mono","no","18","no","white","no","no","768","legacy","80","11","/Users/katherinehays/Desktop/PSYC 5316 - R and OpenSesame/Lab 3/KH-subject-2.csv","legacy","7 9 1 6","Lentiform Loewenfeld","3.3.12","0","n","0","left","right","right","left","NA","670","34099","21740","670","NA","2","legacy","4","1024","2","48000","-16","experiment","2","even","4","618830","609151","616605","1628","129077","616609","615526","1793","107336","620833","621504","617617","35975","620833","NA","Sternberg task","64","69895","93","yes","1024"
"68.08510638297872","68.08510638297872","755.4574468085107","755.4574468085107","black","experiment","legacy","legacy","legacy","0","uniform","0","undefined","0","right","93","93","93","0","0","93","93","0","0","93","93","93","0","93","0","Thu Oct 20 16:52:27 2022","The main experiment item","yes","Sternbergtask.osexp","/Users/katherinehays/Desktop/PSYC 5316 - R and OpenSesame/Lab 3","no","mono","no","18","no","white","no","no","768","legacy","81","11","/Users/katherinehays/Desktop/PSYC 5316 - R and OpenSesame/Lab 3/KH-subject-2.csv","legacy","8 2 1 4 5 9","Lentiform Loewenfeld","3.3.12","0","n","0","left","right","right","left","NA","1118","34099","21740","1118","NA","2","legacy","6","1024","2","48000","-16","experiment","2","even","7","624826","609151","622593","1628","129077","622597","621508","1793","107336","626835","627954","623607","35975","626835","NA","Sternberg task","64","71013","94","yes","1024"
"68.42105263157895","68.42105263157895","755.9263157894737","755.9263157894737","black","experiment","legacy","legacy","legacy","0","uniform","1","undefined","1","left","94","94","94","0","0","94","94","0","0","94","94","94","0","94","0","Thu Oct 20 16:52:27 2022","The main experiment item","yes","Sternbergtask.osexp","/Users/katherinehays/Desktop/PSYC 5316 - R and OpenSesame/Lab 3","no","mono","no","18","no","white","no","no","768","legacy","82","11","/Users/katherinehays/Desktop/PSYC 5316 - R and OpenSesame/Lab 3/KH-subject-2.csv","legacy","8 1 6","Lentiform Loewenfeld","3.3.12","3","y","0","left","right","right","left","NA","800","34099","21740","800","NA","2","legacy","3","1024","2","48000","-16","experiment","2","even","6","631267","609151","629042","1628","129077","629046","627958","1793","107336","633276","634077","630057","35975","633276","NA","Sternberg task","65","71813","95","yes","1024"
"67.70833333333333","67.70833333333333","758.625","758.625","black","experiment","legacy","legacy","legacy","0","uniform","0","undefined","0","left","95","95","95","0","0","95","95","0","0","95","95","95","0","95","0","Thu Oct 20 16:52:27 2022","The main experiment item","yes","Sternbergtask.osexp","/Users/katherinehays/Desktop/PSYC 5316 - R and OpenSesame/Lab 3","no","mono","no","18","no","white","no","no","768","legacy","83","11","/Users/katherinehays/Desktop/PSYC 5316 - R and OpenSesame/Lab 3/KH-subject-2.csv","legacy","6 9 3 1","Lentiform Loewenfeld","3.3.12","4","y","0","right","right","right","right","NA","1015","34099","21740","1015","NA","2","legacy","4","1024","2","48000","-16","experiment","2","even","1","637379","634087","635157","1628","129077","635161","627958","1793","107336","639389","640405","636170","35975","639389","NA","Sternberg task","65","72828","96","yes","1024"
"68.04123711340206","68.04123711340206","755.4432989690722","755.4432989690722","black","experiment","legacy","legacy","legacy","0","uniform","1","undefined","1","left","96","96","96","0","0","96","96","0","0","96","96","96","0","96","0","Thu Oct 20 16:52:27 2022","The main experiment item","yes","Sternbergtask.osexp","/Users/katherinehays/Desktop/PSYC 5316 - R and OpenSesame/Lab 3","no","mono","no","18","no","white","no","no","768","legacy","84","11","/Users/katherinehays/Desktop/PSYC 5316 - R and OpenSesame/Lab 3/KH-subject-2.csv","legacy","2 3","Lentiform Loewenfeld","3.3.12","1","y","0","left","right","right","left","NA","450","34099","21740","450","NA","2","legacy","2","1024","2","48000","-16","experiment","2","even","2","643708","634087","641483","1628","129077","641487","640409","1793","107336","645713","646163","642495","35975","645713","NA","Sternberg task","66","73278","97","yes","1024"
"68.36734693877551","68.36734693877551","753.6428571428571","753.6428571428571","black","experiment","legacy","legacy","legacy","0","uniform","1","undefined","1","left","97","97","97","0","0","97","97","0","0","97","97","97","0","97","0","Thu Oct 20 16:52:27 2022","The main experiment item","yes","Sternbergtask.osexp","/Users/katherinehays/Desktop/PSYC 5316 - R and OpenSesame/Lab 3","no","mono","no","18","no","white","no","no","768","legacy","85","11","/Users/katherinehays/Desktop/PSYC 5316 - R and OpenSesame/Lab 3/KH-subject-2.csv","legacy","6 7 9 3 1 2","Lentiform Loewenfeld","3.3.12","1","y","0","left","right","right","left","NA","579","34099","21740","579","NA","2","legacy","6","1024","2","48000","-16","experiment","2","even","6","649465","646167","647238","1628","129077","647242","640409","1793","107336","651473","652053","648253","35975","651473","NA","Sternberg task","67","73857","98","yes","1024"
"68.68686868686869","68.68686868686869","750.7171717171717","750.7171717171717","black","experiment","legacy","legacy","legacy","0","uniform","1","undefined","1","left","98","98","98","0","0","98","98","0","0","98","98","98","0","98","0","Thu Oct 20 16:52:27 2022","The main experiment item","yes","Sternbergtask.osexp","/Users/katherinehays/Desktop/PSYC 5316 - R and OpenSesame/Lab 3","no","mono","no","18","no","white","no","no","768","legacy","86","11","/Users/katherinehays/Desktop/PSYC 5316 - R and OpenSesame/Lab 3/KH-subject-2.csv","legacy","8 9 5 6 7","Lentiform Loewenfeld","3.3.12","1","y","0","left","right","right","left","NA","464","34099","21740","464","NA","2","legacy","5","1024","2","48000","-16","experiment","2","even","8","655355","652057","653127","1628","129077","653131","640409","1793","107336","657365","657830","654141","35975","657364","NA","Sternberg task","68","74321","99","yes","1024"
"68","68","748.62","748.62","black","experiment","legacy","legacy","legacy","0","uniform","0","undefined","0","right","99","99","99","0","0","99","99","0","0","99","99","99","0","99","0","Thu Oct 20 16:52:27 2022","The main experiment item","yes","Sternbergtask.osexp","/Users/katherinehays/Desktop/PSYC 5316 - R and OpenSesame/Lab 3","no","mono","no","18","no","white","no","no","768","legacy","87","11","/Users/katherinehays/Desktop/PSYC 5316 - R and OpenSesame/Lab 3/KH-subject-2.csv","legacy","3 9 8 1 6 4","Lentiform Loewenfeld","3.3.12","0","n","0","left","right","right","left","NA","541","34099","21740","541","NA","2","legacy","6","1024","2","48000","-16","experiment","2","even","7","661138","657834","658911","1628","129077","658915","640409","1793","107336","663147","663691","659926","35975","663147","NA","Sternberg task","68","74862","100","yes","1024"
"68.31683168316832","68.31683168316832","751.6732673267327","751.6732673267327","black","experiment","legacy","legacy","legacy","0","uniform","1","undefined","1","right","100","100","100","0","0","100","100","0","0","100","100","100","0","100","0","Thu Oct 20 16:52:27 2022","The main experiment item","yes","Sternbergtask.osexp","/Users/katherinehays/Desktop/PSYC 5316 - R and OpenSesame/Lab 3","no","mono","no","18","no","white","no","no","768","legacy","88","11","/Users/katherinehays/Desktop/PSYC 5316 - R and OpenSesame/Lab 3/KH-subject-2.csv","legacy","7 1 5 6 3","Lentiform Loewenfeld","3.3.12","0","n","0","right","right","right","right","NA","1057","34099","21740","1057","NA","2","legacy","5","1024","2","48000","-16","experiment","2","even","8","667018","657834","664788","1628","129077","664793","663699","1793","107336","669030","670088","665804","35975","669030","NA","Sternberg task","69","75919","101","yes","1024"
"68.62745098039215","68.62745098039215","750.8529411764706","750.8529411764706","black","experiment","legacy","legacy","legacy","0","uniform","1","undefined","1","right","101","101","101","0","0","101","101","0","0","101","101","101","0","101","0","Thu Oct 20 16:52:27 2022","The main experiment item","yes","Sternbergtask.osexp","/Users/katherinehays/Desktop/PSYC 5316 - R and OpenSesame/Lab 3","no","mono","no","18","no","white","no","no","768","legacy","89","11","/Users/katherinehays/Desktop/PSYC 5316 - R and OpenSesame/Lab 3/KH-subject-2.csv","legacy","3 4 2","Lentiform Loewenfeld","3.3.12","0","n","0","right","right","right","right","NA","668","34099","21740","668","NA","2","legacy","3","1024","2","48000","-16","experiment","2","even","5","673401","670092","671170","1628","129077","671174","663699","1793","107336","675404","676073","672182","35975","675404","NA","Sternberg task","70","76587","102","yes","1024"
"68.93203883495146","68.93203883495146","749.0388349514564","749.0388349514564","black","experiment","legacy","legacy","legacy","0","uniform","1","undefined","1","left","102","102","102","0","0","102","102","0","0","102","102","102","0","102","0","Thu Oct 20 16:52:27 2022","The main experiment item","yes","Sternbergtask.osexp","/Users/katherinehays/Desktop/PSYC 5316 - R and OpenSesame/Lab 3","no","mono","no","18","no","white","no","no","768","legacy","90","11","/Users/katherinehays/Desktop/PSYC 5316 - R and OpenSesame/Lab 3/KH-subject-2.csv","legacy","6 1 2","Lentiform Loewenfeld","3.3.12","3","y","0","left","right","right","left","NA","564","34099","21740","564","NA","2","legacy","3","1024","2","48000","-16","experiment","2","even","2","679377","676078","677151","1628","129077","677155","663699","1793","107336","681387","681952","678165","35975","681387","NA","Sternberg task","71","77151","103","yes","1024"
"69.23076923076923","69.23076923076923","748.1346153846154","748.1346153846154","black","experiment","legacy","legacy","legacy","0","uniform","1","undefined","1","left","103","103","103","0","0","103","103","0","0","103","103","103","0","103","0","Thu Oct 20 16:52:27 2022","The main experiment item","yes","Sternbergtask.osexp","/Users/katherinehays/Desktop/PSYC 5316 - R and OpenSesame/Lab 3","no","mono","no","18","no","white","no","no","768","legacy","91","11","/Users/katherinehays/Desktop/PSYC 5316 - R and OpenSesame/Lab 3/KH-subject-2.csv","legacy","6 7 8 5","Lentiform Loewenfeld","3.3.12","3","y","0","left","right","right","left","NA","655","34099","21740","655","NA","2","legacy","4","1024","2","48000","-16","experiment","2","even","8","685251","681956","683026","1628","129077","683029","663699","1793","107336","687260","687915","684039","35975","687260","NA","Sternberg task","72","77806","104","yes","1024"
"69.52380952380952","69.52380952380952","746.3619047619047","746.3619047619047","black","experiment","legacy","legacy","legacy","0","uniform","1","undefined","1","left","104","104","104","0","0","104","104","0","0","104","104","104","0","104","0","Thu Oct 20 16:52:27 2022","The main experiment item","yes","Sternbergtask.osexp","/Users/katherinehays/Desktop/PSYC 5316 - R and OpenSesame/Lab 3","no","mono","no","18","no","white","no","no","768","legacy","92","11","/Users/katherinehays/Desktop/PSYC 5316 - R and OpenSesame/Lab 3/KH-subject-2.csv","legacy","3 5 7 1","Lentiform Loewenfeld","3.3.12","3","y","0","left","right","right","left","NA","562","34099","21740","562","NA","2","legacy","4","1024","2","48000","-16","experiment","2","even","7","691238","687922","689010","1628","129077","689015","663699","1793","107336","693247","693810","690026","35975","693247","NA","Sternberg task","73","78368","105","yes","1024"
"69.81132075471699","69.81132075471699","744.7169811320755","744.7169811320755","black","experiment","legacy","legacy","legacy","0","uniform","1","undefined","1","left","105","105","105","0","0","105","105","0","0","105","105","105","0","105","0","Thu Oct 20 16:52:27 2022","The main experiment item","yes","Sternbergtask.osexp","/Users/katherinehays/Desktop/PSYC 5316 - R and OpenSesame/Lab 3","no","mono","no","18","no","white","no","no","768","legacy","93","11","/Users/katherinehays/Desktop/PSYC 5316 - R and OpenSesame/Lab 3/KH-subject-2.csv","legacy","8 5 1 3 9","Lentiform Loewenfeld","3.3.12","4","y","0","left","right","right","left","NA","572","34099","21740","572","NA","2","legacy","5","1024","2","48000","-16","experiment","2","even","3","697129","693818","694901","1628","129077","694906","663699","1793","107336","699138","699711","695918","35975","699138","NA","Sternberg task","74","78940","106","yes","1024"
"70.09345794392523","70.09345794392523","747.1775700934579","747.1775700934579","black","experiment","legacy","legacy","legacy","0","uniform","1","undefined","1","right","106","106","106","0","0","106","106","0","0","106","106","106","0","106","0","Thu Oct 20 16:52:27 2022","The main experiment item","yes","Sternbergtask.osexp","/Users/katherinehays/Desktop/PSYC 5316 - R and OpenSesame/Lab 3","no","mono","no","18","no","white","no","no","768","legacy","94","11","/Users/katherinehays/Desktop/PSYC 5316 - R and OpenSesame/Lab 3/KH-subject-2.csv","legacy","1 4 9 2 5","Lentiform Loewenfeld","3.3.12","0","n","0","right","right","right","right","NA","1008","34099","21740","1008","NA","2","legacy","5","1024","2","48000","-16","experiment","2","even","7","703037","699717","700810","1628","129077","700815","663699","1793","107336","705045","706054","701825","35975","705045","NA","Sternberg task","75","79948","107","yes","1024"
"70.37037037037037","70.37037037037037","746.8981481481482","746.8981481481482","black","experiment","legacy","legacy","legacy","0","uniform","1","undefined","1","right","107","107","107","0","0","107","107","0","0","107","107","107","0","107","0","Thu Oct 20 16:52:27 2022","The main experiment item","yes","Sternbergtask.osexp","/Users/katherinehays/Desktop/PSYC 5316 - R and OpenSesame/Lab 3","no","mono","no","18","no","white","no","no","768","legacy","95","11","/Users/katherinehays/Desktop/PSYC 5316 - R and OpenSesame/Lab 3/KH-subject-2.csv","legacy","1 8 7","Lentiform Loewenfeld","3.3.12","0","n","0","right","right","right","right","NA","717","34099","21740","717","NA","2","legacy","3","1024","2","48000","-16","experiment","2","even","4","709343","706058","707126","1628","129077","707129","663699","1793","107336","711355","712072","708134","35975","711354","NA","Sternberg task","76","80665","108","yes","1024"
