"acc","accuracy","average_response_time","avg_rt","background","block","canvas_backend","clock_backend","color_backend","compensation","coordinates","correct","correct_instruction1","correct_keyboard_response","correct_response","count_ISI","count_correctFeedback","count_expSequence","count_experiment","count_experimentLoop","count_fixation","count_incorrectFeedback","count_instruction1","count_instruction2","count_keyboard_response","count_logger","count_memorySet","count_practiceLoop","count_probe","count_thankYou","datetime","description","disable_garbage_collection","experiment_file","experiment_path","font_bold","font_family","font_italic","font_size","font_underline","foreground","form_clicks","fullscreen","height","keyboard_backend","live_row","live_row_practiceLoop","logfile","mouse_backend","numberSet","opensesame_codename","opensesame_version","posInSet","present","repeat_cycle","response","response_instruction1","response_instruction2","response_keyboard_response","response_thankYou","response_time","response_time_instruction1","response_time_instruction2","response_time_keyboard_response","response_time_thankYou","round_decimals","sampler_backend","setSize","sound_buf_size","sound_channels","sound_freq","sound_sample_size","start","subject_nr","subject_parity","target","time_ISI","time_correctFeedback","time_expSequence","time_experiment","time_experimentLoop","time_fixation","time_incorrectFeedback","time_instruction1","time_instruction2","time_keyboard_response","time_logger","time_memorySet","time_practiceLoop","time_probe","time_thankYou","title","total_correct","total_response_time","total_responses","uniform_coordinates","width"
"100","100","984","984","black","practice","legacy","legacy","legacy","0","uniform","1","undefined","1","right","0","0","0","0","0","0","0","0","0","0","0","0","0","0","0","Sun Oct 23 15:05:34 2022","The main experiment item","yes","Sternbergtask.osexp","/Users/andrea/Desktop/Adv. Quant Methods/Lab 3.1","no","mono","no","18","no","white","no","yes","768","legacy","0","0","/Users/andrea/Desktop/Adv. Quant Methods/Lab 3.1/AS-subject-4.csv","legacy","2 1","Lentiform Loewenfeld","3.3.12","0","n","0","right","right","NA","right","NA","984","29910","NA","984","NA","2","legacy","2","1024","2","48000","-16","experiment","4","even","5","36056","NA","33840","3662","NA","33843","NA","3670","NA","38061","39045","34849","33606","38061","NA","Sternberg task","1","984","1","yes","1024"
"50","50","934","934","black","practice","legacy","legacy","legacy","0","uniform","0","undefined","0","left","1","1","1","0","0","1","1","0","0","1","1","1","0","1","0","Sun Oct 23 15:05:34 2022","The main experiment item","yes","Sternbergtask.osexp","/Users/andrea/Desktop/Adv. Quant Methods/Lab 3.1","no","mono","no","18","no","white","no","yes","768","legacy","1","1","/Users/andrea/Desktop/Adv. Quant Methods/Lab 3.1/AS-subject-4.csv","legacy","2 9 4","Lentiform Loewenfeld","3.3.12","3","y","0","right","right","NA","right","NA","884","29910","NA","884","NA","2","legacy","3","1024","2","48000","-16","experiment","4","even","4","42348","39071","40136","3662","NA","40138","NA","3670","NA","44353","45238","41142","33606","44352","NA","Sternberg task","1","1868","2","yes","1024"
"66.66666666666667","66.66666666666667","981","981","black","practice","legacy","legacy","legacy","0","uniform","1","undefined","1","right","2","2","2","0","0","2","2","0","0","2","2","2","0","2","0","Sun Oct 23 15:05:34 2022","The main experiment item","yes","Sternbergtask.osexp","/Users/andrea/Desktop/Adv. Quant Methods/Lab 3.1","no","mono","no","18","no","white","no","yes","768","legacy","2","2","/Users/andrea/Desktop/Adv. Quant Methods/Lab 3.1/AS-subject-4.csv","legacy","9 6 7 4 5","Lentiform Loewenfeld","3.3.12","0","n","0","right","right","NA","right","NA","1075","29910","NA","1075","NA","2","legacy","5","1024","2","48000","-16","experiment","4","even","3","48509","39071","46296","3662","NA","46298","45241","3670","NA","50513","51589","47302","33606","50513","NA","Sternberg task","2","2943","3","yes","1024"
"75","75","868.5","868.5","black","practice","legacy","legacy","legacy","0","uniform","1","undefined","1","left","3","3","3","0","0","3","3","0","0","3","3","3","0","3","0","Sun Oct 23 15:05:34 2022","The main experiment item","yes","Sternbergtask.osexp","/Users/andrea/Desktop/Adv. Quant Methods/Lab 3.1","no","mono","no","18","no","white","no","yes","768","legacy","3","3","/Users/andrea/Desktop/Adv. Quant Methods/Lab 3.1/AS-subject-4.csv","legacy","1 7 9 8 5","Lentiform Loewenfeld","3.3.12","4","y","0","left","right","NA","left","NA","531","29910","NA","531","NA","2","legacy","5","1024","2","48000","-16","experiment","4","even","8","54859","51593","52647","3662","NA","52649","45241","3670","NA","56863","57395","53653","33606","56863","NA","Sternberg task","3","3474","4","yes","1024"
"80","80","872.8","872.8","black","practice","legacy","legacy","legacy","0","uniform","1","undefined","1","right","4","4","4","0","0","4","4","0","0","4","4","4","0","4","0","Sun Oct 23 15:05:34 2022","The main experiment item","yes","Sternbergtask.osexp","/Users/andrea/Desktop/Adv. Quant Methods/Lab 3.1","no","mono","no","18","no","white","no","yes","768","legacy","4","4","/Users/andrea/Desktop/Adv. Quant Methods/Lab 3.1/AS-subject-4.csv","legacy","5 7 8 4 1 2","Lentiform Loewenfeld","3.3.12","0","n","0","right","right","NA","right","NA","890","29910","NA","890","NA","2","legacy","6","1024","2","48000","-16","experiment","4","even","6","60661","57397","58452","3662","NA","58454","45241","3670","NA","62665","63556","59459","33606","62665","NA","Sternberg task","4","4364","5","yes","1024"
"83.33333333333333","83.33333333333333","954.5","954.5","black","practice","legacy","legacy","legacy","0","uniform","1","undefined","1","right","5","5","5","0","0","5","5","0","0","5","5","5","0","5","0","Sun Oct 23 15:05:34 2022","The main experiment item","yes","Sternbergtask.osexp","/Users/andrea/Desktop/Adv. Quant Methods/Lab 3.1","no","mono","no","18","no","white","no","yes","768","legacy","5","5","/Users/andrea/Desktop/Adv. Quant Methods/Lab 3.1/AS-subject-4.csv","legacy","5","Lentiform Loewenfeld","3.3.12","0","n","0","right","right","NA","right","NA","1363","29910","NA","1363","NA","2","legacy","1","1024","2","48000","-16","experiment","4","even","3","66820","63558","64609","3662","NA","64611","45241","3670","NA","68825","70188","65615","33606","68825","NA","Sternberg task","5","5727","6","yes","1024"
"85.71428571428571","85.71428571428571","877.8571428571429","877.8571428571429","black","practice","legacy","legacy","legacy","0","uniform","1","undefined","1","left","6","6","6","0","0","6","6","0","0","6","6","6","0","6","0","Sun Oct 23 15:05:34 2022","The main experiment item","yes","Sternbergtask.osexp","/Users/andrea/Desktop/Adv. Quant Methods/Lab 3.1","no","mono","no","18","no","white","no","yes","768","legacy","6","6","/Users/andrea/Desktop/Adv. Quant Methods/Lab 3.1/AS-subject-4.csv","legacy","4 8","Lentiform Loewenfeld","3.3.12","1","y","0","left","right","NA","left","NA","418","29910","NA","418","NA","2","legacy","2","1024","2","48000","-16","experiment","4","even","4","73458","70192","71246","3662","NA","71249","45241","3670","NA","75462","75881","72253","33606","75462","NA","Sternberg task","6","6145","7","yes","1024"
"87.5","87.5","1004.875","1004.875","black","practice","legacy","legacy","legacy","0","uniform","1","undefined","1","right","7","7","7","0","0","7","7","0","0","7","7","7","0","7","0","Sun Oct 23 15:05:34 2022","The main experiment item","yes","Sternbergtask.osexp","/Users/andrea/Desktop/Adv. Quant Methods/Lab 3.1","no","mono","no","18","no","white","no","yes","768","legacy","7","7","/Users/andrea/Desktop/Adv. Quant Methods/Lab 3.1/AS-subject-4.csv","legacy","3 1 9 4","Lentiform Loewenfeld","3.3.12","0","n","0","right","right","NA","right","NA","1894","29910","NA","1894","NA","2","legacy","4","1024","2","48000","-16","experiment","4","even","6","79151","75884","76939","3662","NA","76941","45241","3670","NA","81156","83051","77945","33606","81155","NA","Sternberg task","7","8039","8","yes","1024"
"88.88888888888889","88.88888888888889","1019.5555555555555","1019.5555555555555","black","practice","legacy","legacy","legacy","0","uniform","1","undefined","1","right","8","8","8","0","0","8","8","0","0","8","8","8","0","8","0","Sun Oct 23 15:05:34 2022","The main experiment item","yes","Sternbergtask.osexp","/Users/andrea/Desktop/Adv. Quant Methods/Lab 3.1","no","mono","no","18","no","white","no","yes","768","legacy","8","8","/Users/andrea/Desktop/Adv. Quant Methods/Lab 3.1/AS-subject-4.csv","legacy","4 1 5","Lentiform Loewenfeld","3.3.12","0","n","0","right","right","NA","right","NA","1137","29910","NA","1137","NA","2","legacy","3","1024","2","48000","-16","experiment","4","even","2","86324","83053","84111","3662","NA","84114","45241","3670","NA","88327","89465","85118","33606","88327","NA","Sternberg task","8","9176","9","yes","1024"
"90","90","996.5","996.5","black","practice","legacy","legacy","legacy","0","uniform","1","undefined","1","left","9","9","9","0","0","9","9","0","0","9","9","9","0","9","0","Sun Oct 23 15:05:34 2022","The main experiment item","yes","Sternbergtask.osexp","/Users/andrea/Desktop/Adv. Quant Methods/Lab 3.1","no","mono","no","18","no","white","no","yes","768","legacy","9","9","/Users/andrea/Desktop/Adv. Quant Methods/Lab 3.1/AS-subject-4.csv","legacy","1 5 2 9","Lentiform Loewenfeld","3.3.12","2","y","0","left","right","NA","left","NA","789","29910","NA","789","NA","2","legacy","4","1024","2","48000","-16","experiment","4","even","5","92734","89468","90523","3662","NA","90525","45241","3670","NA","94739","95528","91529","33606","94739","NA","Sternberg task","9","9965","10","yes","1024"
"90.9090909090909","90.9090909090909","975.5454545454545","975.5454545454545","black","practice","legacy","legacy","legacy","0","uniform","1","undefined","1","left","10","10","10","0","0","10","10","0","0","10","10","10","0","10","0","Sun Oct 23 15:05:34 2022","The main experiment item","yes","Sternbergtask.osexp","/Users/andrea/Desktop/Adv. Quant Methods/Lab 3.1","no","mono","no","18","no","white","no","yes","768","legacy","10","10","/Users/andrea/Desktop/Adv. Quant Methods/Lab 3.1/AS-subject-4.csv","legacy","4 3 1 7 9 8","Lentiform Loewenfeld","3.3.12","1","y","0","left","right","NA","left","NA","766","29910","NA","766","NA","2","legacy","6","1024","2","48000","-16","experiment","4","even","4","98798","95531","96586","3662","NA","96588","45241","3670","NA","100800","101567","97592","33606","100800","NA","Sternberg task","10","10731","11","yes","1024"
"91.66666666666667","91.66666666666667","977","977","black","practice","legacy","legacy","legacy","0","uniform","1","undefined","1","left","11","11","11","0","0","11","11","0","0","11","11","11","0","11","0","Sun Oct 23 15:05:34 2022","The main experiment item","yes","Sternbergtask.osexp","/Users/andrea/Desktop/Adv. Quant Methods/Lab 3.1","no","mono","no","18","no","white","no","yes","768","legacy","11","11","/Users/andrea/Desktop/Adv. Quant Methods/Lab 3.1/AS-subject-4.csv","legacy","6","Lentiform Loewenfeld","3.3.12","1","y","0","left","right","NA","left","NA","993","29910","NA","993","NA","2","legacy","1","1024","2","48000","-16","experiment","4","even","6","104830","101570","102624","3662","NA","102626","45241","3670","NA","106834","107828","103628","33606","106834","NA","Sternberg task","11","11724","12","yes","1024"
"92.3076923076923","92.3076923076923","985.3076923076923","985.3076923076923","black","experiment","legacy","legacy","legacy","0","uniform","1","undefined","1","right","12","12","12","0","0","12","12","0","0","12","12","12","0","12","0","Sun Oct 23 15:05:34 2022","The main experiment item","yes","Sternbergtask.osexp","/Users/andrea/Desktop/Adv. Quant Methods/Lab 3.1","no","mono","no","18","no","white","no","yes","768","legacy","0","11","/Users/andrea/Desktop/Adv. Quant Methods/Lab 3.1/AS-subject-4.csv","legacy","7 1 8 4 9 3","Lentiform Loewenfeld","3.3.12","0","n","0","right","right","right","right","NA","1085","29910","24827","1085","NA","2","legacy","6","1024","2","48000","-16","experiment","4","even","6","135945","107830","133732","3662","133690","133734","45241","3670","108863","137950","139035","134739","33606","137950","NA","Sternberg task","12","12809","13","yes","1024"
"92.85714285714286","92.85714285714286","958.1428571428571","958.1428571428571","black","experiment","legacy","legacy","legacy","0","uniform","1","undefined","1","left","13","13","13","0","0","13","13","0","0","13","13","13","0","13","0","Sun Oct 23 15:05:34 2022","The main experiment item","yes","Sternbergtask.osexp","/Users/andrea/Desktop/Adv. Quant Methods/Lab 3.1","no","mono","no","18","no","white","no","yes","768","legacy","1","11","/Users/andrea/Desktop/Adv. Quant Methods/Lab 3.1/AS-subject-4.csv","legacy","6 1 2","Lentiform Loewenfeld","3.3.12","3","y","0","left","right","right","left","NA","605","29910","24827","605","NA","2","legacy","3","1024","2","48000","-16","experiment","4","even","2","142306","139039","140093","3662","133690","140095","45241","3670","108863","144310","144916","141100","33606","144310","NA","Sternberg task","13","13414","14","yes","1024"
"93.33333333333333","93.33333333333333","1020.2666666666667","1020.2666666666667","black","experiment","legacy","legacy","legacy","0","uniform","1","undefined","1","right","14","14","14","0","0","14","14","0","0","14","14","14","0","14","0","Sun Oct 23 15:05:34 2022","The main experiment item","yes","Sternbergtask.osexp","/Users/andrea/Desktop/Adv. Quant Methods/Lab 3.1","no","mono","no","18","no","white","no","yes","768","legacy","2","11","/Users/andrea/Desktop/Adv. Quant Methods/Lab 3.1/AS-subject-4.csv","legacy","6 3 1 7 9 8","Lentiform Loewenfeld","3.3.12","0","n","0","right","right","right","right","NA","1890","29910","24827","1890","NA","2","legacy","6","1024","2","48000","-16","experiment","4","even","4","148185","144919","145974","3662","133690","145976","45241","3670","108863","150189","152080","146980","33606","150189","NA","Sternberg task","14","15304","15","yes","1024"
"93.75","93.75","991.25","991.25","black","experiment","legacy","legacy","legacy","0","uniform","1","undefined","1","left","15","15","15","0","0","15","15","0","0","15","15","15","0","15","0","Sun Oct 23 15:05:34 2022","The main experiment item","yes","Sternbergtask.osexp","/Users/andrea/Desktop/Adv. Quant Methods/Lab 3.1","no","mono","no","18","no","white","no","yes","768","legacy","3","11","/Users/andrea/Desktop/Adv. Quant Methods/Lab 3.1/AS-subject-4.csv","legacy","3 4","Lentiform Loewenfeld","3.3.12","1","y","0","left","right","right","left","NA","556","29910","24827","556","NA","2","legacy","2","1024","2","48000","-16","experiment","4","even","3","155349","152083","153137","3662","133690","153139","45241","3670","108863","157352","157908","154143","33606","157352","NA","Sternberg task","15","15860","16","yes","1024"
"94.11764705882354","94.11764705882354","985.6470588235294","985.6470588235294","black","experiment","legacy","legacy","legacy","0","uniform","1","undefined","1","left","16","16","16","0","0","16","16","0","0","16","16","16","0","16","0","Sun Oct 23 15:05:34 2022","The main experiment item","yes","Sternbergtask.osexp","/Users/andrea/Desktop/Adv. Quant Methods/Lab 3.1","no","mono","no","18","no","white","no","yes","768","legacy","4","11","/Users/andrea/Desktop/Adv. Quant Methods/Lab 3.1/AS-subject-4.csv","legacy","3 5 4 7","Lentiform Loewenfeld","3.3.12","1","y","0","left","right","right","left","NA","896","29910","24827","896","NA","2","legacy","4","1024","2","48000","-16","experiment","4","even","3","161177","157911","158965","3662","133690","158967","45241","3670","108863","163181","164077","159971","33606","163181","NA","Sternberg task","16","16756","17","yes","1024"
"94.44444444444444","94.44444444444444","1009.2777777777778","1009.2777777777778","black","experiment","legacy","legacy","legacy","0","uniform","1","undefined","1","right","17","17","17","0","0","17","17","0","0","17","17","17","0","17","0","Sun Oct 23 15:05:34 2022","The main experiment item","yes","Sternbergtask.osexp","/Users/andrea/Desktop/Adv. Quant Methods/Lab 3.1","no","mono","no","18","no","white","no","yes","768","legacy","5","11","/Users/andrea/Desktop/Adv. Quant Methods/Lab 3.1/AS-subject-4.csv","legacy","1 4 9 2 5","Lentiform Loewenfeld","3.3.12","0","n","0","right","right","right","right","NA","1411","29910","24827","1411","NA","2","legacy","5","1024","2","48000","-16","experiment","4","even","7","167346","164080","165134","3662","133690","165136","45241","3670","108863","169350","170761","166140","33606","169350","NA","Sternberg task","17","18167","18","yes","1024"
"94.73684210526316","94.73684210526316","1016.4736842105264","1016.4736842105264","black","experiment","legacy","legacy","legacy","0","uniform","1","undefined","1","right","18","18","18","0","0","18","18","0","0","18","18","18","0","18","0","Sun Oct 23 15:05:34 2022","The main experiment item","yes","Sternbergtask.osexp","/Users/andrea/Desktop/Adv. Quant Methods/Lab 3.1","no","mono","no","18","no","white","no","yes","768","legacy","6","11","/Users/andrea/Desktop/Adv. Quant Methods/Lab 3.1/AS-subject-4.csv","legacy","8 9","Lentiform Loewenfeld","3.3.12","0","n","0","right","right","right","right","NA","1146","29910","24827","1146","NA","2","legacy","2","1024","2","48000","-16","experiment","4","even","5","174029","170765","171818","3662","133690","171820","45241","3670","108863","176038","177185","172824","33606","176037","NA","Sternberg task","18","19313","19","yes","1024"
"95","95","1046.75","1046.75","black","experiment","legacy","legacy","legacy","0","uniform","1","undefined","1","right","19","19","19","0","0","19","19","0","0","19","19","19","0","19","0","Sun Oct 23 15:05:34 2022","The main experiment item","yes","Sternbergtask.osexp","/Users/andrea/Desktop/Adv. Quant Methods/Lab 3.1","no","mono","no","18","no","white","no","yes","768","legacy","7","11","/Users/andrea/Desktop/Adv. Quant Methods/Lab 3.1/AS-subject-4.csv","legacy","1","Lentiform Loewenfeld","3.3.12","0","n","0","right","right","right","right","NA","1622","29910","24827","1622","NA","2","legacy","1","1024","2","48000","-16","experiment","4","even","7","180453","177188","178241","3662","133690","178243","45241","3670","108863","182457","184082","179247","33606","182456","NA","Sternberg task","19","20935","20","yes","1024"
"95.23809523809524","95.23809523809524","1029.7619047619048","1029.7619047619048","black","experiment","legacy","legacy","legacy","0","uniform","1","undefined","1","left","20","20","20","0","0","20","20","0","0","20","20","20","0","20","0","Sun Oct 23 15:05:34 2022","The main experiment item","yes","Sternbergtask.osexp","/Users/andrea/Desktop/Adv. Quant Methods/Lab 3.1","no","mono","no","18","no","white","no","yes","768","legacy","8","11","/Users/andrea/Desktop/Adv. Quant Methods/Lab 3.1/AS-subject-4.csv","legacy","6 8 9 3 4 9","Lentiform Loewenfeld","3.3.12","5","y","0","left","right","right","left","NA","690","29910","24827","690","NA","2","legacy","6","1024","2","48000","-16","experiment","4","even","4","187349","184085","185138","3662","133690","185140","45241","3670","108863","189353","190043","186144","33606","189353","NA","Sternberg task","20","21625","21","yes","1024"
"95.45454545454545","95.45454545454545","1033.8181818181818","1033.8181818181818","black","experiment","legacy","legacy","legacy","0","uniform","1","undefined","1","right","21","21","21","0","0","21","21","0","0","21","21","21","0","21","0","Sun Oct 23 15:05:34 2022","The main experiment item","yes","Sternbergtask.osexp","/Users/andrea/Desktop/Adv. Quant Methods/Lab 3.1","no","mono","no","18","no","white","no","yes","768","legacy","9","11","/Users/andrea/Desktop/Adv. Quant Methods/Lab 3.1/AS-subject-4.csv","legacy","6 9 4 5 2","Lentiform Loewenfeld","3.3.12","0","n","0","right","right","right","right","NA","1119","29910","24827","1119","NA","2","legacy","5","1024","2","48000","-16","experiment","4","even","1","193312","190046","191099","3662","133690","191102","45241","3670","108863","195316","196435","192106","33606","195316","NA","Sternberg task","21","22744","22","yes","1024"
"95.65217391304348","95.65217391304348","1045.1739130434783","1045.1739130434783","black","experiment","legacy","legacy","legacy","0","uniform","1","undefined","1","left","22","22","22","0","0","22","22","0","0","22","22","22","0","22","0","Sun Oct 23 15:05:34 2022","The main experiment item","yes","Sternbergtask.osexp","/Users/andrea/Desktop/Adv. Quant Methods/Lab 3.1","no","mono","no","18","no","white","no","yes","768","legacy","10","11","/Users/andrea/Desktop/Adv. Quant Methods/Lab 3.1/AS-subject-4.csv","legacy","6 5","Lentiform Loewenfeld","3.3.12","2","y","0","left","right","right","left","NA","1295","29910","24827","1295","NA","2","legacy","2","1024","2","48000","-16","experiment","4","even","5","199705","196438","197492","3662","133690","197495","45241","3670","108863","201710","203006","198499","33606","201709","NA","Sternberg task","22","24039","23","yes","1024"
"95.83333333333333","95.83333333333333","1026.5","1026.5","black","experiment","legacy","legacy","legacy","0","uniform","1","undefined","1","left","23","23","23","0","0","23","23","0","0","23","23","23","0","23","0","Sun Oct 23 15:05:34 2022","The main experiment item","yes","Sternbergtask.osexp","/Users/andrea/Desktop/Adv. Quant Methods/Lab 3.1","no","mono","no","18","no","white","no","yes","768","legacy","11","11","/Users/andrea/Desktop/Adv. Quant Methods/Lab 3.1/AS-subject-4.csv","legacy","9 3 1 2 5","Lentiform Loewenfeld","3.3.12","4","y","0","left","right","right","left","NA","597","29910","24827","597","NA","2","legacy","5","1024","2","48000","-16","experiment","4","even","2","206274","203009","204062","3662","133690","204064","45241","3670","108863","208278","208875","205068","33606","208277","NA","Sternberg task","23","24636","24","yes","1024"
"96","96","1026.6","1026.6","black","experiment","legacy","legacy","legacy","0","uniform","1","undefined","1","left","24","24","24","0","0","24","24","0","0","24","24","24","0","24","0","Sun Oct 23 15:05:34 2022","The main experiment item","yes","Sternbergtask.osexp","/Users/andrea/Desktop/Adv. Quant Methods/Lab 3.1","no","mono","no","18","no","white","no","yes","768","legacy","12","11","/Users/andrea/Desktop/Adv. Quant Methods/Lab 3.1/AS-subject-4.csv","legacy","9 1 6 7 8","Lentiform Loewenfeld","3.3.12","1","y","0","left","right","right","left","NA","1029","29910","24827","1029","NA","2","legacy","5","1024","2","48000","-16","experiment","4","even","9","212144","208878","209932","3662","133690","209934","45241","3670","108863","214148","215178","210939","33606","214148","NA","Sternberg task","24","25665","25","yes","1024"
"96.15384615384616","96.15384615384616","1019.8076923076923","1019.8076923076923","black","experiment","legacy","legacy","legacy","0","uniform","1","undefined","1","right","25","25","25","0","0","25","25","0","0","25","25","25","0","25","0","Sun Oct 23 15:05:34 2022","The main experiment item","yes","Sternbergtask.osexp","/Users/andrea/Desktop/Adv. Quant Methods/Lab 3.1","no","mono","no","18","no","white","no","yes","768","legacy","13","11","/Users/andrea/Desktop/Adv. Quant Methods/Lab 3.1/AS-subject-4.csv","legacy","1 6 4","Lentiform Loewenfeld","3.3.12","0","n","0","right","right","right","right","NA","850","29910","24827","850","NA","2","legacy","3","1024","2","48000","-16","experiment","4","even","7","218447","215181","216234","3662","133690","216237","45241","3670","108863","220451","221302","217241","33606","220451","NA","Sternberg task","25","26515","26","yes","1024"
"96.29629629629629","96.29629629629629","1047.148148148148","1047.148148148148","black","experiment","legacy","legacy","legacy","0","uniform","1","undefined","1","right","26","26","26","0","0","26","26","0","0","26","26","26","0","26","0","Sun Oct 23 15:05:34 2022","The main experiment item","yes","Sternbergtask.osexp","/Users/andrea/Desktop/Adv. Quant Methods/Lab 3.1","no","mono","no","18","no","white","no","yes","768","legacy","14","11","/Users/andrea/Desktop/Adv. Quant Methods/Lab 3.1/AS-subject-4.csv","legacy","4 2 7 6 1 3","Lentiform Loewenfeld","3.3.12","0","n","0","right","right","right","right","NA","1758","29910","24827","1758","NA","2","legacy","6","1024","2","48000","-16","experiment","4","even","8","224570","221305","222358","3662","133690","222360","45241","3670","108863","226575","228334","223365","33606","226575","NA","Sternberg task","26","28273","27","yes","1024"
"96.42857142857143","96.42857142857143","1049","1049","black","experiment","legacy","legacy","legacy","0","uniform","1","undefined","1","left","27","27","27","0","0","27","27","0","0","27","27","27","0","27","0","Sun Oct 23 15:05:34 2022","The main experiment item","yes","Sternbergtask.osexp","/Users/andrea/Desktop/Adv. Quant Methods/Lab 3.1","no","mono","no","18","no","white","no","yes","768","legacy","15","11","/Users/andrea/Desktop/Adv. Quant Methods/Lab 3.1/AS-subject-4.csv","legacy","4 7 6 8 2 3","Lentiform Loewenfeld","3.3.12","6","y","0","left","right","right","left","NA","1099","29910","24827","1099","NA","2","legacy","6","1024","2","48000","-16","experiment","4","even","3","231604","228337","229392","3662","133690","229394","45241","3670","108863","233608","234708","230398","33606","233608","NA","Sternberg task","27","29372","28","yes","1024"
"96.55172413793103","96.55172413793103","1046.3793103448277","1046.3793103448277","black","experiment","legacy","legacy","legacy","0","uniform","1","undefined","1","right","28","28","28","0","0","28","28","0","0","28","28","28","0","28","0","Sun Oct 23 15:05:34 2022","The main experiment item","yes","Sternbergtask.osexp","/Users/andrea/Desktop/Adv. Quant Methods/Lab 3.1","no","mono","no","18","no","white","no","yes","768","legacy","16","11","/Users/andrea/Desktop/Adv. Quant Methods/Lab 3.1/AS-subject-4.csv","legacy","3 4 2","Lentiform Loewenfeld","3.3.12","0","n","0","right","right","right","right","NA","973","29910","24827","973","NA","2","legacy","3","1024","2","48000","-16","experiment","4","even","5","237977","234711","235765","3662","133690","235767","45241","3670","108863","239981","240955","236772","33606","239981","NA","Sternberg task","28","30345","29","yes","1024"
"96.66666666666667","96.66666666666667","1030.9333333333334","1030.9333333333334","black","experiment","legacy","legacy","legacy","0","uniform","1","undefined","1","right","29","29","29","0","0","29","29","0","0","29","29","29","0","29","0","Sun Oct 23 15:05:34 2022","The main experiment item","yes","Sternbergtask.osexp","/Users/andrea/Desktop/Adv. Quant Methods/Lab 3.1","no","mono","no","18","no","white","no","yes","768","legacy","17","11","/Users/andrea/Desktop/Adv. Quant Methods/Lab 3.1/AS-subject-4.csv","legacy","6 9 5","Lentiform Loewenfeld","3.3.12","0","n","0","right","right","right","right","NA","583","29910","24827","583","NA","2","legacy","3","1024","2","48000","-16","experiment","4","even","8","244222","240958","242010","3662","133690","242012","45241","3670","108863","246225","246808","243016","33606","246225","NA","Sternberg task","29","30928","30","yes","1024"
"96.7741935483871","96.7741935483871","1033.741935483871","1033.741935483871","black","experiment","legacy","legacy","legacy","0","uniform","1","undefined","1","left","30","30","30","0","0","30","30","0","0","30","30","30","0","30","0","Sun Oct 23 15:05:34 2022","The main experiment item","yes","Sternbergtask.osexp","/Users/andrea/Desktop/Adv. Quant Methods/Lab 3.1","no","mono","no","18","no","white","no","yes","768","legacy","18","11","/Users/andrea/Desktop/Adv. Quant Methods/Lab 3.1/AS-subject-4.csv","legacy","3 9 6 2","Lentiform Loewenfeld","3.3.12","4","y","0","left","right","right","left","NA","1118","29910","24827","1118","NA","2","legacy","4","1024","2","48000","-16","experiment","4","even","2","250075","246812","247864","3662","133690","247866","45241","3670","108863","252079","253198","248870","33606","252079","NA","Sternberg task","30","32046","31","yes","1024"
"96.875","96.875","1031.78125","1031.78125","black","experiment","legacy","legacy","legacy","0","uniform","1","undefined","1","right","31","31","31","0","0","31","31","0","0","31","31","31","0","31","0","Sun Oct 23 15:05:34 2022","The main experiment item","yes","Sternbergtask.osexp","/Users/andrea/Desktop/Adv. Quant Methods/Lab 3.1","no","mono","no","18","no","white","no","yes","768","legacy","19","11","/Users/andrea/Desktop/Adv. Quant Methods/Lab 3.1/AS-subject-4.csv","legacy","7 4 2 8 1 9","Lentiform Loewenfeld","3.3.12","0","n","0","right","right","right","right","NA","971","29910","24827","971","NA","2","legacy","6","1024","2","48000","-16","experiment","4","even","5","256468","253201","254255","3662","133690","254258","45241","3670","108863","258472","259443","255262","33606","258472","NA","Sternberg task","31","33017","32","yes","1024"
"96.96969696969697","96.96969696969697","1027.5454545454545","1027.5454545454545","black","experiment","legacy","legacy","legacy","0","uniform","1","undefined","1","right","32","32","32","0","0","32","32","0","0","32","32","32","0","32","0","Sun Oct 23 15:05:34 2022","The main experiment item","yes","Sternbergtask.osexp","/Users/andrea/Desktop/Adv. Quant Methods/Lab 3.1","no","mono","no","18","no","white","no","yes","768","legacy","20","11","/Users/andrea/Desktop/Adv. Quant Methods/Lab 3.1/AS-subject-4.csv","legacy","3 9 8 1 6 4","Lentiform Loewenfeld","3.3.12","0","n","0","right","right","right","right","NA","892","29910","24827","892","NA","2","legacy","6","1024","2","48000","-16","experiment","4","even","7","262710","259446","260499","3662","133690","260501","45241","3670","108863","264713","265606","261505","33606","264713","NA","Sternberg task","32","33909","33","yes","1024"
"97.05882352941177","97.05882352941177","1011.2058823529412","1011.2058823529412","black","experiment","legacy","legacy","legacy","0","uniform","1","undefined","1","left","33","33","33","0","0","33","33","0","0","33","33","33","0","33","0","Sun Oct 23 15:05:34 2022","The main experiment item","yes","Sternbergtask.osexp","/Users/andrea/Desktop/Adv. Quant Methods/Lab 3.1","no","mono","no","18","no","white","no","yes","768","legacy","21","11","/Users/andrea/Desktop/Adv. Quant Methods/Lab 3.1/AS-subject-4.csv","legacy","7","Lentiform Loewenfeld","3.3.12","1","y","0","left","right","right","left","NA","472","29910","24827","472","NA","2","legacy","1","1024","2","48000","-16","experiment","4","even","7","268875","265609","266663","3662","133690","266665","45241","3670","108863","270879","271352","267669","33606","270879","NA","Sternberg task","33","34381","34","yes","1024"
"97.14285714285714","97.14285714285714","1004.4857142857143","1004.4857142857143","black","experiment","legacy","legacy","legacy","0","uniform","1","undefined","1","left","34","34","34","0","0","34","34","0","0","34","34","34","0","34","0","Sun Oct 23 15:05:34 2022","The main experiment item","yes","Sternbergtask.osexp","/Users/andrea/Desktop/Adv. Quant Methods/Lab 3.1","no","mono","no","18","no","white","no","yes","768","legacy","22","11","/Users/andrea/Desktop/Adv. Quant Methods/Lab 3.1/AS-subject-4.csv","legacy","9 5 8 1","Lentiform Loewenfeld","3.3.12","2","y","0","left","right","right","left","NA","776","29910","24827","776","NA","2","legacy","4","1024","2","48000","-16","experiment","4","even","5","274621","271355","272410","3662","133690","272412","45241","3670","108863","276626","277402","273416","33606","276626","NA","Sternberg task","34","35157","35","yes","1024"
"97.22222222222223","97.22222222222223","1004.8888888888889","1004.8888888888889","black","experiment","legacy","legacy","legacy","0","uniform","1","undefined","1","left","35","35","35","0","0","35","35","0","0","35","35","35","0","35","0","Sun Oct 23 15:05:34 2022","The main experiment item","yes","Sternbergtask.osexp","/Users/andrea/Desktop/Adv. Quant Methods/Lab 3.1","no","mono","no","18","no","white","no","yes","768","legacy","23","11","/Users/andrea/Desktop/Adv. Quant Methods/Lab 3.1/AS-subject-4.csv","legacy","8","Lentiform Loewenfeld","3.3.12","1","y","0","left","right","right","left","NA","1019","29910","24827","1019","NA","2","legacy","1","1024","2","48000","-16","experiment","4","even","8","280671","277405","278459","3662","133690","278461","45241","3670","108863","282675","283694","279465","33606","282675","NA","Sternberg task","35","36176","36","yes","1024"
"94.5945945945946","94.5945945945946","1031.7837837837837","1031.7837837837837","black","experiment","legacy","legacy","legacy","0","uniform","0","undefined","0","left","36","36","36","0","0","36","36","0","0","36","36","36","0","36","0","Sun Oct 23 15:05:34 2022","The main experiment item","yes","Sternbergtask.osexp","/Users/andrea/Desktop/Adv. Quant Methods/Lab 3.1","no","mono","no","18","no","white","no","yes","768","legacy","24","11","/Users/andrea/Desktop/Adv. Quant Methods/Lab 3.1/AS-subject-4.csv","legacy","9 8 4","Lentiform Loewenfeld","3.3.12","1","y","0","None","right","right","None","NA","2000","29910","24827","2000","NA","2","legacy","3","1024","2","48000","-16","experiment","4","even","9","286963","283697","284752","3662","133690","284754","45241","3670","108863","288966","290966","285758","33606","288966","NA","Sternberg task","35","38176","37","yes","1024"
"94.73684210526316","94.73684210526316","1037.8157894736842","1037.8157894736842","black","experiment","legacy","legacy","legacy","0","uniform","1","undefined","1","right","37","37","37","0","0","37","37","0","0","37","37","37","0","37","0","Sun Oct 23 15:05:34 2022","The main experiment item","yes","Sternbergtask.osexp","/Users/andrea/Desktop/Adv. Quant Methods/Lab 3.1","no","mono","no","18","no","white","no","yes","768","legacy","25","11","/Users/andrea/Desktop/Adv. Quant Methods/Lab 3.1/AS-subject-4.csv","legacy","1 4 9 3","Lentiform Loewenfeld","3.3.12","0","n","0","right","right","right","right","NA","1261","29910","24827","1261","NA","2","legacy","4","1024","2","48000","-16","experiment","4","even","5","294236","283697","292023","3662","133690","292026","290969","3670","108863","296240","297502","293030","33606","296240","NA","Sternberg task","36","39437","38","yes","1024"
"94.87179487179488","94.87179487179488","1038.5128205128206","1038.5128205128206","black","experiment","legacy","legacy","legacy","0","uniform","1","undefined","1","left","38","38","38","0","0","38","38","0","0","38","38","38","0","38","0","Sun Oct 23 15:05:34 2022","The main experiment item","yes","Sternbergtask.osexp","/Users/andrea/Desktop/Adv. Quant Methods/Lab 3.1","no","mono","no","18","no","white","no","yes","768","legacy","26","11","/Users/andrea/Desktop/Adv. Quant Methods/Lab 3.1/AS-subject-4.csv","legacy","8 9 5 7 1 6","Lentiform Loewenfeld","3.3.12","4","y","0","left","right","right","left","NA","1065","29910","24827","1065","NA","2","legacy","6","1024","2","48000","-16","experiment","4","even","7","300770","297505","298559","3662","133690","298561","290969","3670","108863","302774","303839","299565","33606","302774","NA","Sternberg task","37","40502","39","yes","1024"
"95","95","1054.95","1054.95","black","experiment","legacy","legacy","legacy","0","uniform","1","undefined","1","right","39","39","39","0","0","39","39","0","0","39","39","39","0","39","0","Sun Oct 23 15:05:34 2022","The main experiment item","yes","Sternbergtask.osexp","/Users/andrea/Desktop/Adv. Quant Methods/Lab 3.1","no","mono","no","18","no","white","no","yes","768","legacy","27","11","/Users/andrea/Desktop/Adv. Quant Methods/Lab 3.1/AS-subject-4.csv","legacy","4 1","Lentiform Loewenfeld","3.3.12","0","n","0","right","right","right","right","NA","1696","29910","24827","1696","NA","2","legacy","2","1024","2","48000","-16","experiment","4","even","6","307108","303842","304896","3662","133690","304898","290969","3670","108863","309112","310808","305902","33606","309112","NA","Sternberg task","38","42198","40","yes","1024"
"92.6829268292683","92.6829268292683","1044.5121951219512","1044.5121951219512","black","experiment","legacy","legacy","legacy","0","uniform","0","undefined","0","right","40","40","40","0","0","40","40","0","0","40","40","40","0","40","0","Sun Oct 23 15:05:34 2022","The main experiment item","yes","Sternbergtask.osexp","/Users/andrea/Desktop/Adv. Quant Methods/Lab 3.1","no","mono","no","18","no","white","no","yes","768","legacy","28","11","/Users/andrea/Desktop/Adv. Quant Methods/Lab 3.1/AS-subject-4.csv","legacy","6 2 9 3 8 4","Lentiform Loewenfeld","3.3.12","0","n","0","left","right","right","left","NA","627","29910","24827","627","NA","2","legacy","6","1024","2","48000","-16","experiment","4","even","1","314076","310811","311865","3662","133690","311867","290969","3670","108863","316080","316708","312871","33606","316080","NA","Sternberg task","38","42825","41","yes","1024"
"92.85714285714286","92.85714285714286","1049.4761904761904","1049.4761904761904","black","experiment","legacy","legacy","legacy","0","uniform","1","undefined","1","left","41","41","41","0","0","41","41","0","0","41","41","41","0","41","0","Sun Oct 23 15:05:34 2022","The main experiment item","yes","Sternbergtask.osexp","/Users/andrea/Desktop/Adv. Quant Methods/Lab 3.1","no","mono","no","18","no","white","no","yes","768","legacy","29","11","/Users/andrea/Desktop/Adv. Quant Methods/Lab 3.1/AS-subject-4.csv","legacy","3 4 9 6 2 9","Lentiform Loewenfeld","3.3.12","5","y","0","left","right","right","left","NA","1253","29910","24827","1253","NA","2","legacy","6","1024","2","48000","-16","experiment","4","even","2","319977","310811","317765","3662","133690","317767","316711","3670","108863","321981","323235","318771","33606","321981","NA","Sternberg task","39","44078","42","yes","1024"
"93.02325581395348","93.02325581395348","1052.046511627907","1052.046511627907","black","experiment","legacy","legacy","legacy","0","uniform","1","undefined","1","left","42","42","42","0","0","42","42","0","0","42","42","42","0","42","0","Sun Oct 23 15:05:34 2022","The main experiment item","yes","Sternbergtask.osexp","/Users/andrea/Desktop/Adv. Quant Methods/Lab 3.1","no","mono","no","18","no","white","no","yes","768","legacy","30","11","/Users/andrea/Desktop/Adv. Quant Methods/Lab 3.1/AS-subject-4.csv","legacy","8 5 3 7 4 6","Lentiform Loewenfeld","3.3.12","6","y","0","left","right","right","left","NA","1160","29910","24827","1160","NA","2","legacy","6","1024","2","48000","-16","experiment","4","even","6","326504","323238","324293","3662","133690","324295","316711","3670","108863","328508","329668","325299","33606","328508","NA","Sternberg task","40","45238","43","yes","1024"
"93.18181818181819","93.18181818181819","1052.6136363636363","1052.6136363636363","black","experiment","legacy","legacy","legacy","0","uniform","1","undefined","1","right","43","43","43","0","0","43","43","0","0","43","43","43","0","43","0","Sun Oct 23 15:05:34 2022","The main experiment item","yes","Sternbergtask.osexp","/Users/andrea/Desktop/Adv. Quant Methods/Lab 3.1","no","mono","no","18","no","white","no","yes","768","legacy","31","11","/Users/andrea/Desktop/Adv. Quant Methods/Lab 3.1/AS-subject-4.csv","legacy","8 5 4 2 9 6","Lentiform Loewenfeld","3.3.12","0","n","0","right","right","right","right","NA","1077","29910","24827","1077","NA","2","legacy","6","1024","2","48000","-16","experiment","4","even","3","332937","329671","330724","3662","133690","330727","316711","3670","108863","334941","336019","331731","33606","334941","NA","Sternberg task","41","46315","44","yes","1024"
"93.33333333333333","93.33333333333333","1065.1333333333334","1065.1333333333334","black","experiment","legacy","legacy","legacy","0","uniform","1","undefined","1","right","44","44","44","0","0","44","44","0","0","44","44","44","0","44","0","Sun Oct 23 15:05:34 2022","The main experiment item","yes","Sternbergtask.osexp","/Users/andrea/Desktop/Adv. Quant Methods/Lab 3.1","no","mono","no","18","no","white","no","yes","768","legacy","32","11","/Users/andrea/Desktop/Adv. Quant Methods/Lab 3.1/AS-subject-4.csv","legacy","2 8 6 3 1","Lentiform Loewenfeld","3.3.12","0","n","0","right","right","right","right","NA","1616","29910","24827","1616","NA","2","legacy","5","1024","2","48000","-16","experiment","4","even","7","339287","336022","337076","3662","133690","337078","316711","3670","108863","341292","342909","338082","33606","341292","NA","Sternberg task","42","47931","45","yes","1024"
"93.47826086956522","93.47826086956522","1076.6739130434783","1076.6739130434783","black","experiment","legacy","legacy","legacy","0","uniform","1","undefined","1","left","45","45","45","0","0","45","45","0","0","45","45","45","0","45","0","Sun Oct 23 15:05:34 2022","The main experiment item","yes","Sternbergtask.osexp","/Users/andrea/Desktop/Adv. Quant Methods/Lab 3.1","no","mono","no","18","no","white","no","yes","768","legacy","33","11","/Users/andrea/Desktop/Adv. Quant Methods/Lab 3.1/AS-subject-4.csv","legacy","2 3","Lentiform Loewenfeld","3.3.12","1","y","0","left","right","right","left","NA","1596","29910","24827","1596","NA","2","legacy","2","1024","2","48000","-16","experiment","4","even","2","346178","342912","343965","3662","133690","343968","316711","3670","108863","348182","349779","344972","33606","348181","NA","Sternberg task","43","49527","46","yes","1024"
"93.61702127659575","93.61702127659575","1065.8936170212767","1065.8936170212767","black","experiment","legacy","legacy","legacy","0","uniform","1","undefined","1","right","46","46","46","0","0","46","46","0","0","46","46","46","0","46","0","Sun Oct 23 15:05:34 2022","The main experiment item","yes","Sternbergtask.osexp","/Users/andrea/Desktop/Adv. Quant Methods/Lab 3.1","no","mono","no","18","no","white","no","yes","768","legacy","34","11","/Users/andrea/Desktop/Adv. Quant Methods/Lab 3.1/AS-subject-4.csv","legacy","5","Lentiform Loewenfeld","3.3.12","0","n","0","right","right","right","right","NA","570","29910","24827","570","NA","2","legacy","1","1024","2","48000","-16","experiment","4","even","8","353046","349782","350835","3662","133690","350837","316711","3670","108863","355050","355620","351841","33606","355050","NA","Sternberg task","44","50097","47","yes","1024"
"93.75","93.75","1077.3541666666667","1077.3541666666667","black","experiment","legacy","legacy","legacy","0","uniform","1","undefined","1","left","47","47","47","0","0","47","47","0","0","47","47","47","0","47","0","Sun Oct 23 15:05:34 2022","The main experiment item","yes","Sternbergtask.osexp","/Users/andrea/Desktop/Adv. Quant Methods/Lab 3.1","no","mono","no","18","no","white","no","yes","768","legacy","35","11","/Users/andrea/Desktop/Adv. Quant Methods/Lab 3.1/AS-subject-4.csv","legacy","7 6","Lentiform Loewenfeld","3.3.12","2","y","0","left","right","right","left","NA","1616","29910","24827","1616","NA","2","legacy","2","1024","2","48000","-16","experiment","4","even","6","358889","355623","356677","3662","133690","356679","316711","3670","108863","360893","362510","357683","33606","360893","NA","Sternberg task","45","51713","48","yes","1024"
"93.87755102040816","93.87755102040816","1082.265306122449","1082.265306122449","black","experiment","legacy","legacy","legacy","0","uniform","1","undefined","1","right","48","48","48","0","0","48","48","0","0","48","48","48","0","48","0","Sun Oct 23 15:05:34 2022","The main experiment item","yes","Sternbergtask.osexp","/Users/andrea/Desktop/Adv. Quant Methods/Lab 3.1","no","mono","no","18","no","white","no","yes","768","legacy","36","11","/Users/andrea/Desktop/Adv. Quant Methods/Lab 3.1/AS-subject-4.csv","legacy","6 9 4 5 3 2","Lentiform Loewenfeld","3.3.12","0","n","0","right","right","right","right","NA","1318","29910","24827","1318","NA","2","legacy","6","1024","2","48000","-16","experiment","4","even","8","365776","362513","363565","3662","133690","363567","316711","3670","108863","367780","369098","364571","33606","367780","NA","Sternberg task","46","53031","49","yes","1024"
"94","94","1086.52","1086.52","black","experiment","legacy","legacy","legacy","0","uniform","1","undefined","1","left","49","49","49","0","0","49","49","0","0","49","49","49","0","49","0","Sun Oct 23 15:05:34 2022","The main experiment item","yes","Sternbergtask.osexp","/Users/andrea/Desktop/Adv. Quant Methods/Lab 3.1","no","mono","no","18","no","white","no","yes","768","legacy","37","11","/Users/andrea/Desktop/Adv. Quant Methods/Lab 3.1/AS-subject-4.csv","legacy","9 1 7 2","Lentiform Loewenfeld","3.3.12","2","y","0","left","right","right","left","NA","1295","29910","24827","1295","NA","2","legacy","4","1024","2","48000","-16","experiment","4","even","1","372367","369101","370155","3662","133690","370157","316711","3670","108863","374371","375667","371161","33606","374371","NA","Sternberg task","47","54326","50","yes","1024"
"94.11764705882354","94.11764705882354","1081.9019607843138","1081.9019607843138","black","experiment","legacy","legacy","legacy","0","uniform","1","undefined","1","left","50","50","50","0","0","50","50","0","0","50","50","50","0","50","0","Sun Oct 23 15:05:34 2022","The main experiment item","yes","Sternbergtask.osexp","/Users/andrea/Desktop/Adv. Quant Methods/Lab 3.1","no","mono","no","18","no","white","no","yes","768","legacy","38","11","/Users/andrea/Desktop/Adv. Quant Methods/Lab 3.1/AS-subject-4.csv","legacy","5 7 8 2 3 8","Lentiform Loewenfeld","3.3.12","5","y","0","left","right","right","left","NA","851","29910","24827","851","NA","2","legacy","6","1024","2","48000","-16","experiment","4","even","3","378936","375670","376724","3662","133690","376726","316711","3670","108863","380940","381792","377731","33606","380940","NA","Sternberg task","48","55177","51","yes","1024"
"94.23076923076923","94.23076923076923","1096.8076923076924","1096.8076923076924","black","experiment","legacy","legacy","legacy","0","uniform","1","undefined","1","left","51","51","51","0","0","51","51","0","0","51","51","51","0","51","0","Sun Oct 23 15:05:34 2022","The main experiment item","yes","Sternbergtask.osexp","/Users/andrea/Desktop/Adv. Quant Methods/Lab 3.1","no","mono","no","18","no","white","no","yes","768","legacy","39","11","/Users/andrea/Desktop/Adv. Quant Methods/Lab 3.1/AS-subject-4.csv","legacy","4 9 7 8 5 3","Lentiform Loewenfeld","3.3.12","4","y","0","left","right","right","left","NA","1857","29910","24827","1857","NA","2","legacy","6","1024","2","48000","-16","experiment","4","even","8","385061","381795","382849","3662","133690","382851","316711","3670","108863","387065","388923","383855","33606","387064","NA","Sternberg task","49","57034","52","yes","1024"
"94.33962264150944","94.33962264150944","1101.188679245283","1101.188679245283","black","experiment","legacy","legacy","legacy","0","uniform","1","undefined","1","left","52","52","52","0","0","52","52","0","0","52","52","52","0","52","0","Sun Oct 23 15:05:34 2022","The main experiment item","yes","Sternbergtask.osexp","/Users/andrea/Desktop/Adv. Quant Methods/Lab 3.1","no","mono","no","18","no","white","no","yes","768","legacy","40","11","/Users/andrea/Desktop/Adv. Quant Methods/Lab 3.1/AS-subject-4.csv","legacy","9 5 3 8 4","Lentiform Loewenfeld","3.3.12","1","y","0","left","right","right","left","NA","1329","29910","24827","1329","NA","2","legacy","5","1024","2","48000","-16","experiment","4","even","9","392192","388926","389981","3662","133690","389983","316711","3670","108863","394196","395526","390987","33606","394196","NA","Sternberg task","50","58363","53","yes","1024"
"94.44444444444444","94.44444444444444","1103.851851851852","1103.851851851852","black","experiment","legacy","legacy","legacy","0","uniform","1","undefined","1","right","53","53","53","0","0","53","53","0","0","53","53","53","0","53","0","Sun Oct 23 15:05:34 2022","The main experiment item","yes","Sternbergtask.osexp","/Users/andrea/Desktop/Adv. Quant Methods/Lab 3.1","no","mono","no","18","no","white","no","yes","768","legacy","41","11","/Users/andrea/Desktop/Adv. Quant Methods/Lab 3.1/AS-subject-4.csv","legacy","8 4 3 9","Lentiform Loewenfeld","3.3.12","0","n","0","right","right","right","right","NA","1245","29910","24827","1245","NA","2","legacy","4","1024","2","48000","-16","experiment","4","even","5","398795","395529","396582","3662","133690","396585","316711","3670","108863","400799","402045","397589","33606","400799","NA","Sternberg task","51","59608","54","yes","1024"
"92.72727272727273","92.72727272727273","1104","1104","black","experiment","legacy","legacy","legacy","0","uniform","0","undefined","0","left","54","54","54","0","0","54","54","0","0","54","54","54","0","54","0","Sun Oct 23 15:05:34 2022","The main experiment item","yes","Sternbergtask.osexp","/Users/andrea/Desktop/Adv. Quant Methods/Lab 3.1","no","mono","no","18","no","white","no","yes","768","legacy","42","11","/Users/andrea/Desktop/Adv. Quant Methods/Lab 3.1/AS-subject-4.csv","legacy","9 6 2 4 1","Lentiform Loewenfeld","3.3.12","4","y","0","right","right","right","right","NA","1112","29910","24827","1112","NA","2","legacy","5","1024","2","48000","-16","experiment","4","even","4","405314","402049","403102","3662","133690","403104","316711","3670","108863","407318","408430","404108","33606","407318","NA","Sternberg task","51","60720","55","yes","1024"
"92.85714285714286","92.85714285714286","1110.8392857142858","1110.8392857142858","black","experiment","legacy","legacy","legacy","0","uniform","1","undefined","1","left","55","55","55","0","0","55","55","0","0","55","55","55","0","55","0","Sun Oct 23 15:05:34 2022","The main experiment item","yes","Sternbergtask.osexp","/Users/andrea/Desktop/Adv. Quant Methods/Lab 3.1","no","mono","no","18","no","white","no","yes","768","legacy","43","11","/Users/andrea/Desktop/Adv. Quant Methods/Lab 3.1/AS-subject-4.csv","legacy","8 3","Lentiform Loewenfeld","3.3.12","2","y","0","left","right","right","left","NA","1487","29910","24827","1487","NA","2","legacy","2","1024","2","48000","-16","experiment","4","even","3","411701","402049","409488","3662","133690","409491","408433","3670","108863","413705","415192","410495","33606","413705","NA","Sternberg task","52","62207","56","yes","1024"
"92.98245614035088","92.98245614035088","1108.4912280701753","1108.4912280701753","black","experiment","legacy","legacy","legacy","0","uniform","1","undefined","1","right","56","56","56","0","0","56","56","0","0","56","56","56","0","56","0","Sun Oct 23 15:05:34 2022","The main experiment item","yes","Sternbergtask.osexp","/Users/andrea/Desktop/Adv. Quant Methods/Lab 3.1","no","mono","no","18","no","white","no","yes","768","legacy","44","11","/Users/andrea/Desktop/Adv. Quant Methods/Lab 3.1/AS-subject-4.csv","legacy","7 6 4 8 1 2","Lentiform Loewenfeld","3.3.12","0","n","0","right","right","right","right","NA","977","29910","24827","977","NA","2","legacy","6","1024","2","48000","-16","experiment","4","even","9","418461","415196","416249","3662","133690","416251","408433","3670","108863","420465","421443","417255","33606","420465","NA","Sternberg task","53","63184","57","yes","1024"
"93.10344827586206","93.10344827586206","1116.7413793103449","1116.7413793103449","black","experiment","legacy","legacy","legacy","0","uniform","1","undefined","1","left","57","57","57","0","0","57","57","0","0","57","57","57","0","57","0","Sun Oct 23 15:05:34 2022","The main experiment item","yes","Sternbergtask.osexp","/Users/andrea/Desktop/Adv. Quant Methods/Lab 3.1","no","mono","no","18","no","white","no","yes","768","legacy","45","11","/Users/andrea/Desktop/Adv. Quant Methods/Lab 3.1/AS-subject-4.csv","legacy","9 3 8 2 1 4","Lentiform Loewenfeld","3.3.12","3","y","0","left","right","right","left","NA","1587","29910","24827","1587","NA","2","legacy","6","1024","2","48000","-16","experiment","4","even","8","424710","421445","422499","3662","133690","422501","408433","3670","108863","426715","428303","423505","33606","426714","NA","Sternberg task","54","64771","58","yes","1024"
"93.22033898305085","93.22033898305085","1110.7627118644068","1110.7627118644068","black","experiment","legacy","legacy","legacy","0","uniform","1","undefined","1","left","58","58","58","0","0","58","58","0","0","58","58","58","0","58","0","Sun Oct 23 15:05:34 2022","The main experiment item","yes","Sternbergtask.osexp","/Users/andrea/Desktop/Adv. Quant Methods/Lab 3.1","no","mono","no","18","no","white","no","yes","768","legacy","46","11","/Users/andrea/Desktop/Adv. Quant Methods/Lab 3.1/AS-subject-4.csv","legacy","3 5 7 1","Lentiform Loewenfeld","3.3.12","3","y","0","left","right","right","left","NA","764","29910","24827","764","NA","2","legacy","4","1024","2","48000","-16","experiment","4","even","7","431570","428306","429359","3662","133690","429361","408433","3670","108863","433575","434340","430365","33606","433575","NA","Sternberg task","55","65535","59","yes","1024"
"93.33333333333333","93.33333333333333","1125.2166666666667","1125.2166666666667","black","experiment","legacy","legacy","legacy","0","uniform","1","undefined","1","right","59","59","59","0","0","59","59","0","0","59","59","59","0","59","0","Sun Oct 23 15:05:34 2022","The main experiment item","yes","Sternbergtask.osexp","/Users/andrea/Desktop/Adv. Quant Methods/Lab 3.1","no","mono","no","18","no","white","no","yes","768","legacy","47","11","/Users/andrea/Desktop/Adv. Quant Methods/Lab 3.1/AS-subject-4.csv","legacy","2 3 8 5 6 7","Lentiform Loewenfeld","3.3.12","0","n","0","right","right","right","right","NA","1978","29910","24827","1978","NA","2","legacy","6","1024","2","48000","-16","experiment","4","even","1","437609","434343","435397","3662","133690","435399","408433","3670","108863","439613","441592","436403","33606","439613","NA","Sternberg task","56","67513","60","yes","1024"
"93.44262295081967","93.44262295081967","1131.4590163934427","1131.4590163934427","black","experiment","legacy","legacy","legacy","0","uniform","1","undefined","1","left","60","60","60","0","0","60","60","0","0","60","60","60","0","60","0","Sun Oct 23 15:05:34 2022","The main experiment item","yes","Sternbergtask.osexp","/Users/andrea/Desktop/Adv. Quant Methods/Lab 3.1","no","mono","no","18","no","white","no","yes","768","legacy","48","11","/Users/andrea/Desktop/Adv. Quant Methods/Lab 3.1/AS-subject-4.csv","legacy","6 7 8 5","Lentiform Loewenfeld","3.3.12","3","y","0","left","right","right","left","NA","1506","29910","24827","1506","NA","2","legacy","4","1024","2","48000","-16","experiment","4","even","8","444860","441595","442649","3662","133690","442651","408433","3670","108863","446865","448371","443655","33606","446864","NA","Sternberg task","57","69019","61","yes","1024"
"91.93548387096774","91.93548387096774","1133.0806451612902","1133.0806451612902","black","experiment","legacy","legacy","legacy","0","uniform","0","undefined","0","right","61","61","61","0","0","61","61","0","0","61","61","61","0","61","0","Sun Oct 23 15:05:34 2022","The main experiment item","yes","Sternbergtask.osexp","/Users/andrea/Desktop/Adv. Quant Methods/Lab 3.1","no","mono","no","18","no","white","no","yes","768","legacy","49","11","/Users/andrea/Desktop/Adv. Quant Methods/Lab 3.1/AS-subject-4.csv","legacy","7 1","Lentiform Loewenfeld","3.3.12","0","n","0","left","right","right","left","NA","1232","29910","24827","1232","NA","2","legacy","2","1024","2","48000","-16","experiment","4","even","8","451640","448374","449428","3662","133690","449430","408433","3670","108863","453644","454877","450434","33606","453644","NA","Sternberg task","57","70251","62","yes","1024"
"92.06349206349206","92.06349206349206","1123.6507936507937","1123.6507936507937","black","experiment","legacy","legacy","legacy","0","uniform","1","undefined","1","left","62","62","62","0","0","62","62","0","0","62","62","62","0","62","0","Sun Oct 23 15:05:34 2022","The main experiment item","yes","Sternbergtask.osexp","/Users/andrea/Desktop/Adv. Quant Methods/Lab 3.1","no","mono","no","18","no","white","no","yes","768","legacy","50","11","/Users/andrea/Desktop/Adv. Quant Methods/Lab 3.1/AS-subject-4.csv","legacy","7 2 3","Lentiform Loewenfeld","3.3.12","3","y","0","left","right","right","left","NA","539","29910","24827","539","NA","2","legacy","3","1024","2","48000","-16","experiment","4","even","3","458144","448374","455933","3662","133690","455935","454880","3670","108863","460149","460689","456939","33606","460149","NA","Sternberg task","58","70790","63","yes","1024"
"92.1875","92.1875","1136.03125","1136.03125","black","experiment","legacy","legacy","legacy","0","uniform","1","undefined","1","right","63","63","63","0","0","63","63","0","0","63","63","63","0","63","0","Sun Oct 23 15:05:34 2022","The main experiment item","yes","Sternbergtask.osexp","/Users/andrea/Desktop/Adv. Quant Methods/Lab 3.1","no","mono","no","18","no","white","no","yes","768","legacy","51","11","/Users/andrea/Desktop/Adv. Quant Methods/Lab 3.1/AS-subject-4.csv","legacy","5 2","Lentiform Loewenfeld","3.3.12","0","n","0","right","right","right","right","NA","1916","29910","24827","1916","NA","2","legacy","2","1024","2","48000","-16","experiment","4","even","7","463961","460692","461750","3662","133690","461752","454880","3670","108863","465965","467882","462756","33606","465965","NA","Sternberg task","59","72706","64","yes","1024"
"92.3076923076923","92.3076923076923","1139.1384615384616","1139.1384615384616","black","experiment","legacy","legacy","legacy","0","uniform","1","undefined","1","right","64","64","64","0","0","64","64","0","0","64","64","64","0","64","0","Sun Oct 23 15:05:34 2022","The main experiment item","yes","Sternbergtask.osexp","/Users/andrea/Desktop/Adv. Quant Methods/Lab 3.1","no","mono","no","18","no","white","no","yes","768","legacy","52","11","/Users/andrea/Desktop/Adv. Quant Methods/Lab 3.1/AS-subject-4.csv","legacy","3 4 9 6 7 8","Lentiform Loewenfeld","3.3.12","0","n","0","right","right","right","right","NA","1338","29910","24827","1338","NA","2","legacy","6","1024","2","48000","-16","experiment","4","even","2","471150","467886","468939","3662","133690","468941","454880","3670","108863","473154","474493","469945","33606","473154","NA","Sternberg task","60","74044","65","yes","1024"
"90.9090909090909","90.9090909090909","1137.0454545454545","1137.0454545454545","black","experiment","legacy","legacy","legacy","0","uniform","0","undefined","0","left","65","65","65","0","0","65","65","0","0","65","65","65","0","65","0","Sun Oct 23 15:05:34 2022","The main experiment item","yes","Sternbergtask.osexp","/Users/andrea/Desktop/Adv. Quant Methods/Lab 3.1","no","mono","no","18","no","white","no","yes","768","legacy","53","11","/Users/andrea/Desktop/Adv. Quant Methods/Lab 3.1/AS-subject-4.csv","legacy","4","Lentiform Loewenfeld","3.3.12","1","y","0","right","right","right","right","NA","1001","29910","24827","1001","NA","2","legacy","1","1024","2","48000","-16","experiment","4","even","4","477762","474496","475549","3662","133690","475551","454880","3670","108863","479766","480767","476556","33606","479765","NA","Sternberg task","60","75045","66","yes","1024"
"91.04477611940298","91.04477611940298","1145.402985074627","1145.402985074627","black","experiment","legacy","legacy","legacy","0","uniform","1","undefined","1","left","66","66","66","0","0","66","66","0","0","66","66","66","0","66","0","Sun Oct 23 15:05:34 2022","The main experiment item","yes","Sternbergtask.osexp","/Users/andrea/Desktop/Adv. Quant Methods/Lab 3.1","no","mono","no","18","no","white","no","yes","768","legacy","54","11","/Users/andrea/Desktop/Adv. Quant Methods/Lab 3.1/AS-subject-4.csv","legacy","5 2 9 6 1 7","Lentiform Loewenfeld","3.3.12","3","y","0","left","right","right","left","NA","1697","29910","24827","1697","NA","2","legacy","6","1024","2","48000","-16","experiment","4","even","9","484036","474496","481825","3662","133690","481827","480771","3670","108863","486041","487739","482831","33606","486041","NA","Sternberg task","61","76742","67","yes","1024"
"91.17647058823529","91.17647058823529","1143.6176470588234","1143.6176470588234","black","experiment","legacy","legacy","legacy","0","uniform","1","undefined","1","left","67","67","67","0","0","67","67","0","0","67","67","67","0","67","0","Sun Oct 23 15:05:34 2022","The main experiment item","yes","Sternbergtask.osexp","/Users/andrea/Desktop/Adv. Quant Methods/Lab 3.1","no","mono","no","18","no","white","no","yes","768","legacy","55","11","/Users/andrea/Desktop/Adv. Quant Methods/Lab 3.1/AS-subject-4.csv","legacy","8 1 6","Lentiform Loewenfeld","3.3.12","3","y","0","left","right","right","left","NA","1024","29910","24827","1024","NA","2","legacy","3","1024","2","48000","-16","experiment","4","even","6","491009","487742","488796","3662","133690","488798","480771","3670","108863","493013","494038","489803","33606","493013","NA","Sternberg task","62","77766","68","yes","1024"
"91.30434782608695","91.30434782608695","1142.1159420289855","1142.1159420289855","black","experiment","legacy","legacy","legacy","0","uniform","1","undefined","1","left","68","68","68","0","0","68","68","0","0","68","68","68","0","68","0","Sun Oct 23 15:05:34 2022","The main experiment item","yes","Sternbergtask.osexp","/Users/andrea/Desktop/Adv. Quant Methods/Lab 3.1","no","mono","no","18","no","white","no","yes","768","legacy","56","11","/Users/andrea/Desktop/Adv. Quant Methods/Lab 3.1/AS-subject-4.csv","legacy","4 6 2 5 1","Lentiform Loewenfeld","3.3.12","5","y","0","left","right","right","left","NA","1040","29910","24827","1040","NA","2","legacy","5","1024","2","48000","-16","experiment","4","even","1","497307","494042","495096","3662","133690","495098","480771","3670","108863","499311","500352","496102","33606","499311","NA","Sternberg task","63","78806","69","yes","1024"
"91.42857142857143","91.42857142857143","1137.3428571428572","1137.3428571428572","black","experiment","legacy","legacy","legacy","0","uniform","1","undefined","1","right","69","69","69","0","0","69","69","0","0","69","69","69","0","69","0","Sun Oct 23 15:05:34 2022","The main experiment item","yes","Sternbergtask.osexp","/Users/andrea/Desktop/Adv. Quant Methods/Lab 3.1","no","mono","no","18","no","white","no","yes","768","legacy","57","11","/Users/andrea/Desktop/Adv. Quant Methods/Lab 3.1/AS-subject-4.csv","legacy","4 2 6 9","Lentiform Loewenfeld","3.3.12","0","n","0","right","right","right","right","NA","808","29910","24827","808","NA","2","legacy","4","1024","2","48000","-16","experiment","4","even","7","503620","500355","501408","3662","133690","501410","480771","3670","108863","505624","506433","502414","33606","505624","NA","Sternberg task","64","79614","70","yes","1024"
"91.54929577464789","91.54929577464789","1133.281690140845","1133.281690140845","black","experiment","legacy","legacy","legacy","0","uniform","1","undefined","1","right","70","70","70","0","0","70","70","0","0","70","70","70","0","70","0","Sun Oct 23 15:05:34 2022","The main experiment item","yes","Sternbergtask.osexp","/Users/andrea/Desktop/Adv. Quant Methods/Lab 3.1","no","mono","no","18","no","white","no","yes","768","legacy","58","11","/Users/andrea/Desktop/Adv. Quant Methods/Lab 3.1/AS-subject-4.csv","legacy","6 8 4","Lentiform Loewenfeld","3.3.12","0","n","0","right","right","right","right","NA","849","29910","24827","849","NA","2","legacy","3","1024","2","48000","-16","experiment","4","even","1","509702","506436","507490","3662","133690","507492","480771","3670","108863","511706","512556","508496","33606","511706","NA","Sternberg task","65","80463","71","yes","1024"
"91.66666666666667","91.66666666666667","1133.2777777777778","1133.2777777777778","black","experiment","legacy","legacy","legacy","0","uniform","1","undefined","1","right","71","71","71","0","0","71","71","0","0","71","71","71","0","71","0","Sun Oct 23 15:05:34 2022","The main experiment item","yes","Sternbergtask.osexp","/Users/andrea/Desktop/Adv. Quant Methods/Lab 3.1","no","mono","no","18","no","white","no","yes","768","legacy","59","11","/Users/andrea/Desktop/Adv. Quant Methods/Lab 3.1/AS-subject-4.csv","legacy","7 3 2 8","Lentiform Loewenfeld","3.3.12","0","n","0","right","right","right","right","NA","1133","29910","24827","1133","NA","2","legacy","4","1024","2","48000","-16","experiment","4","even","4","515823","512559","513612","3662","133690","513614","480771","3670","108863","517828","518962","514618","33606","517828","NA","Sternberg task","66","81596","72","yes","1024"
"91.78082191780823","91.78082191780823","1125.2739726027398","1125.2739726027398","black","experiment","legacy","legacy","legacy","0","uniform","1","undefined","1","left","72","72","72","0","0","72","72","0","0","72","72","72","0","72","0","Sun Oct 23 15:05:34 2022","The main experiment item","yes","Sternbergtask.osexp","/Users/andrea/Desktop/Adv. Quant Methods/Lab 3.1","no","mono","no","18","no","white","no","yes","768","legacy","60","11","/Users/andrea/Desktop/Adv. Quant Methods/Lab 3.1/AS-subject-4.csv","legacy","8 9 5 6 7","Lentiform Loewenfeld","3.3.12","1","y","0","left","right","right","left","NA","549","29910","24827","549","NA","2","legacy","5","1024","2","48000","-16","experiment","4","even","8","522231","518965","520020","3662","133690","520022","480771","3670","108863","524236","524785","521026","33606","524235","NA","Sternberg task","67","82145","73","yes","1024"
"90.54054054054055","90.54054054054055","1120.6891891891892","1120.6891891891892","black","experiment","legacy","legacy","legacy","0","uniform","0","undefined","0","right","73","73","73","0","0","73","73","0","0","73","73","73","0","73","0","Sun Oct 23 15:05:34 2022","The main experiment item","yes","Sternbergtask.osexp","/Users/andrea/Desktop/Adv. Quant Methods/Lab 3.1","no","mono","no","18","no","white","no","yes","768","legacy","61","11","/Users/andrea/Desktop/Adv. Quant Methods/Lab 3.1/AS-subject-4.csv","legacy","1 4 3 6 5","Lentiform Loewenfeld","3.3.12","0","n","0","left","right","right","left","NA","786","29910","24827","786","NA","2","legacy","5","1024","2","48000","-16","experiment","4","even","8","528054","524788","525842","3662","133690","525844","480771","3670","108863","530058","530845","526848","33606","530057","NA","Sternberg task","67","82931","74","yes","1024"
"90.66666666666667","90.66666666666667","1113.7733333333333","1113.7733333333333","black","experiment","legacy","legacy","legacy","0","uniform","1","undefined","1","left","74","74","74","0","0","74","74","0","0","74","74","74","0","74","0","Sun Oct 23 15:05:34 2022","The main experiment item","yes","Sternbergtask.osexp","/Users/andrea/Desktop/Adv. Quant Methods/Lab 3.1","no","mono","no","18","no","white","no","yes","768","legacy","62","11","/Users/andrea/Desktop/Adv. Quant Methods/Lab 3.1/AS-subject-4.csv","legacy","2 4 6 9","Lentiform Loewenfeld","3.3.12","3","y","0","left","right","right","left","NA","602","29910","24827","602","NA","2","legacy","4","1024","2","48000","-16","experiment","4","even","6","534113","524788","531901","3662","133690","531903","530848","3670","108863","536117","536720","532907","33606","536117","NA","Sternberg task","68","83533","75","yes","1024"
"90.78947368421052","90.78947368421052","1111.407894736842","1111.407894736842","black","experiment","legacy","legacy","legacy","0","uniform","1","undefined","1","right","75","75","75","0","0","75","75","0","0","75","75","75","0","75","0","Sun Oct 23 15:05:34 2022","The main experiment item","yes","Sternbergtask.osexp","/Users/andrea/Desktop/Adv. Quant Methods/Lab 3.1","no","mono","no","18","no","white","no","yes","768","legacy","63","11","/Users/andrea/Desktop/Adv. Quant Methods/Lab 3.1/AS-subject-4.csv","legacy","9 7 4 5 8","Lentiform Loewenfeld","3.3.12","0","n","0","right","right","right","right","NA","934","29910","24827","934","NA","2","legacy","5","1024","2","48000","-16","experiment","4","even","6","539989","536723","537777","3662","133690","537779","530848","3670","108863","541992","542927","538783","33606","541992","NA","Sternberg task","69","84467","76","yes","1024"
"90.9090909090909","90.9090909090909","1105.935064935065","1105.935064935065","black","experiment","legacy","legacy","legacy","0","uniform","1","undefined","1","right","76","76","76","0","0","76","76","0","0","76","76","76","0","76","0","Sun Oct 23 15:05:34 2022","The main experiment item","yes","Sternbergtask.osexp","/Users/andrea/Desktop/Adv. Quant Methods/Lab 3.1","no","mono","no","18","no","white","no","yes","768","legacy","64","11","/Users/andrea/Desktop/Adv. Quant Methods/Lab 3.1/AS-subject-4.csv","legacy","7 1 5 6 3","Lentiform Loewenfeld","3.3.12","0","n","0","right","right","right","right","NA","690","29910","24827","690","NA","2","legacy","5","1024","2","48000","-16","experiment","4","even","8","546195","542930","543984","3662","133690","543986","530848","3670","108863","548199","548890","544990","33606","548199","NA","Sternberg task","70","85157","77","yes","1024"
"91.02564102564102","91.02564102564102","1100.2051282051282","1100.2051282051282","black","experiment","legacy","legacy","legacy","0","uniform","1","undefined","1","left","77","77","77","0","0","77","77","0","0","77","77","77","0","77","0","Sun Oct 23 15:05:34 2022","The main experiment item","yes","Sternbergtask.osexp","/Users/andrea/Desktop/Adv. Quant Methods/Lab 3.1","no","mono","no","18","no","white","no","yes","768","legacy","65","11","/Users/andrea/Desktop/Adv. Quant Methods/Lab 3.1/AS-subject-4.csv","legacy","3 2 1 4 7","Lentiform Loewenfeld","3.3.12","2","y","0","left","right","right","left","NA","659","29910","24827","659","NA","2","legacy","5","1024","2","48000","-16","experiment","4","even","2","552158","548893","549947","3662","133690","549949","530848","3670","108863","554163","554822","550953","33606","554162","NA","Sternberg task","71","85816","78","yes","1024"
"91.13924050632912","91.13924050632912","1092.5316455696202","1092.5316455696202","black","experiment","legacy","legacy","legacy","0","uniform","1","undefined","1","left","78","78","78","0","0","78","78","0","0","78","78","78","0","78","0","Sun Oct 23 15:05:34 2022","The main experiment item","yes","Sternbergtask.osexp","/Users/andrea/Desktop/Adv. Quant Methods/Lab 3.1","no","mono","no","18","no","white","no","yes","768","legacy","66","11","/Users/andrea/Desktop/Adv. Quant Methods/Lab 3.1/AS-subject-4.csv","legacy","7 8 6 3 1","Lentiform Loewenfeld","3.3.12","5","y","0","left","right","right","left","NA","494","29910","24827","494","NA","2","legacy","5","1024","2","48000","-16","experiment","4","even","1","558089","554825","555878","3662","133690","555880","530848","3670","108863","560093","560588","556887","33606","560093","NA","Sternberg task","72","86310","79","yes","1024"
"91.25","91.25","1094.925","1094.925","black","experiment","legacy","legacy","legacy","0","uniform","1","undefined","1","right","79","79","79","0","0","79","79","0","0","79","79","79","0","79","0","Sun Oct 23 15:05:34 2022","The main experiment item","yes","Sternbergtask.osexp","/Users/andrea/Desktop/Adv. Quant Methods/Lab 3.1","no","mono","no","18","no","white","no","yes","768","legacy","67","11","/Users/andrea/Desktop/Adv. Quant Methods/Lab 3.1/AS-subject-4.csv","legacy","5 3 8 7 2 4","Lentiform Loewenfeld","3.3.12","0","n","0","right","right","right","right","NA","1284","29910","24827","1284","NA","2","legacy","6","1024","2","48000","-16","experiment","4","even","9","563858","560591","561645","3662","133690","561648","530848","3670","108863","565862","567147","562652","33606","565862","NA","Sternberg task","73","87594","80","yes","1024"
"91.35802469135803","91.35802469135803","1098.9753086419753","1098.9753086419753","black","experiment","legacy","legacy","legacy","0","uniform","1","undefined","1","right","80","80","80","0","0","80","80","0","0","80","80","80","0","80","0","Sun Oct 23 15:05:34 2022","The main experiment item","yes","Sternbergtask.osexp","/Users/andrea/Desktop/Adv. Quant Methods/Lab 3.1","no","mono","no","18","no","white","no","yes","768","legacy","68","11","/Users/andrea/Desktop/Adv. Quant Methods/Lab 3.1/AS-subject-4.csv","legacy","2 6 4 3 9","Lentiform Loewenfeld","3.3.12","0","n","0","right","right","right","right","NA","1423","29910","24827","1423","NA","2","legacy","5","1024","2","48000","-16","experiment","4","even","1","570418","567151","568206","3662","133690","568208","530848","3670","108863","572422","573846","569212","33606","572422","NA","Sternberg task","74","89017","81","yes","1024"
"91.46341463414635","91.46341463414635","1091.3170731707316","1091.3170731707316","black","experiment","legacy","legacy","legacy","0","uniform","1","undefined","1","left","81","81","81","0","0","81","81","0","0","81","81","81","0","81","0","Sun Oct 23 15:05:34 2022","The main experiment item","yes","Sternbergtask.osexp","/Users/andrea/Desktop/Adv. Quant Methods/Lab 3.1","no","mono","no","18","no","white","no","yes","768","legacy","69","11","/Users/andrea/Desktop/Adv. Quant Methods/Lab 3.1/AS-subject-4.csv","legacy","2 3 7 4","Lentiform Loewenfeld","3.3.12","1","y","0","left","right","right","left","NA","471","29910","24827","471","NA","2","legacy","4","1024","2","48000","-16","experiment","4","even","2","577115","573849","574903","3662","133690","574905","530848","3670","108863","579119","579591","575909","33606","579119","NA","Sternberg task","75","89488","82","yes","1024"
"91.56626506024097","91.56626506024097","1084.8072289156626","1084.8072289156626","black","experiment","legacy","legacy","legacy","0","uniform","1","undefined","1","right","82","82","82","0","0","82","82","0","0","82","82","82","0","82","0","Sun Oct 23 15:05:34 2022","The main experiment item","yes","Sternbergtask.osexp","/Users/andrea/Desktop/Adv. Quant Methods/Lab 3.1","no","mono","no","18","no","white","no","yes","768","legacy","70","11","/Users/andrea/Desktop/Adv. Quant Methods/Lab 3.1/AS-subject-4.csv","legacy","2 5 1 4","Lentiform Loewenfeld","3.3.12","0","n","0","right","right","right","right","NA","551","29910","24827","551","NA","2","legacy","4","1024","2","48000","-16","experiment","4","even","6","582860","579594","580648","3662","133690","580650","530848","3670","108863","584864","585416","581655","33606","584864","NA","Sternberg task","76","90039","83","yes","1024"
"91.66666666666667","91.66666666666667","1084.3214285714287","1084.3214285714287","black","experiment","legacy","legacy","legacy","0","uniform","1","undefined","1","left","83","83","83","0","0","83","83","0","0","83","83","83","0","83","0","Sun Oct 23 15:05:34 2022","The main experiment item","yes","Sternbergtask.osexp","/Users/andrea/Desktop/Adv. Quant Methods/Lab 3.1","no","mono","no","18","no","white","no","yes","768","legacy","71","11","/Users/andrea/Desktop/Adv. Quant Methods/Lab 3.1/AS-subject-4.csv","legacy","2 5 4 8 7","Lentiform Loewenfeld","3.3.12","3","y","0","left","right","right","left","NA","1044","29910","24827","1044","NA","2","legacy","5","1024","2","48000","-16","experiment","4","even","4","588681","585419","586469","3662","133690","586471","530848","3670","108863","590685","591730","587475","33606","590685","NA","Sternberg task","77","91083","84","yes","1024"
"91.76470588235294","91.76470588235294","1082.6352941176472","1082.6352941176472","black","experiment","legacy","legacy","legacy","0","uniform","1","undefined","1","left","84","84","84","0","0","84","84","0","0","84","84","84","0","84","0","Sun Oct 23 15:05:34 2022","The main experiment item","yes","Sternbergtask.osexp","/Users/andrea/Desktop/Adv. Quant Methods/Lab 3.1","no","mono","no","18","no","white","no","yes","768","legacy","72","11","/Users/andrea/Desktop/Adv. Quant Methods/Lab 3.1/AS-subject-4.csv","legacy","8 7 3","Lentiform Loewenfeld","3.3.12","1","y","0","left","right","right","left","NA","941","29910","24827","941","NA","2","legacy","3","1024","2","48000","-16","experiment","4","even","8","594998","591733","592786","3662","133690","592788","530848","3670","108863","597002","597944","593793","33606","597002","NA","Sternberg task","78","92024","85","yes","1024"
"91.86046511627907","91.86046511627907","1076.8255813953488","1076.8255813953488","black","experiment","legacy","legacy","legacy","0","uniform","1","undefined","1","left","85","85","85","0","0","85","85","0","0","85","85","85","0","85","0","Sun Oct 23 15:05:34 2022","The main experiment item","yes","Sternbergtask.osexp","/Users/andrea/Desktop/Adv. Quant Methods/Lab 3.1","no","mono","no","18","no","white","no","yes","768","legacy","73","11","/Users/andrea/Desktop/Adv. Quant Methods/Lab 3.1/AS-subject-4.csv","legacy","2 6 1 7 4","Lentiform Loewenfeld","3.3.12","2","y","0","left","right","right","left","NA","583","29910","24827","583","NA","2","legacy","5","1024","2","48000","-16","experiment","4","even","6","601212","597947","599000","3662","133690","599002","530848","3670","108863","603216","603800","600006","33606","603216","NA","Sternberg task","79","92607","86","yes","1024"
"91.95402298850574","91.95402298850574","1082.1724137931035","1082.1724137931035","black","experiment","legacy","legacy","legacy","0","uniform","1","undefined","1","right","86","86","86","0","0","86","86","0","0","86","86","86","0","86","0","Sun Oct 23 15:05:34 2022","The main experiment item","yes","Sternbergtask.osexp","/Users/andrea/Desktop/Adv. Quant Methods/Lab 3.1","no","mono","no","18","no","white","no","yes","768","legacy","74","11","/Users/andrea/Desktop/Adv. Quant Methods/Lab 3.1/AS-subject-4.csv","legacy","7 8 6 1","Lentiform Loewenfeld","3.3.12","0","n","0","right","right","right","right","NA","1542","29910","24827","1542","NA","2","legacy","4","1024","2","48000","-16","experiment","4","even","3","607067","603803","604856","3662","133690","604858","530848","3670","108863","609072","610615","605862","33606","609072","NA","Sternberg task","80","94149","87","yes","1024"
"90.9090909090909","90.9090909090909","1078.3068181818182","1078.3068181818182","black","experiment","legacy","legacy","legacy","0","uniform","0","undefined","0","right","87","87","87","0","0","87","87","0","0","87","87","87","0","87","0","Sun Oct 23 15:05:34 2022","The main experiment item","yes","Sternbergtask.osexp","/Users/andrea/Desktop/Adv. Quant Methods/Lab 3.1","no","mono","no","18","no","white","no","yes","768","legacy","75","11","/Users/andrea/Desktop/Adv. Quant Methods/Lab 3.1/AS-subject-4.csv","legacy","2 8 9 4 1","Lentiform Loewenfeld","3.3.12","0","n","0","left","right","right","left","NA","742","29910","24827","742","NA","2","legacy","5","1024","2","48000","-16","experiment","4","even","5","613886","610618","611672","3662","133690","611674","530848","3670","108863","615890","616633","612680","33606","615890","NA","Sternberg task","80","94891","88","yes","1024"
"91.01123595505618","91.01123595505618","1076.4044943820224","1076.4044943820224","black","experiment","legacy","legacy","legacy","0","uniform","1","undefined","1","left","88","88","88","0","0","88","88","0","0","88","88","88","0","88","0","Sun Oct 23 15:05:34 2022","The main experiment item","yes","Sternbergtask.osexp","/Users/andrea/Desktop/Adv. Quant Methods/Lab 3.1","no","mono","no","18","no","white","no","yes","768","legacy","76","11","/Users/andrea/Desktop/Adv. Quant Methods/Lab 3.1/AS-subject-4.csv","legacy","6 7 9 3 1 2","Lentiform Loewenfeld","3.3.12","1","y","0","left","right","right","left","NA","909","29910","24827","909","NA","2","legacy","6","1024","2","48000","-16","experiment","4","even","6","619901","610618","617690","3662","133690","617692","616636","3670","108863","621905","622815","618696","33606","621905","NA","Sternberg task","81","95800","89","yes","1024"
"91.11111111111111","91.11111111111111","1072.9777777777779","1072.9777777777779","black","experiment","legacy","legacy","legacy","0","uniform","1","undefined","1","left","89","89","89","0","0","89","89","0","0","89","89","89","0","89","0","Sun Oct 23 15:05:34 2022","The main experiment item","yes","Sternbergtask.osexp","/Users/andrea/Desktop/Adv. Quant Methods/Lab 3.1","no","mono","no","18","no","white","no","yes","768","legacy","77","11","/Users/andrea/Desktop/Adv. Quant Methods/Lab 3.1/AS-subject-4.csv","legacy","7 1 3","Lentiform Loewenfeld","3.3.12","2","y","0","left","right","right","left","NA","768","29910","24827","768","NA","2","legacy","3","1024","2","48000","-16","experiment","4","even","1","626084","622818","623872","3662","133690","623874","616636","3670","108863","628088","628857","624878","33606","628088","NA","Sternberg task","82","96568","90","yes","1024"
"91.20879120879121","91.20879120879121","1068.989010989011","1068.989010989011","black","experiment","legacy","legacy","legacy","0","uniform","1","undefined","1","left","90","90","90","0","0","90","90","0","0","90","90","90","0","90","0","Sun Oct 23 15:05:34 2022","The main experiment item","yes","Sternbergtask.osexp","/Users/andrea/Desktop/Adv. Quant Methods/Lab 3.1","no","mono","no","18","no","white","no","yes","768","legacy","78","11","/Users/andrea/Desktop/Adv. Quant Methods/Lab 3.1/AS-subject-4.csv","legacy","4 6 5 8","Lentiform Loewenfeld","3.3.12","1","y","0","left","right","right","left","NA","710","29910","24827","710","NA","2","legacy","4","1024","2","48000","-16","experiment","4","even","4","632125","628860","629914","3662","133690","629916","616636","3670","108863","634130","634841","630920","33606","634130","NA","Sternberg task","83","97278","91","yes","1024"
"91.30434782608695","91.30434782608695","1063.2391304347825","1063.2391304347825","black","experiment","legacy","legacy","legacy","0","uniform","1","undefined","1","left","91","91","91","0","0","91","91","0","0","91","91","91","0","91","0","Sun Oct 23 15:05:34 2022","The main experiment item","yes","Sternbergtask.osexp","/Users/andrea/Desktop/Adv. Quant Methods/Lab 3.1","no","mono","no","18","no","white","no","yes","768","legacy","79","11","/Users/andrea/Desktop/Adv. Quant Methods/Lab 3.1/AS-subject-4.csv","legacy","5 7 3 6 2","Lentiform Loewenfeld","3.3.12","5","y","0","left","right","right","left","NA","540","29910","24827","540","NA","2","legacy","5","1024","2","48000","-16","experiment","4","even","2","638110","634844","635898","3662","133690","635900","616636","3670","108863","640114","640655","636904","33606","640114","NA","Sternberg task","84","97818","92","yes","1024"
"91.39784946236558","91.39784946236558","1063.247311827957","1063.247311827957","black","experiment","legacy","legacy","legacy","0","uniform","1","undefined","1","right","92","92","92","0","0","92","92","0","0","92","92","92","0","92","0","Sun Oct 23 15:05:34 2022","The main experiment item","yes","Sternbergtask.osexp","/Users/andrea/Desktop/Adv. Quant Methods/Lab 3.1","no","mono","no","18","no","white","no","yes","768","legacy","80","11","/Users/andrea/Desktop/Adv. Quant Methods/Lab 3.1/AS-subject-4.csv","legacy","4 8 1 2","Lentiform Loewenfeld","3.3.12","0","n","0","right","right","right","right","NA","1064","29910","24827","1064","NA","2","legacy","4","1024","2","48000","-16","experiment","4","even","7","643922","640658","641711","3662","133690","641713","616636","3670","108863","645926","646991","642717","33606","645926","NA","Sternberg task","85","98882","93","yes","1024"
"91.48936170212765","91.48936170212765","1064.872340425532","1064.872340425532","black","experiment","legacy","legacy","legacy","0","uniform","1","undefined","1","left","93","93","93","0","0","93","93","0","0","93","93","93","0","93","0","Sun Oct 23 15:05:34 2022","The main experiment item","yes","Sternbergtask.osexp","/Users/andrea/Desktop/Adv. Quant Methods/Lab 3.1","no","mono","no","18","no","white","no","yes","768","legacy","81","11","/Users/andrea/Desktop/Adv. Quant Methods/Lab 3.1/AS-subject-4.csv","legacy","8 9 6 1","Lentiform Loewenfeld","3.3.12","2","y","0","left","right","right","left","NA","1216","29910","24827","1216","NA","2","legacy","4","1024","2","48000","-16","experiment","4","even","9","650257","646994","648044","3662","133690","648047","616636","3670","108863","652261","653478","649051","33606","652261","NA","Sternberg task","86","100098","94","yes","1024"
"91.57894736842105","91.57894736842105","1070.5052631578947","1070.5052631578947","black","experiment","legacy","legacy","legacy","0","uniform","1","undefined","1","right","94","94","94","0","0","94","94","0","0","94","94","94","0","94","0","Sun Oct 23 15:05:34 2022","The main experiment item","yes","Sternbergtask.osexp","/Users/andrea/Desktop/Adv. Quant Methods/Lab 3.1","no","mono","no","18","no","white","no","yes","768","legacy","82","11","/Users/andrea/Desktop/Adv. Quant Methods/Lab 3.1/AS-subject-4.csv","legacy","8 6 3 4 7","Lentiform Loewenfeld","3.3.12","0","n","0","right","right","right","right","NA","1600","29910","24827","1600","NA","2","legacy","5","1024","2","48000","-16","experiment","4","even","1","656748","653482","654536","3662","133690","654538","616636","3670","108863","658752","660353","655543","33606","658752","NA","Sternberg task","87","101698","95","yes","1024"
"91.66666666666667","91.66666666666667","1067.3229166666667","1067.3229166666667","black","experiment","legacy","legacy","legacy","0","uniform","1","undefined","1","left","95","95","95","0","0","95","95","0","0","95","95","95","0","95","0","Sun Oct 23 15:05:34 2022","The main experiment item","yes","Sternbergtask.osexp","/Users/andrea/Desktop/Adv. Quant Methods/Lab 3.1","no","mono","no","18","no","white","no","yes","768","legacy","83","11","/Users/andrea/Desktop/Adv. Quant Methods/Lab 3.1/AS-subject-4.csv","legacy","6 9 7 4 5 1","Lentiform Loewenfeld","3.3.12","2","y","0","left","right","right","left","NA","765","29910","24827","765","NA","2","legacy","6","1024","2","48000","-16","experiment","4","even","9","663623","660356","661410","3662","133690","661413","616636","3670","108863","665627","666393","662417","33606","665627","NA","Sternberg task","88","102463","96","yes","1024"
"91.75257731958763","91.75257731958763","1062.1958762886597","1062.1958762886597","black","experiment","legacy","legacy","legacy","0","uniform","1","undefined","1","right","96","96","96","0","0","96","96","0","0","96","96","96","0","96","0","Sun Oct 23 15:05:34 2022","The main experiment item","yes","Sternbergtask.osexp","/Users/andrea/Desktop/Adv. Quant Methods/Lab 3.1","no","mono","no","18","no","white","no","yes","768","legacy","84","11","/Users/andrea/Desktop/Adv. Quant Methods/Lab 3.1/AS-subject-4.csv","legacy","5 7 3","Lentiform Loewenfeld","3.3.12","0","n","0","right","right","right","right","NA","570","29910","24827","570","NA","2","legacy","3","1024","2","48000","-16","experiment","4","even","9","669662","666396","667451","3662","133690","667453","616636","3670","108863","671667","672238","668457","33606","671667","NA","Sternberg task","89","103033","97","yes","1024"
"91.83673469387755","91.83673469387755","1056.6938775510205","1056.6938775510205","black","experiment","legacy","legacy","legacy","0","uniform","1","undefined","1","right","97","97","97","0","0","97","97","0","0","97","97","97","0","97","0","Sun Oct 23 15:05:34 2022","The main experiment item","yes","Sternbergtask.osexp","/Users/andrea/Desktop/Adv. Quant Methods/Lab 3.1","no","mono","no","18","no","white","no","yes","768","legacy","85","11","/Users/andrea/Desktop/Adv. Quant Methods/Lab 3.1/AS-subject-4.csv","legacy","9","Lentiform Loewenfeld","3.3.12","0","n","0","right","right","right","right","NA","523","29910","24827","523","NA","2","legacy","1","1024","2","48000","-16","experiment","4","even","6","675507","672241","673295","3662","133690","673297","616636","3670","108863","677511","678047","674301","33606","677511","NA","Sternberg task","90","103556","98","yes","1024"
"91.91919191919192","91.91919191919192","1056.909090909091","1056.909090909091","black","experiment","legacy","legacy","legacy","0","uniform","1","undefined","1","left","98","98","98","0","0","98","98","0","0","98","98","98","0","98","0","Sun Oct 23 15:05:34 2022","The main experiment item","yes","Sternbergtask.osexp","/Users/andrea/Desktop/Adv. Quant Methods/Lab 3.1","no","mono","no","18","no","white","no","yes","768","legacy","86","11","/Users/andrea/Desktop/Adv. Quant Methods/Lab 3.1/AS-subject-4.csv","legacy","7 4 2 6 3 5","Lentiform Loewenfeld","3.3.12","6","y","0","left","right","right","left","NA","1078","29910","24827","1078","NA","2","legacy","6","1024","2","48000","-16","experiment","4","even","5","681347","678081","679135","3662","133690","679137","616636","3670","108863","683351","684430","680141","33606","683351","NA","Sternberg task","91","104634","99","yes","1024"
"92","92","1053.26","1053.26","black","experiment","legacy","legacy","legacy","0","uniform","1","undefined","1","left","99","99","99","0","0","99","99","0","0","99","99","99","0","99","0","Sun Oct 23 15:05:34 2022","The main experiment item","yes","Sternbergtask.osexp","/Users/andrea/Desktop/Adv. Quant Methods/Lab 3.1","no","mono","no","18","no","white","no","yes","768","legacy","87","11","/Users/andrea/Desktop/Adv. Quant Methods/Lab 3.1/AS-subject-4.csv","legacy","3 9 7 6 4","Lentiform Loewenfeld","3.3.12","3","y","0","left","right","right","left","NA","692","29910","24827","692","NA","2","legacy","5","1024","2","48000","-16","experiment","4","even","7","687700","684433","685488","3662","133690","685490","616636","3670","108863","689704","690397","686494","33606","689704","NA","Sternberg task","92","105326","100","yes","1024"
"92.07920792079207","92.07920792079207","1051.6732673267327","1051.6732673267327","black","experiment","legacy","legacy","legacy","0","uniform","1","undefined","1","left","100","100","100","0","0","100","100","0","0","100","100","100","0","100","0","Sun Oct 23 15:05:34 2022","The main experiment item","yes","Sternbergtask.osexp","/Users/andrea/Desktop/Adv. Quant Methods/Lab 3.1","no","mono","no","18","no","white","no","yes","768","legacy","88","11","/Users/andrea/Desktop/Adv. Quant Methods/Lab 3.1/AS-subject-4.csv","legacy","7 8 4 6 9 5","Lentiform Loewenfeld","3.3.12","4","y","0","left","right","right","left","NA","893","29910","24827","893","NA","2","legacy","6","1024","2","48000","-16","experiment","4","even","6","693666","690400","691454","3662","133690","691455","616636","3670","108863","695670","696564","692461","33606","695670","NA","Sternberg task","93","106219","101","yes","1024"
"92.15686274509804","92.15686274509804","1046.049019607843","1046.049019607843","black","experiment","legacy","legacy","legacy","0","uniform","1","undefined","1","left","101","101","101","0","0","101","101","0","0","101","101","101","0","101","0","Sun Oct 23 15:05:34 2022","The main experiment item","yes","Sternbergtask.osexp","/Users/andrea/Desktop/Adv. Quant Methods/Lab 3.1","no","mono","no","18","no","white","no","yes","768","legacy","89","11","/Users/andrea/Desktop/Adv. Quant Methods/Lab 3.1/AS-subject-4.csv","legacy","9 4 2","Lentiform Loewenfeld","3.3.12","1","y","0","left","right","right","left","NA","478","29910","24827","478","NA","2","legacy","3","1024","2","48000","-16","experiment","4","even","9","699832","696567","697620","3662","133690","697622","616636","3670","108863","701836","702315","698626","33606","701836","NA","Sternberg task","94","106697","102","yes","1024"
"92.23300970873787","92.23300970873787","1048.5728155339805","1048.5728155339805","black","experiment","legacy","legacy","legacy","0","uniform","1","undefined","1","left","102","102","102","0","0","102","102","0","0","102","102","102","0","102","0","Sun Oct 23 15:05:34 2022","The main experiment item","yes","Sternbergtask.osexp","/Users/andrea/Desktop/Adv. Quant Methods/Lab 3.1","no","mono","no","18","no","white","no","yes","768","legacy","90","11","/Users/andrea/Desktop/Adv. Quant Methods/Lab 3.1/AS-subject-4.csv","legacy","3 5 9 6 2 4","Lentiform Loewenfeld","3.3.12","1","y","0","left","right","right","left","NA","1306","29910","24827","1306","NA","2","legacy","6","1024","2","48000","-16","experiment","4","even","3","705582","702318","703372","3662","133690","703374","616636","3670","108863","707588","708895","704377","33606","707587","NA","Sternberg task","95","108003","103","yes","1024"
"92.3076923076923","92.3076923076923","1046.7884615384614","1046.7884615384614","black","experiment","legacy","legacy","legacy","0","uniform","1","undefined","1","left","103","103","103","0","0","103","103","0","0","103","103","103","0","103","0","Sun Oct 23 15:05:34 2022","The main experiment item","yes","Sternbergtask.osexp","/Users/andrea/Desktop/Adv. Quant Methods/Lab 3.1","no","mono","no","18","no","white","no","yes","768","legacy","91","11","/Users/andrea/Desktop/Adv. Quant Methods/Lab 3.1/AS-subject-4.csv","legacy","2 8 5 1","Lentiform Loewenfeld","3.3.12","4","y","0","left","right","right","left","NA","863","29910","24827","863","NA","2","legacy","4","1024","2","48000","-16","experiment","4","even","1","712163","708897","709951","3662","133690","709953","616636","3670","108863","714167","715031","710957","33606","714166","NA","Sternberg task","96","108866","104","yes","1024"
"92.38095238095238","92.38095238095238","1045.4380952380952","1045.4380952380952","black","experiment","legacy","legacy","legacy","0","uniform","1","undefined","1","right","104","104","104","0","0","104","104","0","0","104","104","104","0","104","0","Sun Oct 23 15:05:34 2022","The main experiment item","yes","Sternbergtask.osexp","/Users/andrea/Desktop/Adv. Quant Methods/Lab 3.1","no","mono","no","18","no","white","no","yes","768","legacy","92","11","/Users/andrea/Desktop/Adv. Quant Methods/Lab 3.1/AS-subject-4.csv","legacy","3 9 1","Lentiform Loewenfeld","3.3.12","0","n","0","right","right","right","right","NA","905","29910","24827","905","NA","2","legacy","3","1024","2","48000","-16","experiment","4","even","7","718300","715034","716089","3662","133690","716091","616636","3670","108863","720304","721210","717095","33606","720304","NA","Sternberg task","97","109771","105","yes","1024"
"92.45283018867924","92.45283018867924","1042.5","1042.5","black","experiment","legacy","legacy","legacy","0","uniform","1","undefined","1","right","105","105","105","0","0","105","105","0","0","105","105","105","0","105","0","Sun Oct 23 15:05:34 2022","The main experiment item","yes","Sternbergtask.osexp","/Users/andrea/Desktop/Adv. Quant Methods/Lab 3.1","no","mono","no","18","no","white","no","yes","768","legacy","93","11","/Users/andrea/Desktop/Adv. Quant Methods/Lab 3.1/AS-subject-4.csv","legacy","1 8 7","Lentiform Loewenfeld","3.3.12","0","n","0","right","right","right","right","NA","734","29910","24827","734","NA","2","legacy","3","1024","2","48000","-16","experiment","4","even","4","724483","721213","722268","3662","133690","722270","616636","3670","108863","726487","727222","723277","33606","726487","NA","Sternberg task","98","110505","106","yes","1024"
"92.5233644859813","92.5233644859813","1045.6542056074766","1045.6542056074766","black","experiment","legacy","legacy","legacy","0","uniform","1","undefined","1","right","106","106","106","0","0","106","106","0","0","106","106","106","0","106","0","Sun Oct 23 15:05:34 2022","The main experiment item","yes","Sternbergtask.osexp","/Users/andrea/Desktop/Adv. Quant Methods/Lab 3.1","no","mono","no","18","no","white","no","yes","768","legacy","94","11","/Users/andrea/Desktop/Adv. Quant Methods/Lab 3.1/AS-subject-4.csv","legacy","9 5 3 2 8 6","Lentiform Loewenfeld","3.3.12","0","n","0","right","right","right","right","NA","1380","29910","24827","1380","NA","2","legacy","6","1024","2","48000","-16","experiment","4","even","7","730489","727225","728278","3662","133690","728280","616636","3670","108863","732493","733874","729285","33606","732493","NA","Sternberg task","99","111885","107","yes","1024"
"92.5925925925926","92.5925925925926","1042.861111111111","1042.861111111111","black","experiment","legacy","legacy","legacy","0","uniform","1","undefined","1","left","107","107","107","0","0","107","107","0","0","107","107","107","0","107","0","Sun Oct 23 15:05:34 2022","The main experiment item","yes","Sternbergtask.osexp","/Users/andrea/Desktop/Adv. Quant Methods/Lab 3.1","no","mono","no","18","no","white","no","yes","768","legacy","95","11","/Users/andrea/Desktop/Adv. Quant Methods/Lab 3.1/AS-subject-4.csv","legacy","6 9 3 1","Lentiform Loewenfeld","3.3.12","4","y","0","left","right","right","left","NA","744","29910","24827","744","NA","2","legacy","4","1024","2","48000","-16","experiment","4","even","1","737142","733877","734930","3662","133690","734932","616636","3670","108863","739145","739890","735936","33606","739145","NA","Sternberg task","100","112629","108","yes","1024"
"92.66055045871559","92.66055045871559","1044.1009174311926","1044.1009174311926","black","experiment","legacy","legacy","legacy","0","uniform","1","undefined","1","right","108","108","108","0","0","108","108","0","0","108","108","108","0","108","0","Sun Oct 23 15:05:34 2022","The main experiment item","yes","Sternbergtask.osexp","/Users/andrea/Desktop/Adv. Quant Methods/Lab 3.1","no","mono","no","18","no","white","no","yes","768","legacy","96","11","/Users/andrea/Desktop/Adv. Quant Methods/Lab 3.1/AS-subject-4.csv","legacy","5 9 2 3","Lentiform Loewenfeld","3.3.12","0","n","0","right","right","right","right","NA","1178","29910","24827","1178","NA","2","legacy","4","1024","2","48000","-16","experiment","4","even","8","743157","739893","740947","3662","133690","740949","616636","3670","108863","745161","746340","741952","33606","745161","NA","Sternberg task","101","113807","109","yes","1024"
"92.72727272727273","92.72727272727273","1046","1046","black","experiment","legacy","legacy","legacy","0","uniform","1","undefined","1","right","109","109","109","0","0","109","109","0","0","109","109","109","0","109","0","Sun Oct 23 15:05:34 2022","The main experiment item","yes","Sternbergtask.osexp","/Users/andrea/Desktop/Adv. Quant Methods/Lab 3.1","no","mono","no","18","no","white","no","yes","768","legacy","97","11","/Users/andrea/Desktop/Adv. Quant Methods/Lab 3.1/AS-subject-4.csv","legacy","1 7 5 2 9","Lentiform Loewenfeld","3.3.12","0","n","0","right","right","right","right","NA","1253","29910","24827","1253","NA","2","legacy","5","1024","2","48000","-16","experiment","4","even","3","749611","746343","747398","3662","133690","747400","616636","3670","108863","751614","752868","748404","33606","751614","NA","Sternberg task","102","115060","110","yes","1024"
"92.7927927927928","92.7927927927928","1048.3783783783783","1048.3783783783783","black","experiment","legacy","legacy","legacy","0","uniform","1","undefined","1","right","110","110","110","0","0","110","110","0","0","110","110","110","0","110","0","Sun Oct 23 15:05:34 2022","The main experiment item","yes","Sternbergtask.osexp","/Users/andrea/Desktop/Adv. Quant Methods/Lab 3.1","no","mono","no","18","no","white","no","yes","768","legacy","98","11","/Users/andrea/Desktop/Adv. Quant Methods/Lab 3.1/AS-subject-4.csv","legacy","1 3 2 6 9","Lentiform Loewenfeld","3.3.12","0","n","0","right","right","right","right","NA","1310","29910","24827","1310","NA","2","legacy","5","1024","2","48000","-16","experiment","4","even","5","756136","752871","753924","3662","133690","753926","616636","3670","108863","758140","759451","754930","33606","758140","NA","Sternberg task","103","116370","111","yes","1024"
"92.85714285714286","92.85714285714286","1051.2589285714287","1051.2589285714287","black","experiment","legacy","legacy","legacy","0","uniform","1","undefined","1","left","111","111","111","0","0","111","111","0","0","111","111","111","0","111","0","Sun Oct 23 15:05:34 2022","The main experiment item","yes","Sternbergtask.osexp","/Users/andrea/Desktop/Adv. Quant Methods/Lab 3.1","no","mono","no","18","no","white","no","yes","768","legacy","99","11","/Users/andrea/Desktop/Adv. Quant Methods/Lab 3.1/AS-subject-4.csv","legacy","8 5 1 3 9","Lentiform Loewenfeld","3.3.12","4","y","0","left","right","right","left","NA","1371","29910","24827","1371","NA","2","legacy","5","1024","2","48000","-16","experiment","4","even","3","762716","759454","760508","3662","133690","760510","616636","3670","108863","764720","766092","761514","33606","764720","NA","Sternberg task","104","117741","112","yes","1024"
