"acc","accuracy","average_response_time","avg_rt","background","block","canvas_backend","clock_backend","color_backend","compensation","coordinates","correct","correct_instruction1","correct_keyboard_response","correct_response","count_ISI","count_Practice_loop","count_correctFeedback","count_expSequence","count_experiment","count_experiment_loop","count_fixation","count_incorrectFeedback","count_instruction1","count_instructions2","count_keyboard_response","count_logger","count_memorySet","count_probe","count_thankYou","datetime","description","disable_garbage_collection","experiment_file","experiment_path","font_bold","font_family","font_italic","font_size","font_underline","foreground","form_clicks","fullscreen","height","keyboard_backend","live_row","live_row_Practice_loop","logfile","mouse_backend","numberSet","opensesame_codename","opensesame_version","posInSet","present","repeat_cycle","response","response_instruction1","response_instructions2","response_keyboard_response","response_thankYou","response_time","response_time_instruction1","response_time_instructions2","response_time_keyboard_response","response_time_thankYou","round_decimals","sampler_backend","setSize","sound_buf_size","sound_channels","sound_freq","sound_sample_size","start","subject_nr","subject_parity","target","time_ISI","time_Practice_loop","time_correctFeedback","time_expSequence","time_experiment","time_experiment_loop","time_fixation","time_incorrectFeedback","time_instruction1","time_instructions2","time_keyboard_response","time_logger","time_memorySet","time_probe","time_thankYou","title","total_correct","total_response_time","total_responses","uniform_coordinates","width"
"100","100","614","614","black","practice","legacy","legacy","legacy","0","uniform","1","undefined","1","left","0","0","0","0","0","0","0","0","0","0","0","0","0","0","0","Sun Oct 16 18:36:19 2022","The main experiment item","yes","Sternbergtask.osexp","C:/Users/cici_/Downloads","no","mono","no","18","no","white","no","yes","768","legacy","0","0","C:/Users/cici_/OneDrive/Documents/R/CS-subject-1.csv","legacy","6","Lentiform Loewenfeld","3.3.12","1","y","0","left","right","NA","left","NA","614","32118","NA","614","NA","2","legacy","1","1024","2","48000","-16","experiment","1","odd","6","39246","36257","NA","37038","4127","NA","37041","NA","4137","NA","41248","41863","38043","41248","NA","Sternberg task","1","614","1","yes","1024"
"100","100","826.5","826.5","black","practice","legacy","legacy","legacy","0","uniform","1","undefined","1","right","1","0","1","1","0","0","1","1","0","0","1","1","1","1","0","Sun Oct 16 18:36:19 2022","The main experiment item","yes","Sternbergtask.osexp","C:/Users/cici_/Downloads","no","mono","no","18","no","white","no","yes","768","legacy","1","1","C:/Users/cici_/OneDrive/Documents/R/CS-subject-1.csv","legacy","5 7 8 4 1 2","Lentiform Loewenfeld","3.3.12","0","n","0","right","right","NA","right","NA","1039","32118","NA","1039","NA","2","legacy","6","1024","2","48000","-16","experiment","1","odd","6","45274","36257","41947","43066","4127","NA","43069","NA","4137","NA","47276","48316","44071","47276","NA","Sternberg task","2","1653","2","yes","1024"
"100","100","927","927","black","practice","legacy","legacy","legacy","0","uniform","1","undefined","1","left","2","0","2","2","0","0","2","2","0","0","2","2","2","2","0","Sun Oct 16 18:36:19 2022","The main experiment item","yes","Sternbergtask.osexp","C:/Users/cici_/Downloads","no","mono","no","18","no","white","no","yes","768","legacy","2","2","C:/Users/cici_/OneDrive/Documents/R/CS-subject-1.csv","legacy","1 7 9 8 5","Lentiform Loewenfeld","3.3.12","4","y","0","left","right","NA","left","NA","1128","32118","NA","1128","NA","2","legacy","5","1024","2","48000","-16","experiment","1","odd","8","51650","36257","48333","49443","4127","NA","49446","NA","4137","NA","53652","54781","50448","53652","NA","Sternberg task","3","2781","3","yes","1024"
"100","100","859.75","859.75","black","practice","legacy","legacy","legacy","0","uniform","1","undefined","1","left","3","0","3","3","0","0","3","3","0","0","3","3","3","3","0","Sun Oct 16 18:36:19 2022","The main experiment item","yes","Sternbergtask.osexp","C:/Users/cici_/Downloads","no","mono","no","18","no","white","no","yes","768","legacy","3","3","C:/Users/cici_/OneDrive/Documents/R/CS-subject-1.csv","legacy","4 3 1 7 9 8","Lentiform Loewenfeld","3.3.12","1","y","0","left","right","NA","left","NA","658","32118","NA","658","NA","2","legacy","6","1024","2","48000","-16","experiment","1","odd","4","58121","36257","54797","55914","4127","NA","55917","NA","4137","NA","60124","60783","56919","60124","NA","Sternberg task","4","3439","4","yes","1024"
"100","100","803.8","803.8","black","practice","legacy","legacy","legacy","0","uniform","1","undefined","1","left","4","0","4","4","0","0","4","4","0","0","4","4","4","4","0","Sun Oct 16 18:36:19 2022","The main experiment item","yes","Sternbergtask.osexp","C:/Users/cici_/Downloads","no","mono","no","18","no","white","no","yes","768","legacy","4","4","C:/Users/cici_/OneDrive/Documents/R/CS-subject-1.csv","legacy","4 8","Lentiform Loewenfeld","3.3.12","1","y","0","left","right","NA","left","NA","580","32118","NA","580","NA","2","legacy","2","1024","2","48000","-16","experiment","1","odd","4","64107","36257","60790","61900","4127","NA","61903","NA","4137","NA","66109","66690","62905","66109","NA","Sternberg task","5","4019","5","yes","1024"
"100","100","781.5","781.5","black","practice","legacy","legacy","legacy","0","uniform","1","undefined","1","left","5","0","5","5","0","0","5","5","0","0","5","5","5","5","0","Sun Oct 16 18:36:19 2022","The main experiment item","yes","Sternbergtask.osexp","C:/Users/cici_/Downloads","no","mono","no","18","no","white","no","yes","768","legacy","5","5","C:/Users/cici_/OneDrive/Documents/R/CS-subject-1.csv","legacy","1 5 2 9","Lentiform Loewenfeld","3.3.12","2","y","0","left","right","NA","left","NA","670","32118","NA","670","NA","2","legacy","4","1024","2","48000","-16","experiment","1","odd","5","70027","36257","66706","67820","4127","NA","67824","NA","4137","NA","72029","72699","68825","72029","NA","Sternberg task","6","4689","6","yes","1024"
"100","100","749.7142857142857","749.7142857142857","black","practice","legacy","legacy","legacy","0","uniform","1","undefined","1","right","6","0","6","6","0","0","6","6","0","0","6","6","6","6","0","Sun Oct 16 18:36:19 2022","The main experiment item","yes","Sternbergtask.osexp","C:/Users/cici_/Downloads","no","mono","no","18","no","white","no","yes","768","legacy","6","6","C:/Users/cici_/OneDrive/Documents/R/CS-subject-1.csv","legacy","2 1","Lentiform Loewenfeld","3.3.12","0","n","0","right","right","NA","right","NA","559","32118","NA","559","NA","2","legacy","2","1024","2","48000","-16","experiment","1","odd","5","76036","36257","72716","73829","4127","NA","73832","NA","4137","NA","78038","78598","74834","78038","NA","Sternberg task","7","5248","7","yes","1024"
"100","100","736.5","736.5","black","practice","legacy","legacy","legacy","0","uniform","1","undefined","1","right","7","0","7","7","0","0","7","7","0","0","7","7","7","7","0","Sun Oct 16 18:36:19 2022","The main experiment item","yes","Sternbergtask.osexp","C:/Users/cici_/Downloads","no","mono","no","18","no","white","no","yes","768","legacy","7","7","C:/Users/cici_/OneDrive/Documents/R/CS-subject-1.csv","legacy","9 6 7 4 5","Lentiform Loewenfeld","3.3.12","0","n","0","right","right","NA","right","NA","644","32118","NA","644","NA","2","legacy","5","1024","2","48000","-16","experiment","1","odd","3","81942","36257","78616","79735","4127","NA","79738","NA","4137","NA","83944","84588","80740","83944","NA","Sternberg task","8","5892","8","yes","1024"
"100","100","775.2222222222222","775.2222222222222","black","practice","legacy","legacy","legacy","0","uniform","1","undefined","1","left","8","0","8","8","0","0","8","8","0","0","8","8","8","8","0","Sun Oct 16 18:36:19 2022","The main experiment item","yes","Sternbergtask.osexp","C:/Users/cici_/Downloads","no","mono","no","18","no","white","no","yes","768","legacy","8","8","C:/Users/cici_/OneDrive/Documents/R/CS-subject-1.csv","legacy","2 9 4","Lentiform Loewenfeld","3.3.12","3","y","0","left","right","NA","left","NA","1085","32118","NA","1085","NA","2","legacy","3","1024","2","48000","-16","experiment","1","odd","4","87928","36257","84605","85721","4127","NA","85724","NA","4137","NA","89931","91016","86726","89929","NA","Sternberg task","9","6977","9","yes","1024"
"100","100","774.5","774.5","black","practice","legacy","legacy","legacy","0","uniform","1","undefined","1","right","9","0","9","9","0","0","9","9","0","0","9","9","9","9","0","Sun Oct 16 18:36:19 2022","The main experiment item","yes","Sternbergtask.osexp","C:/Users/cici_/Downloads","no","mono","no","18","no","white","no","yes","768","legacy","9","9","C:/Users/cici_/OneDrive/Documents/R/CS-subject-1.csv","legacy","4 1 5","Lentiform Loewenfeld","3.3.12","0","n","0","right","right","NA","right","NA","768","32118","NA","768","NA","2","legacy","3","1024","2","48000","-16","experiment","1","odd","2","94355","36257","91035","92148","4127","NA","92151","NA","4137","NA","96357","97126","93153","96357","NA","Sternberg task","10","7745","10","yes","1024"
"100","100","805.1818181818181","805.1818181818181","black","practice","legacy","legacy","legacy","0","uniform","1","undefined","1","right","10","0","10","10","0","0","10","10","0","0","10","10","10","10","0","Sun Oct 16 18:36:19 2022","The main experiment item","yes","Sternbergtask.osexp","C:/Users/cici_/Downloads","no","mono","no","18","no","white","no","yes","768","legacy","10","10","C:/Users/cici_/OneDrive/Documents/R/CS-subject-1.csv","legacy","3 1 9 4","Lentiform Loewenfeld","3.3.12","0","n","0","right","right","NA","right","NA","1112","32118","NA","1112","NA","2","legacy","4","1024","2","48000","-16","experiment","1","odd","6","100462","36257","97143","98255","4127","NA","98258","NA","4137","NA","102465","103578","99260","102465","NA","Sternberg task","11","8857","11","yes","1024"
"100","100","793.1666666666666","793.1666666666666","black","practice","legacy","legacy","legacy","0","uniform","1","undefined","1","right","11","0","11","11","0","0","11","11","0","0","11","11","11","11","0","Sun Oct 16 18:36:19 2022","The main experiment item","yes","Sternbergtask.osexp","C:/Users/cici_/Downloads","no","mono","no","18","no","white","no","yes","768","legacy","11","11","C:/Users/cici_/OneDrive/Documents/R/CS-subject-1.csv","legacy","5","Lentiform Loewenfeld","3.3.12","0","n","0","right","right","NA","right","NA","661","32118","NA","661","NA","2","legacy","1","1024","2","48000","-16","experiment","1","odd","3","106916","36257","103595","104709","4127","NA","104712","NA","4137","NA","108918","109579","105714","108918","NA","Sternberg task","12","9518","12","yes","1024"
"100","100","798.2307692307693","798.2307692307693","black","experiment","legacy","legacy","legacy","0","uniform","1","undefined","1","left","12","0","12","12","0","0","12","12","0","0","12","12","12","12","0","Sun Oct 16 18:36:19 2022","The main experiment item","yes","Sternbergtask.osexp","C:/Users/cici_/Downloads","no","mono","no","18","no","white","no","yes","768","legacy","0","11","C:/Users/cici_/OneDrive/Documents/R/CS-subject-1.csv","legacy","4 9 7 8 5 3","Lentiform Loewenfeld","3.3.12","4","y","0","left","right","right","left","NA","859","32118","5821","859","NA","2","legacy","6","1024","2","48000","-16","experiment","1","odd","8","118780","36257","109592","116573","4127","116450","116575","NA","4137","110628","120783","121642","117578","120782","NA","Sternberg task","13","10377","13","yes","1024"
"100","100","821.7857142857143","821.7857142857143","black","experiment","legacy","legacy","legacy","0","uniform","1","undefined","1","right","13","0","13","13","0","0","13","13","0","0","13","13","13","13","0","Sun Oct 16 18:36:19 2022","The main experiment item","yes","Sternbergtask.osexp","C:/Users/cici_/Downloads","no","mono","no","18","no","white","no","yes","768","legacy","1","11","C:/Users/cici_/OneDrive/Documents/R/CS-subject-1.csv","legacy","7 1 5 6 3","Lentiform Loewenfeld","3.3.12","0","n","0","right","right","right","right","NA","1128","32118","5821","1128","NA","2","legacy","5","1024","2","48000","-16","experiment","1","odd","8","124978","36257","121659","122771","4127","116450","122774","NA","4137","110628","126980","128109","123776","126980","NA","Sternberg task","14","11505","14","yes","1024"
"100","100","814.2666666666667","814.2666666666667","black","experiment","legacy","legacy","legacy","0","uniform","1","undefined","1","right","14","0","14","14","0","0","14","14","0","0","14","14","14","14","0","Sun Oct 16 18:36:19 2022","The main experiment item","yes","Sternbergtask.osexp","C:/Users/cici_/Downloads","no","mono","no","18","no","white","no","yes","768","legacy","2","11","C:/Users/cici_/OneDrive/Documents/R/CS-subject-1.csv","legacy","5 3 8 7 2 4","Lentiform Loewenfeld","3.3.12","0","n","0","right","right","right","right","NA","709","32118","5821","709","NA","2","legacy","6","1024","2","48000","-16","experiment","1","odd","9","131447","36257","128127","129239","4127","116450","129243","NA","4137","110628","133449","134159","130245","133449","NA","Sternberg task","15","12214","15","yes","1024"
"100","100","803.8125","803.8125","black","experiment","legacy","legacy","legacy","0","uniform","1","undefined","1","right","15","0","15","15","0","0","15","15","0","0","15","15","15","15","0","Sun Oct 16 18:36:19 2022","The main experiment item","yes","Sternbergtask.osexp","C:/Users/cici_/Downloads","no","mono","no","18","no","white","no","yes","768","legacy","3","11","C:/Users/cici_/OneDrive/Documents/R/CS-subject-1.csv","legacy","8 2 1 4 5 9","Lentiform Loewenfeld","3.3.12","0","n","0","right","right","right","right","NA","647","32118","5821","647","NA","2","legacy","6","1024","2","48000","-16","experiment","1","odd","7","137495","36257","134175","135287","4127","116450","135291","NA","4137","110628","139497","140145","136293","139497","NA","Sternberg task","16","12861","16","yes","1024"
"100","100","805.9411764705883","805.9411764705883","black","experiment","legacy","legacy","legacy","0","uniform","1","undefined","1","left","16","0","16","16","0","0","16","16","0","0","16","16","16","16","0","Sun Oct 16 18:36:19 2022","The main experiment item","yes","Sternbergtask.osexp","C:/Users/cici_/Downloads","no","mono","no","18","no","white","no","yes","768","legacy","4","11","C:/Users/cici_/OneDrive/Documents/R/CS-subject-1.csv","legacy","9 5 8 1","Lentiform Loewenfeld","3.3.12","2","y","0","left","right","right","left","NA","840","32118","5821","840","NA","2","legacy","4","1024","2","48000","-16","experiment","1","odd","5","143488","36257","140162","141281","4127","116450","141284","NA","4137","110628","145490","146331","142286","145490","NA","Sternberg task","17","13701","17","yes","1024"
"100","100","797.3333333333334","797.3333333333334","black","experiment","legacy","legacy","legacy","0","uniform","1","undefined","1","right","17","0","17","17","0","0","17","17","0","0","17","17","17","17","0","Sun Oct 16 18:36:19 2022","The main experiment item","yes","Sternbergtask.osexp","C:/Users/cici_/Downloads","no","mono","no","18","no","white","no","yes","768","legacy","5","11","C:/Users/cici_/OneDrive/Documents/R/CS-subject-1.csv","legacy","1 8 7","Lentiform Loewenfeld","3.3.12","0","n","0","right","right","right","right","NA","651","32118","5821","651","NA","2","legacy","3","1024","2","48000","-16","experiment","1","odd","4","149669","36257","146348","147461","4127","116450","147465","NA","4137","110628","151672","152324","148467","151672","NA","Sternberg task","18","14352","18","yes","1024"
"100","100","782.0526315789474","782.0526315789474","black","experiment","legacy","legacy","legacy","0","uniform","1","undefined","1","left","18","0","18","18","0","0","18","18","0","0","18","18","18","18","0","Sun Oct 16 18:36:19 2022","The main experiment item","yes","Sternbergtask.osexp","C:/Users/cici_/Downloads","no","mono","no","18","no","white","no","yes","768","legacy","6","11","C:/Users/cici_/OneDrive/Documents/R/CS-subject-1.csv","legacy","8 7 3","Lentiform Loewenfeld","3.3.12","1","y","0","left","right","right","left","NA","507","32118","5821","507","NA","2","legacy","3","1024","2","48000","-16","experiment","1","odd","8","155657","36257","152341","153450","4127","116450","153453","NA","4137","110628","157659","158167","154455","157659","NA","Sternberg task","19","14859","19","yes","1024"
"100","100","772.1","772.1","black","experiment","legacy","legacy","legacy","0","uniform","1","undefined","1","right","19","0","19","19","0","0","19","19","0","0","19","19","19","19","0","Sun Oct 16 18:36:19 2022","The main experiment item","yes","Sternbergtask.osexp","C:/Users/cici_/Downloads","no","mono","no","18","no","white","no","yes","768","legacy","7","11","C:/Users/cici_/OneDrive/Documents/R/CS-subject-1.csv","legacy","2 7 5","Lentiform Loewenfeld","3.3.12","0","n","0","right","right","right","right","NA","583","32118","5821","583","NA","2","legacy","3","1024","2","48000","-16","experiment","1","odd","8","161506","36257","158183","159298","4127","116450","159302","NA","4137","110628","163508","164092","160304","163508","NA","Sternberg task","20","15442","20","yes","1024"
"95.23809523809524","95.23809523809524","765.1904761904761","765.1904761904761","black","experiment","legacy","legacy","legacy","0","uniform","0","undefined","0","left","20","0","20","20","0","0","20","20","0","0","20","20","20","20","0","Sun Oct 16 18:36:19 2022","The main experiment item","yes","Sternbergtask.osexp","C:/Users/cici_/Downloads","no","mono","no","18","no","white","no","yes","768","legacy","8","11","C:/Users/cici_/OneDrive/Documents/R/CS-subject-1.csv","legacy","7 1 8 5 6 2","Lentiform Loewenfeld","3.3.12","2","y","0","right","right","right","right","NA","627","32118","5821","627","NA","2","legacy","6","1024","2","48000","-16","experiment","1","odd","1","167426","36257","164109","165219","4127","116450","165222","NA","4137","110628","169428","170055","166224","169428","NA","Sternberg task","20","16069","21","yes","1024"
"95.45454545454545","95.45454545454545","764.5454545454545","764.5454545454545","black","experiment","legacy","legacy","legacy","0","uniform","1","undefined","1","left","21","0","21","21","0","0","21","21","0","0","21","21","21","21","0","Sun Oct 16 18:36:19 2022","The main experiment item","yes","Sternbergtask.osexp","C:/Users/cici_/Downloads","no","mono","no","18","no","white","no","yes","768","legacy","9","11","C:/Users/cici_/OneDrive/Documents/R/CS-subject-1.csv","legacy","2 6 1 7 4","Lentiform Loewenfeld","3.3.12","2","y","0","left","right","right","left","NA","751","32118","5821","751","NA","2","legacy","5","1024","2","48000","-16","experiment","1","odd","6","173391","36257","164109","171184","4127","116450","171187","170073","4137","110628","175393","176144","172189","175393","NA","Sternberg task","21","16820","22","yes","1024"
"95.65217391304348","95.65217391304348","754.0869565217391","754.0869565217391","black","experiment","legacy","legacy","legacy","0","uniform","1","undefined","1","left","22","0","22","22","0","0","22","22","0","0","22","22","22","22","0","Sun Oct 16 18:36:19 2022","The main experiment item","yes","Sternbergtask.osexp","C:/Users/cici_/Downloads","no","mono","no","18","no","white","no","yes","768","legacy","10","11","C:/Users/cici_/OneDrive/Documents/R/CS-subject-1.csv","legacy","6 2","Lentiform Loewenfeld","3.3.12","1","y","0","left","right","right","left","NA","524","32118","5821","524","NA","2","legacy","2","1024","2","48000","-16","experiment","1","odd","6","179480","36257","176160","177272","4127","116450","177276","170073","4137","110628","181482","182007","178278","181482","NA","Sternberg task","22","17344","23","yes","1024"
"95.83333333333333","95.83333333333333","761.7916666666666","761.7916666666666","black","experiment","legacy","legacy","legacy","0","uniform","1","undefined","1","left","23","0","23","23","0","0","23","23","0","0","23","23","23","23","0","Sun Oct 16 18:36:19 2022","The main experiment item","yes","Sternbergtask.osexp","C:/Users/cici_/Downloads","no","mono","no","18","no","white","no","yes","768","legacy","11","11","C:/Users/cici_/OneDrive/Documents/R/CS-subject-1.csv","legacy","3 5 4 7","Lentiform Loewenfeld","3.3.12","1","y","0","left","right","right","left","NA","939","32118","5821","939","NA","2","legacy","4","1024","2","48000","-16","experiment","1","odd","3","185336","36257","182015","183128","4127","116450","183132","170073","4137","110628","187338","188278","184134","187338","NA","Sternberg task","23","18283","24","yes","1024"
"96","96","766.04","766.04","black","experiment","legacy","legacy","legacy","0","uniform","1","undefined","1","right","24","0","24","24","0","0","24","24","0","0","24","24","24","24","0","Sun Oct 16 18:36:19 2022","The main experiment item","yes","Sternbergtask.osexp","C:/Users/cici_/Downloads","no","mono","no","18","no","white","no","yes","768","legacy","12","11","C:/Users/cici_/OneDrive/Documents/R/CS-subject-1.csv","legacy","2 5 1 4","Lentiform Loewenfeld","3.3.12","0","n","0","right","right","right","right","NA","868","32118","5821","868","NA","2","legacy","4","1024","2","48000","-16","experiment","1","odd","6","191617","36257","188295","189409","4127","116450","189412","170073","4137","110628","193619","194488","190414","193619","NA","Sternberg task","24","19151","25","yes","1024"
"96.15384615384616","96.15384615384616","779.5769230769231","779.5769230769231","black","experiment","legacy","legacy","legacy","0","uniform","1","undefined","1","left","25","0","25","25","0","0","25","25","0","0","25","25","25","25","0","Sun Oct 16 18:36:19 2022","The main experiment item","yes","Sternbergtask.osexp","C:/Users/cici_/Downloads","no","mono","no","18","no","white","no","yes","768","legacy","13","11","C:/Users/cici_/OneDrive/Documents/R/CS-subject-1.csv","legacy","9 1 7 2","Lentiform Loewenfeld","3.3.12","2","y","0","left","right","right","left","NA","1118","32118","5821","1118","NA","2","legacy","4","1024","2","48000","-16","experiment","1","odd","1","197824","36257","194504","195616","4127","116450","195620","170073","4137","110628","199826","200945","196622","199826","NA","Sternberg task","25","20269","26","yes","1024"
"96.29629629629629","96.29629629629629","774.1111111111111","774.1111111111111","black","experiment","legacy","legacy","legacy","0","uniform","1","undefined","1","right","26","0","26","26","0","0","26","26","0","0","26","26","26","26","0","Sun Oct 16 18:36:19 2022","The main experiment item","yes","Sternbergtask.osexp","C:/Users/cici_/Downloads","no","mono","no","18","no","white","no","yes","768","legacy","14","11","C:/Users/cici_/OneDrive/Documents/R/CS-subject-1.csv","legacy","7 9 1 6","Lentiform Loewenfeld","3.3.12","0","n","0","right","right","right","right","NA","632","32118","5821","632","NA","2","legacy","4","1024","2","48000","-16","experiment","1","odd","4","204287","36257","200962","202080","4127","116450","202083","170073","4137","110628","206289","206922","203085","206289","NA","Sternberg task","26","20901","27","yes","1024"
"96.42857142857143","96.42857142857143","775.7857142857143","775.7857142857143","black","experiment","legacy","legacy","legacy","0","uniform","1","undefined","1","right","27","0","27","27","0","0","27","27","0","0","27","27","27","27","0","Sun Oct 16 18:36:19 2022","The main experiment item","yes","Sternbergtask.osexp","C:/Users/cici_/Downloads","no","mono","no","18","no","white","no","yes","768","legacy","15","11","C:/Users/cici_/OneDrive/Documents/R/CS-subject-1.csv","legacy","6 8 4","Lentiform Loewenfeld","3.3.12","0","n","0","right","right","right","right","NA","821","32118","5821","821","NA","2","legacy","3","1024","2","48000","-16","experiment","1","odd","1","210257","36257","206938","208050","4127","116450","208053","170073","4137","110628","212259","213081","209055","212259","NA","Sternberg task","27","21722","28","yes","1024"
"96.55172413793103","96.55172413793103","779.1379310344828","779.1379310344828","black","experiment","legacy","legacy","legacy","0","uniform","1","undefined","1","left","28","0","28","28","0","0","28","28","0","0","28","28","28","28","0","Sun Oct 16 18:36:19 2022","The main experiment item","yes","Sternbergtask.osexp","C:/Users/cici_/Downloads","no","mono","no","18","no","white","no","yes","768","legacy","16","11","C:/Users/cici_/OneDrive/Documents/R/CS-subject-1.csv","legacy","7 6","Lentiform Loewenfeld","3.3.12","2","y","0","left","right","right","left","NA","873","32118","5821","873","NA","2","legacy","2","1024","2","48000","-16","experiment","1","odd","6","216416","36257","213098","214210","4127","116450","214212","170073","4137","110628","218418","219291","215214","218418","NA","Sternberg task","28","22595","29","yes","1024"
"96.66666666666667","96.66666666666667","785.3666666666667","785.3666666666667","black","experiment","legacy","legacy","legacy","0","uniform","1","undefined","1","right","29","0","29","29","0","0","29","29","0","0","29","29","29","29","0","Sun Oct 16 18:36:19 2022","The main experiment item","yes","Sternbergtask.osexp","C:/Users/cici_/Downloads","no","mono","no","18","no","white","no","yes","768","legacy","17","11","C:/Users/cici_/OneDrive/Documents/R/CS-subject-1.csv","legacy","3 9 8 1 6 4","Lentiform Loewenfeld","3.3.12","0","n","0","right","right","right","right","NA","966","32118","5821","966","NA","2","legacy","6","1024","2","48000","-16","experiment","1","odd","7","222629","36257","219308","220422","4127","116450","220424","170073","4137","110628","224631","225597","221427","224631","NA","Sternberg task","29","23561","30","yes","1024"
"96.7741935483871","96.7741935483871","783.516129032258","783.516129032258","black","experiment","legacy","legacy","legacy","0","uniform","1","undefined","1","right","30","0","30","30","0","0","30","30","0","0","30","30","30","30","0","Sun Oct 16 18:36:19 2022","The main experiment item","yes","Sternbergtask.osexp","C:/Users/cici_/Downloads","no","mono","no","18","no","white","no","yes","768","legacy","18","11","C:/Users/cici_/OneDrive/Documents/R/CS-subject-1.csv","legacy","7 1 8 4 9 3","Lentiform Loewenfeld","3.3.12","0","n","0","right","right","right","right","NA","728","32118","5821","728","NA","2","legacy","6","1024","2","48000","-16","experiment","1","odd","6","228932","36257","225614","226726","4127","116450","226729","170073","4137","110628","230935","231664","227731","230935","NA","Sternberg task","30","24289","31","yes","1024"
"96.875","96.875","790.09375","790.09375","black","experiment","legacy","legacy","legacy","0","uniform","1","undefined","1","left","31","0","31","31","0","0","31","31","0","0","31","31","31","31","0","Sun Oct 16 18:36:19 2022","The main experiment item","yes","Sternbergtask.osexp","C:/Users/cici_/Downloads","no","mono","no","18","no","white","no","yes","768","legacy","19","11","C:/Users/cici_/OneDrive/Documents/R/CS-subject-1.csv","legacy","8 9 5 7 1 6","Lentiform Loewenfeld","3.3.12","4","y","0","left","right","right","left","NA","994","32118","5821","994","NA","2","legacy","6","1024","2","48000","-16","experiment","1","odd","7","235009","36257","231681","232801","4127","116450","232805","170073","4137","110628","237011","238007","233807","237011","NA","Sternberg task","31","25283","32","yes","1024"
"96.96969696969697","96.96969696969697","781.5757575757576","781.5757575757576","black","experiment","legacy","legacy","legacy","0","uniform","1","undefined","1","left","32","0","32","32","0","0","32","32","0","0","32","32","32","32","0","Sun Oct 16 18:36:19 2022","The main experiment item","yes","Sternbergtask.osexp","C:/Users/cici_/Downloads","no","mono","no","18","no","white","no","yes","768","legacy","20","11","C:/Users/cici_/OneDrive/Documents/R/CS-subject-1.csv","legacy","4 1 5","Lentiform Loewenfeld","3.3.12","2","y","0","left","right","right","left","NA","509","32118","5821","509","NA","2","legacy","3","1024","2","48000","-16","experiment","1","odd","1","241359","36257","238025","239152","4127","116450","239155","170073","4137","110628","243361","243871","240157","243361","NA","Sternberg task","32","25792","33","yes","1024"
"97.05882352941177","97.05882352941177","791.3235294117648","791.3235294117648","black","experiment","legacy","legacy","legacy","0","uniform","1","undefined","1","left","33","0","33","33","0","0","33","33","0","0","33","33","33","33","0","Sun Oct 16 18:36:19 2022","The main experiment item","yes","Sternbergtask.osexp","C:/Users/cici_/Downloads","no","mono","no","18","no","white","no","yes","768","legacy","21","11","C:/Users/cici_/OneDrive/Documents/R/CS-subject-1.csv","legacy","5 7 8 2 3 8","Lentiform Loewenfeld","3.3.12","5","y","0","left","right","right","left","NA","1113","32118","5821","1113","NA","2","legacy","6","1024","2","48000","-16","experiment","1","odd","3","247208","36257","243889","245001","4127","116450","245004","170073","4137","110628","249210","250324","246006","249210","NA","Sternberg task","33","26905","34","yes","1024"
"97.14285714285714","97.14285714285714","789.6857142857143","789.6857142857143","black","experiment","legacy","legacy","legacy","0","uniform","1","undefined","1","right","34","0","34","34","0","0","34","34","0","0","34","34","34","34","0","Sun Oct 16 18:36:19 2022","The main experiment item","yes","Sternbergtask.osexp","C:/Users/cici_/Downloads","no","mono","no","18","no","white","no","yes","768","legacy","22","11","C:/Users/cici_/OneDrive/Documents/R/CS-subject-1.csv","legacy","1 4 3 6 5","Lentiform Loewenfeld","3.3.12","0","n","0","right","right","right","right","NA","734","32118","5821","734","NA","2","legacy","5","1024","2","48000","-16","experiment","1","odd","8","253649","36257","250333","251442","4127","116450","251445","170073","4137","110628","255651","256387","252447","255651","NA","Sternberg task","34","27639","35","yes","1024"
"97.22222222222223","97.22222222222223","787.0277777777778","787.0277777777778","black","experiment","legacy","legacy","legacy","0","uniform","1","undefined","1","right","35","0","35","35","0","0","35","35","0","0","35","35","35","35","0","Sun Oct 16 18:36:19 2022","The main experiment item","yes","Sternbergtask.osexp","C:/Users/cici_/Downloads","no","mono","no","18","no","white","no","yes","768","legacy","23","11","C:/Users/cici_/OneDrive/Documents/R/CS-subject-1.csv","legacy","1 6 4 3 9 7","Lentiform Loewenfeld","3.3.12","0","n","0","right","right","right","right","NA","694","32118","5821","694","NA","2","legacy","6","1024","2","48000","-16","experiment","1","odd","8","259727","36257","256404","257519","4127","116450","257522","170073","4137","110628","261729","262424","258524","261729","NA","Sternberg task","35","28333","36","yes","1024"
"97.29729729729729","97.29729729729729","784.4054054054054","784.4054054054054","black","experiment","legacy","legacy","legacy","0","uniform","1","undefined","1","right","36","0","36","36","0","0","36","36","0","0","36","36","36","36","0","Sun Oct 16 18:36:19 2022","The main experiment item","yes","Sternbergtask.osexp","C:/Users/cici_/Downloads","no","mono","no","18","no","white","no","yes","768","legacy","24","11","C:/Users/cici_/OneDrive/Documents/R/CS-subject-1.csv","legacy","6 2 9 3 8 4","Lentiform Loewenfeld","3.3.12","0","n","0","right","right","right","right","NA","690","32118","5821","690","NA","2","legacy","6","1024","2","48000","-16","experiment","1","odd","1","265757","36257","262441","263550","4127","116450","263553","170073","4137","110628","267759","268450","264555","267759","NA","Sternberg task","36","29023","37","yes","1024"
"97.36842105263158","97.36842105263158","782.6315789473684","782.6315789473684","black","experiment","legacy","legacy","legacy","0","uniform","1","undefined","1","right","37","0","37","37","0","0","37","37","0","0","37","37","37","37","0","Sun Oct 16 18:36:19 2022","The main experiment item","yes","Sternbergtask.osexp","C:/Users/cici_/Downloads","no","mono","no","18","no","white","no","yes","768","legacy","25","11","C:/Users/cici_/OneDrive/Documents/R/CS-subject-1.csv","legacy","9 7 4 5 8","Lentiform Loewenfeld","3.3.12","0","n","0","right","right","right","right","NA","717","32118","5821","717","NA","2","legacy","5","1024","2","48000","-16","experiment","1","odd","6","271788","36257","268467","269580","4127","116450","269584","170073","4137","110628","273790","274509","270586","273790","NA","Sternberg task","37","29740","38","yes","1024"
"97.43589743589743","97.43589743589743","782.2051282051282","782.2051282051282","black","experiment","legacy","legacy","legacy","0","uniform","1","undefined","1","right","38","0","38","38","0","0","38","38","0","0","38","38","38","38","0","Sun Oct 16 18:36:19 2022","The main experiment item","yes","Sternbergtask.osexp","C:/Users/cici_/Downloads","no","mono","no","18","no","white","no","yes","768","legacy","26","11","C:/Users/cici_/OneDrive/Documents/R/CS-subject-1.csv","legacy","2 8 6 3 1","Lentiform Loewenfeld","3.3.12","0","n","0","right","right","right","right","NA","766","32118","5821","766","NA","2","legacy","5","1024","2","48000","-16","experiment","1","odd","7","277844","36257","274526","275637","4127","116450","275640","170073","4137","110628","279846","280614","276642","279846","NA","Sternberg task","38","30506","39","yes","1024"
"97.5","97.5","780.1","780.1","black","experiment","legacy","legacy","legacy","0","uniform","1","undefined","1","right","39","0","39","39","0","0","39","39","0","0","39","39","39","39","0","Sun Oct 16 18:36:19 2022","The main experiment item","yes","Sternbergtask.osexp","C:/Users/cici_/Downloads","no","mono","no","18","no","white","no","yes","768","legacy","27","11","C:/Users/cici_/OneDrive/Documents/R/CS-subject-1.csv","legacy","1 3 2 6 9","Lentiform Loewenfeld","3.3.12","0","n","0","right","right","right","right","NA","698","32118","5821","698","NA","2","legacy","5","1024","2","48000","-16","experiment","1","odd","5","283950","36257","280633","281743","4127","116450","281746","170073","4137","110628","285952","286651","282748","285952","NA","Sternberg task","39","31204","40","yes","1024"
"97.5609756097561","97.5609756097561","774.7073170731708","774.7073170731708","black","experiment","legacy","legacy","legacy","0","uniform","1","undefined","1","left","40","0","40","40","0","0","40","40","0","0","40","40","40","40","0","Sun Oct 16 18:36:19 2022","The main experiment item","yes","Sternbergtask.osexp","C:/Users/cici_/Downloads","no","mono","no","18","no","white","no","yes","768","legacy","28","11","C:/Users/cici_/OneDrive/Documents/R/CS-subject-1.csv","legacy","4 3 2 5 8","Lentiform Loewenfeld","3.3.12","2","y","0","left","right","right","left","NA","559","32118","5821","559","NA","2","legacy","5","1024","2","48000","-16","experiment","1","odd","3","289988","36257","286668","287781","4127","116450","287784","170073","4137","110628","291990","292550","288786","291990","NA","Sternberg task","40","31763","41","yes","1024"
"97.61904761904762","97.61904761904762","773.4761904761905","773.4761904761905","black","experiment","legacy","legacy","legacy","0","uniform","1","undefined","1","left","41","0","41","41","0","0","41","41","0","0","41","41","41","41","0","Sun Oct 16 18:36:19 2022","The main experiment item","yes","Sternbergtask.osexp","C:/Users/cici_/Downloads","no","mono","no","18","no","white","no","yes","768","legacy","29","11","C:/Users/cici_/OneDrive/Documents/R/CS-subject-1.csv","legacy","7 2 3","Lentiform Loewenfeld","3.3.12","3","y","0","left","right","right","left","NA","723","32118","5821","723","NA","2","legacy","3","1024","2","48000","-16","experiment","1","odd","3","295891","36257","292571","293684","4127","116450","293687","170073","4137","110628","297893","298617","294689","297893","NA","Sternberg task","41","32486","42","yes","1024"
"97.67441860465117","97.67441860465117","770.1162790697674","770.1162790697674","black","experiment","legacy","legacy","legacy","0","uniform","1","undefined","1","right","42","0","42","42","0","0","42","42","0","0","42","42","42","42","0","Sun Oct 16 18:36:19 2022","The main experiment item","yes","Sternbergtask.osexp","C:/Users/cici_/Downloads","no","mono","no","18","no","white","no","yes","768","legacy","30","11","C:/Users/cici_/OneDrive/Documents/R/CS-subject-1.csv","legacy","9","Lentiform Loewenfeld","3.3.12","0","n","0","right","right","right","right","NA","629","32118","5821","629","NA","2","legacy","1","1024","2","48000","-16","experiment","1","odd","6","301953","36257","298634","299745","4127","116450","299748","170073","4137","110628","303955","304585","300751","303955","NA","Sternberg task","42","33115","43","yes","1024"
"97.72727272727273","97.72727272727273","771.3636363636364","771.3636363636364","black","experiment","legacy","legacy","legacy","0","uniform","1","undefined","1","left","43","0","43","43","0","0","43","43","0","0","43","43","43","43","0","Sun Oct 16 18:36:19 2022","The main experiment item","yes","Sternbergtask.osexp","C:/Users/cici_/Downloads","no","mono","no","18","no","white","no","yes","768","legacy","31","11","C:/Users/cici_/OneDrive/Documents/R/CS-subject-1.csv","legacy","4 6 2 5 1","Lentiform Loewenfeld","3.3.12","5","y","0","left","right","right","left","NA","825","32118","5821","825","NA","2","legacy","5","1024","2","48000","-16","experiment","1","odd","1","307926","36257","304603","305719","4127","116450","305722","170073","4137","110628","309928","310754","306724","309928","NA","Sternberg task","43","33940","44","yes","1024"
"97.77777777777777","97.77777777777777","769.2888888888889","769.2888888888889","black","experiment","legacy","legacy","legacy","0","uniform","1","undefined","1","right","44","0","44","44","0","0","44","44","0","0","44","44","44","44","0","Sun Oct 16 18:36:19 2022","The main experiment item","yes","Sternbergtask.osexp","C:/Users/cici_/Downloads","no","mono","no","18","no","white","no","yes","768","legacy","32","11","C:/Users/cici_/OneDrive/Documents/R/CS-subject-1.csv","legacy","1 7 5 2 9","Lentiform Loewenfeld","3.3.12","0","n","0","right","right","right","right","NA","678","32118","5821","678","NA","2","legacy","5","1024","2","48000","-16","experiment","1","odd","3","314094","36257","310771","311887","4127","116450","311890","170073","4137","110628","316097","316777","312892","316097","NA","Sternberg task","44","34618","45","yes","1024"
"97.82608695652173","97.82608695652173","770.4130434782609","770.4130434782609","black","experiment","legacy","legacy","legacy","0","uniform","1","undefined","1","left","45","0","45","45","0","0","45","45","0","0","45","45","45","45","0","Sun Oct 16 18:36:19 2022","The main experiment item","yes","Sternbergtask.osexp","C:/Users/cici_/Downloads","no","mono","no","18","no","white","no","yes","768","legacy","33","11","C:/Users/cici_/OneDrive/Documents/R/CS-subject-1.csv","legacy","3 4 9 6 2 9","Lentiform Loewenfeld","3.3.12","5","y","0","left","right","right","left","NA","821","32118","5821","821","NA","2","legacy","6","1024","2","48000","-16","experiment","1","odd","2","320115","36257","316795","317907","4127","116450","317911","170073","4137","110628","322117","322940","318913","322117","NA","Sternberg task","45","35439","46","yes","1024"
"97.87234042553192","97.87234042553192","778.9148936170212","778.9148936170212","black","experiment","legacy","legacy","legacy","0","uniform","1","undefined","1","left","46","0","46","46","0","0","46","46","0","0","46","46","46","46","0","Sun Oct 16 18:36:19 2022","The main experiment item","yes","Sternbergtask.osexp","C:/Users/cici_/Downloads","no","mono","no","18","no","white","no","yes","768","legacy","34","11","C:/Users/cici_/OneDrive/Documents/R/CS-subject-1.csv","legacy","3 9 7 6 4","Lentiform Loewenfeld","3.3.12","3","y","0","left","right","right","left","NA","1170","32118","5821","1170","NA","2","legacy","5","1024","2","48000","-16","experiment","1","odd","7","326263","36257","322947","324058","4127","116450","324060","170073","4137","110628","328266","329437","325062","328266","NA","Sternberg task","46","36609","47","yes","1024"
"97.91666666666667","97.91666666666667","778.4583333333334","778.4583333333334","black","experiment","legacy","legacy","legacy","0","uniform","1","undefined","1","right","47","0","47","47","0","0","47","47","0","0","47","47","47","47","0","Sun Oct 16 18:36:19 2022","The main experiment item","yes","Sternbergtask.osexp","C:/Users/cici_/Downloads","no","mono","no","18","no","white","no","yes","768","legacy","35","11","C:/Users/cici_/OneDrive/Documents/R/CS-subject-1.csv","legacy","7 4 2 8 1 9","Lentiform Loewenfeld","3.3.12","0","n","0","right","right","right","right","NA","757","32118","5821","757","NA","2","legacy","6","1024","2","48000","-16","experiment","1","odd","5","332763","36257","329444","330555","4127","116450","330559","170073","4137","110628","334765","335524","331561","334765","NA","Sternberg task","47","37366","48","yes","1024"
"95.91836734693878","95.91836734693878","788.2448979591836","788.2448979591836","black","experiment","legacy","legacy","legacy","0","uniform","0","undefined","0","right","48","0","48","48","0","0","48","48","0","0","48","48","48","48","0","Sun Oct 16 18:36:19 2022","The main experiment item","yes","Sternbergtask.osexp","C:/Users/cici_/Downloads","no","mono","no","18","no","white","no","yes","768","legacy","36","11","C:/Users/cici_/OneDrive/Documents/R/CS-subject-1.csv","legacy","7 3 2 8","Lentiform Loewenfeld","3.3.12","0","n","0","left","right","right","left","NA","1258","32118","5821","1258","NA","2","legacy","4","1024","2","48000","-16","experiment","1","odd","4","338857","36257","335540","336649","4127","116450","336652","170073","4137","110628","340859","342118","337655","340859","NA","Sternberg task","47","38624","49","yes","1024"
"96","96","787.64","787.64","black","experiment","legacy","legacy","legacy","0","uniform","1","undefined","1","left","49","0","49","49","0","0","49","49","0","0","49","49","49","49","0","Sun Oct 16 18:36:19 2022","The main experiment item","yes","Sternbergtask.osexp","C:/Users/cici_/Downloads","no","mono","no","18","no","white","no","yes","768","legacy","37","11","C:/Users/cici_/OneDrive/Documents/R/CS-subject-1.csv","legacy","5 2 6","Lentiform Loewenfeld","3.3.12","2","y","0","left","right","right","left","NA","758","32118","5821","758","NA","2","legacy","3","1024","2","48000","-16","experiment","1","odd","2","345456","36257","335540","343249","4127","116450","343252","342137","4137","110628","347458","348217","344254","347458","NA","Sternberg task","48","39382","50","yes","1024"
"96.07843137254902","96.07843137254902","783.0392156862745","783.0392156862745","black","experiment","legacy","legacy","legacy","0","uniform","1","undefined","1","left","50","0","50","50","0","0","50","50","0","0","50","50","50","50","0","Sun Oct 16 18:36:19 2022","The main experiment item","yes","Sternbergtask.osexp","C:/Users/cici_/Downloads","no","mono","no","18","no","white","no","yes","768","legacy","38","11","C:/Users/cici_/OneDrive/Documents/R/CS-subject-1.csv","legacy","4 1 8 7 5","Lentiform Loewenfeld","3.3.12","3","y","0","left","right","right","left","NA","553","32118","5821","553","NA","2","legacy","5","1024","2","48000","-16","experiment","1","odd","8","351547","36257","348224","349340","4127","116450","349343","342137","4137","110628","353549","354103","350345","353549","NA","Sternberg task","49","39935","51","yes","1024"
"96.15384615384616","96.15384615384616","784.7307692307693","784.7307692307693","black","experiment","legacy","legacy","legacy","0","uniform","1","undefined","1","left","51","0","51","51","0","0","51","51","0","0","51","51","51","51","0","Sun Oct 16 18:36:19 2022","The main experiment item","yes","Sternbergtask.osexp","C:/Users/cici_/Downloads","no","mono","no","18","no","white","no","yes","768","legacy","39","11","C:/Users/cici_/OneDrive/Documents/R/CS-subject-1.csv","legacy","9 3 8 2 1 4","Lentiform Loewenfeld","3.3.12","3","y","0","left","right","right","left","NA","871","32118","5821","871","NA","2","legacy","6","1024","2","48000","-16","experiment","1","odd","8","357438","36257","354120","355231","4127","116450","355234","342137","4137","110628","359439","360311","356236","359439","NA","Sternberg task","50","40806","52","yes","1024"
"96.22641509433963","96.22641509433963","784.6603773584906","784.6603773584906","black","experiment","legacy","legacy","legacy","0","uniform","1","undefined","1","left","52","0","52","52","0","0","52","52","0","0","52","52","52","52","0","Sun Oct 16 18:36:19 2022","The main experiment item","yes","Sternbergtask.osexp","C:/Users/cici_/Downloads","no","mono","no","18","no","white","no","yes","768","legacy","40","11","C:/Users/cici_/OneDrive/Documents/R/CS-subject-1.csv","legacy","2 8 5 1","Lentiform Loewenfeld","3.3.12","4","y","0","left","right","right","left","NA","781","32118","5821","781","NA","2","legacy","4","1024","2","48000","-16","experiment","1","odd","1","363646","36257","360327","361438","4127","116450","361442","342137","4137","110628","365648","366430","362444","365648","NA","Sternberg task","51","41587","53","yes","1024"
"96.29629629629629","96.29629629629629","783.1481481481482","783.1481481481482","black","experiment","legacy","legacy","legacy","0","uniform","1","undefined","1","left","53","0","53","53","0","0","53","53","0","0","53","53","53","53","0","Sun Oct 16 18:36:19 2022","The main experiment item","yes","Sternbergtask.osexp","C:/Users/cici_/Downloads","no","mono","no","18","no","white","no","yes","768","legacy","41","11","C:/Users/cici_/OneDrive/Documents/R/CS-subject-1.csv","legacy","2 4 8 5 1 3","Lentiform Loewenfeld","3.3.12","1","y","0","left","right","right","left","NA","703","32118","5821","703","NA","2","legacy","6","1024","2","48000","-16","experiment","1","odd","2","369766","36257","366447","367559","4127","116450","367562","342137","4137","110628","371768","372472","368564","371768","NA","Sternberg task","52","42290","54","yes","1024"
"96.36363636363636","96.36363636363636","792.6181818181818","792.6181818181818","black","experiment","legacy","legacy","legacy","0","uniform","1","undefined","1","right","54","0","54","54","0","0","54","54","0","0","54","54","54","54","0","Sun Oct 16 18:36:19 2022","The main experiment item","yes","Sternbergtask.osexp","C:/Users/cici_/Downloads","no","mono","no","18","no","white","no","yes","768","legacy","42","11","C:/Users/cici_/OneDrive/Documents/R/CS-subject-1.csv","legacy","1 7 8 3 9","Lentiform Loewenfeld","3.3.12","0","n","0","right","right","right","right","NA","1304","32118","5821","1304","NA","2","legacy","5","1024","2","48000","-16","experiment","1","odd","2","375809","36257","372488","373601","4127","116450","373605","342137","4137","110628","377811","379117","374607","377811","NA","Sternberg task","53","43594","55","yes","1024"
"96.42857142857143","96.42857142857143","788.4107142857143","788.4107142857143","black","experiment","legacy","legacy","legacy","0","uniform","1","undefined","1","right","55","0","55","55","0","0","55","55","0","0","55","55","55","55","0","Sun Oct 16 18:36:19 2022","The main experiment item","yes","Sternbergtask.osexp","C:/Users/cici_/Downloads","no","mono","no","18","no","white","no","yes","768","legacy","43","11","C:/Users/cici_/OneDrive/Documents/R/CS-subject-1.csv","legacy","8 9","Lentiform Loewenfeld","3.3.12","0","n","0","right","right","right","right","NA","557","32118","5821","557","NA","2","legacy","2","1024","2","48000","-16","experiment","1","odd","5","382454","36257","379134","380246","4127","116450","380250","342137","4137","110628","384456","385014","381252","384456","NA","Sternberg task","54","44151","56","yes","1024"
"96.49122807017544","96.49122807017544","784.5964912280701","784.5964912280701","black","experiment","legacy","legacy","legacy","0","uniform","1","undefined","1","right","56","0","56","56","0","0","56","56","0","0","56","56","56","56","0","Sun Oct 16 18:36:19 2022","The main experiment item","yes","Sternbergtask.osexp","C:/Users/cici_/Downloads","no","mono","no","18","no","white","no","yes","768","legacy","44","11","C:/Users/cici_/OneDrive/Documents/R/CS-subject-1.csv","legacy","5 2","Lentiform Loewenfeld","3.3.12","0","n","0","right","right","right","right","NA","571","32118","5821","571","NA","2","legacy","2","1024","2","48000","-16","experiment","1","odd","7","388349","36257","385031","386140","4127","116450","386144","342137","4137","110628","390351","390924","387146","390351","NA","Sternberg task","55","44722","57","yes","1024"
"96.55172413793103","96.55172413793103","784.7758620689655","784.7758620689655","black","experiment","legacy","legacy","legacy","0","uniform","1","undefined","1","left","57","0","57","57","0","0","57","57","0","0","57","57","57","57","0","Sun Oct 16 18:36:19 2022","The main experiment item","yes","Sternbergtask.osexp","C:/Users/cici_/Downloads","no","mono","no","18","no","white","no","yes","768","legacy","45","11","C:/Users/cici_/OneDrive/Documents/R/CS-subject-1.csv","legacy","9 6 2 4 1","Lentiform Loewenfeld","3.3.12","4","y","0","left","right","right","left","NA","795","32118","5821","795","NA","2","legacy","5","1024","2","48000","-16","experiment","1","odd","4","394268","36257","390942","392061","4127","116450","392064","342137","4137","110628","396269","397065","393066","396269","NA","Sternberg task","56","45517","58","yes","1024"
"96.61016949152543","96.61016949152543","783.5593220338983","783.5593220338983","black","experiment","legacy","legacy","legacy","0","uniform","1","undefined","1","left","58","0","58","58","0","0","58","58","0","0","58","58","58","58","0","Sun Oct 16 18:36:19 2022","The main experiment item","yes","Sternbergtask.osexp","C:/Users/cici_/Downloads","no","mono","no","18","no","white","no","yes","768","legacy","46","11","C:/Users/cici_/OneDrive/Documents/R/CS-subject-1.csv","legacy","8 9 5 6 7","Lentiform Loewenfeld","3.3.12","1","y","0","left","right","right","left","NA","713","32118","5821","713","NA","2","legacy","5","1024","2","48000","-16","experiment","1","odd","8","400404","36257","397083","398196","4127","116450","398200","342137","4137","110628","402406","403120","399202","402406","NA","Sternberg task","57","46230","59","yes","1024"
"96.66666666666667","96.66666666666667","792.5833333333334","792.5833333333334","black","experiment","legacy","legacy","legacy","0","uniform","1","undefined","1","left","59","0","59","59","0","0","59","59","0","0","59","59","59","59","0","Sun Oct 16 18:36:19 2022","The main experiment item","yes","Sternbergtask.osexp","C:/Users/cici_/Downloads","no","mono","no","18","no","white","no","yes","768","legacy","47","11","C:/Users/cici_/OneDrive/Documents/R/CS-subject-1.csv","legacy","1 4 9 3 2 5","Lentiform Loewenfeld","3.3.12","3","y","0","left","right","right","left","NA","1325","32118","5821","1325","NA","2","legacy","6","1024","2","48000","-16","experiment","1","odd","9","406458","36257","403137","404251","4127","116450","404254","342137","4137","110628","408460","409787","405256","408460","NA","Sternberg task","58","47555","60","yes","1024"
"96.72131147540983","96.72131147540983","795.639344262295","795.639344262295","black","experiment","legacy","legacy","legacy","0","uniform","1","undefined","1","left","60","0","60","60","0","0","60","60","0","0","60","60","60","60","0","Sun Oct 16 18:36:19 2022","The main experiment item","yes","Sternbergtask.osexp","C:/Users/cici_/Downloads","no","mono","no","18","no","white","no","yes","768","legacy","48","11","C:/Users/cici_/OneDrive/Documents/R/CS-subject-1.csv","legacy","7 4 2 6 3 5","Lentiform Loewenfeld","3.3.12","6","y","0","left","right","right","left","NA","979","32118","5821","979","NA","2","legacy","6","1024","2","48000","-16","experiment","1","odd","5","413128","36257","409805","410921","4127","116450","410924","342137","4137","110628","415130","416110","411926","415130","NA","Sternberg task","59","48534","61","yes","1024"
"96.7741935483871","96.7741935483871","791.016129032258","791.016129032258","black","experiment","legacy","legacy","legacy","0","uniform","1","undefined","1","left","61","0","61","61","0","0","61","61","0","0","61","61","61","61","0","Sun Oct 16 18:36:19 2022","The main experiment item","yes","Sternbergtask.osexp","C:/Users/cici_/Downloads","no","mono","no","18","no","white","no","yes","768","legacy","49","11","C:/Users/cici_/OneDrive/Documents/R/CS-subject-1.csv","legacy","2 3","Lentiform Loewenfeld","3.3.12","1","y","0","left","right","right","left","NA","509","32118","5821","509","NA","2","legacy","2","1024","2","48000","-16","experiment","1","odd","2","419449","36257","416127","417241","4127","116450","417245","342137","4137","110628","421451","421961","418247","421451","NA","Sternberg task","60","49043","62","yes","1024"
"96.82539682539682","96.82539682539682","798.6666666666666","798.6666666666666","black","experiment","legacy","legacy","legacy","0","uniform","1","undefined","1","right","62","0","62","62","0","0","62","62","0","0","62","62","62","62","0","Sun Oct 16 18:36:19 2022","The main experiment item","yes","Sternbergtask.osexp","C:/Users/cici_/Downloads","no","mono","no","18","no","white","no","yes","768","legacy","50","11","C:/Users/cici_/OneDrive/Documents/R/CS-subject-1.csv","legacy","9 5 3 2 8 6","Lentiform Loewenfeld","3.3.12","0","n","0","right","right","right","right","NA","1273","32118","5821","1273","NA","2","legacy","6","1024","2","48000","-16","experiment","1","odd","7","425296","36257","421978","423090","4127","116450","423092","342137","4137","110628","427298","428572","424094","427298","NA","Sternberg task","61","50316","63","yes","1024"
"96.875","96.875","796.484375","796.484375","black","experiment","legacy","legacy","legacy","0","uniform","1","undefined","1","left","63","0","63","63","0","0","63","63","0","0","63","63","63","63","0","Sun Oct 16 18:36:19 2022","The main experiment item","yes","Sternbergtask.osexp","C:/Users/cici_/Downloads","no","mono","no","18","no","white","no","yes","768","legacy","51","11","C:/Users/cici_/OneDrive/Documents/R/CS-subject-1.csv","legacy","6 9 3 1","Lentiform Loewenfeld","3.3.12","4","y","0","left","right","right","left","NA","659","32118","5821","659","NA","2","legacy","4","1024","2","48000","-16","experiment","1","odd","1","431898","36257","428579","429690","4127","116450","429693","342137","4137","110628","433900","434560","430695","433900","NA","Sternberg task","62","50975","64","yes","1024"
"96.92307692307692","96.92307692307692","791.276923076923","791.276923076923","black","experiment","legacy","legacy","legacy","0","uniform","1","undefined","1","left","64","0","64","64","0","0","64","64","0","0","64","64","64","64","0","Sun Oct 16 18:36:19 2022","The main experiment item","yes","Sternbergtask.osexp","C:/Users/cici_/Downloads","no","mono","no","18","no","white","no","yes","768","legacy","52","11","C:/Users/cici_/OneDrive/Documents/R/CS-subject-1.csv","legacy","8","Lentiform Loewenfeld","3.3.12","1","y","0","left","right","right","left","NA","458","32118","5821","458","NA","2","legacy","1","1024","2","48000","-16","experiment","1","odd","8","437897","36257","434578","435689","4127","116450","435693","342137","4137","110628","439899","440359","436695","439898","NA","Sternberg task","63","51433","65","yes","1024"
"96.96969696969697","96.96969696969697","787.6212121212121","787.6212121212121","black","experiment","legacy","legacy","legacy","0","uniform","1","undefined","1","right","65","0","65","65","0","0","65","65","0","0","65","65","65","65","0","Sun Oct 16 18:36:19 2022","The main experiment item","yes","Sternbergtask.osexp","C:/Users/cici_/Downloads","no","mono","no","18","no","white","no","yes","768","legacy","53","11","C:/Users/cici_/OneDrive/Documents/R/CS-subject-1.csv","legacy","1","Lentiform Loewenfeld","3.3.12","0","n","0","right","right","right","right","NA","550","32118","5821","550","NA","2","legacy","1","1024","2","48000","-16","experiment","1","odd","7","443692","36257","440367","441483","4127","116450","441487","342137","4137","110628","445694","446246","442490","445694","NA","Sternberg task","64","51983","66","yes","1024"
"97.01492537313433","97.01492537313433","787.9402985074627","787.9402985074627","black","experiment","legacy","legacy","legacy","0","uniform","1","undefined","1","right","66","0","66","66","0","0","66","66","0","0","66","66","66","66","0","Sun Oct 16 18:36:19 2022","The main experiment item","yes","Sternbergtask.osexp","C:/Users/cici_/Downloads","no","mono","no","18","no","white","no","yes","768","legacy","54","11","C:/Users/cici_/OneDrive/Documents/R/CS-subject-1.csv","legacy","5 7 3","Lentiform Loewenfeld","3.3.12","0","n","0","right","right","right","right","NA","809","32118","5821","809","NA","2","legacy","3","1024","2","48000","-16","experiment","1","odd","9","449585","36257","446263","447378","4127","116450","447381","342137","4137","110628","451587","452398","448383","451587","NA","Sternberg task","65","52792","67","yes","1024"
"97.05882352941177","97.05882352941177","785.3088235294117","785.3088235294117","black","experiment","legacy","legacy","legacy","0","uniform","1","undefined","1","left","67","0","67","67","0","0","67","67","0","0","67","67","67","67","0","Sun Oct 16 18:36:19 2022","The main experiment item","yes","Sternbergtask.osexp","C:/Users/cici_/Downloads","no","mono","no","18","no","white","no","yes","768","legacy","55","11","C:/Users/cici_/OneDrive/Documents/R/CS-subject-1.csv","legacy","6 7 9 3 1 2","Lentiform Loewenfeld","3.3.12","1","y","0","left","right","right","left","NA","609","32118","5821","609","NA","2","legacy","6","1024","2","48000","-16","experiment","1","odd","6","455740","36257","452414","453533","4127","116450","453536","342137","4137","110628","457743","458354","454538","457742","NA","Sternberg task","66","53401","68","yes","1024"
"97.10144927536231","97.10144927536231","783.072463768116","783.072463768116","black","experiment","legacy","legacy","legacy","0","uniform","1","undefined","1","right","68","0","68","68","0","0","68","68","0","0","68","68","68","68","0","Sun Oct 16 18:36:19 2022","The main experiment item","yes","Sternbergtask.osexp","C:/Users/cici_/Downloads","no","mono","no","18","no","white","no","yes","768","legacy","56","11","C:/Users/cici_/OneDrive/Documents/R/CS-subject-1.csv","legacy","4 8 1 2","Lentiform Loewenfeld","3.3.12","0","n","0","right","right","right","right","NA","631","32118","5821","631","NA","2","legacy","4","1024","2","48000","-16","experiment","1","odd","7","461689","36257","458371","459480","4127","116450","459484","342137","4137","110628","463691","464324","460486","463691","NA","Sternberg task","67","54032","69","yes","1024"
"97.14285714285714","97.14285714285714","782.5","782.5","black","experiment","legacy","legacy","legacy","0","uniform","1","undefined","1","right","69","0","69","69","0","0","69","69","0","0","69","69","69","69","0","Sun Oct 16 18:36:19 2022","The main experiment item","yes","Sternbergtask.osexp","C:/Users/cici_/Downloads","no","mono","no","18","no","white","no","yes","768","legacy","57","11","C:/Users/cici_/OneDrive/Documents/R/CS-subject-1.csv","legacy","4 2 6 9","Lentiform Loewenfeld","3.3.12","0","n","0","right","right","right","right","NA","743","32118","5821","743","NA","2","legacy","4","1024","2","48000","-16","experiment","1","odd","7","467681","36257","464341","465473","4127","116450","465476","342137","4137","110628","469684","470429","466478","469684","NA","Sternberg task","68","54775","70","yes","1024"
"97.1830985915493","97.1830985915493","781.6338028169014","781.6338028169014","black","experiment","legacy","legacy","legacy","0","uniform","1","undefined","1","right","70","0","70","70","0","0","70","70","0","0","70","70","70","70","0","Sun Oct 16 18:36:19 2022","The main experiment item","yes","Sternbergtask.osexp","C:/Users/cici_/Downloads","no","mono","no","18","no","white","no","yes","768","legacy","58","11","C:/Users/cici_/OneDrive/Documents/R/CS-subject-1.csv","legacy","5","Lentiform Loewenfeld","3.3.12","0","n","0","right","right","right","right","NA","721","32118","5821","721","NA","2","legacy","1","1024","2","48000","-16","experiment","1","odd","8","473761","36257","470446","471554","4127","116450","471557","342137","4137","110628","475763","476485","472559","475763","NA","Sternberg task","69","55496","71","yes","1024"
"97.22222222222223","97.22222222222223","778.3055555555555","778.3055555555555","black","experiment","legacy","legacy","legacy","0","uniform","1","undefined","1","right","71","0","71","71","0","0","71","71","0","0","71","71","71","71","0","Sun Oct 16 18:36:19 2022","The main experiment item","yes","Sternbergtask.osexp","C:/Users/cici_/Downloads","no","mono","no","18","no","white","no","yes","768","legacy","59","11","C:/Users/cici_/OneDrive/Documents/R/CS-subject-1.csv","legacy","1 4 9 3","Lentiform Loewenfeld","3.3.12","0","n","0","right","right","right","right","NA","542","32118","5821","542","NA","2","legacy","4","1024","2","48000","-16","experiment","1","odd","5","479835","36257","476501","477627","4127","116450","477631","342137","4137","110628","481838","482382","478633","481838","NA","Sternberg task","70","56038","72","yes","1024"
"97.26027397260275","97.26027397260275","776.3424657534247","776.3424657534247","black","experiment","legacy","legacy","legacy","0","uniform","1","undefined","1","right","72","0","72","72","0","0","72","72","0","0","72","72","72","72","0","Sun Oct 16 18:36:19 2022","The main experiment item","yes","Sternbergtask.osexp","C:/Users/cici_/Downloads","no","mono","no","18","no","white","no","yes","768","legacy","60","11","C:/Users/cici_/OneDrive/Documents/R/CS-subject-1.csv","legacy","8 6 3 4 7","Lentiform Loewenfeld","3.3.12","0","n","0","right","right","right","right","NA","635","32118","5821","635","NA","2","legacy","5","1024","2","48000","-16","experiment","1","odd","1","485720","36257","482398","483513","4127","116450","483515","342137","4137","110628","487722","488359","484518","487722","NA","Sternberg task","71","56673","73","yes","1024"
"97.29729729729729","97.29729729729729","773.6351351351351","773.6351351351351","black","experiment","legacy","legacy","legacy","0","uniform","1","undefined","1","right","73","0","73","73","0","0","73","73","0","0","73","73","73","73","0","Sun Oct 16 18:36:19 2022","The main experiment item","yes","Sternbergtask.osexp","C:/Users/cici_/Downloads","no","mono","no","18","no","white","no","yes","768","legacy","61","11","C:/Users/cici_/OneDrive/Documents/R/CS-subject-1.csv","legacy","7 9","Lentiform Loewenfeld","3.3.12","0","n","0","right","right","right","right","NA","576","32118","5821","576","NA","2","legacy","2","1024","2","48000","-16","experiment","1","odd","1","491694","36257","488377","489487","4127","116450","489490","342137","4137","110628","493696","494274","490492","493696","NA","Sternberg task","72","57249","74","yes","1024"
"97.33333333333333","97.33333333333333","773.12","773.12","black","experiment","legacy","legacy","legacy","0","uniform","1","undefined","1","left","74","0","74","74","0","0","74","74","0","0","74","74","74","74","0","Sun Oct 16 18:36:19 2022","The main experiment item","yes","Sternbergtask.osexp","C:/Users/cici_/Downloads","no","mono","no","18","no","white","no","yes","768","legacy","62","11","C:/Users/cici_/OneDrive/Documents/R/CS-subject-1.csv","legacy","9 8 4","Lentiform Loewenfeld","3.3.12","1","y","0","left","right","right","left","NA","735","32118","5821","735","NA","2","legacy","3","1024","2","48000","-16","experiment","1","odd","9","497612","36257","494291","495403","4127","116450","495407","342137","4137","110628","499614","500351","496409","499614","NA","Sternberg task","73","57984","75","yes","1024"
"97.36842105263158","97.36842105263158","770.2105263157895","770.2105263157895","black","experiment","legacy","legacy","legacy","0","uniform","1","undefined","1","right","75","0","75","75","0","0","75","75","0","0","75","75","75","75","0","Sun Oct 16 18:36:19 2022","The main experiment item","yes","Sternbergtask.osexp","C:/Users/cici_/Downloads","no","mono","no","18","no","white","no","yes","768","legacy","63","11","C:/Users/cici_/OneDrive/Documents/R/CS-subject-1.csv","legacy","1 5 3 2 8","Lentiform Loewenfeld","3.3.12","0","n","0","right","right","right","right","NA","552","32118","5821","552","NA","2","legacy","5","1024","2","48000","-16","experiment","1","odd","4","503695","36257","500369","501488","4127","116450","501491","342137","4137","110628","505697","506251","502493","505697","NA","Sternberg task","74","58536","76","yes","1024"
"97.40259740259741","97.40259740259741","769.0909090909091","769.0909090909091","black","experiment","legacy","legacy","legacy","0","uniform","1","undefined","1","left","76","0","76","76","0","0","76","76","0","0","76","76","76","76","0","Sun Oct 16 18:36:19 2022","The main experiment item","yes","Sternbergtask.osexp","C:/Users/cici_/Downloads","no","mono","no","18","no","white","no","yes","768","legacy","64","11","C:/Users/cici_/OneDrive/Documents/R/CS-subject-1.csv","legacy","6 8 9 3 4 9","Lentiform Loewenfeld","3.3.12","5","y","0","left","right","right","left","NA","684","32118","5821","684","NA","2","legacy","6","1024","2","48000","-16","experiment","1","odd","4","509591","36257","506268","507384","4127","116450","507387","342137","4137","110628","511593","512278","508389","511593","NA","Sternberg task","75","59220","77","yes","1024"
"97.43589743589743","97.43589743589743","766.3076923076923","766.3076923076923","black","experiment","legacy","legacy","legacy","0","uniform","1","undefined","1","right","77","0","77","77","0","0","77","77","0","0","77","77","77","77","0","Sun Oct 16 18:36:19 2022","The main experiment item","yes","Sternbergtask.osexp","C:/Users/cici_/Downloads","no","mono","no","18","no","white","no","yes","768","legacy","65","11","C:/Users/cici_/OneDrive/Documents/R/CS-subject-1.csv","legacy","1 6 4","Lentiform Loewenfeld","3.3.12","0","n","0","right","right","right","right","NA","552","32118","5821","552","NA","2","legacy","3","1024","2","48000","-16","experiment","1","odd","7","515617","36257","512295","513410","4127","116450","513413","342137","4137","110628","517619","518172","514415","517619","NA","Sternberg task","76","59772","78","yes","1024"
"97.46835443037975","97.46835443037975","763.9620253164557","763.9620253164557","black","experiment","legacy","legacy","legacy","0","uniform","1","undefined","1","left","78","0","78","78","0","0","78","78","0","0","78","78","78","78","0","Sun Oct 16 18:36:19 2022","The main experiment item","yes","Sternbergtask.osexp","C:/Users/cici_/Downloads","no","mono","no","18","no","white","no","yes","768","legacy","66","11","C:/Users/cici_/OneDrive/Documents/R/CS-subject-1.csv","legacy","6 9 7 4 5 1","Lentiform Loewenfeld","3.3.12","2","y","0","left","right","right","left","NA","581","32118","5821","581","NA","2","legacy","6","1024","2","48000","-16","experiment","1","odd","9","521503","36257","518189","519296","4127","116450","519299","342137","4137","110628","523505","524088","520301","523505","NA","Sternberg task","77","60353","79","yes","1024"
"97.5","97.5","760.75","760.75","black","experiment","legacy","legacy","legacy","0","uniform","1","undefined","1","left","79","0","79","79","0","0","79","79","0","0","79","79","79","79","0","Sun Oct 16 18:36:19 2022","The main experiment item","yes","Sternbergtask.osexp","C:/Users/cici_/Downloads","no","mono","no","18","no","white","no","yes","768","legacy","67","11","C:/Users/cici_/OneDrive/Documents/R/CS-subject-1.csv","legacy","4 7 6 8 2 3","Lentiform Loewenfeld","3.3.12","6","y","0","left","right","right","left","NA","507","32118","5821","507","NA","2","legacy","6","1024","2","48000","-16","experiment","1","odd","3","527429","36257","524106","525221","4127","116450","525224","342137","4137","110628","529431","529939","526227","529431","NA","Sternberg task","78","60860","80","yes","1024"
"97.53086419753086","97.53086419753086","757.9753086419753","757.9753086419753","black","experiment","legacy","legacy","legacy","0","uniform","1","undefined","1","left","80","0","80","80","0","0","80","80","0","0","80","80","80","80","0","Sun Oct 16 18:36:19 2022","The main experiment item","yes","Sternbergtask.osexp","C:/Users/cici_/Downloads","no","mono","no","18","no","white","no","yes","768","legacy","68","11","C:/Users/cici_/OneDrive/Documents/R/CS-subject-1.csv","legacy","7","Lentiform Loewenfeld","3.3.12","1","y","0","left","right","right","left","NA","536","32118","5821","536","NA","2","legacy","1","1024","2","48000","-16","experiment","1","odd","7","533270","36257","529956","531064","4127","116450","531066","342137","4137","110628","535272","535809","532068","535272","NA","Sternberg task","79","61396","81","yes","1024"
"97.5609756097561","97.5609756097561","756.8048780487804","756.8048780487804","black","experiment","legacy","legacy","legacy","0","uniform","1","undefined","1","right","81","0","81","81","0","0","81","81","0","0","81","81","81","81","0","Sun Oct 16 18:36:19 2022","The main experiment item","yes","Sternbergtask.osexp","C:/Users/cici_/Downloads","no","mono","no","18","no","white","no","yes","768","legacy","69","11","C:/Users/cici_/OneDrive/Documents/R/CS-subject-1.csv","legacy","1 7 5 2","Lentiform Loewenfeld","3.3.12","0","n","0","right","right","right","right","NA","662","32118","5821","662","NA","2","legacy","4","1024","2","48000","-16","experiment","1","odd","3","539143","36257","535825","536936","4127","116450","536939","342137","4137","110628","541145","541809","537941","541145","NA","Sternberg task","80","62058","82","yes","1024"
"97.59036144578313","97.59036144578313","756.433734939759","756.433734939759","black","experiment","legacy","legacy","legacy","0","uniform","1","undefined","1","right","82","0","82","82","0","0","82","82","0","0","82","82","82","82","0","Sun Oct 16 18:36:19 2022","The main experiment item","yes","Sternbergtask.osexp","C:/Users/cici_/Downloads","no","mono","no","18","no","white","no","yes","768","legacy","70","11","C:/Users/cici_/OneDrive/Documents/R/CS-subject-1.csv","legacy","2 8 9 4 1","Lentiform Loewenfeld","3.3.12","0","n","0","right","right","right","right","NA","726","32118","5821","726","NA","2","legacy","5","1024","2","48000","-16","experiment","1","odd","5","545134","36257","541816","542927","4127","116450","542930","342137","4137","110628","547137","547865","543932","547137","NA","Sternberg task","81","62784","83","yes","1024"
"97.61904761904762","97.61904761904762","758.3809523809524","758.3809523809524","black","experiment","legacy","legacy","legacy","0","uniform","1","undefined","1","left","83","0","83","83","0","0","83","83","0","0","83","83","83","83","0","Sun Oct 16 18:36:19 2022","The main experiment item","yes","Sternbergtask.osexp","C:/Users/cici_/Downloads","no","mono","no","18","no","white","no","yes","768","legacy","71","11","C:/Users/cici_/OneDrive/Documents/R/CS-subject-1.csv","legacy","9 3 1 2 5","Lentiform Loewenfeld","3.3.12","4","y","0","left","right","right","left","NA","920","32118","5821","920","NA","2","legacy","5","1024","2","48000","-16","experiment","1","odd","2","551203","36257","547882","548996","4127","116450","548999","342137","4137","110628","553205","554126","550001","553205","NA","Sternberg task","82","63704","84","yes","1024"
"97.6470588235294","97.6470588235294","757.4470588235295","757.4470588235295","black","experiment","legacy","legacy","legacy","0","uniform","1","undefined","1","right","84","0","84","84","0","0","84","84","0","0","84","84","84","84","0","Sun Oct 16 18:36:19 2022","The main experiment item","yes","Sternbergtask.osexp","C:/Users/cici_/Downloads","no","mono","no","18","no","white","no","yes","768","legacy","72","11","C:/Users/cici_/OneDrive/Documents/R/CS-subject-1.csv","legacy","8 4 3 5","Lentiform Loewenfeld","3.3.12","0","n","0","right","right","right","right","NA","679","32118","5821","679","NA","2","legacy","4","1024","2","48000","-16","experiment","1","odd","6","557459","36257","554142","555252","4127","116450","555255","342137","4137","110628","559461","560142","556257","559461","NA","Sternberg task","83","64383","85","yes","1024"
"97.67441860465117","97.67441860465117","757.4883720930233","757.4883720930233","black","experiment","legacy","legacy","legacy","0","uniform","1","undefined","1","left","85","0","85","85","0","0","85","85","0","0","85","85","85","85","0","Sun Oct 16 18:36:19 2022","The main experiment item","yes","Sternbergtask.osexp","C:/Users/cici_/Downloads","no","mono","no","18","no","white","no","yes","768","legacy","73","11","C:/Users/cici_/OneDrive/Documents/R/CS-subject-1.csv","legacy","6 5","Lentiform Loewenfeld","3.3.12","2","y","0","left","right","right","left","NA","761","32118","5821","761","NA","2","legacy","2","1024","2","48000","-16","experiment","1","odd","5","563479","36257","560158","561272","4127","116450","561275","342137","4137","110628","565481","566243","562277","565481","NA","Sternberg task","84","65144","86","yes","1024"
"97.70114942528735","97.70114942528735","756.2758620689655","756.2758620689655","black","experiment","legacy","legacy","legacy","0","uniform","1","undefined","1","left","86","0","86","86","0","0","86","86","0","0","86","86","86","86","0","Sun Oct 16 18:36:19 2022","The main experiment item","yes","Sternbergtask.osexp","C:/Users/cici_/Downloads","no","mono","no","18","no","white","no","yes","768","legacy","74","11","C:/Users/cici_/OneDrive/Documents/R/CS-subject-1.csv","legacy","3 5 9 6 2 4","Lentiform Loewenfeld","3.3.12","1","y","0","left","right","right","left","NA","652","32118","5821","652","NA","2","legacy","6","1024","2","48000","-16","experiment","1","odd","3","569581","36257","566259","567374","4127","116450","567377","342137","4137","110628","571584","572239","568379","571584","NA","Sternberg task","85","65796","87","yes","1024"
"97.72727272727273","97.72727272727273","755.0113636363636","755.0113636363636","black","experiment","legacy","legacy","legacy","0","uniform","1","undefined","1","left","87","0","87","87","0","0","87","87","0","0","87","87","87","87","0","Sun Oct 16 18:36:19 2022","The main experiment item","yes","Sternbergtask.osexp","C:/Users/cici_/Downloads","no","mono","no","18","no","white","no","yes","768","legacy","75","11","C:/Users/cici_/OneDrive/Documents/R/CS-subject-1.csv","legacy","2 4 6 9","Lentiform Loewenfeld","3.3.12","3","y","0","left","right","right","left","NA","645","32118","5821","645","NA","2","legacy","4","1024","2","48000","-16","experiment","1","odd","6","575579","36257","572257","573369","4127","116450","573375","342137","4137","110628","577581","578227","574377","577581","NA","Sternberg task","86","66441","88","yes","1024"
"97.75280898876404","97.75280898876404","755.2696629213483","755.2696629213483","black","experiment","legacy","legacy","legacy","0","uniform","1","undefined","1","right","88","0","88","88","0","0","88","88","0","0","88","88","88","88","0","Sun Oct 16 18:36:19 2022","The main experiment item","yes","Sternbergtask.osexp","C:/Users/cici_/Downloads","no","mono","no","18","no","white","no","yes","768","legacy","76","11","C:/Users/cici_/OneDrive/Documents/R/CS-subject-1.csv","legacy","8 5 7 3 6","Lentiform Loewenfeld","3.3.12","0","n","0","right","right","right","right","NA","778","32118","5821","778","NA","2","legacy","5","1024","2","48000","-16","experiment","1","odd","9","581562","36257","578245","579355","4127","116450","579358","342137","4137","110628","583564","584344","580360","583564","NA","Sternberg task","87","67219","89","yes","1024"
"97.77777777777777","97.77777777777777","753.5","753.5","black","experiment","legacy","legacy","legacy","0","uniform","1","undefined","1","left","89","0","89","89","0","0","89","89","0","0","89","89","89","89","0","Sun Oct 16 18:36:19 2022","The main experiment item","yes","Sternbergtask.osexp","C:/Users/cici_/Downloads","no","mono","no","18","no","white","no","yes","768","legacy","77","11","C:/Users/cici_/OneDrive/Documents/R/CS-subject-1.csv","legacy","8 1 6","Lentiform Loewenfeld","3.3.12","3","y","0","left","right","right","left","NA","596","32118","5821","596","NA","2","legacy","3","1024","2","48000","-16","experiment","1","odd","6","587683","36257","584361","585475","4127","116450","585479","342137","4137","110628","589685","590282","586481","589685","NA","Sternberg task","88","67815","90","yes","1024"
"97.8021978021978","97.8021978021978","755.4945054945055","755.4945054945055","black","experiment","legacy","legacy","legacy","0","uniform","1","undefined","1","left","90","0","90","90","0","0","90","90","0","0","90","90","90","90","0","Sun Oct 16 18:36:19 2022","The main experiment item","yes","Sternbergtask.osexp","C:/Users/cici_/Downloads","no","mono","no","18","no","white","no","yes","768","legacy","78","11","C:/Users/cici_/OneDrive/Documents/R/CS-subject-1.csv","legacy","5 2 9 6 1 7","Lentiform Loewenfeld","3.3.12","3","y","0","left","right","right","left","NA","935","32118","5821","935","NA","2","legacy","6","1024","2","48000","-16","experiment","1","odd","9","593616","36257","590299","591409","4127","116450","591412","342137","4137","110628","595618","596555","592414","595618","NA","Sternberg task","89","68750","91","yes","1024"
"97.82608695652173","97.82608695652173","752.7282608695652","752.7282608695652","black","experiment","legacy","legacy","legacy","0","uniform","1","undefined","1","left","91","0","91","91","0","0","91","91","0","0","91","91","91","91","0","Sun Oct 16 18:36:19 2022","The main experiment item","yes","Sternbergtask.osexp","C:/Users/cici_/Downloads","no","mono","no","18","no","white","no","yes","768","legacy","79","11","C:/Users/cici_/OneDrive/Documents/R/CS-subject-1.csv","legacy","4 6 5 8","Lentiform Loewenfeld","3.3.12","1","y","0","left","right","right","left","NA","501","32118","5821","501","NA","2","legacy","4","1024","2","48000","-16","experiment","1","odd","4","599890","36257","596570","597683","4127","116450","597686","342137","4137","110628","601892","602395","598688","601892","NA","Sternberg task","90","69251","92","yes","1024"
"97.84946236559139","97.84946236559139","754.0537634408602","754.0537634408602","black","experiment","legacy","legacy","legacy","0","uniform","1","undefined","1","right","92","0","92","92","0","0","92","92","0","0","92","92","92","92","0","Sun Oct 16 18:36:19 2022","The main experiment item","yes","Sternbergtask.osexp","C:/Users/cici_/Downloads","no","mono","no","18","no","white","no","yes","768","legacy","80","11","C:/Users/cici_/OneDrive/Documents/R/CS-subject-1.csv","legacy","4 1","Lentiform Loewenfeld","3.3.12","0","n","0","right","right","right","right","NA","876","32118","5821","876","NA","2","legacy","2","1024","2","48000","-16","experiment","1","odd","6","605721","36257","602402","603514","4127","116450","603517","342137","4137","110628","607724","608602","604519","607724","NA","Sternberg task","91","70127","93","yes","1024"
"97.87234042553192","97.87234042553192","755.0851063829788","755.0851063829788","black","experiment","legacy","legacy","legacy","0","uniform","1","undefined","1","right","93","0","93","93","0","0","93","93","0","0","93","93","93","93","0","Sun Oct 16 18:36:19 2022","The main experiment item","yes","Sternbergtask.osexp","C:/Users/cici_/Downloads","no","mono","no","18","no","white","no","yes","768","legacy","81","11","C:/Users/cici_/OneDrive/Documents/R/CS-subject-1.csv","legacy","6 8","Lentiform Loewenfeld","3.3.12","0","n","0","right","right","right","right","NA","851","32118","5821","851","NA","2","legacy","2","1024","2","48000","-16","experiment","1","odd","9","611936","36257","608618","609730","4127","116450","609733","342137","4137","110628","613939","614791","610735","613939","NA","Sternberg task","92","70978","94","yes","1024"
"97.89473684210526","97.89473684210526","755.1684210526316","755.1684210526316","black","experiment","legacy","legacy","legacy","0","uniform","1","undefined","1","right","94","0","94","94","0","0","94","94","0","0","94","94","94","94","0","Sun Oct 16 18:36:19 2022","The main experiment item","yes","Sternbergtask.osexp","C:/Users/cici_/Downloads","no","mono","no","18","no","white","no","yes","768","legacy","82","11","C:/Users/cici_/OneDrive/Documents/R/CS-subject-1.csv","legacy","7 8 6 1","Lentiform Loewenfeld","3.3.12","0","n","0","right","right","right","right","NA","763","32118","5821","763","NA","2","legacy","4","1024","2","48000","-16","experiment","1","odd","3","618123","36257","614808","615917","4127","116450","615919","342137","4137","110628","620125","620890","616921","620125","NA","Sternberg task","93","71741","95","yes","1024"
"97.91666666666667","97.91666666666667","753.5104166666666","753.5104166666666","black","experiment","legacy","legacy","legacy","0","uniform","1","undefined","1","right","95","0","95","95","0","0","95","95","0","0","95","95","95","95","0","Sun Oct 16 18:36:19 2022","The main experiment item","yes","Sternbergtask.osexp","C:/Users/cici_/Downloads","no","mono","no","18","no","white","no","yes","768","legacy","83","11","C:/Users/cici_/OneDrive/Documents/R/CS-subject-1.csv","legacy","8 4 3 9","Lentiform Loewenfeld","3.3.12","0","n","0","right","right","right","right","NA","596","32118","5821","596","NA","2","legacy","4","1024","2","48000","-16","experiment","1","odd","5","624225","36257","620908","622019","4127","116450","622021","342137","4137","110628","626227","626824","623023","626227","NA","Sternberg task","94","72337","96","yes","1024"
"97.9381443298969","97.9381443298969","753.0721649484536","753.0721649484536","black","experiment","legacy","legacy","legacy","0","uniform","1","undefined","1","left","96","0","96","96","0","0","96","96","0","0","96","96","96","96","0","Sun Oct 16 18:36:19 2022","The main experiment item","yes","Sternbergtask.osexp","C:/Users/cici_/Downloads","no","mono","no","18","no","white","no","yes","768","legacy","84","11","C:/Users/cici_/OneDrive/Documents/R/CS-subject-1.csv","legacy","3 2 1 4 7","Lentiform Loewenfeld","3.3.12","2","y","0","left","right","right","left","NA","711","32118","5821","711","NA","2","legacy","5","1024","2","48000","-16","experiment","1","odd","2","630166","36257","626841","627958","4127","116450","627962","342137","4137","110628","632168","632882","628963","632168","NA","Sternberg task","95","73048","97","yes","1024"
"97.95918367346938","97.95918367346938","751.3265306122449","751.3265306122449","black","experiment","legacy","legacy","legacy","0","uniform","1","undefined","1","right","97","0","97","97","0","0","97","97","0","0","97","97","97","97","0","Sun Oct 16 18:36:19 2022","The main experiment item","yes","Sternbergtask.osexp","C:/Users/cici_/Downloads","no","mono","no","18","no","white","no","yes","768","legacy","85","11","C:/Users/cici_/OneDrive/Documents/R/CS-subject-1.csv","legacy","6 3 1 7 9 8","Lentiform Loewenfeld","3.3.12","0","n","0","right","right","right","right","NA","582","32118","5821","582","NA","2","legacy","6","1024","2","48000","-16","experiment","1","odd","4","636218","36257","632897","634011","4127","116450","634014","342137","4137","110628","638220","638806","635016","638220","NA","Sternberg task","96","73630","98","yes","1024"
"97.97979797979798","97.97979797979798","749.8080808080808","749.8080808080808","black","experiment","legacy","legacy","legacy","0","uniform","1","undefined","1","left","98","0","98","98","0","0","98","98","0","0","98","98","98","98","0","Sun Oct 16 18:36:19 2022","The main experiment item","yes","Sternbergtask.osexp","C:/Users/cici_/Downloads","no","mono","no","18","no","white","no","yes","768","legacy","86","11","C:/Users/cici_/OneDrive/Documents/R/CS-subject-1.csv","legacy","6 1 2","Lentiform Loewenfeld","3.3.12","3","y","0","left","right","right","left","NA","601","32118","5821","601","NA","2","legacy","3","1024","2","48000","-16","experiment","1","odd","2","642142","36257","638823","639935","4127","116450","639938","342137","4137","110628","644144","644747","640940","644144","NA","Sternberg task","97","74231","99","yes","1024"
"98","98","748.46","748.46","black","experiment","legacy","legacy","legacy","0","uniform","1","undefined","1","right","99","0","99","99","0","0","99","99","0","0","99","99","99","99","0","Sun Oct 16 18:36:19 2022","The main experiment item","yes","Sternbergtask.osexp","C:/Users/cici_/Downloads","no","mono","no","18","no","white","no","yes","768","legacy","87","11","C:/Users/cici_/OneDrive/Documents/R/CS-subject-1.csv","legacy","2 6 4 3 9","Lentiform Loewenfeld","3.3.12","0","n","0","right","right","right","right","NA","615","32118","5821","615","NA","2","legacy","5","1024","2","48000","-16","experiment","1","odd","1","648090","36257","644764","645882","4127","116450","645886","342137","4137","110628","650092","650709","646888","650092","NA","Sternberg task","98","74846","100","yes","1024"
"98.01980198019803","98.01980198019803","747.049504950495","747.049504950495","black","experiment","legacy","legacy","legacy","0","uniform","1","undefined","1","left","100","0","100","100","0","0","100","100","0","0","100","100","100","100","0","Sun Oct 16 18:36:19 2022","The main experiment item","yes","Sternbergtask.osexp","C:/Users/cici_/Downloads","no","mono","no","18","no","white","no","yes","768","legacy","88","11","C:/Users/cici_/OneDrive/Documents/R/CS-subject-1.csv","legacy","2 5 4 8 7","Lentiform Loewenfeld","3.3.12","3","y","0","left","right","right","left","NA","606","32118","5821","606","NA","2","legacy","5","1024","2","48000","-16","experiment","1","odd","4","654042","36257","650726","651835","4127","116450","651838","342137","4137","110628","656044","656652","652840","656044","NA","Sternberg task","99","75452","101","yes","1024"
"98.03921568627452","98.03921568627452","744.7941176470588","744.7941176470588","black","experiment","legacy","legacy","legacy","0","uniform","1","undefined","1","left","101","0","101","101","0","0","101","101","0","0","101","101","101","101","0","Sun Oct 16 18:36:19 2022","The main experiment item","yes","Sternbergtask.osexp","C:/Users/cici_/Downloads","no","mono","no","18","no","white","no","yes","768","legacy","89","11","C:/Users/cici_/OneDrive/Documents/R/CS-subject-1.csv","legacy","7 1 3","Lentiform Loewenfeld","3.3.12","2","y","0","left","right","right","left","NA","517","32118","5821","517","NA","2","legacy","3","1024","2","48000","-16","experiment","1","odd","1","659979","36257","656659","657771","4127","116450","657775","342137","4137","110628","661982","662500","658777","661982","NA","Sternberg task","100","75969","102","yes","1024"
"98.05825242718447","98.05825242718447","743.5922330097087","743.5922330097087","black","experiment","legacy","legacy","legacy","0","uniform","1","undefined","1","left","102","0","102","102","0","0","102","102","0","0","102","102","102","102","0","Sun Oct 16 18:36:19 2022","The main experiment item","yes","Sternbergtask.osexp","C:/Users/cici_/Downloads","no","mono","no","18","no","white","no","yes","768","legacy","90","11","C:/Users/cici_/OneDrive/Documents/R/CS-subject-1.csv","legacy","6 7 8 5","Lentiform Loewenfeld","3.3.12","3","y","0","left","right","right","left","NA","621","32118","5821","621","NA","2","legacy","4","1024","2","48000","-16","experiment","1","odd","8","665829","36257","662508","663622","4127","116450","663625","342137","4137","110628","667831","668455","664627","667831","NA","Sternberg task","101","76590","103","yes","1024"
"98.07692307692308","98.07692307692308","740.8173076923077","740.8173076923077","black","experiment","legacy","legacy","legacy","0","uniform","1","undefined","1","left","103","0","103","103","0","0","103","103","0","0","103","103","103","103","0","Sun Oct 16 18:36:19 2022","The main experiment item","yes","Sternbergtask.osexp","C:/Users/cici_/Downloads","no","mono","no","18","no","white","no","yes","768","legacy","91","11","C:/Users/cici_/OneDrive/Documents/R/CS-subject-1.csv","legacy","4","Lentiform Loewenfeld","3.3.12","1","y","0","left","right","right","left","NA","455","32118","5821","455","NA","2","legacy","1","1024","2","48000","-16","experiment","1","odd","4","671795","36257","668473","669589","4127","116450","669591","342137","4137","110628","673797","674254","670593","673797","NA","Sternberg task","102","77045","104","yes","1024"
"98.0952380952381","98.0952380952381","738.1809523809524","738.1809523809524","black","experiment","legacy","legacy","legacy","0","uniform","1","undefined","1","left","104","0","104","104","0","0","104","104","0","0","104","104","104","104","0","Sun Oct 16 18:36:19 2022","The main experiment item","yes","Sternbergtask.osexp","C:/Users/cici_/Downloads","no","mono","no","18","no","white","no","yes","768","legacy","92","11","C:/Users/cici_/OneDrive/Documents/R/CS-subject-1.csv","legacy","3 9 6 2","Lentiform Loewenfeld","3.3.12","4","y","0","left","right","right","left","NA","464","32118","5821","464","NA","2","legacy","4","1024","2","48000","-16","experiment","1","odd","2","677586","36257","674270","675379","4127","116450","675382","342137","4137","110628","679588","680054","676384","679588","NA","Sternberg task","103","77509","105","yes","1024"
"98.11320754716981","98.11320754716981","736.8584905660377","736.8584905660377","black","experiment","legacy","legacy","legacy","0","uniform","1","undefined","1","right","105","0","105","105","0","0","105","105","0","0","105","105","105","105","0","Sun Oct 16 18:36:19 2022","The main experiment item","yes","Sternbergtask.osexp","C:/Users/cici_/Downloads","no","mono","no","18","no","white","no","yes","768","legacy","93","11","C:/Users/cici_/OneDrive/Documents/R/CS-subject-1.csv","legacy","2 8 7 9 5 3","Lentiform Loewenfeld","3.3.12","0","n","0","right","right","right","right","NA","598","32118","5821","598","NA","2","legacy","6","1024","2","48000","-16","experiment","1","odd","6","683393","36257","680071","681186","4127","116450","681189","342137","4137","110628","685395","685995","682191","685395","NA","Sternberg task","104","78107","106","yes","1024"
"98.13084112149532","98.13084112149532","736.3177570093458","736.3177570093458","black","experiment","legacy","legacy","legacy","0","uniform","1","undefined","1","right","106","0","106","106","0","0","106","106","0","0","106","106","106","106","0","Sun Oct 16 18:36:19 2022","The main experiment item","yes","Sternbergtask.osexp","C:/Users/cici_/Downloads","no","mono","no","18","no","white","no","yes","768","legacy","94","11","C:/Users/cici_/OneDrive/Documents/R/CS-subject-1.csv","legacy","5 9 2 3","Lentiform Loewenfeld","3.3.12","0","n","0","right","right","right","right","NA","679","32118","5821","679","NA","2","legacy","4","1024","2","48000","-16","experiment","1","odd","8","689335","36257","686011","687127","4127","116450","687131","342137","4137","110628","691338","692019","688133","691338","NA","Sternberg task","105","78786","107","yes","1024"
"98.14814814814815","98.14814814814815","735.1481481481482","735.1481481481482","black","experiment","legacy","legacy","legacy","0","uniform","1","undefined","1","left","107","0","107","107","0","0","107","107","0","0","107","107","107","107","0","Sun Oct 16 18:36:19 2022","The main experiment item","yes","Sternbergtask.osexp","C:/Users/cici_/Downloads","no","mono","no","18","no","white","no","yes","768","legacy","95","11","C:/Users/cici_/OneDrive/Documents/R/CS-subject-1.csv","legacy","8 3","Lentiform Loewenfeld","3.3.12","2","y","0","left","right","right","left","NA","610","32118","5821","610","NA","2","legacy","2","1024","2","48000","-16","experiment","1","odd","3","695359","36257","692036","693153","4127","116450","693155","342137","4137","110628","697361","697973","694157","697361","NA","Sternberg task","106","79396","108","yes","1024"
"98.1651376146789","98.1651376146789","733.651376146789","733.651376146789","black","experiment","legacy","legacy","legacy","0","uniform","1","undefined","1","right","108","0","108","108","0","0","108","108","0","0","108","108","108","108","0","Sun Oct 16 18:36:19 2022","The main experiment item","yes","Sternbergtask.osexp","C:/Users/cici_/Downloads","no","mono","no","18","no","white","no","yes","768","legacy","96","11","C:/Users/cici_/OneDrive/Documents/R/CS-subject-1.csv","legacy","3 9 1","Lentiform Loewenfeld","3.3.12","0","n","0","right","right","right","right","NA","572","32118","5821","572","NA","2","legacy","3","1024","2","48000","-16","experiment","1","odd","7","701309","36257","697989","699102","4127","116450","699105","342137","4137","110628","703311","703885","700107","703311","NA","Sternberg task","107","79968","109","yes","1024"
"98.18181818181819","98.18181818181819","732.6909090909091","732.6909090909091","black","experiment","legacy","legacy","legacy","0","uniform","1","undefined","1","right","109","0","109","109","0","0","109","109","0","0","109","109","109","109","0","Sun Oct 16 18:36:19 2022","The main experiment item","yes","Sternbergtask.osexp","C:/Users/cici_/Downloads","no","mono","no","18","no","white","no","yes","768","legacy","97","11","C:/Users/cici_/OneDrive/Documents/R/CS-subject-1.csv","legacy","9 8 2 7 4","Lentiform Loewenfeld","3.3.12","0","n","0","right","right","right","right","NA","628","32118","5821","628","NA","2","legacy","5","1024","2","48000","-16","experiment","1","odd","5","707223","36257","703901","705014","4127","116450","705017","342137","4137","110628","709225","709855","706019","709225","NA","Sternberg task","108","80596","110","yes","1024"
"98.1981981981982","98.1981981981982","732","732","black","experiment","legacy","legacy","legacy","0","uniform","1","undefined","1","right","110","0","110","110","0","0","110","110","0","0","110","110","110","110","0","Sun Oct 16 18:36:19 2022","The main experiment item","yes","Sternbergtask.osexp","C:/Users/cici_/Downloads","no","mono","no","18","no","white","no","yes","768","legacy","98","11","C:/Users/cici_/OneDrive/Documents/R/CS-subject-1.csv","legacy","6 9 7 3 8 2","Lentiform Loewenfeld","3.3.12","0","n","0","right","right","right","right","NA","656","32118","5821","656","NA","2","legacy","6","1024","2","48000","-16","experiment","1","odd","5","713194","36257","709872","710987","4127","116450","710990","342137","4137","110628","715196","715855","711992","715196","NA","Sternberg task","109","81252","111","yes","1024"
"98.21428571428571","98.21428571428571","731.2589285714286","731.2589285714286","black","experiment","legacy","legacy","legacy","0","uniform","1","undefined","1","right","111","0","111","111","0","0","111","111","0","0","111","111","111","111","0","Sun Oct 16 18:36:19 2022","The main experiment item","yes","Sternbergtask.osexp","C:/Users/cici_/Downloads","no","mono","no","18","no","white","no","yes","768","legacy","99","11","C:/Users/cici_/OneDrive/Documents/R/CS-subject-1.csv","legacy","4 2 7 6 1 3","Lentiform Loewenfeld","3.3.12","0","n","0","right","right","right","right","NA","649","32118","5821","649","NA","2","legacy","6","1024","2","48000","-16","experiment","1","odd","8","719192","36257","715871","716985","4127","116450","716988","342137","4137","110628","721194","721845","717990","721194","NA","Sternberg task","110","81901","112","yes","1024"
"98.23008849557522","98.23008849557522","732.5221238938053","732.5221238938053","black","experiment","legacy","legacy","legacy","0","uniform","1","undefined","1","left","112","0","112","112","0","0","112","112","0","0","112","112","112","112","0","Sun Oct 16 18:36:19 2022","The main experiment item","yes","Sternbergtask.osexp","C:/Users/cici_/Downloads","no","mono","no","18","no","white","no","yes","768","legacy","100","11","C:/Users/cici_/OneDrive/Documents/R/CS-subject-1.csv","legacy","8 5 3 7 4 6","Lentiform Loewenfeld","3.3.12","6","y","0","left","right","right","left","NA","874","32118","5821","874","NA","2","legacy","6","1024","2","48000","-16","experiment","1","odd","6","725183","36257","721862","722976","4127","116450","722979","342137","4137","110628","727185","728060","723981","727185","NA","Sternberg task","111","82775","113","yes","1024"
"98.24561403508773","98.24561403508773","731.2543859649123","731.2543859649123","black","experiment","legacy","legacy","legacy","0","uniform","1","undefined","1","right","113","0","113","113","0","0","113","113","0","0","113","113","113","113","0","Sun Oct 16 18:36:19 2022","The main experiment item","yes","Sternbergtask.osexp","C:/Users/cici_/Downloads","no","mono","no","18","no","white","no","yes","768","legacy","101","11","C:/Users/cici_/OneDrive/Documents/R/CS-subject-1.csv","legacy","3 4 2","Lentiform Loewenfeld","3.3.12","0","n","0","right","right","right","right","NA","588","32118","5821","588","NA","2","legacy","3","1024","2","48000","-16","experiment","1","odd","5","731396","36257","728076","729189","4127","116450","729192","342137","4137","110628","733399","733989","730194","733399","NA","Sternberg task","112","83363","114","yes","1024"
"98.26086956521739","98.26086956521739","730.1391304347826","730.1391304347826","black","experiment","legacy","legacy","legacy","0","uniform","1","undefined","1","right","114","0","114","114","0","0","114","114","0","0","114","114","114","114","0","Sun Oct 16 18:36:19 2022","The main experiment item","yes","Sternbergtask.osexp","C:/Users/cici_/Downloads","no","mono","no","18","no","white","no","yes","768","legacy","102","11","C:/Users/cici_/OneDrive/Documents/R/CS-subject-1.csv","legacy","6 7 5 9","Lentiform Loewenfeld","3.3.12","0","n","0","right","right","right","right","NA","603","32118","5821","603","NA","2","legacy","4","1024","2","48000","-16","experiment","1","odd","2","737323","36257","734005","735115","4127","116450","735118","342137","4137","110628","739325","739930","736120","739325","NA","Sternberg task","113","83966","115","yes","1024"
"98.27586206896552","98.27586206896552","729.3103448275862","729.3103448275862","black","experiment","legacy","legacy","legacy","0","uniform","1","undefined","1","right","115","0","115","115","0","0","115","115","0","0","115","115","115","115","0","Sun Oct 16 18:36:19 2022","The main experiment item","yes","Sternbergtask.osexp","C:/Users/cici_/Downloads","no","mono","no","18","no","white","no","yes","768","legacy","103","11","C:/Users/cici_/OneDrive/Documents/R/CS-subject-1.csv","legacy","2 8 9","Lentiform Loewenfeld","3.3.12","0","n","0","right","right","right","right","NA","634","32118","5821","634","NA","2","legacy","3","1024","2","48000","-16","experiment","1","odd","6","743288","36257","739946","741081","4127","116450","741084","342137","4137","110628","745290","745928","742086","745290","NA","Sternberg task","114","84600","116","yes","1024"
"98.2905982905983","98.2905982905983","729.7094017094017","729.7094017094017","black","experiment","legacy","legacy","legacy","0","uniform","1","undefined","1","left","116","0","116","116","0","0","116","116","0","0","116","116","116","116","0","Sun Oct 16 18:36:19 2022","The main experiment item","yes","Sternbergtask.osexp","C:/Users/cici_/Downloads","no","mono","no","18","no","white","no","yes","768","legacy","104","11","C:/Users/cici_/OneDrive/Documents/R/CS-subject-1.csv","legacy","9 1 6 7 8","Lentiform Loewenfeld","3.3.12","1","y","0","left","right","right","left","NA","776","32118","5821","776","NA","2","legacy","5","1024","2","48000","-16","experiment","1","odd","9","749260","36257","745945","747053","4127","116450","747056","342137","4137","110628","751262","752039","748058","751262","NA","Sternberg task","115","85376","117","yes","1024"
