"acc","accuracy","average_response_time","avg_rt","background","block","canvas_backend","clock_backend","color_backend","compensation","coordinates","correct","correct_Instruction1","correct_keyboard_response","correct_response","count_CorrectFeedback","count_ExpSequence","count_ExperimentLoop","count_Fixation","count_ISI","count_IncorrectFeedback","count_Instruction1","count_Instructions2","count_MemorySet","count_PracticeLoop","count_Probe","count_ThankYou","count_experiment","count_keyboard_response","count_logger","datetime","description","disable_garbage_collection","experiment_file","experiment_path","font_bold","font_family","font_italic","font_size","font_underline","foreground","form_clicks","fullscreen","height","keyboard_backend","live_row","live_row_PracticeLoop","logfile","mouse_backend","numberSet","opensesame_codename","opensesame_version","posInSet","present","repeat_cycle","response","response_Instruction1","response_Instructions2","response_ThankYou","response_keyboard_response","response_time","response_time_Instruction1","response_time_Instructions2","response_time_ThankYou","response_time_keyboard_response","round_decimals","sampler_backend","setSize","sound_buf_size","sound_channels","sound_freq","sound_sample_size","start","subject_nr","subject_parity","target","time_CorrectFeedback","time_ExpSequence","time_ExperimentLoop","time_Fixation","time_ISI","time_IncorrectFeedback","time_Instruction1","time_Instructions2","time_MemorySet","time_PracticeLoop","time_Probe","time_ThankYou","time_experiment","time_keyboard_response","time_logger","title","total_correct","total_response_time","total_responses","uniform_coordinates","width"
"100","100","541","541","black","practice","legacy","legacy","legacy","0","uniform","1","undefined","1","left","0","0","0","0","0","0","0","0","0","0","0","0","0","0","0","Mon Oct 17 20:25:09 2022","The main experiment item","yes","SternbergTask.osexp","C:\Users\Melissa\OneDrive\Desktop\ADVANCED QUANT\LAB 3.1","no","mono","no","18","no","white","no","no","768","legacy","0","0","C:/Users/Melissa/OneDrive/Desktop/ADVANCED QUANT/LAB 3.2/MM-subject-4.1.csv","legacy","6","Lentiform Loewenfeld","3.3.12","1","y","0","left","left","NA","NA","left","541","18147","NA","NA","541","2","legacy","1","1024","2","48000","-16","experiment","4","even","6","NA","20795","NA","20798","23005","NA","2250","NA","21799","20398","25007","NA","2247","25007","25549","Sternberg Task","1","541","1","yes","1024"
"100","100","537.5","537.5","black","practice","legacy","legacy","legacy","0","uniform","1","undefined","1","left","1","1","0","1","1","1","0","0","1","0","1","0","0","1","1","Mon Oct 17 20:25:09 2022","The main experiment item","yes","SternbergTask.osexp","C:\Users\Melissa\OneDrive\Desktop\ADVANCED QUANT\LAB 3.1","no","mono","no","18","no","white","no","no","768","legacy","1","1","C:/Users/Melissa/OneDrive/Desktop/ADVANCED QUANT/LAB 3.2/MM-subject-4.1.csv","legacy","4 8","Lentiform Loewenfeld","3.3.12","1","y","0","left","left","NA","NA","left","534","18147","NA","NA","534","2","legacy","2","1024","2","48000","-16","experiment","4","even","4","25604","26722","NA","26727","28933","NA","2250","NA","27728","20398","30935","NA","2247","30935","31470","Sternberg Task","2","1075","2","yes","1024"
"100","100","540","540","black","practice","legacy","legacy","legacy","0","uniform","1","undefined","1","left","2","2","0","2","2","2","0","0","2","0","2","0","0","2","2","Mon Oct 17 20:25:09 2022","The main experiment item","yes","SternbergTask.osexp","C:\Users\Melissa\OneDrive\Desktop\ADVANCED QUANT\LAB 3.1","no","mono","no","18","no","white","no","no","768","legacy","2","2","C:/Users/Melissa/OneDrive/Desktop/ADVANCED QUANT/LAB 3.2/MM-subject-4.1.csv","legacy","2 9 4","Lentiform Loewenfeld","3.3.12","3","y","0","left","left","NA","NA","left","545","18147","NA","NA","545","2","legacy","3","1024","2","48000","-16","experiment","4","even","4","31475","32576","NA","32578","34786","NA","2250","NA","33579","20398","36786","NA","2247","36786","37332","Sternberg Task","3","1620","3","yes","1024"
"100","100","557.75","557.75","black","practice","legacy","legacy","legacy","0","uniform","1","undefined","1","right","3","3","0","3","3","3","0","0","3","0","3","0","0","3","3","Mon Oct 17 20:25:09 2022","The main experiment item","yes","SternbergTask.osexp","C:\Users\Melissa\OneDrive\Desktop\ADVANCED QUANT\LAB 3.1","no","mono","no","18","no","white","no","no","768","legacy","3","3","C:/Users/Melissa/OneDrive/Desktop/ADVANCED QUANT/LAB 3.2/MM-subject-4.1.csv","legacy","5","Lentiform Loewenfeld","3.3.12","0","n","0","right","left","NA","NA","right","611","18147","NA","NA","611","2","legacy","1","1024","2","48000","-16","experiment","4","even","3","37343","38443","NA","38445","40650","NA","2250","NA","39446","20398","42651","NA","2247","42651","43263","Sternberg Task","4","2231","4","yes","1024"
"100","100","564","564","black","practice","legacy","legacy","legacy","0","uniform","1","undefined","1","left","4","4","0","4","4","4","0","0","4","0","4","0","0","4","4","Mon Oct 17 20:25:09 2022","The main experiment item","yes","SternbergTask.osexp","C:\Users\Melissa\OneDrive\Desktop\ADVANCED QUANT\LAB 3.1","no","mono","no","18","no","white","no","no","768","legacy","4","4","C:/Users/Melissa/OneDrive/Desktop/ADVANCED QUANT/LAB 3.2/MM-subject-4.1.csv","legacy","4 3 1 7 9 8","Lentiform Loewenfeld","3.3.12","1","y","0","left","left","NA","NA","left","589","18147","NA","NA","589","2","legacy","6","1024","2","48000","-16","experiment","4","even","4","43268","44365","NA","44367","46572","NA","2250","NA","45369","20398","48573","NA","2247","48573","49162","Sternberg Task","5","2820","5","yes","1024"
"100","100","612.1666666666666","612.1666666666666","black","practice","legacy","legacy","legacy","0","uniform","1","undefined","1","left","5","5","0","5","5","5","0","0","5","0","5","0","0","5","5","Mon Oct 17 20:25:09 2022","The main experiment item","yes","SternbergTask.osexp","C:\Users\Melissa\OneDrive\Desktop\ADVANCED QUANT\LAB 3.1","no","mono","no","18","no","white","no","no","768","legacy","5","5","C:/Users/Melissa/OneDrive/Desktop/ADVANCED QUANT/LAB 3.2/MM-subject-4.1.csv","legacy","1 7 9 8 5","Lentiform Loewenfeld","3.3.12","4","y","0","left","left","NA","NA","left","853","18147","NA","NA","853","2","legacy","5","1024","2","48000","-16","experiment","4","even","8","49167","50268","NA","50269","52474","NA","2250","NA","51271","20398","54475","NA","2247","54475","55328","Sternberg Task","6","3673","6","yes","1024"
"100","100","604.4285714285714","604.4285714285714","black","practice","legacy","legacy","legacy","0","uniform","1","undefined","1","right","6","6","0","6","6","6","0","0","6","0","6","0","0","6","6","Mon Oct 17 20:25:09 2022","The main experiment item","yes","SternbergTask.osexp","C:\Users\Melissa\OneDrive\Desktop\ADVANCED QUANT\LAB 3.1","no","mono","no","18","no","white","no","no","768","legacy","6","6","C:/Users/Melissa/OneDrive/Desktop/ADVANCED QUANT/LAB 3.2/MM-subject-4.1.csv","legacy","2 1","Lentiform Loewenfeld","3.3.12","0","n","0","right","left","NA","NA","right","558","18147","NA","NA","558","2","legacy","2","1024","2","48000","-16","experiment","4","even","5","55339","56463","NA","56464","58671","NA","2250","NA","57465","20398","60672","NA","2247","60672","61231","Sternberg Task","7","4231","7","yes","1024"
"100","100","626.5","626.5","black","practice","legacy","legacy","legacy","0","uniform","1","undefined","1","right","7","7","0","7","7","7","0","0","7","0","7","0","0","7","7","Mon Oct 17 20:25:09 2022","The main experiment item","yes","SternbergTask.osexp","C:\Users\Melissa\OneDrive\Desktop\ADVANCED QUANT\LAB 3.1","no","mono","no","18","no","white","no","no","768","legacy","7","7","C:/Users/Melissa/OneDrive/Desktop/ADVANCED QUANT/LAB 3.2/MM-subject-4.1.csv","legacy","3 1 9 4","Lentiform Loewenfeld","3.3.12","0","n","0","right","left","NA","NA","right","781","18147","NA","NA","781","2","legacy","4","1024","2","48000","-16","experiment","4","even","6","61240","62335","NA","62337","64542","NA","2250","NA","63338","20398","66543","NA","2247","66543","67325","Sternberg Task","8","5012","8","yes","1024"
"100","100","651.1111111111111","651.1111111111111","black","practice","legacy","legacy","legacy","0","uniform","1","undefined","1","left","8","8","0","8","8","8","0","0","8","0","8","0","0","8","8","Mon Oct 17 20:25:09 2022","The main experiment item","yes","SternbergTask.osexp","C:\Users\Melissa\OneDrive\Desktop\ADVANCED QUANT\LAB 3.1","no","mono","no","18","no","white","no","no","768","legacy","8","8","C:/Users/Melissa/OneDrive/Desktop/ADVANCED QUANT/LAB 3.2/MM-subject-4.1.csv","legacy","1 5 2 9","Lentiform Loewenfeld","3.3.12","2","y","0","left","left","NA","NA","left","848","18147","NA","NA","848","2","legacy","4","1024","2","48000","-16","experiment","4","even","5","67331","68429","NA","68430","70636","NA","2250","NA","69435","20398","72641","NA","2247","72641","73489","Sternberg Task","9","5860","9","yes","1024"
"100","100","657.9","657.9","black","practice","legacy","legacy","legacy","0","uniform","1","undefined","1","right","9","9","0","9","9","9","0","0","9","0","9","0","0","9","9","Mon Oct 17 20:25:09 2022","The main experiment item","yes","SternbergTask.osexp","C:\Users\Melissa\OneDrive\Desktop\ADVANCED QUANT\LAB 3.1","no","mono","no","18","no","white","no","no","768","legacy","9","9","C:/Users/Melissa/OneDrive/Desktop/ADVANCED QUANT/LAB 3.2/MM-subject-4.1.csv","legacy","9 6 7 4 5","Lentiform Loewenfeld","3.3.12","0","n","0","right","left","NA","NA","right","719","18147","NA","NA","719","2","legacy","5","1024","2","48000","-16","experiment","4","even","3","73494","74593","NA","74595","76801","NA","2250","NA","75597","20398","78806","NA","2247","78806","79529","Sternberg Task","10","6579","10","yes","1024"
"90.9090909090909","90.9090909090909","659.8181818181819","659.8181818181819","black","practice","legacy","legacy","legacy","0","uniform","0","undefined","0","right","10","10","0","10","10","10","0","0","10","0","10","0","0","10","10","Mon Oct 17 20:25:09 2022","The main experiment item","yes","SternbergTask.osexp","C:\Users\Melissa\OneDrive\Desktop\ADVANCED QUANT\LAB 3.1","no","mono","no","18","no","white","no","no","768","legacy","10","10","C:/Users/Melissa/OneDrive/Desktop/ADVANCED QUANT/LAB 3.2/MM-subject-4.1.csv","legacy","5 7 8 4 1 2","Lentiform Loewenfeld","3.3.12","0","n","0","left","left","NA","NA","left","679","18147","NA","NA","679","2","legacy","6","1024","2","48000","-16","experiment","4","even","6","79534","80642","NA","80646","82851","NA","2250","NA","81647","20398","84852","NA","2247","84852","85532","Sternberg Task","10","7258","11","yes","1024"
"91.66666666666667","91.66666666666667","663.9166666666666","663.9166666666666","black","practice","legacy","legacy","legacy","0","uniform","1","undefined","1","right","11","11","0","11","11","11","0","0","11","0","11","0","0","11","11","Mon Oct 17 20:25:09 2022","The main experiment item","yes","SternbergTask.osexp","C:\Users\Melissa\OneDrive\Desktop\ADVANCED QUANT\LAB 3.1","no","mono","no","18","no","white","no","no","768","legacy","11","11","C:/Users/Melissa/OneDrive/Desktop/ADVANCED QUANT/LAB 3.2/MM-subject-4.1.csv","legacy","4 1 5","Lentiform Loewenfeld","3.3.12","0","n","0","right","left","NA","NA","right","709","18147","NA","NA","709","2","legacy","3","1024","2","48000","-16","experiment","4","even","2","79534","86673","NA","86674","88882","85549","2250","NA","87678","20398","90883","NA","2247","90883","91592","Sternberg Task","11","7967","12","yes","1024"
"92.3076923076923","92.3076923076923","673.3076923076923","673.3076923076923","black","experiment","legacy","legacy","legacy","0","uniform","1","undefined","1","right","12","12","0","12","12","12","0","0","12","0","12","0","0","12","12","Mon Oct 17 20:25:09 2022","The main experiment item","yes","SternbergTask.osexp","C:\Users\Melissa\OneDrive\Desktop\ADVANCED QUANT\LAB 3.1","no","mono","no","18","no","white","no","no","768","legacy","0","11","C:/Users/Melissa/OneDrive/Desktop/ADVANCED QUANT/LAB 3.2/MM-subject-4.1.csv","legacy","6 8","Lentiform Loewenfeld","3.3.12","0","n","0","right","left","left","NA","right","786","18147","6867","NA","786","2","legacy","2","1024","2","48000","-16","experiment","4","even","9","91604","99616","99519","99618","101825","85549","2250","92652","100623","20398","103826","NA","2247","103826","104612","Sternberg Task","12","8753","13","yes","1024"
"92.85714285714286","92.85714285714286","658.2142857142857","658.2142857142857","black","experiment","legacy","legacy","legacy","0","uniform","1","undefined","1","left","13","13","0","13","13","13","0","0","13","0","13","0","0","13","13","Mon Oct 17 20:25:09 2022","The main experiment item","yes","SternbergTask.osexp","C:\Users\Melissa\OneDrive\Desktop\ADVANCED QUANT\LAB 3.1","no","mono","no","18","no","white","no","no","768","legacy","1","11","C:/Users/Melissa/OneDrive/Desktop/ADVANCED QUANT/LAB 3.2/MM-subject-4.1.csv","legacy","8","Lentiform Loewenfeld","3.3.12","1","y","0","left","left","left","NA","left","462","18147","6867","NA","462","2","legacy","1","1024","2","48000","-16","experiment","4","even","8","104619","105742","99519","105744","107954","85549","2250","92652","106750","20398","109955","NA","2247","109955","110418","Sternberg Task","13","9215","14","yes","1024"
"93.33333333333333","93.33333333333333","666.7333333333333","666.7333333333333","black","experiment","legacy","legacy","legacy","0","uniform","1","undefined","1","left","14","14","0","14","14","14","0","0","14","0","14","0","0","14","14","Mon Oct 17 20:25:09 2022","The main experiment item","yes","SternbergTask.osexp","C:\Users\Melissa\OneDrive\Desktop\ADVANCED QUANT\LAB 3.1","no","mono","no","18","no","white","no","no","768","legacy","2","11","C:/Users/Melissa/OneDrive/Desktop/ADVANCED QUANT/LAB 3.2/MM-subject-4.1.csv","legacy","5 2 6","Lentiform Loewenfeld","3.3.12","2","y","0","left","left","left","NA","left","786","18147","6867","NA","786","2","legacy","3","1024","2","48000","-16","experiment","4","even","2","110430","111526","99519","111528","113734","85549","2250","92652","112529","20398","115735","NA","2247","115735","116522","Sternberg Task","14","10001","15","yes","1024"
"93.75","93.75","655.3125","655.3125","black","experiment","legacy","legacy","legacy","0","uniform","1","undefined","1","left","15","15","0","15","15","15","0","0","15","0","15","0","0","15","15","Mon Oct 17 20:25:09 2022","The main experiment item","yes","SternbergTask.osexp","C:\Users\Melissa\OneDrive\Desktop\ADVANCED QUANT\LAB 3.1","no","mono","no","18","no","white","no","no","768","legacy","3","11","C:/Users/Melissa/OneDrive/Desktop/ADVANCED QUANT/LAB 3.2/MM-subject-4.1.csv","legacy","7","Lentiform Loewenfeld","3.3.12","1","y","0","left","left","left","NA","left","484","18147","6867","NA","484","2","legacy","1","1024","2","48000","-16","experiment","4","even","7","116528","117626","99519","117628","119833","85549","2250","92652","118630","20398","121834","NA","2247","121834","122319","Sternberg Task","15","10485","16","yes","1024"
"94.11764705882354","94.11764705882354","688.1176470588235","688.1176470588235","black","experiment","legacy","legacy","legacy","0","uniform","1","undefined","1","left","16","16","0","16","16","16","0","0","16","0","16","0","0","16","16","Mon Oct 17 20:25:09 2022","The main experiment item","yes","SternbergTask.osexp","C:\Users\Melissa\OneDrive\Desktop\ADVANCED QUANT\LAB 3.1","no","mono","no","18","no","white","no","no","768","legacy","4","11","C:/Users/Melissa/OneDrive/Desktop/ADVANCED QUANT/LAB 3.2/MM-subject-4.1.csv","legacy","8 7 3","Lentiform Loewenfeld","3.3.12","1","y","0","left","left","left","NA","left","1213","18147","6867","NA","1213","2","legacy","3","1024","2","48000","-16","experiment","4","even","8","122327","123428","99519","123429","125635","85549","2250","92652","124430","20398","127636","NA","2247","127636","128850","Sternberg Task","16","11698","17","yes","1024"
"94.44444444444444","94.44444444444444","675","675","black","experiment","legacy","legacy","legacy","0","uniform","1","undefined","1","left","17","17","0","17","17","17","0","0","17","0","17","0","0","17","17","Mon Oct 17 20:25:09 2022","The main experiment item","yes","SternbergTask.osexp","C:\Users\Melissa\OneDrive\Desktop\ADVANCED QUANT\LAB 3.1","no","mono","no","18","no","white","no","no","768","legacy","5","11","C:/Users/Melissa/OneDrive/Desktop/ADVANCED QUANT/LAB 3.2/MM-subject-4.1.csv","legacy","7 8 4 6 9 5","Lentiform Loewenfeld","3.3.12","4","y","0","left","left","left","NA","left","452","18147","6867","NA","452","2","legacy","6","1024","2","48000","-16","experiment","4","even","6","128855","129966","99519","129969","132172","85549","2250","92652","130970","20398","134173","NA","2247","134173","134625","Sternberg Task","17","12150","18","yes","1024"
"94.73684210526316","94.73684210526316","667","667","black","experiment","legacy","legacy","legacy","0","uniform","1","undefined","1","left","18","18","0","18","18","18","0","0","18","0","18","0","0","18","18","Mon Oct 17 20:25:09 2022","The main experiment item","yes","SternbergTask.osexp","C:\Users\Melissa\OneDrive\Desktop\ADVANCED QUANT\LAB 3.1","no","mono","no","18","no","white","no","no","768","legacy","6","11","C:/Users/Melissa/OneDrive/Desktop/ADVANCED QUANT/LAB 3.2/MM-subject-4.1.csv","legacy","8 9 5 7 1 6","Lentiform Loewenfeld","3.3.12","4","y","0","left","left","left","NA","left","523","18147","6867","NA","523","2","legacy","6","1024","2","48000","-16","experiment","4","even","7","134631","135725","99519","135726","137931","85549","2250","92652","136727","20398","139933","NA","2247","139933","140457","Sternberg Task","18","12673","19","yes","1024"
"95","95","659.4","659.4","black","experiment","legacy","legacy","legacy","0","uniform","1","undefined","1","left","19","19","0","19","19","19","0","0","19","0","19","0","0","19","19","Mon Oct 17 20:25:09 2022","The main experiment item","yes","SternbergTask.osexp","C:\Users\Melissa\OneDrive\Desktop\ADVANCED QUANT\LAB 3.1","no","mono","no","18","no","white","no","no","768","legacy","7","11","C:/Users/Melissa/OneDrive/Desktop/ADVANCED QUANT/LAB 3.2/MM-subject-4.1.csv","legacy","8 3","Lentiform Loewenfeld","3.3.12","2","y","0","left","left","left","NA","left","515","18147","6867","NA","515","2","legacy","2","1024","2","48000","-16","experiment","4","even","3","140462","141559","99519","141561","143767","85549","2250","92652","142562","20398","145768","NA","2247","145768","146283","Sternberg Task","19","13188","20","yes","1024"
"95.23809523809524","95.23809523809524","659.5714285714286","659.5714285714286","black","experiment","legacy","legacy","legacy","0","uniform","1","undefined","1","left","20","20","0","20","20","20","0","0","20","0","20","0","0","20","20","Mon Oct 17 20:25:09 2022","The main experiment item","yes","SternbergTask.osexp","C:\Users\Melissa\OneDrive\Desktop\ADVANCED QUANT\LAB 3.1","no","mono","no","18","no","white","no","no","768","legacy","8","11","C:/Users/Melissa/OneDrive/Desktop/ADVANCED QUANT/LAB 3.2/MM-subject-4.1.csv","legacy","8 5 1 3 9","Lentiform Loewenfeld","3.3.12","4","y","0","left","left","left","NA","left","663","18147","6867","NA","663","2","legacy","5","1024","2","48000","-16","experiment","4","even","3","146288","147384","99519","147386","149589","85549","2250","92652","148388","20398","151591","NA","2247","151591","152254","Sternberg Task","20","13851","21","yes","1024"
"95.45454545454545","95.45454545454545","652.1363636363636","652.1363636363636","black","experiment","legacy","legacy","legacy","0","uniform","1","undefined","1","right","21","21","0","21","21","21","0","0","21","0","21","0","0","21","21","Mon Oct 17 20:25:09 2022","The main experiment item","yes","SternbergTask.osexp","C:\Users\Melissa\OneDrive\Desktop\ADVANCED QUANT\LAB 3.1","no","mono","no","18","no","white","no","no","768","legacy","9","11","C:/Users/Melissa/OneDrive/Desktop/ADVANCED QUANT/LAB 3.2/MM-subject-4.1.csv","legacy","9 5 3 2 8 6","Lentiform Loewenfeld","3.3.12","0","n","0","right","left","left","NA","right","496","18147","6867","NA","496","2","legacy","6","1024","2","48000","-16","experiment","4","even","7","152259","153374","99519","153376","155580","85549","2250","92652","154378","20398","157581","NA","2247","157581","158077","Sternberg Task","21","14347","22","yes","1024"
"95.65217391304348","95.65217391304348","672.6086956521739","672.6086956521739","black","experiment","legacy","legacy","legacy","0","uniform","1","undefined","1","right","22","22","0","22","22","22","0","0","22","0","22","0","0","22","22","Mon Oct 17 20:25:09 2022","The main experiment item","yes","SternbergTask.osexp","C:\Users\Melissa\OneDrive\Desktop\ADVANCED QUANT\LAB 3.1","no","mono","no","18","no","white","no","no","768","legacy","10","11","C:/Users/Melissa/OneDrive/Desktop/ADVANCED QUANT/LAB 3.2/MM-subject-4.1.csv","legacy","1 7 5 2","Lentiform Loewenfeld","3.3.12","0","n","0","right","left","left","NA","right","1123","18147","6867","NA","1123","2","legacy","4","1024","2","48000","-16","experiment","4","even","3","158083","159178","99519","159180","161385","85549","2250","92652","160181","20398","163386","NA","2247","163386","164509","Sternberg Task","22","15470","23","yes","1024"
"95.83333333333333","95.83333333333333","682.2083333333334","682.2083333333334","black","experiment","legacy","legacy","legacy","0","uniform","1","undefined","1","left","23","23","0","23","23","23","0","0","23","0","23","0","0","23","23","Mon Oct 17 20:25:09 2022","The main experiment item","yes","SternbergTask.osexp","C:\Users\Melissa\OneDrive\Desktop\ADVANCED QUANT\LAB 3.1","no","mono","no","18","no","white","no","no","768","legacy","11","11","C:/Users/Melissa/OneDrive/Desktop/ADVANCED QUANT/LAB 3.2/MM-subject-4.1.csv","legacy","9 6 2 4 1","Lentiform Loewenfeld","3.3.12","4","y","0","left","left","left","NA","left","903","18147","6867","NA","903","2","legacy","5","1024","2","48000","-16","experiment","4","even","4","164517","165668","99519","165670","167876","85549","2250","92652","166672","20398","169881","NA","2247","169881","170784","Sternberg Task","23","16373","24","yes","1024"
"96","96","685.4","685.4","black","experiment","legacy","legacy","legacy","0","uniform","1","undefined","1","left","24","24","0","24","24","24","0","0","24","0","24","0","0","24","24","Mon Oct 17 20:25:09 2022","The main experiment item","yes","SternbergTask.osexp","C:\Users\Melissa\OneDrive\Desktop\ADVANCED QUANT\LAB 3.1","no","mono","no","18","no","white","no","no","768","legacy","12","11","C:/Users/Melissa/OneDrive/Desktop/ADVANCED QUANT/LAB 3.2/MM-subject-4.1.csv","legacy","4 6 5 8","Lentiform Loewenfeld","3.3.12","1","y","0","left","left","left","NA","left","762","18147","6867","NA","762","2","legacy","4","1024","2","48000","-16","experiment","4","even","4","170789","171925","99519","171926","174133","85549","2250","92652","172929","20398","176134","NA","2247","176134","176897","Sternberg Task","24","17135","25","yes","1024"
"96.15384615384616","96.15384615384616","684.6923076923077","684.6923076923077","black","experiment","legacy","legacy","legacy","0","uniform","1","undefined","1","left","25","25","0","25","25","25","0","0","25","0","25","0","0","25","25","Mon Oct 17 20:25:09 2022","The main experiment item","yes","SternbergTask.osexp","C:\Users\Melissa\OneDrive\Desktop\ADVANCED QUANT\LAB 3.1","no","mono","no","18","no","white","no","no","768","legacy","13","11","C:/Users/Melissa/OneDrive/Desktop/ADVANCED QUANT/LAB 3.2/MM-subject-4.1.csv","legacy","6 1 2","Lentiform Loewenfeld","3.3.12","3","y","0","left","left","left","NA","left","667","18147","6867","NA","667","2","legacy","3","1024","2","48000","-16","experiment","4","even","2","176903","178014","99519","178017","180222","85549","2250","92652","179018","20398","182222","NA","2247","182222","182890","Sternberg Task","25","17802","26","yes","1024"
"96.29629629629629","96.29629629629629","683.6296296296297","683.6296296296297","black","experiment","legacy","legacy","legacy","0","uniform","1","undefined","1","left","26","26","0","26","26","26","0","0","26","0","26","0","0","26","26","Mon Oct 17 20:25:09 2022","The main experiment item","yes","SternbergTask.osexp","C:\Users\Melissa\OneDrive\Desktop\ADVANCED QUANT\LAB 3.1","no","mono","no","18","no","white","no","no","768","legacy","14","11","C:/Users/Melissa/OneDrive/Desktop/ADVANCED QUANT/LAB 3.2/MM-subject-4.1.csv","legacy","3 2 1 4 7","Lentiform Loewenfeld","3.3.12","2","y","0","left","left","left","NA","left","656","18147","6867","NA","656","2","legacy","5","1024","2","48000","-16","experiment","4","even","2","182897","183990","99519","183992","186197","85549","2250","92652","184993","20398","188198","NA","2247","188198","188854","Sternberg Task","26","18458","27","yes","1024"
"96.42857142857143","96.42857142857143","687.6428571428571","687.6428571428571","black","experiment","legacy","legacy","legacy","0","uniform","1","undefined","1","right","27","27","0","27","27","27","0","0","27","0","27","0","0","27","27","Mon Oct 17 20:25:09 2022","The main experiment item","yes","SternbergTask.osexp","C:\Users\Melissa\OneDrive\Desktop\ADVANCED QUANT\LAB 3.1","no","mono","no","18","no","white","no","no","768","legacy","15","11","C:/Users/Melissa/OneDrive/Desktop/ADVANCED QUANT/LAB 3.2/MM-subject-4.1.csv","legacy","2 7 5","Lentiform Loewenfeld","3.3.12","0","n","0","right","left","left","NA","right","796","18147","6867","NA","796","2","legacy","3","1024","2","48000","-16","experiment","4","even","8","188859","189955","99519","189956","192161","85549","2250","92652","190957","20398","194162","NA","2247","194162","194958","Sternberg Task","27","19254","28","yes","1024"
"96.55172413793103","96.55172413793103","694.0689655172414","694.0689655172414","black","experiment","legacy","legacy","legacy","0","uniform","1","undefined","1","right","28","28","0","28","28","28","0","0","28","0","28","0","0","28","28","Mon Oct 17 20:25:09 2022","The main experiment item","yes","SternbergTask.osexp","C:\Users\Melissa\OneDrive\Desktop\ADVANCED QUANT\LAB 3.1","no","mono","no","18","no","white","no","no","768","legacy","16","11","C:/Users/Melissa/OneDrive/Desktop/ADVANCED QUANT/LAB 3.2/MM-subject-4.1.csv","legacy","7 1 8 4 9 3","Lentiform Loewenfeld","3.3.12","0","n","0","right","left","left","NA","right","874","18147","6867","NA","874","2","legacy","6","1024","2","48000","-16","experiment","4","even","6","194966","196062","99519","196064","198270","85549","2250","92652","197065","20398","200271","NA","2247","200271","201146","Sternberg Task","28","20128","29","yes","1024"
"96.66666666666667","96.66666666666667","692.2333333333333","692.2333333333333","black","experiment","legacy","legacy","legacy","0","uniform","1","undefined","1","right","29","29","0","29","29","29","0","0","29","0","29","0","0","29","29","Mon Oct 17 20:25:09 2022","The main experiment item","yes","SternbergTask.osexp","C:\Users\Melissa\OneDrive\Desktop\ADVANCED QUANT\LAB 3.1","no","mono","no","18","no","white","no","no","768","legacy","17","11","C:/Users/Melissa/OneDrive/Desktop/ADVANCED QUANT/LAB 3.2/MM-subject-4.1.csv","legacy","1 3 2 6 9","Lentiform Loewenfeld","3.3.12","0","n","0","right","left","left","NA","right","639","18147","6867","NA","639","2","legacy","5","1024","2","48000","-16","experiment","4","even","5","201161","202274","99519","202277","204484","85549","2250","92652","203280","20398","206485","NA","2247","206485","207124","Sternberg Task","29","20767","30","yes","1024"
"96.7741935483871","96.7741935483871","697.8709677419355","697.8709677419355","black","experiment","legacy","legacy","legacy","0","uniform","1","undefined","1","right","30","30","0","30","30","30","0","0","30","0","30","0","0","30","30","Mon Oct 17 20:25:09 2022","The main experiment item","yes","SternbergTask.osexp","C:\Users\Melissa\OneDrive\Desktop\ADVANCED QUANT\LAB 3.1","no","mono","no","18","no","white","no","no","768","legacy","18","11","C:/Users/Melissa/OneDrive/Desktop/ADVANCED QUANT/LAB 3.2/MM-subject-4.1.csv","legacy","1 7 5 2 9","Lentiform Loewenfeld","3.3.12","0","n","0","right","left","left","NA","right","867","18147","6867","NA","867","2","legacy","5","1024","2","48000","-16","experiment","4","even","3","207131","208227","99519","208228","210434","85549","2250","92652","209229","20398","212435","NA","2247","212435","213303","Sternberg Task","30","21634","31","yes","1024"
"96.875","96.875","698.0625","698.0625","black","experiment","legacy","legacy","legacy","0","uniform","1","undefined","1","right","31","31","0","31","31","31","0","0","31","0","31","0","0","31","31","Mon Oct 17 20:25:09 2022","The main experiment item","yes","SternbergTask.osexp","C:\Users\Melissa\OneDrive\Desktop\ADVANCED QUANT\LAB 3.1","no","mono","no","18","no","white","no","no","768","legacy","19","11","C:/Users/Melissa/OneDrive/Desktop/ADVANCED QUANT/LAB 3.2/MM-subject-4.1.csv","legacy","1 6 4","Lentiform Loewenfeld","3.3.12","0","n","0","right","left","left","NA","right","704","18147","6867","NA","704","2","legacy","3","1024","2","48000","-16","experiment","4","even","7","213310","214412","99519","214415","216624","85549","2250","92652","215419","20398","218625","NA","2247","218625","219329","Sternberg Task","31","22338","32","yes","1024"
"96.96969696969697","96.96969696969697","701.6060606060606","701.6060606060606","black","experiment","legacy","legacy","legacy","0","uniform","1","undefined","1","left","32","32","0","32","32","32","0","0","32","0","32","0","0","32","32","Mon Oct 17 20:25:09 2022","The main experiment item","yes","SternbergTask.osexp","C:\Users\Melissa\OneDrive\Desktop\ADVANCED QUANT\LAB 3.1","no","mono","no","18","no","white","no","no","768","legacy","20","11","C:/Users/Melissa/OneDrive/Desktop/ADVANCED QUANT/LAB 3.2/MM-subject-4.1.csv","legacy","2 6 1 7 4","Lentiform Loewenfeld","3.3.12","2","y","0","left","left","left","NA","left","815","18147","6867","NA","815","2","legacy","5","1024","2","48000","-16","experiment","4","even","6","219336","220434","99519","220436","222642","85549","2250","92652","221438","20398","224643","NA","2247","224643","225458","Sternberg Task","32","23153","33","yes","1024"
"97.05882352941177","97.05882352941177","709.6470588235294","709.6470588235294","black","experiment","legacy","legacy","legacy","0","uniform","1","undefined","1","left","33","33","0","33","33","33","0","0","33","0","33","0","0","33","33","Mon Oct 17 20:25:09 2022","The main experiment item","yes","SternbergTask.osexp","C:\Users\Melissa\OneDrive\Desktop\ADVANCED QUANT\LAB 3.1","no","mono","no","18","no","white","no","no","768","legacy","21","11","C:/Users/Melissa/OneDrive/Desktop/ADVANCED QUANT/LAB 3.2/MM-subject-4.1.csv","legacy","4 1 5","Lentiform Loewenfeld","3.3.12","2","y","0","left","left","left","NA","left","975","18147","6867","NA","975","2","legacy","3","1024","2","48000","-16","experiment","4","even","1","225466","226565","99519","226568","228772","85549","2250","92652","227569","20398","230773","NA","2247","230773","231748","Sternberg Task","33","24128","34","yes","1024"
"97.14285714285714","97.14285714285714","709.6571428571428","709.6571428571428","black","experiment","legacy","legacy","legacy","0","uniform","1","undefined","1","left","34","34","0","34","34","34","0","0","34","0","34","0","0","34","34","Mon Oct 17 20:25:09 2022","The main experiment item","yes","SternbergTask.osexp","C:\Users\Melissa\OneDrive\Desktop\ADVANCED QUANT\LAB 3.1","no","mono","no","18","no","white","no","no","768","legacy","22","11","C:/Users/Melissa/OneDrive/Desktop/ADVANCED QUANT/LAB 3.2/MM-subject-4.1.csv","legacy","2 8 5 1","Lentiform Loewenfeld","3.3.12","4","y","0","left","left","left","NA","left","710","18147","6867","NA","710","2","legacy","4","1024","2","48000","-16","experiment","4","even","1","231755","232857","99519","232858","235061","85549","2250","92652","233860","20398","237062","NA","2247","237062","237773","Sternberg Task","34","24838","35","yes","1024"
"97.22222222222223","97.22222222222223","711.8611111111111","711.8611111111111","black","experiment","legacy","legacy","legacy","0","uniform","1","undefined","1","left","35","35","0","35","35","35","0","0","35","0","35","0","0","35","35","Mon Oct 17 20:25:09 2022","The main experiment item","yes","SternbergTask.osexp","C:\Users\Melissa\OneDrive\Desktop\ADVANCED QUANT\LAB 3.1","no","mono","no","18","no","white","no","no","768","legacy","23","11","C:/Users/Melissa/OneDrive/Desktop/ADVANCED QUANT/LAB 3.2/MM-subject-4.1.csv","legacy","9 5 3 8 4","Lentiform Loewenfeld","3.3.12","1","y","0","left","left","left","NA","left","789","18147","6867","NA","789","2","legacy","5","1024","2","48000","-16","experiment","4","even","9","237779","238877","99519","238879","241088","85549","2250","92652","239884","20398","243089","NA","2247","243089","243878","Sternberg Task","35","25627","36","yes","1024"
"94.5945945945946","94.5945945945946","732.5945945945946","732.5945945945946","black","experiment","legacy","legacy","legacy","0","uniform","0","undefined","0","left","36","36","0","36","36","36","0","0","36","0","36","0","0","36","36","Mon Oct 17 20:25:09 2022","The main experiment item","yes","SternbergTask.osexp","C:\Users\Melissa\OneDrive\Desktop\ADVANCED QUANT\LAB 3.1","no","mono","no","18","no","white","no","no","768","legacy","24","11","C:/Users/Melissa/OneDrive/Desktop/ADVANCED QUANT/LAB 3.2/MM-subject-4.1.csv","legacy","3 4 9 6 2 9","Lentiform Loewenfeld","3.3.12","5","y","0","right","left","left","NA","right","1479","18147","6867","NA","1479","2","legacy","6","1024","2","48000","-16","experiment","4","even","2","243885","244989","99519","244991","247196","85549","2250","92652","245992","20398","249197","NA","2247","249197","250676","Sternberg Task","35","27106","37","yes","1024"
"94.73684210526316","94.73684210526316","738.6315789473684","738.6315789473684","black","experiment","legacy","legacy","legacy","0","uniform","1","undefined","1","right","37","37","0","37","37","37","0","0","37","0","37","0","0","37","37","Mon Oct 17 20:25:09 2022","The main experiment item","yes","SternbergTask.osexp","C:\Users\Melissa\OneDrive\Desktop\ADVANCED QUANT\LAB 3.1","no","mono","no","18","no","white","no","no","768","legacy","25","11","C:/Users/Melissa/OneDrive/Desktop/ADVANCED QUANT/LAB 3.2/MM-subject-4.1.csv","legacy","2 6 4 3 9","Lentiform Loewenfeld","3.3.12","0","n","0","right","left","left","NA","right","962","18147","6867","NA","962","2","legacy","5","1024","2","48000","-16","experiment","4","even","1","243885","251804","99519","251806","254015","250681","2250","92652","252811","20398","256016","NA","2247","256016","256978","Sternberg Task","36","28068","38","yes","1024"
"94.87179487179488","94.87179487179488","736.2564102564103","736.2564102564103","black","experiment","legacy","legacy","legacy","0","uniform","1","undefined","1","left","38","38","0","38","38","38","0","0","38","0","38","0","0","38","38","Mon Oct 17 20:25:09 2022","The main experiment item","yes","SternbergTask.osexp","C:\Users\Melissa\OneDrive\Desktop\ADVANCED QUANT\LAB 3.1","no","mono","no","18","no","white","no","no","768","legacy","26","11","C:/Users/Melissa/OneDrive/Desktop/ADVANCED QUANT/LAB 3.2/MM-subject-4.1.csv","legacy","2 5 4 8 7","Lentiform Loewenfeld","3.3.12","3","y","0","left","left","left","NA","left","646","18147","6867","NA","646","2","legacy","5","1024","2","48000","-16","experiment","4","even","4","256983","258080","99519","258083","260289","250681","2250","92652","259084","20398","262290","NA","2247","262290","262936","Sternberg Task","37","28714","39","yes","1024"
"95","95","736.925","736.925","black","experiment","legacy","legacy","legacy","0","uniform","1","undefined","1","right","39","39","0","39","39","39","0","0","39","0","39","0","0","39","39","Mon Oct 17 20:25:09 2022","The main experiment item","yes","SternbergTask.osexp","C:\Users\Melissa\OneDrive\Desktop\ADVANCED QUANT\LAB 3.1","no","mono","no","18","no","white","no","no","768","legacy","27","11","C:/Users/Melissa/OneDrive/Desktop/ADVANCED QUANT/LAB 3.2/MM-subject-4.1.csv","legacy","8 4 3 9","Lentiform Loewenfeld","3.3.12","0","n","0","right","left","left","NA","right","763","18147","6867","NA","763","2","legacy","4","1024","2","48000","-16","experiment","4","even","5","262941","264037","99519","264039","266245","250681","2250","92652","265041","20398","268246","NA","2247","268246","269010","Sternberg Task","38","29477","40","yes","1024"
"95.1219512195122","95.1219512195122","735.7560975609756","735.7560975609756","black","experiment","legacy","legacy","legacy","0","uniform","1","undefined","1","right","40","40","0","40","40","40","0","0","40","0","40","0","0","40","40","Mon Oct 17 20:25:09 2022","The main experiment item","yes","SternbergTask.osexp","C:\Users\Melissa\OneDrive\Desktop\ADVANCED QUANT\LAB 3.1","no","mono","no","18","no","white","no","no","768","legacy","28","11","C:/Users/Melissa/OneDrive/Desktop/ADVANCED QUANT/LAB 3.2/MM-subject-4.1.csv","legacy","3 4 2","Lentiform Loewenfeld","3.3.12","0","n","0","right","left","left","NA","right","689","18147","6867","NA","689","2","legacy","3","1024","2","48000","-16","experiment","4","even","5","269023","270123","99519","270125","272330","250681","2250","92652","271126","20398","274331","NA","2247","274331","275020","Sternberg Task","39","30166","41","yes","1024"
"95.23809523809524","95.23809523809524","732.2142857142857","732.2142857142857","black","experiment","legacy","legacy","legacy","0","uniform","1","undefined","1","left","41","41","0","41","41","41","0","0","41","0","41","0","0","41","41","Mon Oct 17 20:25:09 2022","The main experiment item","yes","SternbergTask.osexp","C:\Users\Melissa\OneDrive\Desktop\ADVANCED QUANT\LAB 3.1","no","mono","no","18","no","white","no","no","768","legacy","29","11","C:/Users/Melissa/OneDrive/Desktop/ADVANCED QUANT/LAB 3.2/MM-subject-4.1.csv","legacy","7 6","Lentiform Loewenfeld","3.3.12","2","y","0","left","left","left","NA","left","587","18147","6867","NA","587","2","legacy","2","1024","2","48000","-16","experiment","4","even","6","275027","276129","99519","276131","278336","250681","2250","92652","277132","20398","280337","NA","2247","280337","280927","Sternberg Task","40","30753","42","yes","1024"
"95.34883720930233","95.34883720930233","731.8139534883721","731.8139534883721","black","experiment","legacy","legacy","legacy","0","uniform","1","undefined","1","left","42","42","0","42","42","42","0","0","42","0","42","0","0","42","42","Mon Oct 17 20:25:09 2022","The main experiment item","yes","SternbergTask.osexp","C:\Users\Melissa\OneDrive\Desktop\ADVANCED QUANT\LAB 3.1","no","mono","no","18","no","white","no","no","768","legacy","30","11","C:/Users/Melissa/OneDrive/Desktop/ADVANCED QUANT/LAB 3.2/MM-subject-4.1.csv","legacy","3 9 7 6 4","Lentiform Loewenfeld","3.3.12","3","y","0","left","left","left","NA","left","715","18147","6867","NA","715","2","legacy","5","1024","2","48000","-16","experiment","4","even","7","280932","282033","99519","282034","284239","250681","2250","92652","283035","20398","286240","NA","2247","286240","286955","Sternberg Task","41","31468","43","yes","1024"
"95.45454545454545","95.45454545454545","724.5909090909091","724.5909090909091","black","experiment","legacy","legacy","legacy","0","uniform","1","undefined","1","left","43","43","0","43","43","43","0","0","43","0","43","0","0","43","43","Mon Oct 17 20:25:09 2022","The main experiment item","yes","SternbergTask.osexp","C:\Users\Melissa\OneDrive\Desktop\ADVANCED QUANT\LAB 3.1","no","mono","no","18","no","white","no","no","768","legacy","31","11","C:/Users/Melissa/OneDrive/Desktop/ADVANCED QUANT/LAB 3.2/MM-subject-4.1.csv","legacy","3 5 7 1","Lentiform Loewenfeld","3.3.12","3","y","0","left","left","left","NA","left","414","18147","6867","NA","414","2","legacy","4","1024","2","48000","-16","experiment","4","even","7","286962","288065","99519","288066","290271","250681","2250","92652","289067","20398","292272","NA","2247","292272","292687","Sternberg Task","42","31882","44","yes","1024"
"95.55555555555556","95.55555555555556","718.4666666666667","718.4666666666667","black","experiment","legacy","legacy","legacy","0","uniform","1","undefined","1","left","44","44","0","44","44","44","0","0","44","0","44","0","0","44","44","Mon Oct 17 20:25:09 2022","The main experiment item","yes","SternbergTask.osexp","C:\Users\Melissa\OneDrive\Desktop\ADVANCED QUANT\LAB 3.1","no","mono","no","18","no","white","no","no","768","legacy","32","11","C:/Users/Melissa/OneDrive/Desktop/ADVANCED QUANT/LAB 3.2/MM-subject-4.1.csv","legacy","6 2","Lentiform Loewenfeld","3.3.12","1","y","0","left","left","left","NA","left","449","18147","6867","NA","449","2","legacy","2","1024","2","48000","-16","experiment","4","even","6","292694","293792","99519","293793","296005","250681","2250","92652","294801","20398","298006","NA","2247","298006","298456","Sternberg Task","43","32331","45","yes","1024"
"95.65217391304348","95.65217391304348","716.5","716.5","black","experiment","legacy","legacy","legacy","0","uniform","1","undefined","1","right","45","45","0","45","45","45","0","0","45","0","45","0","0","45","45","Mon Oct 17 20:25:09 2022","The main experiment item","yes","SternbergTask.osexp","C:\Users\Melissa\OneDrive\Desktop\ADVANCED QUANT\LAB 3.1","no","mono","no","18","no","white","no","no","768","legacy","33","11","C:/Users/Melissa/OneDrive/Desktop/ADVANCED QUANT/LAB 3.2/MM-subject-4.1.csv","legacy","8 4 3 5","Lentiform Loewenfeld","3.3.12","0","n","0","right","left","left","NA","right","628","18147","6867","NA","628","2","legacy","4","1024","2","48000","-16","experiment","4","even","6","298462","299567","99519","299568","301777","250681","2250","92652","300573","20398","303778","NA","2247","303778","304408","Sternberg Task","44","32959","46","yes","1024"
"95.74468085106383","95.74468085106383","717.2765957446809","717.2765957446809","black","experiment","legacy","legacy","legacy","0","uniform","1","undefined","1","left","46","46","0","46","46","46","0","0","46","0","46","0","0","46","46","Mon Oct 17 20:25:09 2022","The main experiment item","yes","SternbergTask.osexp","C:\Users\Melissa\OneDrive\Desktop\ADVANCED QUANT\LAB 3.1","no","mono","no","18","no","white","no","no","768","legacy","34","11","C:/Users/Melissa/OneDrive/Desktop/ADVANCED QUANT/LAB 3.2/MM-subject-4.1.csv","legacy","4 6 2 5 1","Lentiform Loewenfeld","3.3.12","5","y","0","left","left","left","NA","left","753","18147","6867","NA","753","2","legacy","5","1024","2","48000","-16","experiment","4","even","1","304417","305524","99519","305526","307731","250681","2250","92652","306527","20398","309732","NA","2247","309732","310486","Sternberg Task","45","33712","47","yes","1024"
"95.83333333333333","95.83333333333333","712.4375","712.4375","black","experiment","legacy","legacy","legacy","0","uniform","1","undefined","1","left","47","47","0","47","47","47","0","0","47","0","47","0","0","47","47","Mon Oct 17 20:25:09 2022","The main experiment item","yes","SternbergTask.osexp","C:\Users\Melissa\OneDrive\Desktop\ADVANCED QUANT\LAB 3.1","no","mono","no","18","no","white","no","no","768","legacy","35","11","C:/Users/Melissa/OneDrive/Desktop/ADVANCED QUANT/LAB 3.2/MM-subject-4.1.csv","legacy","5 7 3 6 2","Lentiform Loewenfeld","3.3.12","5","y","0","left","left","left","NA","left","485","18147","6867","NA","485","2","legacy","5","1024","2","48000","-16","experiment","4","even","2","310503","311606","99519","311608","313817","250681","2250","92652","312612","20398","315818","NA","2247","315818","316304","Sternberg Task","46","34197","48","yes","1024"
"95.91836734693878","95.91836734693878","716.265306122449","716.265306122449","black","experiment","legacy","legacy","legacy","0","uniform","1","undefined","1","left","48","48","0","48","48","48","0","0","48","0","48","0","0","48","48","Mon Oct 17 20:25:09 2022","The main experiment item","yes","SternbergTask.osexp","C:\Users\Melissa\OneDrive\Desktop\ADVANCED QUANT\LAB 3.1","no","mono","no","18","no","white","no","no","768","legacy","36","11","C:/Users/Melissa/OneDrive/Desktop/ADVANCED QUANT/LAB 3.2/MM-subject-4.1.csv","legacy","3 5 9 6 2 4","Lentiform Loewenfeld","3.3.12","1","y","0","left","left","left","NA","left","900","18147","6867","NA","900","2","legacy","6","1024","2","48000","-16","experiment","4","even","3","316312","317411","99519","317412","319617","250681","2250","92652","318413","20398","321618","NA","2247","321618","322519","Sternberg Task","47","35097","49","yes","1024"
"96","96","738.68","738.68","black","experiment","legacy","legacy","legacy","0","uniform","1","undefined","1","left","49","49","0","49","49","49","0","0","49","0","49","0","0","49","49","Mon Oct 17 20:25:09 2022","The main experiment item","yes","SternbergTask.osexp","C:\Users\Melissa\OneDrive\Desktop\ADVANCED QUANT\LAB 3.1","no","mono","no","18","no","white","no","no","768","legacy","37","11","C:/Users/Melissa/OneDrive/Desktop/ADVANCED QUANT/LAB 3.2/MM-subject-4.1.csv","legacy","6 8 9 3 4 9","Lentiform Loewenfeld","3.3.12","5","y","0","left","left","left","NA","left","1837","18147","6867","NA","1837","2","legacy","6","1024","2","48000","-16","experiment","4","even","4","322525","323620","99519","323622","325826","250681","2250","92652","324623","20398","327827","NA","2247","327827","329664","Sternberg Task","48","36934","50","yes","1024"
"96.07843137254902","96.07843137254902","737.4313725490196","737.4313725490196","black","experiment","legacy","legacy","legacy","0","uniform","1","undefined","1","right","50","50","0","50","50","50","0","0","50","0","50","0","0","50","50","Mon Oct 17 20:25:09 2022","The main experiment item","yes","SternbergTask.osexp","C:\Users\Melissa\OneDrive\Desktop\ADVANCED QUANT\LAB 3.1","no","mono","no","18","no","white","no","no","768","legacy","38","11","C:/Users/Melissa/OneDrive/Desktop/ADVANCED QUANT/LAB 3.2/MM-subject-4.1.csv","legacy","7 6 4 8 1 2","Lentiform Loewenfeld","3.3.12","0","n","0","right","left","left","NA","right","675","18147","6867","NA","675","2","legacy","6","1024","2","48000","-16","experiment","4","even","9","329678","330800","99519","330802","333010","250681","2250","92652","331807","20398","335011","NA","2247","335011","335686","Sternberg Task","49","37609","51","yes","1024"
"96.15384615384616","96.15384615384616","740.5769230769231","740.5769230769231","black","experiment","legacy","legacy","legacy","0","uniform","1","undefined","1","left","51","51","0","51","51","51","0","0","51","0","51","0","0","51","51","Mon Oct 17 20:25:09 2022","The main experiment item","yes","SternbergTask.osexp","C:\Users\Melissa\OneDrive\Desktop\ADVANCED QUANT\LAB 3.1","no","mono","no","18","no","white","no","no","768","legacy","39","11","C:/Users/Melissa/OneDrive/Desktop/ADVANCED QUANT/LAB 3.2/MM-subject-4.1.csv","legacy","9 8 4","Lentiform Loewenfeld","3.3.12","1","y","0","left","left","left","NA","left","901","18147","6867","NA","901","2","legacy","3","1024","2","48000","-16","experiment","4","even","9","335693","336794","99519","336796","339006","250681","2250","92652","337802","20398","341007","NA","2247","341007","341908","Sternberg Task","50","38510","52","yes","1024"
"96.22641509433963","96.22641509433963","742.4528301886793","742.4528301886793","black","experiment","legacy","legacy","legacy","0","uniform","1","undefined","1","right","52","52","0","52","52","52","0","0","52","0","52","0","0","52","52","Mon Oct 17 20:25:09 2022","The main experiment item","yes","SternbergTask.osexp","C:\Users\Melissa\OneDrive\Desktop\ADVANCED QUANT\LAB 3.1","no","mono","no","18","no","white","no","no","768","legacy","40","11","C:/Users/Melissa/OneDrive/Desktop/ADVANCED QUANT/LAB 3.2/MM-subject-4.1.csv","legacy","8 5 7 3 6","Lentiform Loewenfeld","3.3.12","0","n","0","right","left","left","NA","right","840","18147","6867","NA","840","2","legacy","5","1024","2","48000","-16","experiment","4","even","9","341915","343010","99519","343012","345217","250681","2250","92652","344013","20398","347218","NA","2247","347218","348058","Sternberg Task","51","39350","53","yes","1024"
"96.29629629629629","96.29629629629629","744.8703703703703","744.8703703703703","black","experiment","legacy","legacy","legacy","0","uniform","1","undefined","1","right","53","53","0","53","53","53","0","0","53","0","53","0","0","53","53","Mon Oct 17 20:25:09 2022","The main experiment item","yes","SternbergTask.osexp","C:\Users\Melissa\OneDrive\Desktop\ADVANCED QUANT\LAB 3.1","no","mono","no","18","no","white","no","no","768","legacy","41","11","C:/Users/Melissa/OneDrive/Desktop/ADVANCED QUANT/LAB 3.2/MM-subject-4.1.csv","legacy","2 8 7 9 5 3","Lentiform Loewenfeld","3.3.12","0","n","0","right","left","left","NA","right","873","18147","6867","NA","873","2","legacy","6","1024","2","48000","-16","experiment","4","even","6","348070","349164","99519","349166","351372","250681","2250","92652","350168","20398","353373","NA","2247","353373","354247","Sternberg Task","52","40223","54","yes","1024"
"96.36363636363636","96.36363636363636","741.4727272727273","741.4727272727273","black","experiment","legacy","legacy","legacy","0","uniform","1","undefined","1","left","54","54","0","54","54","54","0","0","54","0","54","0","0","54","54","Mon Oct 17 20:25:09 2022","The main experiment item","yes","SternbergTask.osexp","C:\Users\Melissa\OneDrive\Desktop\ADVANCED QUANT\LAB 3.1","no","mono","no","18","no","white","no","no","768","legacy","42","11","C:/Users/Melissa/OneDrive/Desktop/ADVANCED QUANT/LAB 3.2/MM-subject-4.1.csv","legacy","4 7 6 8 2 3","Lentiform Loewenfeld","3.3.12","6","y","0","left","left","left","NA","left","558","18147","6867","NA","558","2","legacy","6","1024","2","48000","-16","experiment","4","even","3","354254","355348","99519","355350","357555","250681","2250","92652","356351","20398","359556","NA","2247","359556","360114","Sternberg Task","53","40781","55","yes","1024"
"96.42857142857143","96.42857142857143","739.375","739.375","black","experiment","legacy","legacy","legacy","0","uniform","1","undefined","1","right","55","55","0","55","55","55","0","0","55","0","55","0","0","55","55","Mon Oct 17 20:25:09 2022","The main experiment item","yes","SternbergTask.osexp","C:\Users\Melissa\OneDrive\Desktop\ADVANCED QUANT\LAB 3.1","no","mono","no","18","no","white","no","no","768","legacy","43","11","C:/Users/Melissa/OneDrive/Desktop/ADVANCED QUANT/LAB 3.2/MM-subject-4.1.csv","legacy","3 9 8 1 6 4","Lentiform Loewenfeld","3.3.12","0","n","0","right","left","left","NA","right","624","18147","6867","NA","624","2","legacy","6","1024","2","48000","-16","experiment","4","even","7","360122","361215","99519","361216","363423","250681","2250","92652","362218","20398","365425","NA","2247","365425","366050","Sternberg Task","54","41405","56","yes","1024"
"96.49122807017544","96.49122807017544","738.8070175438596","738.8070175438596","black","experiment","legacy","legacy","legacy","0","uniform","1","undefined","1","right","56","56","0","56","56","56","0","0","56","0","56","0","0","56","56","Mon Oct 17 20:25:09 2022","The main experiment item","yes","SternbergTask.osexp","C:\Users\Melissa\OneDrive\Desktop\ADVANCED QUANT\LAB 3.1","no","mono","no","18","no","white","no","no","768","legacy","44","11","C:/Users/Melissa/OneDrive/Desktop/ADVANCED QUANT/LAB 3.2/MM-subject-4.1.csv","legacy","8 6 3 4 7","Lentiform Loewenfeld","3.3.12","0","n","0","right","left","left","NA","right","707","18147","6867","NA","707","2","legacy","5","1024","2","48000","-16","experiment","4","even","1","366055","367159","99519","367161","369366","250681","2250","92652","368162","20398","371368","NA","2247","371368","372076","Sternberg Task","55","42112","57","yes","1024"
"96.55172413793103","96.55172413793103","738.8620689655172","738.8620689655172","black","experiment","legacy","legacy","legacy","0","uniform","1","undefined","1","left","57","57","0","57","57","57","0","0","57","0","57","0","0","57","57","Mon Oct 17 20:25:09 2022","The main experiment item","yes","SternbergTask.osexp","C:\Users\Melissa\OneDrive\Desktop\ADVANCED QUANT\LAB 3.1","no","mono","no","18","no","white","no","no","768","legacy","45","11","C:/Users/Melissa/OneDrive/Desktop/ADVANCED QUANT/LAB 3.2/MM-subject-4.1.csv","legacy","9 4 2","Lentiform Loewenfeld","3.3.12","1","y","0","left","left","left","NA","left","742","18147","6867","NA","742","2","legacy","3","1024","2","48000","-16","experiment","4","even","9","372082","373177","99519","373179","375384","250681","2250","92652","374180","20398","377385","NA","2247","377385","378127","Sternberg Task","56","42854","58","yes","1024"
"96.61016949152543","96.61016949152543","740.4406779661017","740.4406779661017","black","experiment","legacy","legacy","legacy","0","uniform","1","undefined","1","right","58","58","0","58","58","58","0","0","58","0","58","0","0","58","58","Mon Oct 17 20:25:09 2022","The main experiment item","yes","SternbergTask.osexp","C:\Users\Melissa\OneDrive\Desktop\ADVANCED QUANT\LAB 3.1","no","mono","no","18","no","white","no","no","768","legacy","46","11","C:/Users/Melissa/OneDrive/Desktop/ADVANCED QUANT/LAB 3.2/MM-subject-4.1.csv","legacy","2 8 9","Lentiform Loewenfeld","3.3.12","0","n","0","right","left","left","NA","right","832","18147","6867","NA","832","2","legacy","3","1024","2","48000","-16","experiment","4","even","6","378132","379228","99519","379229","381435","250681","2250","92652","380231","20398","383436","NA","2247","383436","384268","Sternberg Task","57","43686","59","yes","1024"
"96.66666666666667","96.66666666666667","744.65","744.65","black","experiment","legacy","legacy","legacy","0","uniform","1","undefined","1","right","59","59","0","59","59","59","0","0","59","0","59","0","0","59","59","Mon Oct 17 20:25:09 2022","The main experiment item","yes","SternbergTask.osexp","C:\Users\Melissa\OneDrive\Desktop\ADVANCED QUANT\LAB 3.1","no","mono","no","18","no","white","no","no","768","legacy","47","11","C:/Users/Melissa/OneDrive/Desktop/ADVANCED QUANT/LAB 3.2/MM-subject-4.1.csv","legacy","5 3 8 7 2 4","Lentiform Loewenfeld","3.3.12","0","n","0","right","left","left","NA","right","993","18147","6867","NA","993","2","legacy","6","1024","2","48000","-16","experiment","4","even","9","384272","385398","99519","385399","387603","250681","2250","92652","386401","20398","389605","NA","2247","389605","390599","Sternberg Task","58","44679","60","yes","1024"
"96.72131147540983","96.72131147540983","742.1475409836065","742.1475409836065","black","experiment","legacy","legacy","legacy","0","uniform","1","undefined","1","left","60","60","0","60","60","60","0","0","60","0","60","0","0","60","60","Mon Oct 17 20:25:09 2022","The main experiment item","yes","SternbergTask.osexp","C:\Users\Melissa\OneDrive\Desktop\ADVANCED QUANT\LAB 3.1","no","mono","no","18","no","white","no","no","768","legacy","48","11","C:/Users/Melissa/OneDrive/Desktop/ADVANCED QUANT/LAB 3.2/MM-subject-4.1.csv","legacy","9 1 7 2","Lentiform Loewenfeld","3.3.12","2","y","0","left","left","left","NA","left","592","18147","6867","NA","592","2","legacy","4","1024","2","48000","-16","experiment","4","even","1","390618","391737","99519","391739","393944","250681","2250","92652","392740","20398","395945","NA","2247","395945","396538","Sternberg Task","59","45271","61","yes","1024"
"96.7741935483871","96.7741935483871","739.0967741935484","739.0967741935484","black","experiment","legacy","legacy","legacy","0","uniform","1","undefined","1","right","61","61","0","61","61","61","0","0","61","0","61","0","0","61","61","Mon Oct 17 20:25:09 2022","The main experiment item","yes","SternbergTask.osexp","C:\Users\Melissa\OneDrive\Desktop\ADVANCED QUANT\LAB 3.1","no","mono","no","18","no","white","no","no","768","legacy","49","11","C:/Users/Melissa/OneDrive/Desktop/ADVANCED QUANT/LAB 3.2/MM-subject-4.1.csv","legacy","1","Lentiform Loewenfeld","3.3.12","0","n","0","right","left","left","NA","right","553","18147","6867","NA","553","2","legacy","1","1024","2","48000","-16","experiment","4","even","7","396543","397647","99519","397649","399858","250681","2250","92652","398653","20398","401859","NA","2247","401859","402413","Sternberg Task","60","45824","62","yes","1024"
"96.82539682539682","96.82539682539682","737.031746031746","737.031746031746","black","experiment","legacy","legacy","legacy","0","uniform","1","undefined","1","right","62","62","0","62","62","62","0","0","62","0","62","0","0","62","62","Mon Oct 17 20:25:09 2022","The main experiment item","yes","SternbergTask.osexp","C:\Users\Melissa\OneDrive\Desktop\ADVANCED QUANT\LAB 3.1","no","mono","no","18","no","white","no","no","768","legacy","50","11","C:/Users/Melissa/OneDrive/Desktop/ADVANCED QUANT/LAB 3.2/MM-subject-4.1.csv","legacy","5 9 2 3","Lentiform Loewenfeld","3.3.12","0","n","0","right","left","left","NA","right","609","18147","6867","NA","609","2","legacy","4","1024","2","48000","-16","experiment","4","even","8","402418","403523","99519","403525","405731","250681","2250","92652","404526","20398","407732","NA","2247","407732","408342","Sternberg Task","61","46433","63","yes","1024"
"96.875","96.875","739.265625","739.265625","black","experiment","legacy","legacy","legacy","0","uniform","1","undefined","1","left","63","63","0","63","63","63","0","0","63","0","63","0","0","63","63","Mon Oct 17 20:25:09 2022","The main experiment item","yes","SternbergTask.osexp","C:\Users\Melissa\OneDrive\Desktop\ADVANCED QUANT\LAB 3.1","no","mono","no","18","no","white","no","no","768","legacy","51","11","C:/Users/Melissa/OneDrive/Desktop/ADVANCED QUANT/LAB 3.2/MM-subject-4.1.csv","legacy","5 7 8 2 3 8","Lentiform Loewenfeld","3.3.12","5","y","0","left","left","left","NA","left","880","18147","6867","NA","880","2","legacy","6","1024","2","48000","-16","experiment","4","even","3","408348","409451","99519","409453","411656","250681","2250","92652","410454","20398","413657","NA","2247","413657","414538","Sternberg Task","62","47313","64","yes","1024"
"96.92307692307692","96.92307692307692","738.9076923076923","738.9076923076923","black","experiment","legacy","legacy","legacy","0","uniform","1","undefined","1","right","64","64","0","64","64","64","0","0","64","0","64","0","0","64","64","Mon Oct 17 20:25:09 2022","The main experiment item","yes","SternbergTask.osexp","C:\Users\Melissa\OneDrive\Desktop\ADVANCED QUANT\LAB 3.1","no","mono","no","18","no","white","no","no","768","legacy","52","11","C:/Users/Melissa/OneDrive/Desktop/ADVANCED QUANT/LAB 3.2/MM-subject-4.1.csv","legacy","6 9 7 3 8 2","Lentiform Loewenfeld","3.3.12","0","n","0","right","left","left","NA","right","716","18147","6867","NA","716","2","legacy","6","1024","2","48000","-16","experiment","4","even","5","414549","415646","99519","415648","417854","250681","2250","92652","416650","20398","419855","NA","2247","419855","420572","Sternberg Task","63","48029","65","yes","1024"
"96.96969696969697","96.96969696969697","732.969696969697","732.969696969697","black","experiment","legacy","legacy","legacy","0","uniform","1","undefined","1","left","65","65","0","65","65","65","0","0","65","0","65","0","0","65","65","Mon Oct 17 20:25:09 2022","The main experiment item","yes","SternbergTask.osexp","C:\Users\Melissa\OneDrive\Desktop\ADVANCED QUANT\LAB 3.1","no","mono","no","18","no","white","no","no","768","legacy","53","11","C:/Users/Melissa/OneDrive/Desktop/ADVANCED QUANT/LAB 3.2/MM-subject-4.1.csv","legacy","2 3","Lentiform Loewenfeld","3.3.12","1","y","0","left","left","left","NA","left","347","18147","6867","NA","347","2","legacy","2","1024","2","48000","-16","experiment","4","even","2","420578","421673","99519","421675","423881","250681","2250","92652","422676","20398","425882","NA","2247","425882","426230","Sternberg Task","64","48376","66","yes","1024"
"97.01492537313433","97.01492537313433","730.6567164179105","730.6567164179105","black","experiment","legacy","legacy","legacy","0","uniform","1","undefined","1","right","66","66","0","66","66","66","0","0","66","0","66","0","0","66","66","Mon Oct 17 20:25:09 2022","The main experiment item","yes","SternbergTask.osexp","C:\Users\Melissa\OneDrive\Desktop\ADVANCED QUANT\LAB 3.1","no","mono","no","18","no","white","no","no","768","legacy","54","11","C:/Users/Melissa/OneDrive/Desktop/ADVANCED QUANT/LAB 3.2/MM-subject-4.1.csv","legacy","7 9 1 6","Lentiform Loewenfeld","3.3.12","0","n","0","right","left","left","NA","right","578","18147","6867","NA","578","2","legacy","4","1024","2","48000","-16","experiment","4","even","4","426239","427335","99519","427337","429541","250681","2250","92652","428338","20398","431542","NA","2247","431542","432121","Sternberg Task","65","48954","67","yes","1024"
"97.05882352941177","97.05882352941177","729.1470588235294","729.1470588235294","black","experiment","legacy","legacy","legacy","0","uniform","1","undefined","1","left","67","67","0","67","67","67","0","0","67","0","67","0","0","67","67","Mon Oct 17 20:25:09 2022","The main experiment item","yes","SternbergTask.osexp","C:\Users\Melissa\OneDrive\Desktop\ADVANCED QUANT\LAB 3.1","no","mono","no","18","no","white","no","no","768","legacy","55","11","C:/Users/Melissa/OneDrive/Desktop/ADVANCED QUANT/LAB 3.2/MM-subject-4.1.csv","legacy","6 5","Lentiform Loewenfeld","3.3.12","2","y","0","left","left","left","NA","left","628","18147","6867","NA","628","2","legacy","2","1024","2","48000","-16","experiment","4","even","5","432125","433220","99519","433222","435428","250681","2250","92652","434223","20398","437433","NA","2247","437433","438062","Sternberg Task","66","49582","68","yes","1024"
"97.10144927536231","97.10144927536231","727.4492753623189","727.4492753623189","black","experiment","legacy","legacy","legacy","0","uniform","1","undefined","1","right","68","68","0","68","68","68","0","0","68","0","68","0","0","68","68","Mon Oct 17 20:25:09 2022","The main experiment item","yes","SternbergTask.osexp","C:\Users\Melissa\OneDrive\Desktop\ADVANCED QUANT\LAB 3.1","no","mono","no","18","no","white","no","no","768","legacy","56","11","C:/Users/Melissa/OneDrive/Desktop/ADVANCED QUANT/LAB 3.2/MM-subject-4.1.csv","legacy","2 5 1 4","Lentiform Loewenfeld","3.3.12","0","n","0","right","left","left","NA","right","612","18147","6867","NA","612","2","legacy","4","1024","2","48000","-16","experiment","4","even","6","438068","439164","99519","439165","441370","250681","2250","92652","440166","20398","443371","NA","2247","443371","443984","Sternberg Task","67","50194","69","yes","1024"
"97.14285714285714","97.14285714285714","721.7","721.7","black","experiment","legacy","legacy","legacy","0","uniform","1","undefined","1","left","69","69","0","69","69","69","0","0","69","0","69","0","0","69","69","Mon Oct 17 20:25:09 2022","The main experiment item","yes","SternbergTask.osexp","C:\Users\Melissa\OneDrive\Desktop\ADVANCED QUANT\LAB 3.1","no","mono","no","18","no","white","no","no","768","legacy","57","11","C:/Users/Melissa/OneDrive/Desktop/ADVANCED QUANT/LAB 3.2/MM-subject-4.1.csv","legacy","4","Lentiform Loewenfeld","3.3.12","1","y","0","left","left","left","NA","left","325","18147","6867","NA","325","2","legacy","1","1024","2","48000","-16","experiment","4","even","4","443988","445099","99519","445100","447308","250681","2250","92652","446103","20398","449309","NA","2247","449309","449635","Sternberg Task","68","50519","70","yes","1024"
"97.1830985915493","97.1830985915493","719.112676056338","719.112676056338","black","experiment","legacy","legacy","legacy","0","uniform","1","undefined","1","right","70","70","0","70","70","70","0","0","70","0","70","0","0","70","70","Mon Oct 17 20:25:09 2022","The main experiment item","yes","SternbergTask.osexp","C:\Users\Melissa\OneDrive\Desktop\ADVANCED QUANT\LAB 3.1","no","mono","no","18","no","white","no","no","768","legacy","58","11","C:/Users/Melissa/OneDrive/Desktop/ADVANCED QUANT/LAB 3.2/MM-subject-4.1.csv","legacy","6 9 4 5 2","Lentiform Loewenfeld","3.3.12","0","n","0","right","left","left","NA","right","538","18147","6867","NA","538","2","legacy","5","1024","2","48000","-16","experiment","4","even","1","449640","450736","99519","450738","452947","250681","2250","92652","451743","20398","454948","NA","2247","454948","455487","Sternberg Task","69","51057","71","yes","1024"
"97.22222222222223","97.22222222222223","718.6388888888889","718.6388888888889","black","experiment","legacy","legacy","legacy","0","uniform","1","undefined","1","right","71","71","0","71","71","71","0","0","71","0","71","0","0","71","71","Mon Oct 17 20:25:09 2022","The main experiment item","yes","SternbergTask.osexp","C:\Users\Melissa\OneDrive\Desktop\ADVANCED QUANT\LAB 3.1","no","mono","no","18","no","white","no","no","768","legacy","59","11","C:/Users/Melissa/OneDrive/Desktop/ADVANCED QUANT/LAB 3.2/MM-subject-4.1.csv","legacy","5 7 3","Lentiform Loewenfeld","3.3.12","0","n","0","right","left","left","NA","right","685","18147","6867","NA","685","2","legacy","3","1024","2","48000","-16","experiment","4","even","9","455498","456598","99519","456599","458805","250681","2250","92652","457601","20398","460806","NA","2247","460806","461492","Sternberg Task","70","51742","72","yes","1024"
"97.26027397260275","97.26027397260275","715.4520547945206","715.4520547945206","black","experiment","legacy","legacy","legacy","0","uniform","1","undefined","1","left","72","72","0","72","72","72","0","0","72","0","72","0","0","72","72","Mon Oct 17 20:25:09 2022","The main experiment item","yes","SternbergTask.osexp","C:\Users\Melissa\OneDrive\Desktop\ADVANCED QUANT\LAB 3.1","no","mono","no","18","no","white","no","no","768","legacy","60","11","C:/Users/Melissa/OneDrive/Desktop/ADVANCED QUANT/LAB 3.2/MM-subject-4.1.csv","legacy","4 3 2 5 8","Lentiform Loewenfeld","3.3.12","2","y","0","left","left","left","NA","left","486","18147","6867","NA","486","2","legacy","5","1024","2","48000","-16","experiment","4","even","3","461496","462598","99519","462600","464805","250681","2250","92652","463601","20398","466807","NA","2247","466807","467294","Sternberg Task","71","52228","73","yes","1024"
"97.29729729729729","97.29729729729729","724.6486486486486","724.6486486486486","black","experiment","legacy","legacy","legacy","0","uniform","1","undefined","1","right","73","73","0","73","73","73","0","0","73","0","73","0","0","73","73","Mon Oct 17 20:25:09 2022","The main experiment item","yes","SternbergTask.osexp","C:\Users\Melissa\OneDrive\Desktop\ADVANCED QUANT\LAB 3.1","no","mono","no","18","no","white","no","no","768","legacy","61","11","C:/Users/Melissa/OneDrive/Desktop/ADVANCED QUANT/LAB 3.2/MM-subject-4.1.csv","legacy","1 5 3 2 8","Lentiform Loewenfeld","3.3.12","0","n","0","right","left","left","NA","right","1396","18147","6867","NA","1396","2","legacy","5","1024","2","48000","-16","experiment","4","even","4","467311","468407","99519","468409","470618","250681","2250","92652","469414","20398","472619","NA","2247","472619","474016","Sternberg Task","72","53624","74","yes","1024"
"97.33333333333333","97.33333333333333","722.8666666666667","722.8666666666667","black","experiment","legacy","legacy","legacy","0","uniform","1","undefined","1","right","74","74","0","74","74","74","0","0","74","0","74","0","0","74","74","Mon Oct 17 20:25:09 2022","The main experiment item","yes","SternbergTask.osexp","C:\Users\Melissa\OneDrive\Desktop\ADVANCED QUANT\LAB 3.1","no","mono","no","18","no","white","no","no","768","legacy","62","11","C:/Users/Melissa/OneDrive/Desktop/ADVANCED QUANT/LAB 3.2/MM-subject-4.1.csv","legacy","2 8 6 3 1","Lentiform Loewenfeld","3.3.12","0","n","0","right","left","left","NA","right","591","18147","6867","NA","591","2","legacy","5","1024","2","48000","-16","experiment","4","even","7","474020","475137","99519","475139","477347","250681","2250","92652","476144","20398","479349","NA","2247","479349","479941","Sternberg Task","73","54215","75","yes","1024"
"97.36842105263158","97.36842105263158","719.671052631579","719.671052631579","black","experiment","legacy","legacy","legacy","0","uniform","1","undefined","1","left","75","75","0","75","75","75","0","0","75","0","75","0","0","75","75","Mon Oct 17 20:25:09 2022","The main experiment item","yes","SternbergTask.osexp","C:\Users\Melissa\OneDrive\Desktop\ADVANCED QUANT\LAB 3.1","no","mono","no","18","no","white","no","no","768","legacy","63","11","C:/Users/Melissa/OneDrive/Desktop/ADVANCED QUANT/LAB 3.2/MM-subject-4.1.csv","legacy","2 4 8 5 1 3","Lentiform Loewenfeld","3.3.12","1","y","0","left","left","left","NA","left","480","18147","6867","NA","480","2","legacy","6","1024","2","48000","-16","experiment","4","even","2","479947","481054","99519","481056","483262","250681","2250","92652","482058","20398","485263","NA","2247","485263","485744","Sternberg Task","74","54695","76","yes","1024"
"97.40259740259741","97.40259740259741","719.7662337662338","719.7662337662338","black","experiment","legacy","legacy","legacy","0","uniform","1","undefined","1","left","76","76","0","76","76","76","0","0","76","0","76","0","0","76","76","Mon Oct 17 20:25:09 2022","The main experiment item","yes","SternbergTask.osexp","C:\Users\Melissa\OneDrive\Desktop\ADVANCED QUANT\LAB 3.1","no","mono","no","18","no","white","no","no","768","legacy","64","11","C:/Users/Melissa/OneDrive/Desktop/ADVANCED QUANT/LAB 3.2/MM-subject-4.1.csv","legacy","7 1 8 5 6 2","Lentiform Loewenfeld","3.3.12","2","y","0","left","left","left","NA","left","727","18147","6867","NA","727","2","legacy","6","1024","2","48000","-16","experiment","4","even","1","485749","486847","99519","486849","489059","250681","2250","92652","487854","20398","491060","NA","2247","491060","491787","Sternberg Task","75","55422","77","yes","1024"
"97.43589743589743","97.43589743589743","718.0769230769231","718.0769230769231","black","experiment","legacy","legacy","legacy","0","uniform","1","undefined","1","left","77","77","0","77","77","77","0","0","77","0","77","0","0","77","77","Mon Oct 17 20:25:09 2022","The main experiment item","yes","SternbergTask.osexp","C:\Users\Melissa\OneDrive\Desktop\ADVANCED QUANT\LAB 3.1","no","mono","no","18","no","white","no","no","768","legacy","65","11","C:/Users/Melissa/OneDrive/Desktop/ADVANCED QUANT/LAB 3.2/MM-subject-4.1.csv","legacy","4 1 8 7 5","Lentiform Loewenfeld","3.3.12","3","y","0","left","left","left","NA","left","588","18147","6867","NA","588","2","legacy","5","1024","2","48000","-16","experiment","4","even","8","491793","492893","99519","492894","495100","250681","2250","92652","493896","20398","497101","NA","2247","497101","497690","Sternberg Task","76","56010","78","yes","1024"
"97.46835443037975","97.46835443037975","716.3924050632911","716.3924050632911","black","experiment","legacy","legacy","legacy","0","uniform","1","undefined","1","right","78","78","0","78","78","78","0","0","78","0","78","0","0","78","78","Mon Oct 17 20:25:09 2022","The main experiment item","yes","SternbergTask.osexp","C:\Users\Melissa\OneDrive\Desktop\ADVANCED QUANT\LAB 3.1","no","mono","no","18","no","white","no","no","768","legacy","66","11","C:/Users/Melissa/OneDrive/Desktop/ADVANCED QUANT/LAB 3.2/MM-subject-4.1.csv","legacy","6 2 9 3 8 4","Lentiform Loewenfeld","3.3.12","0","n","0","right","left","left","NA","right","585","18147","6867","NA","585","2","legacy","6","1024","2","48000","-16","experiment","4","even","1","497696","498791","99519","498792","501001","250681","2250","92652","499797","20398","503002","NA","2247","503002","503588","Sternberg Task","77","56595","79","yes","1024"
"97.5","97.5","716.1","716.1","black","experiment","legacy","legacy","legacy","0","uniform","1","undefined","1","right","79","79","0","79","79","79","0","0","79","0","79","0","0","79","79","Mon Oct 17 20:25:09 2022","The main experiment item","yes","SternbergTask.osexp","C:\Users\Melissa\OneDrive\Desktop\ADVANCED QUANT\LAB 3.1","no","mono","no","18","no","white","no","no","768","legacy","67","11","C:/Users/Melissa/OneDrive/Desktop/ADVANCED QUANT/LAB 3.2/MM-subject-4.1.csv","legacy","1 4 9 2 5","Lentiform Loewenfeld","3.3.12","0","n","0","right","left","left","NA","right","693","18147","6867","NA","693","2","legacy","5","1024","2","48000","-16","experiment","4","even","7","503593","504690","99519","504691","506897","250681","2250","92652","505694","20398","508898","NA","2247","508898","509592","Sternberg Task","78","57288","80","yes","1024"
"97.53086419753086","97.53086419753086","717.5432098765432","717.5432098765432","black","experiment","legacy","legacy","legacy","0","uniform","1","undefined","1","right","80","80","0","80","80","80","0","0","80","0","80","0","0","80","80","Mon Oct 17 20:25:09 2022","The main experiment item","yes","SternbergTask.osexp","C:\Users\Melissa\OneDrive\Desktop\ADVANCED QUANT\LAB 3.1","no","mono","no","18","no","white","no","no","768","legacy","68","11","C:/Users/Melissa/OneDrive/Desktop/ADVANCED QUANT/LAB 3.2/MM-subject-4.1.csv","legacy","4 2 6 9","Lentiform Loewenfeld","3.3.12","0","n","0","right","left","left","NA","right","833","18147","6867","NA","833","2","legacy","4","1024","2","48000","-16","experiment","4","even","7","509598","510695","99519","510696","512901","250681","2250","92652","511697","20398","514902","NA","2247","514902","515736","Sternberg Task","79","58121","81","yes","1024"
"97.5609756097561","97.5609756097561","716.4878048780488","716.4878048780488","black","experiment","legacy","legacy","legacy","0","uniform","1","undefined","1","right","81","81","0","81","81","81","0","0","81","0","81","0","0","81","81","Mon Oct 17 20:25:09 2022","The main experiment item","yes","SternbergTask.osexp","C:\Users\Melissa\OneDrive\Desktop\ADVANCED QUANT\LAB 3.1","no","mono","no","18","no","white","no","no","768","legacy","69","11","C:/Users/Melissa/OneDrive/Desktop/ADVANCED QUANT/LAB 3.2/MM-subject-4.1.csv","legacy","5 2","Lentiform Loewenfeld","3.3.12","0","n","0","right","left","left","NA","right","631","18147","6867","NA","631","2","legacy","2","1024","2","48000","-16","experiment","4","even","7","515740","516834","99519","516835","519041","250681","2250","92652","517836","20398","521047","NA","2247","521048","521680","Sternberg Task","80","58752","82","yes","1024"
"97.59036144578313","97.59036144578313","719.0722891566265","719.0722891566265","black","experiment","legacy","legacy","legacy","0","uniform","1","undefined","1","left","82","82","0","82","82","82","0","0","82","0","82","0","0","82","82","Mon Oct 17 20:25:09 2022","The main experiment item","yes","SternbergTask.osexp","C:\Users\Melissa\OneDrive\Desktop\ADVANCED QUANT\LAB 3.1","no","mono","no","18","no","white","no","no","768","legacy","70","11","C:/Users/Melissa/OneDrive/Desktop/ADVANCED QUANT/LAB 3.2/MM-subject-4.1.csv","legacy","8 5 4 7 3 1","Lentiform Loewenfeld","3.3.12","2","y","0","left","left","left","NA","left","931","18147","6867","NA","931","2","legacy","6","1024","2","48000","-16","experiment","4","even","5","521697","522801","99519","522803","525012","250681","2250","92652","523808","20398","527017","NA","2247","527017","527949","Sternberg Task","81","59683","83","yes","1024"
"97.61904761904762","97.61904761904762","719.4880952380952","719.4880952380952","black","experiment","legacy","legacy","legacy","0","uniform","1","undefined","1","right","83","83","0","83","83","83","0","0","83","0","83","0","0","83","83","Mon Oct 17 20:25:09 2022","The main experiment item","yes","SternbergTask.osexp","C:\Users\Melissa\OneDrive\Desktop\ADVANCED QUANT\LAB 3.1","no","mono","no","18","no","white","no","no","768","legacy","71","11","C:/Users/Melissa/OneDrive/Desktop/ADVANCED QUANT/LAB 3.2/MM-subject-4.1.csv","legacy","6 9 4 5 3 2","Lentiform Loewenfeld","3.3.12","0","n","0","right","left","left","NA","right","754","18147","6867","NA","754","2","legacy","6","1024","2","48000","-16","experiment","4","even","8","527954","529048","99519","529050","531253","250681","2250","92652","530052","20398","533254","NA","2247","533254","534009","Sternberg Task","82","60437","84","yes","1024"
"96.47058823529412","96.47058823529412","729.6235294117647","729.6235294117647","black","experiment","legacy","legacy","legacy","0","uniform","0","undefined","0","right","84","84","0","84","84","84","0","0","84","0","84","0","0","84","84","Mon Oct 17 20:25:09 2022","The main experiment item","yes","SternbergTask.osexp","C:\Users\Melissa\OneDrive\Desktop\ADVANCED QUANT\LAB 3.1","no","mono","no","18","no","white","no","no","768","legacy","72","11","C:/Users/Melissa/OneDrive/Desktop/ADVANCED QUANT/LAB 3.2/MM-subject-4.1.csv","legacy","5","Lentiform Loewenfeld","3.3.12","0","n","0","left","left","left","NA","left","1581","18147","6867","NA","1581","2","legacy","1","1024","2","48000","-16","experiment","4","even","8","534016","535125","99519","535126","537333","250681","2250","92652","536128","20398","539334","NA","2247","539334","540916","Sternberg Task","82","62018","85","yes","1024"
"96.51162790697674","96.51162790697674","729.1627906976744","729.1627906976744","black","experiment","legacy","legacy","legacy","0","uniform","1","undefined","1","right","85","85","0","85","85","85","0","0","85","0","85","0","0","85","85","Mon Oct 17 20:25:09 2022","The main experiment item","yes","SternbergTask.osexp","C:\Users\Melissa\OneDrive\Desktop\ADVANCED QUANT\LAB 3.1","no","mono","no","18","no","white","no","no","768","legacy","73","11","C:/Users/Melissa/OneDrive/Desktop/ADVANCED QUANT/LAB 3.2/MM-subject-4.1.csv","legacy","7 1 5 6 3","Lentiform Loewenfeld","3.3.12","0","n","0","right","left","left","NA","right","690","18147","6867","NA","690","2","legacy","5","1024","2","48000","-16","experiment","4","even","8","534016","542044","99519","542046","544251","540928","2250","92652","543047","20398","546252","NA","2247","546252","546943","Sternberg Task","83","62708","86","yes","1024"
"96.55172413793103","96.55172413793103","725.528735632184","725.528735632184","black","experiment","legacy","legacy","legacy","0","uniform","1","undefined","1","right","86","86","0","86","86","86","0","0","86","0","86","0","0","86","86","Mon Oct 17 20:25:09 2022","The main experiment item","yes","SternbergTask.osexp","C:\Users\Melissa\OneDrive\Desktop\ADVANCED QUANT\LAB 3.1","no","mono","no","18","no","white","no","no","768","legacy","74","11","C:/Users/Melissa/OneDrive/Desktop/ADVANCED QUANT/LAB 3.2/MM-subject-4.1.csv","legacy","9","Lentiform Loewenfeld","3.3.12","0","n","0","right","left","left","NA","right","413","18147","6867","NA","413","2","legacy","1","1024","2","48000","-16","experiment","4","even","6","546948","548049","99519","548051","550256","540928","2250","92652","549051","20398","552257","NA","2247","552257","552671","Sternberg Task","84","63121","87","yes","1024"
"96.5909090909091","96.5909090909091","724.4545454545455","724.4545454545455","black","experiment","legacy","legacy","legacy","0","uniform","1","undefined","1","right","87","87","0","87","87","87","0","0","87","0","87","0","0","87","87","Mon Oct 17 20:25:09 2022","The main experiment item","yes","SternbergTask.osexp","C:\Users\Melissa\OneDrive\Desktop\ADVANCED QUANT\LAB 3.1","no","mono","no","18","no","white","no","no","768","legacy","75","11","C:/Users/Melissa/OneDrive/Desktop/ADVANCED QUANT/LAB 3.2/MM-subject-4.1.csv","legacy","6 7 5 9","Lentiform Loewenfeld","3.3.12","0","n","0","right","left","left","NA","right","631","18147","6867","NA","631","2","legacy","4","1024","2","48000","-16","experiment","4","even","2","552677","553774","99519","553776","555984","540928","2250","92652","554781","20398","557985","NA","2247","557985","558616","Sternberg Task","85","63752","88","yes","1024"
"96.62921348314607","96.62921348314607","725.9550561797753","725.9550561797753","black","experiment","legacy","legacy","legacy","0","uniform","1","undefined","1","left","88","88","0","88","88","88","0","0","88","0","88","0","0","88","88","Mon Oct 17 20:25:09 2022","The main experiment item","yes","SternbergTask.osexp","C:\Users\Melissa\OneDrive\Desktop\ADVANCED QUANT\LAB 3.1","no","mono","no","18","no","white","no","no","768","legacy","76","11","C:/Users/Melissa/OneDrive/Desktop/ADVANCED QUANT/LAB 3.2/MM-subject-4.1.csv","legacy","6 7 9 3 1 2","Lentiform Loewenfeld","3.3.12","1","y","0","left","left","left","NA","left","858","18147","6867","NA","858","2","legacy","6","1024","2","48000","-16","experiment","4","even","6","558625","559721","99519","559722","561932","540928","2250","92652","560728","20398","563934","NA","2247","563934","564793","Sternberg Task","86","64610","89","yes","1024"
"96.66666666666667","96.66666666666667","724.4888888888889","724.4888888888889","black","experiment","legacy","legacy","legacy","0","uniform","1","undefined","1","right","89","89","0","89","89","89","0","0","89","0","89","0","0","89","89","Mon Oct 17 20:25:09 2022","The main experiment item","yes","SternbergTask.osexp","C:\Users\Melissa\OneDrive\Desktop\ADVANCED QUANT\LAB 3.1","no","mono","no","18","no","white","no","no","768","legacy","77","11","C:/Users/Melissa/OneDrive/Desktop/ADVANCED QUANT/LAB 3.2/MM-subject-4.1.csv","legacy","7 4 2 8 1 9","Lentiform Loewenfeld","3.3.12","0","n","0","right","left","left","NA","right","594","18147","6867","NA","594","2","legacy","6","1024","2","48000","-16","experiment","4","even","5","564803","565912","99519","565913","568121","540928","2250","92652","566916","20398","570122","NA","2247","570122","570717","Sternberg Task","87","65204","90","yes","1024"
"96.7032967032967","96.7032967032967","726","726","black","experiment","legacy","legacy","legacy","0","uniform","1","undefined","1","right","90","90","0","90","90","90","0","0","90","0","90","0","0","90","90","Mon Oct 17 20:25:09 2022","The main experiment item","yes","SternbergTask.osexp","C:\Users\Melissa\OneDrive\Desktop\ADVANCED QUANT\LAB 3.1","no","mono","no","18","no","white","no","no","768","legacy","78","11","C:/Users/Melissa/OneDrive/Desktop/ADVANCED QUANT/LAB 3.2/MM-subject-4.1.csv","legacy","9 7 4 5 8","Lentiform Loewenfeld","3.3.12","0","n","0","right","left","left","NA","right","862","18147","6867","NA","862","2","legacy","5","1024","2","48000","-16","experiment","4","even","6","570722","571821","99519","571822","574031","540928","2250","92652","572827","20398","576032","NA","2247","576032","576894","Sternberg Task","88","66066","91","yes","1024"
"96.73913043478261","96.73913043478261","725.1739130434783","725.1739130434783","black","experiment","legacy","legacy","legacy","0","uniform","1","undefined","1","right","91","91","0","91","91","91","0","0","91","0","91","0","0","91","91","Mon Oct 17 20:25:09 2022","The main experiment item","yes","SternbergTask.osexp","C:\Users\Melissa\OneDrive\Desktop\ADVANCED QUANT\LAB 3.1","no","mono","no","18","no","white","no","no","768","legacy","79","11","C:/Users/Melissa/OneDrive/Desktop/ADVANCED QUANT/LAB 3.2/MM-subject-4.1.csv","legacy","4 2 7 6 1 3","Lentiform Loewenfeld","3.3.12","0","n","0","right","left","left","NA","right","650","18147","6867","NA","650","2","legacy","6","1024","2","48000","-16","experiment","4","even","8","576901","577998","99519","578000","580206","540928","2250","92652","579002","20398","582207","NA","2247","582207","582857","Sternberg Task","89","66716","92","yes","1024"
"96.7741935483871","96.7741935483871","724.7096774193549","724.7096774193549","black","experiment","legacy","legacy","legacy","0","uniform","1","undefined","1","left","92","92","0","92","92","92","0","0","92","0","92","0","0","92","92","Mon Oct 17 20:25:09 2022","The main experiment item","yes","SternbergTask.osexp","C:\Users\Melissa\OneDrive\Desktop\ADVANCED QUANT\LAB 3.1","no","mono","no","18","no","white","no","no","768","legacy","80","11","C:/Users/Melissa/OneDrive/Desktop/ADVANCED QUANT/LAB 3.2/MM-subject-4.1.csv","legacy","3 9 6 2","Lentiform Loewenfeld","3.3.12","4","y","0","left","left","left","NA","left","682","18147","6867","NA","682","2","legacy","4","1024","2","48000","-16","experiment","4","even","2","582864","583981","99519","583983","586190","540928","2250","92652","584985","20398","588191","NA","2247","588191","588874","Sternberg Task","90","67398","93","yes","1024"
"96.80851063829788","96.80851063829788","723.3404255319149","723.3404255319149","black","experiment","legacy","legacy","legacy","0","uniform","1","undefined","1","left","93","93","0","93","93","93","0","0","93","0","93","0","0","93","93","Mon Oct 17 20:25:09 2022","The main experiment item","yes","SternbergTask.osexp","C:\Users\Melissa\OneDrive\Desktop\ADVANCED QUANT\LAB 3.1","no","mono","no","18","no","white","no","no","768","legacy","81","11","C:/Users/Melissa/OneDrive/Desktop/ADVANCED QUANT/LAB 3.2/MM-subject-4.1.csv","legacy","2 3 7 4","Lentiform Loewenfeld","3.3.12","1","y","0","left","left","left","NA","left","596","18147","6867","NA","596","2","legacy","4","1024","2","48000","-16","experiment","4","even","2","588881","589977","99519","589978","592182","540928","2250","92652","590978","20398","594183","NA","2247","594183","594780","Sternberg Task","91","67994","94","yes","1024"
"96.84210526315789","96.84210526315789","726.8526315789474","726.8526315789474","black","experiment","legacy","legacy","legacy","0","uniform","1","undefined","1","right","94","94","0","94","94","94","0","0","94","0","94","0","0","94","94","Mon Oct 17 20:25:09 2022","The main experiment item","yes","SternbergTask.osexp","C:\Users\Melissa\OneDrive\Desktop\ADVANCED QUANT\LAB 3.1","no","mono","no","18","no","white","no","no","768","legacy","82","11","C:/Users/Melissa/OneDrive/Desktop/ADVANCED QUANT/LAB 3.2/MM-subject-4.1.csv","legacy","8 5 4 2 9 6","Lentiform Loewenfeld","3.3.12","0","n","0","right","left","left","NA","right","1057","18147","6867","NA","1057","2","legacy","6","1024","2","48000","-16","experiment","4","even","3","594785","595885","99519","595887","598093","540928","2250","92652","596888","20398","600094","NA","2247","600094","601151","Sternberg Task","92","69051","95","yes","1024"
"96.875","96.875","726.3645833333334","726.3645833333334","black","experiment","legacy","legacy","legacy","0","uniform","1","undefined","1","right","95","95","0","95","95","95","0","0","95","0","95","0","0","95","95","Mon Oct 17 20:25:09 2022","The main experiment item","yes","SternbergTask.osexp","C:\Users\Melissa\OneDrive\Desktop\ADVANCED QUANT\LAB 3.1","no","mono","no","18","no","white","no","no","768","legacy","83","11","C:/Users/Melissa/OneDrive/Desktop/ADVANCED QUANT/LAB 3.2/MM-subject-4.1.csv","legacy","4 8 1 2","Lentiform Loewenfeld","3.3.12","0","n","0","right","left","left","NA","right","680","18147","6867","NA","680","2","legacy","4","1024","2","48000","-16","experiment","4","even","7","601158","602278","99519","602281","604488","540928","2250","92652","603283","20398","606493","NA","2247","606493","607174","Sternberg Task","93","69731","96","yes","1024"
"96.90721649484536","96.90721649484536","727.9484536082474","727.9484536082474","black","experiment","legacy","legacy","legacy","0","uniform","1","undefined","1","right","96","96","0","96","96","96","0","0","96","0","96","0","0","96","96","Mon Oct 17 20:25:09 2022","The main experiment item","yes","SternbergTask.osexp","C:\Users\Melissa\OneDrive\Desktop\ADVANCED QUANT\LAB 3.1","no","mono","no","18","no","white","no","no","768","legacy","84","11","C:/Users/Melissa/OneDrive/Desktop/ADVANCED QUANT/LAB 3.2/MM-subject-4.1.csv","legacy","5 3 2 6 9 8","Lentiform Loewenfeld","3.3.12","0","n","0","right","left","left","NA","right","880","18147","6867","NA","880","2","legacy","6","1024","2","48000","-16","experiment","4","even","4","607180","608278","99519","608279","610487","540928","2250","92652","609282","20398","612488","NA","2247","612488","613369","Sternberg Task","94","70611","97","yes","1024"
"96.93877551020408","96.93877551020408","725.9183673469388","725.9183673469388","black","experiment","legacy","legacy","legacy","0","uniform","1","undefined","1","right","97","97","0","97","97","97","0","0","97","0","97","0","0","97","97","Mon Oct 17 20:25:09 2022","The main experiment item","yes","SternbergTask.osexp","C:\Users\Melissa\OneDrive\Desktop\ADVANCED QUANT\LAB 3.1","no","mono","no","18","no","white","no","no","768","legacy","85","11","C:/Users/Melissa/OneDrive/Desktop/ADVANCED QUANT/LAB 3.2/MM-subject-4.1.csv","legacy","6 8 4","Lentiform Loewenfeld","3.3.12","0","n","0","right","left","left","NA","right","529","18147","6867","NA","529","2","legacy","3","1024","2","48000","-16","experiment","4","even","1","613381","614524","99519","614526","616736","540928","2250","92652","615531","20398","618737","NA","2247","618737","619267","Sternberg Task","95","71140","98","yes","1024"
"96.96969696969697","96.96969696969697","726.2828282828283","726.2828282828283","black","experiment","legacy","legacy","legacy","0","uniform","1","undefined","1","left","98","98","0","98","98","98","0","0","98","0","98","0","0","98","98","Mon Oct 17 20:25:09 2022","The main experiment item","yes","SternbergTask.osexp","C:\Users\Melissa\OneDrive\Desktop\ADVANCED QUANT\LAB 3.1","no","mono","no","18","no","white","no","no","768","legacy","86","11","C:/Users/Melissa/OneDrive/Desktop/ADVANCED QUANT/LAB 3.2/MM-subject-4.1.csv","legacy","3 5 4 7","Lentiform Loewenfeld","3.3.12","1","y","0","left","left","left","NA","left","762","18147","6867","NA","762","2","legacy","4","1024","2","48000","-16","experiment","4","even","3","619275","620382","99519","620384","622587","540928","2250","92652","621386","20398","624588","NA","2247","624588","625351","Sternberg Task","96","71902","99","yes","1024"
"97","97","726.25","726.25","black","experiment","legacy","legacy","legacy","0","uniform","1","undefined","1","left","99","99","0","99","99","99","0","0","99","0","99","0","0","99","99","Mon Oct 17 20:25:09 2022","The main experiment item","yes","SternbergTask.osexp","C:\Users\Melissa\OneDrive\Desktop\ADVANCED QUANT\LAB 3.1","no","mono","no","18","no","white","no","no","768","legacy","87","11","C:/Users/Melissa/OneDrive/Desktop/ADVANCED QUANT/LAB 3.2/MM-subject-4.1.csv","legacy","8 1 6","Lentiform Loewenfeld","3.3.12","3","y","0","left","left","left","NA","left","723","18147","6867","NA","723","2","legacy","3","1024","2","48000","-16","experiment","4","even","6","625358","626454","99519","626455","628661","540928","2250","92652","627456","20398","630662","NA","2247","630662","631386","Sternberg Task","97","72625","100","yes","1024"
"97.02970297029702","97.02970297029702","724.960396039604","724.960396039604","black","experiment","legacy","legacy","legacy","0","uniform","1","undefined","1","right","100","100","0","100","100","100","0","0","100","0","100","0","0","100","100","Mon Oct 17 20:25:09 2022","The main experiment item","yes","SternbergTask.osexp","C:\Users\Melissa\OneDrive\Desktop\ADVANCED QUANT\LAB 3.1","no","mono","no","18","no","white","no","no","768","legacy","88","11","C:/Users/Melissa/OneDrive/Desktop/ADVANCED QUANT/LAB 3.2/MM-subject-4.1.csv","legacy","2 8 9 4 1","Lentiform Loewenfeld","3.3.12","0","n","0","right","left","left","NA","right","596","18147","6867","NA","596","2","legacy","5","1024","2","48000","-16","experiment","4","even","5","631393","632488","99519","632489","634700","540928","2250","92652","633494","20398","636701","NA","2247","636701","637298","Sternberg Task","98","73221","101","yes","1024"
"97.05882352941177","97.05882352941177","723.7058823529412","723.7058823529412","black","experiment","legacy","legacy","legacy","0","uniform","1","undefined","1","left","101","101","0","101","101","101","0","0","101","0","101","0","0","101","101","Mon Oct 17 20:25:09 2022","The main experiment item","yes","SternbergTask.osexp","C:\Users\Melissa\OneDrive\Desktop\ADVANCED QUANT\LAB 3.1","no","mono","no","18","no","white","no","no","768","legacy","89","11","C:/Users/Melissa/OneDrive/Desktop/ADVANCED QUANT/LAB 3.2/MM-subject-4.1.csv","legacy","8 9 6 1","Lentiform Loewenfeld","3.3.12","2","y","0","left","left","left","NA","left","597","18147","6867","NA","597","2","legacy","4","1024","2","48000","-16","experiment","4","even","9","637303","638398","99519","638400","640603","540928","2250","92652","639401","20398","642604","NA","2247","642604","643202","Sternberg Task","99","73818","102","yes","1024"
"97.0873786407767","97.0873786407767","722.1359223300971","722.1359223300971","black","experiment","legacy","legacy","legacy","0","uniform","1","undefined","1","left","102","102","0","102","102","102","0","0","102","0","102","0","0","102","102","Mon Oct 17 20:25:09 2022","The main experiment item","yes","SternbergTask.osexp","C:\Users\Melissa\OneDrive\Desktop\ADVANCED QUANT\LAB 3.1","no","mono","no","18","no","white","no","no","768","legacy","90","11","C:/Users/Melissa/OneDrive/Desktop/ADVANCED QUANT/LAB 3.2/MM-subject-4.1.csv","legacy","4 9 7 8 5 3","Lentiform Loewenfeld","3.3.12","4","y","0","left","left","left","NA","left","562","18147","6867","NA","562","2","legacy","6","1024","2","48000","-16","experiment","4","even","8","643207","644301","99519","644303","646509","540928","2250","92652","645304","20398","648515","NA","2247","648515","649078","Sternberg Task","100","74380","103","yes","1024"
"97.11538461538461","97.11538461538461","726.2596153846154","726.2596153846154","black","experiment","legacy","legacy","legacy","0","uniform","1","undefined","1","right","103","103","0","103","103","103","0","0","103","0","103","0","0","103","103","Mon Oct 17 20:25:09 2022","The main experiment item","yes","SternbergTask.osexp","C:\Users\Melissa\OneDrive\Desktop\ADVANCED QUANT\LAB 3.1","no","mono","no","18","no","white","no","no","768","legacy","91","11","C:/Users/Melissa/OneDrive/Desktop/ADVANCED QUANT/LAB 3.2/MM-subject-4.1.csv","legacy","3 4 9 6 7 8","Lentiform Loewenfeld","3.3.12","0","n","0","right","left","left","NA","right","1151","18147","6867","NA","1151","2","legacy","6","1024","2","48000","-16","experiment","4","even","2","649083","650178","99519","650179","652384","540928","2250","92652","651180","20398","654385","NA","2247","654385","655537","Sternberg Task","101","75531","104","yes","1024"
"97.14285714285714","97.14285714285714","725.6857142857143","725.6857142857143","black","experiment","legacy","legacy","legacy","0","uniform","1","undefined","1","right","104","104","0","104","104","104","0","0","104","0","104","0","0","104","104","Mon Oct 17 20:25:09 2022","The main experiment item","yes","SternbergTask.osexp","C:\Users\Melissa\OneDrive\Desktop\ADVANCED QUANT\LAB 3.1","no","mono","no","18","no","white","no","no","768","legacy","92","11","C:/Users/Melissa/OneDrive/Desktop/ADVANCED QUANT/LAB 3.2/MM-subject-4.1.csv","legacy","6 3 1 7 9 8","Lentiform Loewenfeld","3.3.12","0","n","0","right","left","left","NA","right","666","18147","6867","NA","666","2","legacy","6","1024","2","48000","-16","experiment","4","even","4","655543","656654","99519","656655","658865","540928","2250","92652","657660","20398","660866","NA","2247","660866","661533","Sternberg Task","102","76197","105","yes","1024"
"97.16981132075472","97.16981132075472","723.6698113207547","723.6698113207547","black","experiment","legacy","legacy","legacy","0","uniform","1","undefined","1","left","105","105","0","105","105","105","0","0","105","0","105","0","0","105","105","Mon Oct 17 20:25:09 2022","The main experiment item","yes","SternbergTask.osexp","C:\Users\Melissa\OneDrive\Desktop\ADVANCED QUANT\LAB 3.1","no","mono","no","18","no","white","no","no","768","legacy","93","11","C:/Users/Melissa/OneDrive/Desktop/ADVANCED QUANT/LAB 3.2/MM-subject-4.1.csv","legacy","3 4","Lentiform Loewenfeld","3.3.12","1","y","0","left","left","left","NA","left","512","18147","6867","NA","512","2","legacy","2","1024","2","48000","-16","experiment","4","even","3","661539","662635","99519","662636","664840","540928","2250","92652","663637","20398","666845","NA","2247","666845","667362","Sternberg Task","103","76709","106","yes","1024"
"97.19626168224299","97.19626168224299","721.8224299065421","721.8224299065421","black","experiment","legacy","legacy","legacy","0","uniform","1","undefined","1","right","106","106","0","106","106","106","0","0","106","0","106","0","0","106","106","Mon Oct 17 20:25:09 2022","The main experiment item","yes","SternbergTask.osexp","C:\Users\Melissa\OneDrive\Desktop\ADVANCED QUANT\LAB 3.1","no","mono","no","18","no","white","no","no","768","legacy","94","11","C:/Users/Melissa/OneDrive/Desktop/ADVANCED QUANT/LAB 3.2/MM-subject-4.1.csv","legacy","8 2 1 4 5 9","Lentiform Loewenfeld","3.3.12","0","n","0","right","left","left","NA","right","526","18147","6867","NA","526","2","legacy","6","1024","2","48000","-16","experiment","4","even","7","667367","668468","99519","668469","670676","540928","2250","92652","669471","20398","672681","NA","2247","672681","673208","Sternberg Task","104","77235","107","yes","1024"
"97.22222222222223","97.22222222222223","720.6111111111111","720.6111111111111","black","experiment","legacy","legacy","legacy","0","uniform","1","undefined","1","right","107","107","0","107","107","107","0","0","107","0","107","0","0","107","107","Mon Oct 17 20:25:09 2022","The main experiment item","yes","SternbergTask.osexp","C:\Users\Melissa\OneDrive\Desktop\ADVANCED QUANT\LAB 3.1","no","mono","no","18","no","white","no","no","768","legacy","95","11","C:/Users/Melissa/OneDrive/Desktop/ADVANCED QUANT/LAB 3.2/MM-subject-4.1.csv","legacy","2 3 8 5 6 7","Lentiform Loewenfeld","3.3.12","0","n","0","right","left","left","NA","right","591","18147","6867","NA","591","2","legacy","6","1024","2","48000","-16","experiment","4","even","1","673219","674315","99519","674317","676524","540928","2250","92652","675320","20398","678526","NA","2247","678526","679118","Sternberg Task","105","77826","108","yes","1024"
"97.24770642201835","97.24770642201835","722.9908256880734","722.9908256880734","black","experiment","legacy","legacy","legacy","0","uniform","1","undefined","1","left","108","108","0","108","108","108","0","0","108","0","108","0","0","108","108","Mon Oct 17 20:25:09 2022","The main experiment item","yes","SternbergTask.osexp","C:\Users\Melissa\OneDrive\Desktop\ADVANCED QUANT\LAB 3.1","no","mono","no","18","no","white","no","no","768","legacy","96","11","C:/Users/Melissa/OneDrive/Desktop/ADVANCED QUANT/LAB 3.2/MM-subject-4.1.csv","legacy","7 8 6 3 1","Lentiform Loewenfeld","3.3.12","5","y","0","left","left","left","NA","left","980","18147","6867","NA","980","2","legacy","5","1024","2","48000","-16","experiment","4","even","1","679124","680235","99519","680236","682445","540928","2250","92652","681241","20398","684448","NA","2247","684448","685429","Sternberg Task","106","78806","109","yes","1024"
"97.27272727272727","97.27272727272727","721.9","721.9","black","experiment","legacy","legacy","legacy","0","uniform","1","undefined","1","left","109","109","0","109","109","109","0","0","109","0","109","0","0","109","109","Mon Oct 17 20:25:09 2022","The main experiment item","yes","SternbergTask.osexp","C:\Users\Melissa\OneDrive\Desktop\ADVANCED QUANT\LAB 3.1","no","mono","no","18","no","white","no","no","768","legacy","97","11","C:/Users/Melissa/OneDrive/Desktop/ADVANCED QUANT/LAB 3.2/MM-subject-4.1.csv","legacy","5 2 9 6 1 7","Lentiform Loewenfeld","3.3.12","3","y","0","left","left","left","NA","left","603","18147","6867","NA","603","2","legacy","6","1024","2","48000","-16","experiment","4","even","9","685433","686529","99519","686531","688736","540928","2250","92652","687532","20398","690741","NA","2247","690742","691346","Sternberg Task","107","79409","110","yes","1024"
