"acc","accuracy","average_response_time","avg_rt","background","block","canvas_backend","clock_backend","color_backend","compensation","coordinates","correct","correct_Keyboard_response","correct_instructions1","correct_response","count_Fixation","count_ISI","count_Keyboard_response","count_Logger","count_Probe","count_Thankyou","count_correctFeedback","count_expSequence","count_experiment","count_experimentalLoop","count_incorrectFeedback","count_instructions1","count_instructions2","count_memorySet","count_practiceLoop","datetime","description","disable_garbage_collection","experiment_file","experiment_path","font_bold","font_family","font_italic","font_size","font_underline","foreground","form_clicks","fullscreen","height","keyboard_backend","live_row","live_row_practiceLoop","logfile","mouse_backend","numberSet","opensesame_codename","opensesame_version","posInSet","present","repeat_cycle","response","response_Keyboard_response","response_Thankyou","response_instructions1","response_instructions2","response_time","response_time_Keyboard_response","response_time_Thankyou","response_time_instructions1","response_time_instructions2","round_decimals","sampler_backend","setSize","sound_buf_size","sound_channels","sound_freq","sound_sample_size","start","subject_nr","subject_parity","target","time_Fixation","time_ISI","time_Keyboard_response","time_Logger","time_Probe","time_Thankyou","time_correctFeedback","time_expSequence","time_experiment","time_experimentalLoop","time_incorrectFeedback","time_instructions1","time_instructions2","time_memorySet","time_practiceLoop","title","total_correct","total_response_time","total_responses","uniform_coordinates","width"
"0","0","2000","2000","black","practice","legacy","legacy","legacy","0","uniform","0","0","undefined","left","0","0","0","0","0","0","0","0","0","0","0","0","0","0","0","10/23/22 19:28:13","The main experiment item","yes","Sternbergtask.osexp","C:\Users\ayesh\OneDrive\Desktop","no","mono","no","18","no","white","no","yes","768","legacy","0","0","C:/Users/ayesh/OneDrive/Desktop/MK-subject-4.csv","legacy","4 3 1 7 9 8","Lentiform Loewenfeld","3.3.12","1","y","0","None","None","NA","return","NA","2000","2000","NA","52389","NA","2","legacy","6","1024","2","48000","-16","experiment","4","even","4","59766","61970","63971","65971","63971","NA","NA","59763","6688","NA","NA","6692","NA","60767","59081","Sternberg task ","0","2000","1","yes","1024"
"0","0","1663","1663","black","practice","legacy","legacy","legacy","0","uniform","0","0","undefined","left","1","1","1","1","1","0","1","1","0","0","1","0","0","1","0","10/23/22 19:28:13","The main experiment item","yes","Sternbergtask.osexp","C:\Users\ayesh\OneDrive\Desktop","no","mono","no","18","no","white","no","yes","768","legacy","1","1","C:/Users/ayesh/OneDrive/Desktop/MK-subject-4.csv","legacy","1 7 9 8 5","Lentiform Loewenfeld","3.3.12","4","y","0","right","right","NA","return","NA","1326","1326","NA","52389","NA","2","legacy","5","1024","2","48000","-16","experiment","4","even","8","67195","69401","71403","72729","71403","NA","NA","67194","6688","NA","66113","6692","NA","68197","59081","Sternberg task ","0","3326","2","yes","1024"
"0","0","1480","1480","black","practice","legacy","legacy","legacy","0","uniform","0","0","undefined","left","2","2","2","2","2","0","2","2","0","0","2","0","0","2","0","10/23/22 19:28:13","The main experiment item","yes","Sternbergtask.osexp","C:\Users\ayesh\OneDrive\Desktop","no","mono","no","18","no","white","no","yes","768","legacy","2","2","C:/Users/ayesh/OneDrive/Desktop/MK-subject-4.csv","legacy","2 9 4","Lentiform Loewenfeld","3.3.12","3","y","0","right","right","NA","return","NA","1114","1114","NA","52389","NA","2","legacy","3","1024","2","48000","-16","experiment","4","even","4","73808","76013","78014","79128","78014","NA","NA","73807","6688","NA","72734","6692","NA","74809","59081","Sternberg task ","0","4440","3","yes","1024"
"0","0","1499","1499","black","practice","legacy","legacy","legacy","0","uniform","0","0","undefined","right","3","3","3","3","3","0","3","3","0","0","3","0","0","3","0","10/23/22 19:28:13","The main experiment item","yes","Sternbergtask.osexp","C:\Users\ayesh\OneDrive\Desktop","no","mono","no","18","no","white","no","yes","768","legacy","3","3","C:/Users/ayesh/OneDrive/Desktop/MK-subject-4.csv","legacy","5 7 8 4 1 2","Lentiform Loewenfeld","3.3.12","0","n","0","left","left","NA","return","NA","1556","1556","NA","52389","NA","2","legacy","6","1024","2","48000","-16","experiment","4","even","6","80206","82411","84412","85969","84412","NA","NA","80205","6688","NA","79132","6692","NA","81207","59081","Sternberg task ","0","5996","4","yes","1024"
"0","0","1556.2","1556.2","black","practice","legacy","legacy","legacy","0","uniform","0","0","undefined","left","4","4","4","4","4","0","4","4","0","0","4","0","0","4","0","10/23/22 19:28:13","The main experiment item","yes","Sternbergtask.osexp","C:\Users\ayesh\OneDrive\Desktop","no","mono","no","18","no","white","no","yes","768","legacy","4","4","C:/Users/ayesh/OneDrive/Desktop/MK-subject-4.csv","legacy","4 8","Lentiform Loewenfeld","3.3.12","1","y","0","right","right","NA","return","NA","1785","1785","NA","52389","NA","2","legacy","2","1024","2","48000","-16","experiment","4","even","4","87057","89262","91263","93049","91263","NA","NA","87055","6688","NA","85984","6692","NA","88058","59081","Sternberg task ","0","7781","5","yes","1024"
"0","0","1630.16666667","1630.16666667","black","practice","legacy","legacy","legacy","0","uniform","0","0","undefined","right","5","5","5","5","5","0","5","5","0","0","5","0","0","5","0","10/23/22 19:28:13","The main experiment item","yes","Sternbergtask.osexp","C:\Users\ayesh\OneDrive\Desktop","no","mono","no","18","no","white","no","yes","768","legacy","5","5","C:/Users/ayesh/OneDrive/Desktop/MK-subject-4.csv","legacy","5","Lentiform Loewenfeld","3.3.12","0","n","0","None","None","NA","return","NA","2000","2000","NA","52389","NA","2","legacy","1","1024","2","48000","-16","experiment","4","even","3","94130","96335","98337","100337","98337","NA","NA","94128","6688","NA","93057","6692","NA","95131","59081","Sternberg task ","0","9781","6","yes","1024"
"0","0","1597.57142857","1597.57142857","black","practice","legacy","legacy","legacy","0","uniform","0","0","undefined","right","6","6","6","6","6","0","6","6","0","0","6","0","0","6","0","10/23/22 19:28:13","The main experiment item","yes","Sternbergtask.osexp","C:\Users\ayesh\OneDrive\Desktop","no","mono","no","18","no","white","no","yes","768","legacy","6","6","C:/Users/ayesh/OneDrive/Desktop/MK-subject-4.csv","legacy","4 1 5","Lentiform Loewenfeld","3.3.12","0","n","0","left","left","NA","return","NA","1402","1402","NA","52389","NA","2","legacy","3","1024","2","48000","-16","experiment","4","even","2","101414","103619","105622","107025","105621","NA","NA","101413","6688","NA","100341","6692","NA","102415","59081","Sternberg task ","0","11183","7","yes","1024"
"0","0","1540.875","1540.875","black","practice","legacy","legacy","legacy","0","uniform","0","0","undefined","right","7","7","7","7","7","0","7","7","0","0","7","0","0","7","0","10/23/22 19:28:13","The main experiment item","yes","Sternbergtask.osexp","C:\Users\ayesh\OneDrive\Desktop","no","mono","no","18","no","white","no","yes","768","legacy","7","7","C:/Users/ayesh/OneDrive/Desktop/MK-subject-4.csv","legacy","2 1","Lentiform Loewenfeld","3.3.12","0","n","0","left","left","NA","return","NA","1144","1144","NA","52389","NA","2","legacy","2","1024","2","48000","-16","experiment","4","even","5","108122","110327","112329","113473","112328","NA","NA","108120","6688","NA","107028","6692","NA","109123","59081","Sternberg task ","0","12327","8","yes","1024"
"0","0","1435.77777778","1435.77777778","black","practice","legacy","legacy","legacy","0","uniform","0","0","undefined","left","8","8","8","8","8","0","8","8","0","0","8","0","0","8","0","10/23/22 19:28:13","The main experiment item","yes","Sternbergtask.osexp","C:\Users\ayesh\OneDrive\Desktop","no","mono","no","18","no","white","no","yes","768","legacy","8","8","C:/Users/ayesh/OneDrive/Desktop/MK-subject-4.csv","legacy","1 5 2 9","Lentiform Loewenfeld","3.3.12","2","y","0","right","right","NA","return","NA","595","595","NA","52389","NA","2","legacy","4","1024","2","48000","-16","experiment","4","even","5","114551","116756","118757","119353","118757","NA","NA","114548","6688","NA","113477","6692","NA","115551","59081","Sternberg task ","0","12922","9","yes","1024"
"10","10","1369.4","1369.4","black","practice","legacy","legacy","legacy","0","uniform","1","1","undefined","right","9","9","9","9","9","0","9","9","0","0","9","0","0","9","0","10/23/22 19:28:13","The main experiment item","yes","Sternbergtask.osexp","C:\Users\ayesh\OneDrive\Desktop","no","mono","no","18","no","white","no","yes","768","legacy","9","9","C:/Users/ayesh/OneDrive/Desktop/MK-subject-4.csv","legacy","3 1 9 4","Lentiform Loewenfeld","3.3.12","0","n","0","right","right","NA","return","NA","772","772","NA","52389","NA","2","legacy","4","1024","2","48000","-16","experiment","4","even","6","120430","122636","124637","125409","124637","NA","NA","120428","6688","NA","119358","6692","NA","121432","59081","Sternberg task ","1","13694","10","yes","1024"
"9.09090909091","9.09090909091","1342","1342","black","practice","legacy","legacy","legacy","0","uniform","0","0","undefined","left","10","10","10","10","10","0","10","10","0","0","10","0","0","10","0","10/23/22 19:28:13","The main experiment item","yes","Sternbergtask.osexp","C:\Users\ayesh\OneDrive\Desktop","no","mono","no","18","no","white","no","yes","768","legacy","10","10","C:/Users/ayesh/OneDrive/Desktop/MK-subject-4.csv","legacy","6","Lentiform Loewenfeld","3.3.12","1","y","0","right","right","NA","return","NA","1068","1068","NA","52389","NA","2","legacy","1","1024","2","48000","-16","experiment","4","even","6","126485","128690","130692","131761","130692","NA","125413","126483","6688","NA","119358","6692","NA","127486","59081","Sternberg task ","1","14762","11","yes","1024"
"16.6666666667","16.6666666667","1316.83333333","1316.83333333","black","practice","legacy","legacy","legacy","0","uniform","1","1","undefined","right","11","11","11","11","11","0","11","11","0","0","11","0","0","11","0","10/23/22 19:28:13","The main experiment item","yes","Sternbergtask.osexp","C:\Users\ayesh\OneDrive\Desktop","no","mono","no","18","no","white","no","yes","768","legacy","11","11","C:/Users/ayesh/OneDrive/Desktop/MK-subject-4.csv","legacy","9 6 7 4 5","Lentiform Loewenfeld","3.3.12","0","n","0","right","right","NA","return","NA","1040","1040","NA","52389","NA","2","legacy","5","1024","2","48000","-16","experiment","4","even","3","132843","135047","137049","138089","137049","NA","125413","132842","6688","NA","131768","6692","NA","133845","59081","Sternberg task ","2","15802","12","yes","1024"
"23.0769230769","23.0769230769","1322.15384615","1322.15384615","black","experiment","legacy","legacy","legacy","0","uniform","1","1","undefined","right","12","12","12","12","12","0","12","12","0","0","12","0","0","12","0","10/23/22 19:28:13","The main experiment item","yes","Sternbergtask.osexp","C:\Users\ayesh\OneDrive\Desktop","no","mono","no","18","no","white","no","yes","768","legacy","0","11","C:/Users/ayesh/OneDrive/Desktop/MK-subject-4.csv","legacy","3 9 8 1 6 4","Lentiform Loewenfeld","3.3.12","0","n","0","right","right","NA","return","return","1386","1386","NA","52389","10446","2","legacy","6","1024","2","48000","-16","experiment","4","even","7","149657","151862","153863","155249","153863","NA","138094","149655","6688","149553","131768","6692","139106","150658","59081","Sternberg task ","3","17188","13","yes","1024"
"28.5714285714","28.5714285714","1297.64285714","1297.64285714","black","experiment","legacy","legacy","legacy","0","uniform","1","1","undefined","right","13","13","13","13","13","0","13","13","0","0","13","0","0","13","0","10/23/22 19:28:13","The main experiment item","yes","Sternbergtask.osexp","C:\Users\ayesh\OneDrive\Desktop","no","mono","no","18","no","white","no","yes","768","legacy","1","11","C:/Users/ayesh/OneDrive/Desktop/MK-subject-4.csv","legacy","7 9 1 6","Lentiform Loewenfeld","3.3.12","0","n","0","right","right","NA","return","return","979","979","NA","52389","10446","2","legacy","4","1024","2","48000","-16","experiment","4","even","4","156327","158532","160533","161513","160533","NA","155253","156326","6688","149553","131768","6692","139106","157328","59081","Sternberg task ","4","18167","14","yes","1024"
"33.3333333333","33.3333333333","1279.2","1279.2","black","experiment","legacy","legacy","legacy","0","uniform","1","1","undefined","right","14","14","14","14","14","0","14","14","0","0","14","0","0","14","0","10/23/22 19:28:13","The main experiment item","yes","Sternbergtask.osexp","C:\Users\ayesh\OneDrive\Desktop","no","mono","no","18","no","white","no","yes","768","legacy","2","11","C:/Users/ayesh/OneDrive/Desktop/MK-subject-4.csv","legacy","7 8 6 1","Lentiform Loewenfeld","3.3.12","0","n","0","right","right","NA","return","return","1021","1021","NA","52389","10446","2","legacy","4","1024","2","48000","-16","experiment","4","even","3","162590","164795","166796","167817","166796","NA","161517","162588","6688","149553","131768","6692","139106","163591","59081","Sternberg task ","5","19188","15","yes","1024"
"31.25","31.25","1266.4375","1266.4375","black","experiment","legacy","legacy","legacy","0","uniform","0","0","undefined","left","15","15","15","15","15","0","15","15","0","0","15","0","0","15","0","10/23/22 19:28:13","The main experiment item","yes","Sternbergtask.osexp","C:\Users\ayesh\OneDrive\Desktop","no","mono","no","18","no","white","no","yes","768","legacy","3","11","C:/Users/ayesh/OneDrive/Desktop/MK-subject-4.csv","legacy","2 8 5 1","Lentiform Loewenfeld","3.3.12","4","y","0","right","right","NA","return","return","1075","1075","NA","52389","10446","2","legacy","4","1024","2","48000","-16","experiment","4","even","1","168895","171100","173101","174177","173101","NA","167823","168893","6688","149553","131768","6692","139106","169896","59081","Sternberg task ","5","20263","16","yes","1024"
"35.2941176471","35.2941176471","1258.47058824","1258.47058824","black","experiment","legacy","legacy","legacy","0","uniform","1","1","undefined","left","16","16","16","16","16","0","16","16","0","0","16","0","0","16","0","10/23/22 19:28:13","The main experiment item","yes","Sternbergtask.osexp","C:\Users\ayesh\OneDrive\Desktop","no","mono","no","18","no","white","no","yes","768","legacy","4","11","C:/Users/ayesh/OneDrive/Desktop/MK-subject-4.csv","legacy","4 9 7 8 5 3","Lentiform Loewenfeld","3.3.12","4","y","0","left","left","NA","return","return","1131","1131","NA","52389","10446","2","legacy","6","1024","2","48000","-16","experiment","4","even","8","175255","177460","179461","180594","179461","NA","167823","175254","6688","149553","174181","6692","139106","176256","59081","Sternberg task ","6","21394","17","yes","1024"
"38.8888888889","38.8888888889","1247.94444444","1247.94444444","black","experiment","legacy","legacy","legacy","0","uniform","1","1","undefined","left","17","17","17","17","17","0","17","17","0","0","17","0","0","17","0","10/23/22 19:28:13","The main experiment item","yes","Sternbergtask.osexp","C:\Users\ayesh\OneDrive\Desktop","no","mono","no","18","no","white","no","yes","768","legacy","5","11","C:/Users/ayesh/OneDrive/Desktop/MK-subject-4.csv","legacy","8 1 6","Lentiform Loewenfeld","3.3.12","3","y","0","left","left","NA","return","return","1069","1069","NA","52389","10446","2","legacy","3","1024","2","48000","-16","experiment","4","even","6","181668","183874","185875","186945","185875","NA","180597","181667","6688","149553","174181","6692","139106","182670","59081","Sternberg task ","7","22463","18","yes","1024"
"42.1052631579","42.1052631579","1223.26315789","1223.26315789","black","experiment","legacy","legacy","legacy","0","uniform","1","1","undefined","left","18","18","18","18","18","0","18","18","0","0","18","0","0","18","0","10/23/22 19:28:13","The main experiment item","yes","Sternbergtask.osexp","C:\Users\ayesh\OneDrive\Desktop","no","mono","no","18","no","white","no","yes","768","legacy","6","11","C:/Users/ayesh/OneDrive/Desktop/MK-subject-4.csv","legacy","6 2","Lentiform Loewenfeld","3.3.12","1","y","0","left","left","NA","return","return","779","779","NA","52389","10446","2","legacy","2","1024","2","48000","-16","experiment","4","even","6","188022","190227","192229","193009","192229","NA","186950","188021","6688","149553","174181","6692","139106","189023","59081","Sternberg task ","8","23242","19","yes","1024"
"45","45","1223","1223","black","experiment","legacy","legacy","legacy","0","uniform","1","1","undefined","right","19","19","19","19","19","0","19","19","0","0","19","0","0","19","0","10/23/22 19:28:13","The main experiment item","yes","Sternbergtask.osexp","C:\Users\ayesh\OneDrive\Desktop","no","mono","no","18","no","white","no","yes","768","legacy","7","11","C:/Users/ayesh/OneDrive/Desktop/MK-subject-4.csv","legacy","6 7 5 9","Lentiform Loewenfeld","3.3.12","0","n","0","right","right","NA","return","return","1218","1218","NA","52389","10446","2","legacy","4","1024","2","48000","-16","experiment","4","even","2","194088","196293","198294","199513","198294","NA","193014","194087","6688","149553","174181","6692","139106","195089","59081","Sternberg task ","9","24460","20","yes","1024"
"47.619047619","47.619047619","1212.95238095","1212.95238095","black","experiment","legacy","legacy","legacy","0","uniform","1","1","undefined","right","20","20","20","20","20","0","20","20","0","0","20","0","0","20","0","10/23/22 19:28:13","The main experiment item","yes","Sternbergtask.osexp","C:\Users\ayesh\OneDrive\Desktop","no","mono","no","18","no","white","no","yes","768","legacy","8","11","C:/Users/ayesh/OneDrive/Desktop/MK-subject-4.csv","legacy","1 7 8 3 9","Lentiform Loewenfeld","3.3.12","0","n","0","right","right","NA","return","return","1012","1012","NA","52389","10446","2","legacy","5","1024","2","48000","-16","experiment","4","even","2","200604","202808","204812","205825","204812","NA","199518","200603","6688","149553","174181","6692","139106","201605","59081","Sternberg task ","10","25472","21","yes","1024"
"50","50","1212.45454545","1212.45454545","black","experiment","legacy","legacy","legacy","0","uniform","1","1","undefined","left","21","21","21","21","21","0","21","21","0","0","21","0","0","21","0","10/23/22 19:28:13","The main experiment item","yes","Sternbergtask.osexp","C:\Users\ayesh\OneDrive\Desktop","no","mono","no","18","no","white","no","yes","768","legacy","9","11","C:/Users/ayesh/OneDrive/Desktop/MK-subject-4.csv","legacy","7 8 6 3 1","Lentiform Loewenfeld","3.3.12","5","y","0","left","left","NA","return","return","1202","1202","NA","52389","10446","2","legacy","5","1024","2","48000","-16","experiment","4","even","1","206900","209105","211110","212312","211110","NA","205828","206899","6688","149553","174181","6692","139106","207901","59081","Sternberg task ","11","26674","22","yes","1024"
"52.1739130435","52.1739130435","1242.47826087","1242.47826087","black","experiment","legacy","legacy","legacy","0","uniform","1","1","undefined","right","22","22","22","22","22","0","22","22","0","0","22","0","0","22","0","10/23/22 19:28:13","The main experiment item","yes","Sternbergtask.osexp","C:\Users\ayesh\OneDrive\Desktop","no","mono","no","18","no","white","no","yes","768","legacy","10","11","C:/Users/ayesh/OneDrive/Desktop/MK-subject-4.csv","legacy","7 1 5 6 3","Lentiform Loewenfeld","3.3.12","0","n","0","right","right","NA","return","return","1903","1903","NA","52389","10446","2","legacy","5","1024","2","48000","-16","experiment","4","even","8","213387","215593","217594","219497","217594","NA","212317","213385","6688","149553","174181","6692","139106","214389","59081","Sternberg task ","12","28577","23","yes","1024"
"54.1666666667","54.1666666667","1242.70833333","1242.70833333","black","experiment","legacy","legacy","legacy","0","uniform","1","1","undefined","left","23","23","23","23","23","0","23","23","0","0","23","0","0","23","0","10/23/22 19:28:13","The main experiment item","yes","Sternbergtask.osexp","C:\Users\ayesh\OneDrive\Desktop","no","mono","no","18","no","white","no","yes","768","legacy","11","11","C:/Users/ayesh/OneDrive/Desktop/MK-subject-4.csv","legacy","7 1 3","Lentiform Loewenfeld","3.3.12","2","y","0","left","left","NA","return","return","1248","1248","NA","52389","10446","2","legacy","3","1024","2","48000","-16","experiment","4","even","1","220578","222783","224784","226033","224784","NA","219502","220576","6688","149553","174181","6692","139106","221579","59081","Sternberg task ","13","29825","24","yes","1024"
"52","52","1244.08","1244.08","black","experiment","legacy","legacy","legacy","0","uniform","0","0","undefined","left","24","24","24","24","24","0","24","24","0","0","24","0","0","24","0","10/23/22 19:28:13","The main experiment item","yes","Sternbergtask.osexp","C:\Users\ayesh\OneDrive\Desktop","no","mono","no","18","no","white","no","yes","768","legacy","12","11","C:/Users/ayesh/OneDrive/Desktop/MK-subject-4.csv","legacy","3 2 1 4 7","Lentiform Loewenfeld","3.3.12","2","y","0","right","right","NA","return","return","1277","1277","NA","52389","10446","2","legacy","5","1024","2","48000","-16","experiment","4","even","2","227110","229315","231316","232594","231316","NA","226038","227108","6688","149553","174181","6692","139106","228111","59081","Sternberg task ","13","31102","25","yes","1024"
"53.8461538462","53.8461538462","1236.69230769","1236.69230769","black","experiment","legacy","legacy","legacy","0","uniform","1","1","undefined","right","25","25","25","25","25","0","25","25","0","0","25","0","0","25","0","10/23/22 19:28:13","The main experiment item","yes","Sternbergtask.osexp","C:\Users\ayesh\OneDrive\Desktop","no","mono","no","18","no","white","no","yes","768","legacy","13","11","C:/Users/ayesh/OneDrive/Desktop/MK-subject-4.csv","legacy","4 2 7 6 1 3","Lentiform Loewenfeld","3.3.12","0","n","0","right","right","NA","return","return","1052","1052","NA","52389","10446","2","legacy","6","1024","2","48000","-16","experiment","4","even","8","233689","235892","237893","238946","237893","NA","226038","233687","6688","149553","232598","6692","139106","234691","59081","Sternberg task ","14","32154","26","yes","1024"
"55.5555555556","55.5555555556","1237.55555556","1237.55555556","black","experiment","legacy","legacy","legacy","0","uniform","1","1","undefined","left","26","26","26","26","26","0","26","26","0","0","26","0","0","26","0","10/23/22 19:28:13","The main experiment item","yes","Sternbergtask.osexp","C:\Users\ayesh\OneDrive\Desktop","no","mono","no","18","no","white","no","yes","768","legacy","14","11","C:/Users/ayesh/OneDrive/Desktop/MK-subject-4.csv","legacy","8 9 6 1","Lentiform Loewenfeld","3.3.12","2","y","0","left","left","NA","return","return","1260","1260","NA","52389","10446","2","legacy","4","1024","2","48000","-16","experiment","4","even","9","240038","242243","244244","245505","244244","NA","238953","240036","6688","149553","232598","6692","139106","241039","59081","Sternberg task ","15","33414","27","yes","1024"
"57.1428571429","57.1428571429","1238.10714286","1238.10714286","black","experiment","legacy","legacy","legacy","0","uniform","1","1","undefined","left","27","27","27","27","27","0","27","27","0","0","27","0","0","27","0","10/23/22 19:28:13","The main experiment item","yes","Sternbergtask.osexp","C:\Users\ayesh\OneDrive\Desktop","no","mono","no","18","no","white","no","yes","768","legacy","15","11","C:/Users/ayesh/OneDrive/Desktop/MK-subject-4.csv","legacy","4 7 6 8 2 3","Lentiform Loewenfeld","3.3.12","6","y","0","left","left","NA","return","return","1253","1253","NA","52389","10446","2","legacy","6","1024","2","48000","-16","experiment","4","even","3","246581","248786","250787","252041","250787","NA","245509","246579","6688","149553","232598","6692","139106","247582","59081","Sternberg task ","16","34667","28","yes","1024"
"58.6206896552","58.6206896552","1233.31034483","1233.31034483","black","experiment","legacy","legacy","legacy","0","uniform","1","1","undefined","left","28","28","28","28","28","0","28","28","0","0","28","0","0","28","0","10/23/22 19:28:13","The main experiment item","yes","Sternbergtask.osexp","C:\Users\ayesh\OneDrive\Desktop","no","mono","no","18","no","white","no","yes","768","legacy","16","11","C:/Users/ayesh/OneDrive/Desktop/MK-subject-4.csv","legacy","9 5 3 8 4","Lentiform Loewenfeld","3.3.12","1","y","0","left","left","NA","return","return","1099","1099","NA","52389","10446","2","legacy","5","1024","2","48000","-16","experiment","4","even","9","253120","255325","257326","258425","257326","NA","252045","253118","6688","149553","232598","6692","139106","254121","59081","Sternberg task ","17","35766","29","yes","1024"
"60","60","1227.43333333","1227.43333333","black","experiment","legacy","legacy","legacy","0","uniform","1","1","undefined","left","29","29","29","29","29","0","29","29","0","0","29","0","0","29","0","10/23/22 19:28:13","The main experiment item","yes","Sternbergtask.osexp","C:\Users\ayesh\OneDrive\Desktop","no","mono","no","18","no","white","no","yes","768","legacy","17","11","C:/Users/ayesh/OneDrive/Desktop/MK-subject-4.csv","legacy","6 9 3 1","Lentiform Loewenfeld","3.3.12","4","y","0","left","left","NA","return","return","1057","1057","NA","52389","10446","2","legacy","4","1024","2","48000","-16","experiment","4","even","1","259504","261709","263711","264769","263710","NA","258430","259503","6688","149553","232598","6692","139106","260505","59081","Sternberg task ","18","36823","30","yes","1024"
"61.2903225806","61.2903225806","1222","1222","black","experiment","legacy","legacy","legacy","0","uniform","1","1","undefined","right","30","30","30","30","30","0","30","30","0","0","30","0","0","30","0","10/23/22 19:28:13","The main experiment item","yes","Sternbergtask.osexp","C:\Users\ayesh\OneDrive\Desktop","no","mono","no","18","no","white","no","yes","768","legacy","18","11","C:/Users/ayesh/OneDrive/Desktop/MK-subject-4.csv","legacy","4 8 1 2","Lentiform Loewenfeld","3.3.12","0","n","0","right","right","NA","return","return","1059","1059","NA","52389","10446","2","legacy","4","1024","2","48000","-16","experiment","4","even","7","265846","268052","270053","271113","270053","NA","264773","265845","6688","149553","232598","6692","139106","266848","59081","Sternberg task ","19","37882","31","yes","1024"
"62.5","62.5","1222.25","1222.25","black","experiment","legacy","legacy","legacy","0","uniform","1","1","undefined","left","31","31","31","31","31","0","31","31","0","0","31","0","0","31","0","10/23/22 19:28:13","The main experiment item","yes","Sternbergtask.osexp","C:\Users\ayesh\OneDrive\Desktop","no","mono","no","18","no","white","no","yes","768","legacy","19","11","C:/Users/ayesh/OneDrive/Desktop/MK-subject-4.csv","legacy","9 8 4","Lentiform Loewenfeld","3.3.12","1","y","0","left","left","NA","return","return","1230","1230","NA","52389","10446","2","legacy","3","1024","2","48000","-16","experiment","4","even","9","272187","274390","276394","277625","276394","NA","271117","272185","6688","149553","232598","6692","139106","273188","59081","Sternberg task ","20","39112","32","yes","1024"
"63.6363636364","63.6363636364","1227.3030303","1227.3030303","black","experiment","legacy","legacy","legacy","0","uniform","1","1","undefined","right","32","32","32","32","32","0","32","32","0","0","32","0","0","32","0","10/23/22 19:28:13","The main experiment item","yes","Sternbergtask.osexp","C:\Users\ayesh\OneDrive\Desktop","no","mono","no","18","no","white","no","yes","768","legacy","20","11","C:/Users/ayesh/OneDrive/Desktop/MK-subject-4.csv","legacy","1 7 5 2 9","Lentiform Loewenfeld","3.3.12","0","n","0","right","right","NA","return","return","1389","1389","NA","52389","10446","2","legacy","5","1024","2","48000","-16","experiment","4","even","3","278701","280906","282908","284297","282908","NA","277629","278699","6688","149553","232598","6692","139106","279702","59081","Sternberg task ","21","40501","33","yes","1024"
"64.7058823529","64.7058823529","1222.02941176","1222.02941176","black","experiment","legacy","legacy","legacy","0","uniform","1","1","undefined","left","33","33","33","33","33","0","33","33","0","0","33","0","0","33","0","10/23/22 19:28:13","The main experiment item","yes","Sternbergtask.osexp","C:\Users\ayesh\OneDrive\Desktop","no","mono","no","18","no","white","no","yes","768","legacy","21","11","C:/Users/ayesh/OneDrive/Desktop/MK-subject-4.csv","legacy","9 1 7 2","Lentiform Loewenfeld","3.3.12","2","y","0","left","left","NA","return","return","1048","1048","NA","52389","10446","2","legacy","4","1024","2","48000","-16","experiment","4","even","1","285378","287583","289584","290633","289584","NA","284301","285376","6688","149553","232598","6692","139106","286379","59081","Sternberg task ","22","41549","34","yes","1024"
"65.7142857143","65.7142857143","1212","1212","black","experiment","legacy","legacy","legacy","0","uniform","1","1","undefined","left","34","34","34","34","34","0","34","34","0","0","34","0","0","34","0","10/23/22 19:28:13","The main experiment item","yes","Sternbergtask.osexp","C:\Users\ayesh\OneDrive\Desktop","no","mono","no","18","no","white","no","yes","768","legacy","22","11","C:/Users/ayesh/OneDrive/Desktop/MK-subject-4.csv","legacy","4","Lentiform Loewenfeld","3.3.12","1","y","0","left","left","NA","return","return","871","871","NA","52389","10446","2","legacy","1","1024","2","48000","-16","experiment","4","even","4","291709","293912","295913","296785","295913","NA","290638","291708","6688","149553","232598","6692","139106","292711","59081","Sternberg task ","23","42420","35","yes","1024"
"66.6666666667","66.6666666667","1206.38888889","1206.38888889","black","experiment","legacy","legacy","legacy","0","uniform","1","1","undefined","left","35","35","35","35","35","0","35","35","0","0","35","0","0","35","0","10/23/22 19:28:13","The main experiment item","yes","Sternbergtask.osexp","C:\Users\ayesh\OneDrive\Desktop","no","mono","no","18","no","white","no","yes","768","legacy","23","11","C:/Users/ayesh/OneDrive/Desktop/MK-subject-4.csv","legacy","3 5 7 1","Lentiform Loewenfeld","3.3.12","3","y","0","left","left","NA","return","return","1010","1010","NA","52389","10446","2","legacy","4","1024","2","48000","-16","experiment","4","even","7","297868","300076","302078","303089","302078","NA","296788","297866","6688","149553","232598","6692","139106","298872","59081","Sternberg task ","24","43430","36","yes","1024"
"67.5675675676","67.5675675676","1212.18918919","1212.18918919","black","experiment","legacy","legacy","legacy","0","uniform","1","1","undefined","right","36","36","36","36","36","0","36","36","0","0","36","0","0","36","0","10/23/22 19:28:13","The main experiment item","yes","Sternbergtask.osexp","C:\Users\ayesh\OneDrive\Desktop","no","mono","no","18","no","white","no","yes","768","legacy","24","11","C:/Users/ayesh/OneDrive/Desktop/MK-subject-4.csv","legacy","4 2 6 9","Lentiform Loewenfeld","3.3.12","0","n","0","right","right","NA","return","return","1421","1421","NA","52389","10446","2","legacy","4","1024","2","48000","-16","experiment","4","even","7","304165","306370","308371","309793","308371","NA","303093","304163","6688","149553","232598","6692","139106","305166","59081","Sternberg task ","25","44851","37","yes","1024"
"68.4210526316","68.4210526316","1200.47368421","1200.47368421","black","experiment","legacy","legacy","legacy","0","uniform","1","1","undefined","right","37","37","37","37","37","0","37","37","0","0","37","0","0","37","0","10/23/22 19:28:13","The main experiment item","yes","Sternbergtask.osexp","C:\Users\ayesh\OneDrive\Desktop","no","mono","no","18","no","white","no","yes","768","legacy","25","11","C:/Users/ayesh/OneDrive/Desktop/MK-subject-4.csv","legacy","4 1","Lentiform Loewenfeld","3.3.12","0","n","0","right","right","NA","return","return","767","767","NA","52389","10446","2","legacy","2","1024","2","48000","-16","experiment","4","even","6","310868","313072","315073","315840","315073","NA","309797","310867","6688","149553","232598","6692","139106","311868","59081","Sternberg task ","26","45618","38","yes","1024"
"69.2307692308","69.2307692308","1194.38461538","1194.38461538","black","experiment","legacy","legacy","legacy","0","uniform","1","1","undefined","left","38","38","38","38","38","0","38","38","0","0","38","0","0","38","0","10/23/22 19:28:13","The main experiment item","yes","Sternbergtask.osexp","C:\Users\ayesh\OneDrive\Desktop","no","mono","no","18","no","white","no","yes","768","legacy","26","11","C:/Users/ayesh/OneDrive/Desktop/MK-subject-4.csv","legacy","6 9 7 4 5 1","Lentiform Loewenfeld","3.3.12","2","y","0","left","left","NA","return","return","963","963","NA","52389","10446","2","legacy","6","1024","2","48000","-16","experiment","4","even","9","316919","319124","321125","322089","321125","NA","315845","316917","6688","149553","232598","6692","139106","317920","59081","Sternberg task ","27","46581","39","yes","1024"
"70","70","1185.875","1185.875","black","experiment","legacy","legacy","legacy","0","uniform","1","1","undefined","right","39","39","39","39","39","0","39","39","0","0","39","0","0","39","0","10/23/22 19:28:13","The main experiment item","yes","Sternbergtask.osexp","C:\Users\ayesh\OneDrive\Desktop","no","mono","no","18","no","white","no","yes","768","legacy","27","11","C:/Users/ayesh/OneDrive/Desktop/MK-subject-4.csv","legacy","5 2","Lentiform Loewenfeld","3.3.12","0","n","0","right","right","NA","return","return","854","854","NA","52389","10446","2","legacy","2","1024","2","48000","-16","experiment","4","even","7","323171","325377","327378","328233","327378","NA","322097","323170","6688","149553","232598","6692","139106","324172","59081","Sternberg task ","28","47435","40","yes","1024"
"70.7317073171","70.7317073171","1184.7804878","1184.7804878","black","experiment","legacy","legacy","legacy","0","uniform","1","1","undefined","right","40","40","40","40","40","0","40","40","0","0","40","0","0","40","0","10/23/22 19:28:13","The main experiment item","yes","Sternbergtask.osexp","C:\Users\ayesh\OneDrive\Desktop","no","mono","no","18","no","white","no","yes","768","legacy","28","11","C:/Users/ayesh/OneDrive/Desktop/MK-subject-4.csv","legacy","2 8 9","Lentiform Loewenfeld","3.3.12","0","n","0","right","right","NA","return","return","1141","1141","NA","52389","10446","2","legacy","3","1024","2","48000","-16","experiment","4","even","6","329309","331514","333515","334657","333515","NA","328237","329307","6688","149553","232598","6692","139106","330310","59081","Sternberg task ","29","48576","41","yes","1024"
"71.4285714286","71.4285714286","1179.69047619","1179.69047619","black","experiment","legacy","legacy","legacy","0","uniform","1","1","undefined","left","41","41","41","41","41","0","41","41","0","0","41","0","0","41","0","10/23/22 19:28:13","The main experiment item","yes","Sternbergtask.osexp","C:\Users\ayesh\OneDrive\Desktop","no","mono","no","18","no","white","no","yes","768","legacy","29","11","C:/Users/ayesh/OneDrive/Desktop/MK-subject-4.csv","legacy","9 4 2","Lentiform Loewenfeld","3.3.12","1","y","0","left","left","NA","return","return","971","971","NA","52389","10446","2","legacy","3","1024","2","48000","-16","experiment","4","even","9","335733","337939","339941","340913","339941","NA","334661","335731","6688","149553","232598","6692","139106","336735","59081","Sternberg task ","30","49547","42","yes","1024"
"72.0930232558","72.0930232558","1174.11627907","1174.11627907","black","experiment","legacy","legacy","legacy","0","uniform","1","1","undefined","right","42","42","42","42","42","0","42","42","0","0","42","0","0","42","0","10/23/22 19:28:13","The main experiment item","yes","Sternbergtask.osexp","C:\Users\ayesh\OneDrive\Desktop","no","mono","no","18","no","white","no","yes","768","legacy","30","11","C:/Users/ayesh/OneDrive/Desktop/MK-subject-4.csv","legacy","7 9","Lentiform Loewenfeld","3.3.12","0","n","0","right","right","NA","return","return","940","940","NA","52389","10446","2","legacy","2","1024","2","48000","-16","experiment","4","even","1","341989","344195","346196","347136","346196","NA","340917","341988","6688","149553","232598","6692","139106","342991","59081","Sternberg task ","31","50487","43","yes","1024"
"72.7272727273","72.7272727273","1180.29545455","1180.29545455","black","experiment","legacy","legacy","legacy","0","uniform","1","1","undefined","left","43","43","43","43","43","0","43","43","0","0","43","0","0","43","0","10/23/22 19:28:13","The main experiment item","yes","Sternbergtask.osexp","C:\Users\ayesh\OneDrive\Desktop","no","mono","no","18","no","white","no","yes","768","legacy","31","11","C:/Users/ayesh/OneDrive/Desktop/MK-subject-4.csv","legacy","4 6 2 5 1","Lentiform Loewenfeld","3.3.12","5","y","0","left","left","NA","return","return","1446","1446","NA","52389","10446","2","legacy","5","1024","2","48000","-16","experiment","4","even","1","348214","350417","352418","353865","352418","NA","347143","348212","6688","149553","232598","6692","139106","349215","59081","Sternberg task ","32","51933","44","yes","1024"
"73.3333333333","73.3333333333","1179.44444444","1179.44444444","black","experiment","legacy","legacy","legacy","0","uniform","1","1","undefined","right","44","44","44","44","44","0","44","44","0","0","44","0","0","44","0","10/23/22 19:28:13","The main experiment item","yes","Sternbergtask.osexp","C:\Users\ayesh\OneDrive\Desktop","no","mono","no","18","no","white","no","yes","768","legacy","32","11","C:/Users/ayesh/OneDrive/Desktop/MK-subject-4.csv","legacy","6 2 9 3 8 4","Lentiform Loewenfeld","3.3.12","0","n","0","right","right","NA","return","return","1142","1142","NA","52389","10446","2","legacy","6","1024","2","48000","-16","experiment","4","even","1","354940","357145","359146","360289","359146","NA","353869","354938","6688","149553","232598","6692","139106","355941","59081","Sternberg task ","33","53075","45","yes","1024"
"73.9130434783","73.9130434783","1176.93478261","1176.93478261","black","experiment","legacy","legacy","legacy","0","uniform","1","1","undefined","left","45","45","45","45","45","0","45","45","0","0","45","0","0","45","0","10/23/22 19:28:13","The main experiment item","yes","Sternbergtask.osexp","C:\Users\ayesh\OneDrive\Desktop","no","mono","no","18","no","white","no","yes","768","legacy","33","11","C:/Users/ayesh/OneDrive/Desktop/MK-subject-4.csv","legacy","4 1 5","Lentiform Loewenfeld","3.3.12","2","y","0","left","left","NA","return","return","1064","1064","NA","52389","10446","2","legacy","3","1024","2","48000","-16","experiment","4","even","1","361365","363570","365575","366640","365575","NA","360293","361364","6688","149553","232598","6692","139106","362366","59081","Sternberg task ","34","54139","46","yes","1024"
"74.4680851064","74.4680851064","1175.31914894","1175.31914894","black","experiment","legacy","legacy","legacy","0","uniform","1","1","undefined","right","46","46","46","46","46","0","46","46","0","0","46","0","0","46","0","10/23/22 19:28:13","The main experiment item","yes","Sternbergtask.osexp","C:\Users\ayesh\OneDrive\Desktop","no","mono","no","18","no","white","no","yes","768","legacy","34","11","C:/Users/ayesh/OneDrive/Desktop/MK-subject-4.csv","legacy","8 9","Lentiform Loewenfeld","3.3.12","0","n","0","right","right","NA","return","return","1101","1101","NA","52389","10446","2","legacy","2","1024","2","48000","-16","experiment","4","even","5","367717","369922","371923","373025","371923","NA","366646","367716","6688","149553","232598","6692","139106","368718","59081","Sternberg task ","35","55240","47","yes","1024"
"75","75","1175.375","1175.375","black","experiment","legacy","legacy","legacy","0","uniform","1","1","undefined","right","47","47","47","47","47","0","47","47","0","0","47","0","0","47","0","10/23/22 19:28:13","The main experiment item","yes","Sternbergtask.osexp","C:\Users\ayesh\OneDrive\Desktop","no","mono","no","18","no","white","no","yes","768","legacy","35","11","C:/Users/ayesh/OneDrive/Desktop/MK-subject-4.csv","legacy","5 7 3","Lentiform Loewenfeld","3.3.12","0","n","0","right","right","NA","return","return","1178","1178","NA","52389","10446","2","legacy","3","1024","2","48000","-16","experiment","4","even","9","374101","376306","378310","379489","378310","NA","373029","374100","6688","149553","232598","6692","139106","375102","59081","Sternberg task ","36","56418","48","yes","1024"
"75.5102040816","75.5102040816","1172.42857143","1172.42857143","black","experiment","legacy","legacy","legacy","0","uniform","1","1","undefined","right","48","48","48","48","48","0","48","48","0","0","48","0","0","48","0","10/23/22 19:28:13","The main experiment item","yes","Sternbergtask.osexp","C:\Users\ayesh\OneDrive\Desktop","no","mono","no","18","no","white","no","yes","768","legacy","36","11","C:/Users/ayesh/OneDrive/Desktop/MK-subject-4.csv","legacy","5 3 8 7 2 4","Lentiform Loewenfeld","3.3.12","0","n","0","right","right","NA","return","return","1031","1031","NA","52389","10446","2","legacy","6","1024","2","48000","-16","experiment","4","even","9","380579","382784","384785","385817","384785","NA","379493","380577","6688","149553","232598","6692","139106","381580","59081","Sternberg task ","37","57449","49","yes","1024"
"76","76","1174.74","1174.74","black","experiment","legacy","legacy","legacy","0","uniform","1","1","undefined","right","49","49","49","49","49","0","49","49","0","0","49","0","0","49","0","10/23/22 19:28:13","The main experiment item","yes","Sternbergtask.osexp","C:\Users\ayesh\OneDrive\Desktop","no","mono","no","18","no","white","no","yes","768","legacy","37","11","C:/Users/ayesh/OneDrive/Desktop/MK-subject-4.csv","legacy","2 7 5","Lentiform Loewenfeld","3.3.12","0","n","0","right","right","NA","return","return","1288","1288","NA","52389","10446","2","legacy","3","1024","2","48000","-16","experiment","4","even","8","386892","389095","391096","392385","391096","NA","385821","386891","6688","149553","232598","6692","139106","387893","59081","Sternberg task ","38","58737","50","yes","1024"
"76.4705882353","76.4705882353","1176.15686275","1176.15686275","black","experiment","legacy","legacy","legacy","0","uniform","1","1","undefined","left","50","50","50","50","50","0","50","50","0","0","50","0","0","50","0","10/23/22 19:28:13","The main experiment item","yes","Sternbergtask.osexp","C:\Users\ayesh\OneDrive\Desktop","no","mono","no","18","no","white","no","yes","768","legacy","38","11","C:/Users/ayesh/OneDrive/Desktop/MK-subject-4.csv","legacy","4 6 5 8","Lentiform Loewenfeld","3.3.12","1","y","0","left","left","NA","return","return","1247","1247","NA","52389","10446","2","legacy","4","1024","2","48000","-16","experiment","4","even","4","393466","395671","397673","398921","397673","NA","392390","393464","6688","149553","232598","6692","139106","394467","59081","Sternberg task ","39","59984","51","yes","1024"
"76.9230769231","76.9230769231","1173.63461538","1173.63461538","black","experiment","legacy","legacy","legacy","0","uniform","1","1","undefined","right","51","51","51","51","51","0","51","51","0","0","51","0","0","51","0","10/23/22 19:28:13","The main experiment item","yes","Sternbergtask.osexp","C:\Users\ayesh\OneDrive\Desktop","no","mono","no","18","no","white","no","yes","768","legacy","39","11","C:/Users/ayesh/OneDrive/Desktop/MK-subject-4.csv","legacy","1 8 7","Lentiform Loewenfeld","3.3.12","0","n","0","right","right","NA","return","return","1045","1045","NA","52389","10446","2","legacy","3","1024","2","48000","-16","experiment","4","even","4","399996","402202","404203","405249","404203","NA","398925","399995","6688","149553","232598","6692","139106","400998","59081","Sternberg task ","40","61029","52","yes","1024"
"77.358490566","77.358490566","1175","1175","black","experiment","legacy","legacy","legacy","0","uniform","1","1","undefined","left","52","52","52","52","52","0","52","52","0","0","52","0","0","52","0","10/23/22 19:28:13","The main experiment item","yes","Sternbergtask.osexp","C:\Users\ayesh\OneDrive\Desktop","no","mono","no","18","no","white","no","yes","768","legacy","40","11","C:/Users/ayesh/OneDrive/Desktop/MK-subject-4.csv","legacy","9 5 8 1","Lentiform Loewenfeld","3.3.12","2","y","0","left","left","NA","return","return","1246","1246","NA","52389","10446","2","legacy","4","1024","2","48000","-16","experiment","4","even","5","406324","408529","410530","411777","410530","NA","405253","406323","6688","149553","232598","6692","139106","407325","59081","Sternberg task ","41","62275","53","yes","1024"
"77.7777777778","77.7777777778","1175.51851852","1175.51851852","black","experiment","legacy","legacy","legacy","0","uniform","1","1","undefined","right","53","53","53","53","53","0","53","53","0","0","53","0","0","53","0","10/23/22 19:28:13","The main experiment item","yes","Sternbergtask.osexp","C:\Users\ayesh\OneDrive\Desktop","no","mono","no","18","no","white","no","yes","768","legacy","41","11","C:/Users/ayesh/OneDrive/Desktop/MK-subject-4.csv","legacy","1 6 4 3 9 7","Lentiform Loewenfeld","3.3.12","0","n","0","right","right","NA","return","return","1203","1203","NA","52389","10446","2","legacy","6","1024","2","48000","-16","experiment","4","even","8","412854","415059","417061","418265","417061","NA","411784","412852","6688","149553","232598","6692","139106","413855","59081","Sternberg task ","42","63478","54","yes","1024"
"78.1818181818","78.1818181818","1174.18181818","1174.18181818","black","experiment","legacy","legacy","legacy","0","uniform","1","1","undefined","right","54","54","54","54","54","0","54","54","0","0","54","0","0","54","0","10/23/22 19:28:13","The main experiment item","yes","Sternbergtask.osexp","C:\Users\ayesh\OneDrive\Desktop","no","mono","no","18","no","white","no","yes","768","legacy","42","11","C:/Users/ayesh/OneDrive/Desktop/MK-subject-4.csv","legacy","6 9 7 3 8 2","Lentiform Loewenfeld","3.3.12","0","n","0","right","right","NA","return","return","1102","1102","NA","52389","10446","2","legacy","6","1024","2","48000","-16","experiment","4","even","5","419355","421561","423562","424665","423562","NA","418269","419353","6688","149553","232598","6692","139106","420357","59081","Sternberg task ","43","64580","55","yes","1024"
"78.5714285714","78.5714285714","1176.35714286","1176.35714286","black","experiment","legacy","legacy","legacy","0","uniform","1","1","undefined","left","55","55","55","55","55","0","55","55","0","0","55","0","0","55","0","10/23/22 19:28:13","The main experiment item","yes","Sternbergtask.osexp","C:\Users\ayesh\OneDrive\Desktop","no","mono","no","18","no","white","no","yes","768","legacy","43","11","C:/Users/ayesh/OneDrive/Desktop/MK-subject-4.csv","legacy","2 4 8 5 1 3","Lentiform Loewenfeld","3.3.12","1","y","0","left","left","NA","return","return","1296","1296","NA","52389","10446","2","legacy","6","1024","2","48000","-16","experiment","4","even","2","425740","427943","429944","431241","429944","NA","424668","425738","6688","149553","232598","6692","139106","426741","59081","Sternberg task ","44","65876","56","yes","1024"
"78.9473684211","78.9473684211","1171.92982456","1171.92982456","black","experiment","legacy","legacy","legacy","0","uniform","1","1","undefined","left","56","56","56","56","56","0","56","56","0","0","56","0","0","56","0","10/23/22 19:28:13","The main experiment item","yes","Sternbergtask.osexp","C:\Users\ayesh\OneDrive\Desktop","no","mono","no","18","no","white","no","yes","768","legacy","44","11","C:/Users/ayesh/OneDrive/Desktop/MK-subject-4.csv","legacy","8 3","Lentiform Loewenfeld","3.3.12","2","y","0","left","left","NA","return","return","924","924","NA","52389","10446","2","legacy","2","1024","2","48000","-16","experiment","4","even","3","432318","434523","436524","437449","436524","NA","431245","432316","6688","149553","232598","6692","139106","433319","59081","Sternberg task ","45","66800","57","yes","1024"
"79.3103448276","79.3103448276","1169.82758621","1169.82758621","black","experiment","legacy","legacy","legacy","0","uniform","1","1","undefined","left","57","57","57","57","57","0","57","57","0","0","57","0","0","57","0","10/23/22 19:28:13","The main experiment item","yes","Sternbergtask.osexp","C:\Users\ayesh\OneDrive\Desktop","no","mono","no","18","no","white","no","yes","768","legacy","45","11","C:/Users/ayesh/OneDrive/Desktop/MK-subject-4.csv","legacy","2 6 1 7 4","Lentiform Loewenfeld","3.3.12","2","y","0","left","left","NA","return","return","1050","1050","NA","52389","10446","2","legacy","5","1024","2","48000","-16","experiment","4","even","6","438527","440733","442734","443785","442734","NA","437455","438526","6688","149553","232598","6692","139106","439528","59081","Sternberg task ","46","67850","58","yes","1024"
"79.6610169492","79.6610169492","1170.62711864","1170.62711864","black","experiment","legacy","legacy","legacy","0","uniform","1","1","undefined","left","58","58","58","58","58","0","58","58","0","0","58","0","0","58","0","10/23/22 19:28:13","The main experiment item","yes","Sternbergtask.osexp","C:\Users\ayesh\OneDrive\Desktop","no","mono","no","18","no","white","no","yes","768","legacy","46","11","C:/Users/ayesh/OneDrive/Desktop/MK-subject-4.csv","legacy","7 2 3","Lentiform Loewenfeld","3.3.12","3","y","0","left","left","NA","return","return","1217","1217","NA","52389","10446","2","legacy","3","1024","2","48000","-16","experiment","4","even","3","444862","447070","449071","450289","449071","NA","443789","444860","6688","149553","232598","6692","139106","445866","59081","Sternberg task ","47","69067","59","yes","1024"
"80","80","1167.05","1167.05","black","experiment","legacy","legacy","legacy","0","uniform","1","1","undefined","left","59","59","59","59","59","0","59","59","0","0","59","0","0","59","0","10/23/22 19:28:13","The main experiment item","yes","Sternbergtask.osexp","C:\Users\ayesh\OneDrive\Desktop","no","mono","no","18","no","white","no","yes","768","legacy","47","11","C:/Users/ayesh/OneDrive/Desktop/MK-subject-4.csv","legacy","5 2 9 6 1 7","Lentiform Loewenfeld","3.3.12","3","y","0","left","left","NA","return","return","956","956","NA","52389","10446","2","legacy","6","1024","2","48000","-16","experiment","4","even","9","451365","453570","455571","456528","455571","NA","450293","451364","6688","149553","232598","6692","139106","452366","59081","Sternberg task ","48","70023","60","yes","1024"
"80.3278688525","80.3278688525","1164.93442623","1164.93442623","black","experiment","legacy","legacy","legacy","0","uniform","1","1","undefined","left","60","60","60","60","60","0","60","60","0","0","60","0","0","60","0","10/23/22 19:28:13","The main experiment item","yes","Sternbergtask.osexp","C:\Users\ayesh\OneDrive\Desktop","no","mono","no","18","no","white","no","yes","768","legacy","48","11","C:/Users/ayesh/OneDrive/Desktop/MK-subject-4.csv","legacy","3 9 6 2","Lentiform Loewenfeld","3.3.12","4","y","0","left","left","NA","return","return","1038","1038","NA","52389","10446","2","legacy","4","1024","2","48000","-16","experiment","4","even","2","457604","459809","461810","462849","461810","NA","456532","457602","6688","149553","232598","6692","139106","458606","59081","Sternberg task ","49","71061","61","yes","1024"
"80.6451612903","80.6451612903","1162.43548387","1162.43548387","black","experiment","legacy","legacy","legacy","0","uniform","1","1","undefined","right","61","61","61","61","61","0","61","61","0","0","61","0","0","61","0","10/23/22 19:28:13","The main experiment item","yes","Sternbergtask.osexp","C:\Users\ayesh\OneDrive\Desktop","no","mono","no","18","no","white","no","yes","768","legacy","49","11","C:/Users/ayesh/OneDrive/Desktop/MK-subject-4.csv","legacy","8 2 1 4 5 9","Lentiform Loewenfeld","3.3.12","0","n","0","right","right","NA","return","return","1010","1010","NA","52389","10446","2","legacy","6","1024","2","48000","-16","experiment","4","even","7","463928","466133","468134","469145","468134","NA","462853","463926","6688","149553","232598","6692","139106","464929","59081","Sternberg task ","50","72071","62","yes","1024"
"80.9523809524","80.9523809524","1160.04761905","1160.04761905","black","experiment","legacy","legacy","legacy","0","uniform","1","1","undefined","right","62","62","62","62","62","0","62","62","0","0","62","0","0","62","0","10/23/22 19:28:13","The main experiment item","yes","Sternbergtask.osexp","C:\Users\ayesh\OneDrive\Desktop","no","mono","no","18","no","white","no","yes","768","legacy","50","11","C:/Users/ayesh/OneDrive/Desktop/MK-subject-4.csv","legacy","6 8","Lentiform Loewenfeld","3.3.12","0","n","0","right","right","NA","return","return","1012","1012","NA","52389","10446","2","legacy","2","1024","2","48000","-16","experiment","4","even","9","470220","472423","474428","475441","474428","NA","469149","470218","6688","149553","232598","6692","139106","471221","59081","Sternberg task ","51","73083","63","yes","1024"
"81.25","81.25","1164.578125","1164.578125","black","experiment","legacy","legacy","legacy","0","uniform","1","1","undefined","right","63","63","63","63","63","0","63","63","0","0","63","0","0","63","0","10/23/22 19:28:13","The main experiment item","yes","Sternbergtask.osexp","C:\Users\ayesh\OneDrive\Desktop","no","mono","no","18","no","white","no","yes","768","legacy","51","11","C:/Users/ayesh/OneDrive/Desktop/MK-subject-4.csv","legacy","8 5 4 2 9 6","Lentiform Loewenfeld","3.3.12","0","n","0","right","right","NA","return","return","1450","1450","NA","52389","10446","2","legacy","6","1024","2","48000","-16","experiment","4","even","3","476520","478725","480726","482177","480726","NA","475446","476518","6688","149553","232598","6692","139106","477521","59081","Sternberg task ","52","74533","64","yes","1024"
"81.5384615385","81.5384615385","1162.67692308","1162.67692308","black","experiment","legacy","legacy","legacy","0","uniform","1","1","undefined","right","64","64","64","64","64","0","64","64","0","0","64","0","0","64","0","10/23/22 19:28:13","The main experiment item","yes","Sternbergtask.osexp","C:\Users\ayesh\OneDrive\Desktop","no","mono","no","18","no","white","no","yes","768","legacy","52","11","C:/Users/ayesh/OneDrive/Desktop/MK-subject-4.csv","legacy","8 5 7 3 6","Lentiform Loewenfeld","3.3.12","0","n","0","right","right","NA","return","return","1041","1041","NA","52389","10446","2","legacy","5","1024","2","48000","-16","experiment","4","even","9","483254","485459","487463","488505","487463","NA","482182","483253","6688","149553","232598","6692","139106","484255","59081","Sternberg task ","53","75574","65","yes","1024"
"81.8181818182","81.8181818182","1171.24242424","1171.24242424","black","experiment","legacy","legacy","legacy","0","uniform","1","1","undefined","right","65","65","65","65","65","0","65","65","0","0","65","0","0","65","0","10/23/22 19:28:13","The main experiment item","yes","Sternbergtask.osexp","C:\Users\ayesh\OneDrive\Desktop","no","mono","no","18","no","white","no","yes","768","legacy","53","11","C:/Users/ayesh/OneDrive/Desktop/MK-subject-4.csv","legacy","6 9 4 5 2","Lentiform Loewenfeld","3.3.12","0","n","0","right","right","NA","return","return","1728","1728","NA","52389","10446","2","legacy","5","1024","2","48000","-16","experiment","4","even","1","489580","491784","493785","495514","493785","NA","488509","489578","6688","149553","232598","6692","139106","490581","59081","Sternberg task ","54","77302","66","yes","1024"
"82.0895522388","82.0895522388","1168.56716418","1168.56716418","black","experiment","legacy","legacy","legacy","0","uniform","1","1","undefined","right","66","66","66","66","66","0","66","66","0","0","66","0","0","66","0","10/23/22 19:28:13","The main experiment item","yes","Sternbergtask.osexp","C:\Users\ayesh\OneDrive\Desktop","no","mono","no","18","no","white","no","yes","768","legacy","54","11","C:/Users/ayesh/OneDrive/Desktop/MK-subject-4.csv","legacy","8 4 3 5","Lentiform Loewenfeld","3.3.12","0","n","0","right","right","NA","return","return","992","992","NA","52389","10446","2","legacy","4","1024","2","48000","-16","experiment","4","even","6","496592","498798","500800","501793","500800","NA","495518","496590","6688","149553","232598","6692","139106","497594","59081","Sternberg task ","55","78294","67","yes","1024"
"82.3529411765","82.3529411765","1167","1167","black","experiment","legacy","legacy","legacy","0","uniform","1","1","undefined","left","67","67","67","67","67","0","67","67","0","0","67","0","0","67","0","10/23/22 19:28:13","The main experiment item","yes","Sternbergtask.osexp","C:\Users\ayesh\OneDrive\Desktop","no","mono","no","18","no","white","no","yes","768","legacy","55","11","C:/Users/ayesh/OneDrive/Desktop/MK-subject-4.csv","legacy","7 1 8 5 6 2","Lentiform Loewenfeld","3.3.12","2","y","0","left","left","NA","return","return","1062","1062","NA","52389","10446","2","legacy","6","1024","2","48000","-16","experiment","4","even","1","502869","505072","507073","508136","507073","NA","501797","502868","6688","149553","232598","6692","139106","503870","59081","Sternberg task ","56","79356","68","yes","1024"
"82.6086956522","82.6086956522","1166.89855072","1166.89855072","black","experiment","legacy","legacy","legacy","0","uniform","1","1","undefined","right","68","68","68","68","68","0","68","68","0","0","68","0","0","68","0","10/23/22 19:28:13","The main experiment item","yes","Sternbergtask.osexp","C:\Users\ayesh\OneDrive\Desktop","no","mono","no","18","no","white","no","yes","768","legacy","56","11","C:/Users/ayesh/OneDrive/Desktop/MK-subject-4.csv","legacy","5 9 2 3","Lentiform Loewenfeld","3.3.12","0","n","0","right","right","NA","return","return","1160","1160","NA","52389","10446","2","legacy","4","1024","2","48000","-16","experiment","4","even","8","509225","511430","513432","514593","513432","NA","508140","509224","6688","149553","232598","6692","139106","510226","59081","Sternberg task ","57","80516","69","yes","1024"
"81.4285714286","81.4285714286","1168.94285714","1168.94285714","black","experiment","legacy","legacy","legacy","0","uniform","0","0","undefined","left","69","69","69","69","69","0","69","69","0","0","69","0","0","69","0","10/23/22 19:28:13","The main experiment item","yes","Sternbergtask.osexp","C:\Users\ayesh\OneDrive\Desktop","no","mono","no","18","no","white","no","yes","768","legacy","57","11","C:/Users/ayesh/OneDrive/Desktop/MK-subject-4.csv","legacy","8 9 5 7 1 6","Lentiform Loewenfeld","3.3.12","4","y","0","right","right","NA","return","return","1310","1310","NA","52389","10446","2","legacy","6","1024","2","48000","-16","experiment","4","even","7","515668","517873","519874","521185","519874","NA","514597","515666","6688","149553","232598","6692","139106","516669","59081","Sternberg task ","57","81826","70","yes","1024"
"81.6901408451","81.6901408451","1167.52112676","1167.52112676","black","experiment","legacy","legacy","legacy","0","uniform","1","1","undefined","left","70","70","70","70","70","0","70","70","0","0","70","0","0","70","0","10/23/22 19:28:13","The main experiment item","yes","Sternbergtask.osexp","C:\Users\ayesh\OneDrive\Desktop","no","mono","no","18","no","white","no","yes","768","legacy","58","11","C:/Users/ayesh/OneDrive/Desktop/MK-subject-4.csv","legacy","6 1 2","Lentiform Loewenfeld","3.3.12","3","y","0","left","left","NA","return","return","1068","1068","NA","52389","10446","2","legacy","3","1024","2","48000","-16","experiment","4","even","2","522261","524466","526468","527537","526468","NA","514597","522259","6688","149553","521189","6692","139106","523262","59081","Sternberg task ","58","82894","71","yes","1024"
"81.9444444444","81.9444444444","1171.73611111","1171.73611111","black","experiment","legacy","legacy","legacy","0","uniform","1","1","undefined","right","71","71","71","71","71","0","71","71","0","0","71","0","0","71","0","10/23/22 19:28:13","The main experiment item","yes","Sternbergtask.osexp","C:\Users\ayesh\OneDrive\Desktop","no","mono","no","18","no","white","no","yes","768","legacy","59","11","C:/Users/ayesh/OneDrive/Desktop/MK-subject-4.csv","legacy","2 8 6 3 1","Lentiform Loewenfeld","3.3.12","0","n","0","right","right","NA","return","return","1471","1471","NA","52389","10446","2","legacy","5","1024","2","48000","-16","experiment","4","even","7","528612","530816","532817","534289","532817","NA","527540","528610","6688","149553","521189","6692","139106","529613","59081","Sternberg task ","59","84365","72","yes","1024"
"82.1917808219","82.1917808219","1170.01369863","1170.01369863","black","experiment","legacy","legacy","legacy","0","uniform","1","1","undefined","right","72","72","72","72","72","0","72","72","0","0","72","0","0","72","0","10/23/22 19:28:13","The main experiment item","yes","Sternbergtask.osexp","C:\Users\ayesh\OneDrive\Desktop","no","mono","no","18","no","white","no","yes","768","legacy","60","11","C:/Users/ayesh/OneDrive/Desktop/MK-subject-4.csv","legacy","2 5 1 4","Lentiform Loewenfeld","3.3.12","0","n","0","right","right","NA","return","return","1046","1046","NA","52389","10446","2","legacy","4","1024","2","48000","-16","experiment","4","even","6","535364","537569","539570","540617","539570","NA","534293","535362","6688","149553","521189","6692","139106","536365","59081","Sternberg task ","60","85411","73","yes","1024"
"82.4324324324","82.4324324324","1171.04054054","1171.04054054","black","experiment","legacy","legacy","legacy","0","uniform","1","1","undefined","right","73","73","73","73","73","0","73","73","0","0","73","0","0","73","0","10/23/22 19:28:13","The main experiment item","yes","Sternbergtask.osexp","C:\Users\ayesh\OneDrive\Desktop","no","mono","no","18","no","white","no","yes","768","legacy","61","11","C:/Users/ayesh/OneDrive/Desktop/MK-subject-4.csv","legacy","1 4 9 3","Lentiform Loewenfeld","3.3.12","0","n","0","right","right","NA","return","return","1246","1246","NA","52389","10446","2","legacy","4","1024","2","48000","-16","experiment","4","even","5","541699","543904","545906","547154","545905","NA","540620","541697","6688","149553","521189","6692","139106","542700","59081","Sternberg task ","61","86657","74","yes","1024"
"82.6666666667","82.6666666667","1173.48","1173.48","black","experiment","legacy","legacy","legacy","0","uniform","1","1","undefined","left","74","74","74","74","74","0","74","74","0","0","74","0","0","74","0","10/23/22 19:28:13","The main experiment item","yes","Sternbergtask.osexp","C:\Users\ayesh\OneDrive\Desktop","no","mono","no","18","no","white","no","yes","768","legacy","62","11","C:/Users/ayesh/OneDrive/Desktop/MK-subject-4.csv","legacy","1 4 9 3 2 5","Lentiform Loewenfeld","3.3.12","3","y","0","left","left","NA","return","return","1354","1354","NA","52389","10446","2","legacy","6","1024","2","48000","-16","experiment","4","even","9","548240","550445","552446","553801","552446","NA","547158","548238","6688","149553","521189","6692","139106","549241","59081","Sternberg task ","62","88011","75","yes","1024"
"82.8947368421","82.8947368421","1177.78947368","1177.78947368","black","experiment","legacy","legacy","legacy","0","uniform","1","1","undefined","right","75","75","75","75","75","0","75","75","0","0","75","0","0","75","0","10/23/22 19:28:13","The main experiment item","yes","Sternbergtask.osexp","C:\Users\ayesh\OneDrive\Desktop","no","mono","no","18","no","white","no","yes","768","legacy","63","11","C:/Users/ayesh/OneDrive/Desktop/MK-subject-4.csv","legacy","2 8 7 9 5 3","Lentiform Loewenfeld","3.3.12","0","n","0","right","right","NA","return","return","1501","1501","NA","52389","10446","2","legacy","6","1024","2","48000","-16","experiment","4","even","6","554877","557082","559083","560585","559083","NA","553805","554875","6688","149553","521189","6692","139106","555878","59081","Sternberg task ","63","89512","76","yes","1024"
"83.1168831169","83.1168831169","1178.27272727","1178.27272727","black","experiment","legacy","legacy","legacy","0","uniform","1","1","undefined","left","76","76","76","76","76","0","76","76","0","0","76","0","0","76","0","10/23/22 19:28:13","The main experiment item","yes","Sternbergtask.osexp","C:\Users\ayesh\OneDrive\Desktop","no","mono","no","18","no","white","no","yes","768","legacy","64","11","C:/Users/ayesh/OneDrive/Desktop/MK-subject-4.csv","legacy","6 5","Lentiform Loewenfeld","3.3.12","2","y","0","left","left","NA","return","return","1215","1215","NA","52389","10446","2","legacy","2","1024","2","48000","-16","experiment","4","even","5","561659","563864","565865","567081","565865","NA","560588","561657","6688","149553","521189","6692","139106","562660","59081","Sternberg task ","64","90727","77","yes","1024"
"83.3333333333","83.3333333333","1177.07692308","1177.07692308","black","experiment","legacy","legacy","legacy","0","uniform","1","1","undefined","right","77","77","77","77","77","0","77","77","0","0","77","0","0","77","0","10/23/22 19:28:13","The main experiment item","yes","Sternbergtask.osexp","C:\Users\ayesh\OneDrive\Desktop","no","mono","no","18","no","white","no","yes","768","legacy","65","11","C:/Users/ayesh/OneDrive/Desktop/MK-subject-4.csv","legacy","8 6 3 4 7","Lentiform Loewenfeld","3.3.12","0","n","0","right","right","NA","return","return","1085","1085","NA","52389","10446","2","legacy","5","1024","2","48000","-16","experiment","4","even","1","568156","570360","572362","573448","572362","NA","567084","568154","6688","149553","521189","6692","139106","569157","59081","Sternberg task ","65","91812","78","yes","1024"
"83.5443037975","83.5443037975","1174.94936709","1174.94936709","black","experiment","legacy","legacy","legacy","0","uniform","1","1","undefined","right","78","78","78","78","78","0","78","78","0","0","78","0","0","78","0","10/23/22 19:28:13","The main experiment item","yes","Sternbergtask.osexp","C:\Users\ayesh\OneDrive\Desktop","no","mono","no","18","no","white","no","yes","768","legacy","66","11","C:/Users/ayesh/OneDrive/Desktop/MK-subject-4.csv","legacy","9 5 3 2 8 6","Lentiform Loewenfeld","3.3.12","0","n","0","right","right","NA","return","return","1009","1009","NA","52389","10446","2","legacy","6","1024","2","48000","-16","experiment","4","even","7","574523","576727","578727","579736","578727","NA","573452","574522","6688","149553","521189","6692","139106","575524","59081","Sternberg task ","66","92821","79","yes","1024"
"83.75","83.75","1172.4875","1172.4875","black","experiment","legacy","legacy","legacy","0","uniform","1","1","undefined","right","79","79","79","79","79","0","79","79","0","0","79","0","0","79","0","10/23/22 19:28:13","The main experiment item","yes","Sternbergtask.osexp","C:\Users\ayesh\OneDrive\Desktop","no","mono","no","18","no","white","no","yes","768","legacy","67","11","C:/Users/ayesh/OneDrive/Desktop/MK-subject-4.csv","legacy","2 3 8 5 6 7","Lentiform Loewenfeld","3.3.12","0","n","0","right","right","NA","return","return","978","978","NA","52389","10446","2","legacy","6","1024","2","48000","-16","experiment","4","even","1","580815","583021","585022","586001","585022","NA","579742","580813","6688","149553","521189","6692","139106","581816","59081","Sternberg task ","67","93799","80","yes","1024"
"83.950617284","83.950617284","1170.61728395","1170.61728395","black","experiment","legacy","legacy","legacy","0","uniform","1","1","undefined","right","80","80","80","80","80","0","80","80","0","0","80","0","0","80","0","10/23/22 19:28:13","The main experiment item","yes","Sternbergtask.osexp","C:\Users\ayesh\OneDrive\Desktop","no","mono","no","18","no","white","no","yes","768","legacy","68","11","C:/Users/ayesh/OneDrive/Desktop/MK-subject-4.csv","legacy","6 9 4 5 3 2","Lentiform Loewenfeld","3.3.12","0","n","0","right","right","NA","return","return","1021","1021","NA","52389","10446","2","legacy","6","1024","2","48000","-16","experiment","4","even","8","587077","589282","591283","592305","591283","NA","586004","587075","6688","149553","521189","6692","139106","588078","59081","Sternberg task ","68","94820","81","yes","1024"
"84.1463414634","84.1463414634","1166.59756098","1166.59756098","black","experiment","legacy","legacy","legacy","0","uniform","1","1","undefined","left","81","81","81","81","81","0","81","81","0","0","81","0","0","81","0","10/23/22 19:28:13","The main experiment item","yes","Sternbergtask.osexp","C:\Users\ayesh\OneDrive\Desktop","no","mono","no","18","no","white","no","yes","768","legacy","69","11","C:/Users/ayesh/OneDrive/Desktop/MK-subject-4.csv","legacy","9 6 2 4 1","Lentiform Loewenfeld","3.3.12","4","y","0","left","left","NA","return","return","841","841","NA","52389","10446","2","legacy","5","1024","2","48000","-16","experiment","4","even","4","593400","595605","597606","598448","597606","NA","592310","593398","6688","149553","521189","6692","139106","594401","59081","Sternberg task ","69","95661","82","yes","1024"
"84.3373493976","84.3373493976","1174.59036145","1174.59036145","black","experiment","legacy","legacy","legacy","0","uniform","1","1","undefined","right","82","82","82","82","82","0","82","82","0","0","82","0","0","82","0","10/23/22 19:28:13","The main experiment item","yes","Sternbergtask.osexp","C:\Users\ayesh\OneDrive\Desktop","no","mono","no","18","no","white","no","yes","768","legacy","70","11","C:/Users/ayesh/OneDrive/Desktop/MK-subject-4.csv","legacy","3 9 1","Lentiform Loewenfeld","3.3.12","0","n","0","right","right","NA","return","return","1830","1830","NA","52389","10446","2","legacy","3","1024","2","48000","-16","experiment","4","even","7","599524","601729","603730","605561","603730","NA","598453","599521","6688","149553","521189","6692","139106","600525","59081","Sternberg task ","70","97491","83","yes","1024"
"84.5238095238","84.5238095238","1175.32142857","1175.32142857","black","experiment","legacy","legacy","legacy","0","uniform","1","1","undefined","left","83","83","83","83","83","0","83","83","0","0","83","0","0","83","0","10/23/22 19:28:13","The main experiment item","yes","Sternbergtask.osexp","C:\Users\ayesh\OneDrive\Desktop","no","mono","no","18","no","white","no","yes","768","legacy","71","11","C:/Users/ayesh/OneDrive/Desktop/MK-subject-4.csv","legacy","2 3","Lentiform Loewenfeld","3.3.12","1","y","0","left","left","NA","return","return","1236","1236","NA","52389","10446","2","legacy","2","1024","2","48000","-16","experiment","4","even","2","606636","608841","610843","612080","610843","NA","605564","606634","6688","149553","521189","6692","139106","607637","59081","Sternberg task ","71","98727","84","yes","1024"
"84.7058823529","84.7058823529","1178.68235294","1178.68235294","black","experiment","legacy","legacy","legacy","0","uniform","1","1","undefined","left","84","84","84","84","84","0","84","84","0","0","84","0","0","84","0","10/23/22 19:28:13","The main experiment item","yes","Sternbergtask.osexp","C:\Users\ayesh\OneDrive\Desktop","no","mono","no","18","no","white","no","yes","768","legacy","72","11","C:/Users/ayesh/OneDrive/Desktop/MK-subject-4.csv","legacy","4 3 2 5 8","Lentiform Loewenfeld","3.3.12","2","y","0","left","left","NA","return","return","1461","1461","NA","52389","10446","2","legacy","5","1024","2","48000","-16","experiment","4","even","3","613157","615362","617363","618824","617363","NA","612085","613155","6688","149553","521189","6692","139106","614158","59081","Sternberg task ","72","100188","85","yes","1024"
"84.8837209302","84.8837209302","1177.51162791","1177.51162791","black","experiment","legacy","legacy","legacy","0","uniform","1","1","undefined","left","85","85","85","85","85","0","85","85","0","0","85","0","0","85","0","10/23/22 19:28:13","The main experiment item","yes","Sternbergtask.osexp","C:\Users\ayesh\OneDrive\Desktop","no","mono","no","18","no","white","no","yes","768","legacy","73","11","C:/Users/ayesh/OneDrive/Desktop/MK-subject-4.csv","legacy","7","Lentiform Loewenfeld","3.3.12","1","y","0","left","left","NA","return","return","1078","1078","NA","52389","10446","2","legacy","1","1024","2","48000","-16","experiment","4","even","7","619899","622104","624105","625184","624105","NA","618828","619897","6688","149553","521189","6692","139106","620900","59081","Sternberg task ","73","101266","86","yes","1024"
"85.0574712644","85.0574712644","1175.87356322","1175.87356322","black","experiment","legacy","legacy","legacy","0","uniform","1","1","undefined","left","86","86","86","86","86","0","86","86","0","0","86","0","0","86","0","10/23/22 19:28:13","The main experiment item","yes","Sternbergtask.osexp","C:\Users\ayesh\OneDrive\Desktop","no","mono","no","18","no","white","no","yes","768","legacy","74","11","C:/Users/ayesh/OneDrive/Desktop/MK-subject-4.csv","legacy","2 3 7 4","Lentiform Loewenfeld","3.3.12","1","y","0","left","left","NA","return","return","1035","1035","NA","52389","10446","2","legacy","4","1024","2","48000","-16","experiment","4","even","2","626261","628466","630468","631505","630468","NA","625189","626260","6688","149553","521189","6692","139106","627262","59081","Sternberg task ","74","102301","87","yes","1024"
"85.2272727273","85.2272727273","1178.17045455","1178.17045455","black","experiment","legacy","legacy","legacy","0","uniform","1","1","undefined","right","87","87","87","87","87","0","87","87","0","0","87","0","0","87","0","10/23/22 19:28:13","The main experiment item","yes","Sternbergtask.osexp","C:\Users\ayesh\OneDrive\Desktop","no","mono","no","18","no","white","no","yes","768","legacy","75","11","C:/Users/ayesh/OneDrive/Desktop/MK-subject-4.csv","legacy","3 4 9 6 7 8","Lentiform Loewenfeld","3.3.12","0","n","0","right","right","NA","return","return","1378","1378","NA","52389","10446","2","legacy","6","1024","2","48000","-16","experiment","4","even","2","632582","634788","636789","638168","636789","NA","631509","632581","6688","149553","521189","6692","139106","633584","59081","Sternberg task ","75","103679","88","yes","1024"
"85.393258427","85.393258427","1176.84269663","1176.84269663","black","experiment","legacy","legacy","legacy","0","uniform","1","1","undefined","left","88","88","88","88","88","0","88","88","0","0","88","0","0","88","0","10/23/22 19:28:13","The main experiment item","yes","Sternbergtask.osexp","C:\Users\ayesh\OneDrive\Desktop","no","mono","no","18","no","white","no","yes","768","legacy","76","11","C:/Users/ayesh/OneDrive/Desktop/MK-subject-4.csv","legacy","3 4 9 6 2 9","Lentiform Loewenfeld","3.3.12","5","y","0","left","left","NA","return","return","1060","1060","NA","52389","10446","2","legacy","6","1024","2","48000","-16","experiment","4","even","2","639245","641451","643452","644513","643452","NA","638173","639244","6688","149553","521189","6692","139106","640246","59081","Sternberg task ","76","104739","89","yes","1024"
"85.5555555556","85.5555555556","1175.62222222","1175.62222222","black","experiment","legacy","legacy","legacy","0","uniform","1","1","undefined","right","89","89","89","89","89","0","89","89","0","0","89","0","0","89","0","10/23/22 19:28:13","The main experiment item","yes","Sternbergtask.osexp","C:\Users\ayesh\OneDrive\Desktop","no","mono","no","18","no","white","no","yes","768","legacy","77","11","C:/Users/ayesh/OneDrive/Desktop/MK-subject-4.csv","legacy","6 8 4","Lentiform Loewenfeld","3.3.12","0","n","0","right","right","NA","return","return","1067","1067","NA","52389","10446","2","legacy","3","1024","2","48000","-16","experiment","4","even","1","645591","647796","649797","650865","649797","NA","644516","645589","6688","149553","521189","6692","139106","646592","59081","Sternberg task ","77","105806","90","yes","1024"
"85.7142857143","85.7142857143","1176.89010989","1176.89010989","black","experiment","legacy","legacy","legacy","0","uniform","1","1","undefined","right","90","90","90","90","90","0","90","90","0","0","90","0","0","90","0","10/23/22 19:28:13","The main experiment item","yes","Sternbergtask.osexp","C:\Users\ayesh\OneDrive\Desktop","no","mono","no","18","no","white","no","yes","768","legacy","78","11","C:/Users/ayesh/OneDrive/Desktop/MK-subject-4.csv","legacy","7 6 4 8 1 2","Lentiform Loewenfeld","3.3.12","0","n","0","right","right","NA","return","return","1291","1291","NA","52389","10446","2","legacy","6","1024","2","48000","-16","experiment","4","even","9","651942","654147","656148","657440","656148","NA","650868","651940","6688","149553","521189","6692","139106","652943","59081","Sternberg task ","78","107097","91","yes","1024"
"85.8695652174","85.8695652174","1176.67391304","1176.67391304","black","experiment","legacy","legacy","legacy","0","uniform","1","1","undefined","right","91","91","91","91","91","0","91","91","0","0","91","0","0","91","0","10/23/22 19:28:13","The main experiment item","yes","Sternbergtask.osexp","C:\Users\ayesh\OneDrive\Desktop","no","mono","no","18","no","white","no","yes","768","legacy","79","11","C:/Users/ayesh/OneDrive/Desktop/MK-subject-4.csv","legacy","9 7 4 5 8","Lentiform Loewenfeld","3.3.12","0","n","0","right","right","NA","return","return","1157","1157","NA","52389","10446","2","legacy","5","1024","2","48000","-16","experiment","4","even","6","658516","660721","662723","663881","662723","NA","657444","658514","6688","149553","521189","6692","139106","659517","59081","Sternberg task ","79","108254","92","yes","1024"
"86.0215053763","86.0215053763","1176.19354839","1176.19354839","black","experiment","legacy","legacy","legacy","0","uniform","1","1","undefined","left","92","92","92","92","92","0","92","92","0","0","92","0","0","92","0","10/23/22 19:28:13","The main experiment item","yes","Sternbergtask.osexp","C:\Users\ayesh\OneDrive\Desktop","no","mono","no","18","no","white","no","yes","768","legacy","80","11","C:/Users/ayesh/OneDrive/Desktop/MK-subject-4.csv","legacy","6 8 9 3 4 9","Lentiform Loewenfeld","3.3.12","5","y","0","left","left","NA","return","return","1132","1132","NA","52389","10446","2","legacy","6","1024","2","48000","-16","experiment","4","even","4","664956","667161","669163","670296","669163","NA","663884","664954","6688","149553","521189","6692","139106","665957","59081","Sternberg task ","80","109386","93","yes","1024"
"86.170212766","86.170212766","1175.31914894","1175.31914894","black","experiment","legacy","legacy","legacy","0","uniform","1","1","undefined","left","93","93","93","93","93","0","93","93","0","0","93","0","0","93","0","10/23/22 19:28:13","The main experiment item","yes","Sternbergtask.osexp","C:\Users\ayesh\OneDrive\Desktop","no","mono","no","18","no","white","no","yes","768","legacy","81","11","C:/Users/ayesh/OneDrive/Desktop/MK-subject-4.csv","legacy","3 5 9 6 2 4","Lentiform Loewenfeld","3.3.12","1","y","0","left","left","NA","return","return","1094","1094","NA","52389","10446","2","legacy","6","1024","2","48000","-16","experiment","4","even","3","671371","673576","675577","676672","675577","NA","670300","671369","6688","149553","521189","6692","139106","672372","59081","Sternberg task ","81","110480","94","yes","1024"
"86.3157894737","86.3157894737","1173.15789474","1173.15789474","black","experiment","legacy","legacy","legacy","0","uniform","1","1","undefined","left","94","94","94","94","94","0","94","94","0","0","94","0","0","94","0","10/23/22 19:28:13","The main experiment item","yes","Sternbergtask.osexp","C:\Users\ayesh\OneDrive\Desktop","no","mono","no","18","no","white","no","yes","768","legacy","82","11","C:/Users/ayesh/OneDrive/Desktop/MK-subject-4.csv","legacy","7 8 4 6 9 5","Lentiform Loewenfeld","3.3.12","4","y","0","left","left","NA","return","return","970","970","NA","52389","10446","2","legacy","6","1024","2","48000","-16","experiment","4","even","6","677748","679953","681957","682929","681957","NA","676676","677746","6688","149553","521189","6692","139106","678749","59081","Sternberg task ","82","111450","95","yes","1024"
"86.4583333333","86.4583333333","1170.91666667","1170.91666667","black","experiment","legacy","legacy","legacy","0","uniform","1","1","undefined","right","95","95","95","95","95","0","95","95","0","0","95","0","0","95","0","10/23/22 19:28:13","The main experiment item","yes","Sternbergtask.osexp","C:\Users\ayesh\OneDrive\Desktop","no","mono","no","18","no","white","no","yes","768","legacy","83","11","C:/Users/ayesh/OneDrive/Desktop/MK-subject-4.csv","legacy","5","Lentiform Loewenfeld","3.3.12","0","n","0","right","right","NA","return","return","958","958","NA","52389","10446","2","legacy","1","1024","2","48000","-16","experiment","4","even","8","684004","686209","688210","689169","688210","NA","682933","684002","6688","149553","521189","6692","139106","685005","59081","Sternberg task ","83","112408","96","yes","1024"
"85.5670103093","85.5670103093","1171.08247423","1171.08247423","black","experiment","legacy","legacy","legacy","0","uniform","0","0","undefined","left","96","96","96","96","96","0","96","96","0","0","96","0","0","96","0","10/23/22 19:28:13","The main experiment item","yes","Sternbergtask.osexp","C:\Users\ayesh\OneDrive\Desktop","no","mono","no","18","no","white","no","yes","768","legacy","84","11","C:/Users/ayesh/OneDrive/Desktop/MK-subject-4.csv","legacy","3 9 7 6 4","Lentiform Loewenfeld","3.3.12","3","y","0","right","right","NA","return","return","1187","1187","NA","52389","10446","2","legacy","5","1024","2","48000","-16","experiment","4","even","7","690246","692451","694452","695640","694452","NA","689173","690244","6688","149553","521189","6692","139106","691247","59081","Sternberg task ","83","113595","97","yes","1024"
"85.7142857143","85.7142857143","1172.47959184","1172.47959184","black","experiment","legacy","legacy","legacy","0","uniform","1","1","undefined","left","97","97","97","97","97","0","97","97","0","0","97","0","0","97","0","10/23/22 19:28:13","The main experiment item","yes","Sternbergtask.osexp","C:\Users\ayesh\OneDrive\Desktop","no","mono","no","18","no","white","no","yes","768","legacy","85","11","C:/Users/ayesh/OneDrive/Desktop/MK-subject-4.csv","legacy","5 7 3 6 2","Lentiform Loewenfeld","3.3.12","5","y","0","left","left","NA","return","return","1308","1308","NA","52389","10446","2","legacy","5","1024","2","48000","-16","experiment","4","even","2","696717","698922","700923","702233","700923","NA","689173","696715","6688","149553","695645","6692","139106","697718","59081","Sternberg task ","84","114903","98","yes","1024"
"85.8585858586","85.8585858586","1177.1010101","1177.1010101","black","experiment","legacy","legacy","legacy","0","uniform","1","1","undefined","right","98","98","98","98","98","0","98","98","0","0","98","0","0","98","0","10/23/22 19:28:13","The main experiment item","yes","Sternbergtask.osexp","C:\Users\ayesh\OneDrive\Desktop","no","mono","no","18","no","white","no","yes","768","legacy","86","11","C:/Users/ayesh/OneDrive/Desktop/MK-subject-4.csv","legacy","7 4 2 8 1 9","Lentiform Loewenfeld","3.3.12","0","n","0","right","right","NA","return","return","1630","1630","NA","52389","10446","2","legacy","6","1024","2","48000","-16","experiment","4","even","5","703308","705512","707513","709145","707513","NA","702237","703307","6688","149553","695645","6692","139106","704309","59081","Sternberg task ","85","116533","99","yes","1024"
"86","86","1173.69","1173.69","black","experiment","legacy","legacy","legacy","0","uniform","1","1","undefined","right","99","99","99","99","99","0","99","99","0","0","99","0","0","99","0","10/23/22 19:28:13","The main experiment item","yes","Sternbergtask.osexp","C:\Users\ayesh\OneDrive\Desktop","no","mono","no","18","no","white","no","yes","768","legacy","87","11","C:/Users/ayesh/OneDrive/Desktop/MK-subject-4.csv","legacy","9","Lentiform Loewenfeld","3.3.12","0","n","0","right","right","NA","return","return","836","836","NA","52389","10446","2","legacy","1","1024","2","48000","-16","experiment","4","even","6","710221","712426","714427","715265","714427","NA","709149","710220","6688","149553","695645","6692","139106","711222","59081","Sternberg task ","86","117369","100","yes","1024"
"86.1386138614","86.1386138614","1173.99009901","1173.99009901","black","experiment","legacy","legacy","legacy","0","uniform","1","1","undefined","right","100","100","100","100","100","0","100","100","0","0","100","0","0","100","0","10/23/22 19:28:13","The main experiment item","yes","Sternbergtask.osexp","C:\Users\ayesh\OneDrive\Desktop","no","mono","no","18","no","white","no","yes","768","legacy","88","11","C:/Users/ayesh/OneDrive/Desktop/MK-subject-4.csv","legacy","1","Lentiform Loewenfeld","3.3.12","0","n","0","right","right","NA","return","return","1204","1204","NA","52389","10446","2","legacy","1","1024","2","48000","-16","experiment","4","even","7","716341","718546","720547","721753","720547","NA","715270","716340","6688","149553","695645","6692","139106","717342","59081","Sternberg task ","87","118573","101","yes","1024"
"86.2745098039","86.2745098039","1173.25490196","1173.25490196","black","experiment","legacy","legacy","legacy","0","uniform","1","1","undefined","right","101","101","101","101","101","0","101","101","0","0","101","0","0","101","0","10/23/22 19:28:13","The main experiment item","yes","Sternbergtask.osexp","C:\Users\ayesh\OneDrive\Desktop","no","mono","no","18","no","white","no","yes","768","legacy","89","11","C:/Users/ayesh/OneDrive/Desktop/MK-subject-4.csv","legacy","1 3 2 6 9","Lentiform Loewenfeld","3.3.12","0","n","0","right","right","NA","return","return","1099","1099","NA","52389","10446","2","legacy","5","1024","2","48000","-16","experiment","4","even","5","722829","725034","727036","728137","727036","NA","721757","722828","6688","149553","695645","6692","139106","723830","59081","Sternberg task ","88","119672","102","yes","1024"
"86.4077669903","86.4077669903","1172.32038835","1172.32038835","black","experiment","legacy","legacy","legacy","0","uniform","1","1","undefined","left","102","102","102","102","102","0","102","102","0","0","102","0","0","102","0","10/23/22 19:28:13","The main experiment item","yes","Sternbergtask.osexp","C:\Users\ayesh\OneDrive\Desktop","no","mono","no","18","no","white","no","yes","768","legacy","90","11","C:/Users/ayesh/OneDrive/Desktop/MK-subject-4.csv","legacy","5 2 6","Lentiform Loewenfeld","3.3.12","2","y","0","left","left","NA","return","return","1077","1077","NA","52389","10446","2","legacy","3","1024","2","48000","-16","experiment","4","even","2","729212","731417","733418","734497","733418","NA","728141","729210","6688","149553","695645","6692","139106","730213","59081","Sternberg task ","89","120749","103","yes","1024"
"86.5384615385","86.5384615385","1172.31730769","1172.31730769","black","experiment","legacy","legacy","legacy","0","uniform","1","1","undefined","left","103","103","103","103","103","0","103","103","0","0","103","0","0","103","0","10/23/22 19:28:13","The main experiment item","yes","Sternbergtask.osexp","C:\Users\ayesh\OneDrive\Desktop","no","mono","no","18","no","white","no","yes","768","legacy","91","11","C:/Users/ayesh/OneDrive/Desktop/MK-subject-4.csv","legacy","3 5 4 7","Lentiform Loewenfeld","3.3.12","1","y","0","left","left","NA","return","return","1172","1172","NA","52389","10446","2","legacy","4","1024","2","48000","-16","experiment","4","even","3","735573","737778","739779","740953","739779","NA","734501","735571","6688","149553","695645","6692","139106","736574","59081","Sternberg task ","90","121921","104","yes","1024"
"86.6666666667","86.6666666667","1173.94285714","1173.94285714","black","experiment","legacy","legacy","legacy","0","uniform","1","1","undefined","right","104","104","104","104","104","0","104","104","0","0","104","0","0","104","0","10/23/22 19:28:13","The main experiment item","yes","Sternbergtask.osexp","C:\Users\ayesh\OneDrive\Desktop","no","mono","no","18","no","white","no","yes","768","legacy","92","11","C:/Users/ayesh/OneDrive/Desktop/MK-subject-4.csv","legacy","6 3 1 7 9 8","Lentiform Loewenfeld","3.3.12","0","n","0","right","right","NA","return","return","1343","1343","NA","52389","10446","2","legacy","6","1024","2","48000","-16","experiment","4","even","4","742026","744231","746232","747577","746232","NA","740956","742025","6688","149553","695645","6692","139106","743027","59081","Sternberg task ","91","123264","105","yes","1024"
"86.7924528302","86.7924528302","1174.33018868","1174.33018868","black","experiment","legacy","legacy","legacy","0","uniform","1","1","undefined","left","105","105","105","105","105","0","105","105","0","0","105","0","0","105","0","10/23/22 19:28:13","The main experiment item","yes","Sternbergtask.osexp","C:\Users\ayesh\OneDrive\Desktop","no","mono","no","18","no","white","no","yes","768","legacy","93","11","C:/Users/ayesh/OneDrive/Desktop/MK-subject-4.csv","legacy","8","Lentiform Loewenfeld","3.3.12","1","y","0","left","left","NA","return","return","1215","1215","NA","52389","10446","2","legacy","1","1024","2","48000","-16","experiment","4","even","8","748651","750856","752857","754073","752857","NA","747581","748649","6688","149553","695645","6692","139106","749652","59081","Sternberg task ","92","124479","106","yes","1024"
"86.9158878505","86.9158878505","1176.61682243","1176.61682243","black","experiment","legacy","legacy","legacy","0","uniform","1","1","undefined","left","106","106","106","106","106","0","106","106","0","0","106","0","0","106","0","10/23/22 19:28:13","The main experiment item","yes","Sternbergtask.osexp","C:\Users\ayesh\OneDrive\Desktop","no","mono","no","18","no","white","no","yes","768","legacy","94","11","C:/Users/ayesh/OneDrive/Desktop/MK-subject-4.csv","legacy","9 3 1 2 5","Lentiform Loewenfeld","3.3.12","4","y","0","left","left","NA","return","return","1419","1419","NA","52389","10446","2","legacy","5","1024","2","48000","-16","experiment","4","even","2","755150","757355","759357","760777","759357","NA","754077","755148","6688","149553","695645","6692","139106","756151","59081","Sternberg task ","93","125898","107","yes","1024"
"87.037037037","87.037037037","1176.77777778","1176.77777778","black","experiment","legacy","legacy","legacy","0","uniform","1","1","undefined","left","107","107","107","107","107","0","107","107","0","0","107","0","0","107","0","10/23/22 19:28:13","The main experiment item","yes","Sternbergtask.osexp","C:\Users\ayesh\OneDrive\Desktop","no","mono","no","18","no","white","no","yes","768","legacy","95","11","C:/Users/ayesh/OneDrive/Desktop/MK-subject-4.csv","legacy","8 5 1 3 9","Lentiform Loewenfeld","3.3.12","4","y","0","left","left","NA","return","return","1194","1194","NA","52389","10446","2","legacy","5","1024","2","48000","-16","experiment","4","even","3","761855","764060","766061","767256","766061","NA","760780","761853","6688","149553","695645","6692","139106","762856","59081","Sternberg task ","94","127092","108","yes","1024"
"87.1559633028","87.1559633028","1176.37614679","1176.37614679","black","experiment","legacy","legacy","legacy","0","uniform","1","1","undefined","right","108","108","108","108","108","0","108","108","0","0","108","0","0","108","0","10/23/22 19:28:13","The main experiment item","yes","Sternbergtask.osexp","C:\Users\ayesh\OneDrive\Desktop","no","mono","no","18","no","white","no","yes","768","legacy","96","11","C:/Users/ayesh/OneDrive/Desktop/MK-subject-4.csv","legacy","1 7 5 2","Lentiform Loewenfeld","3.3.12","0","n","0","right","right","NA","return","return","1133","1133","NA","52389","10446","2","legacy","4","1024","2","48000","-16","experiment","4","even","3","768332","770537","772539","773673","772539","NA","767260","768330","6688","149553","695645","6692","139106","769333","59081","Sternberg task ","95","128225","109","yes","1024"
"87.2727272727","87.2727272727","1175.78181818","1175.78181818","black","experiment","legacy","legacy","legacy","0","uniform","1","1","undefined","left","109","109","109","109","109","0","109","109","0","0","109","0","0","109","0","10/23/22 19:28:13","The main experiment item","yes","Sternbergtask.osexp","C:\Users\ayesh\OneDrive\Desktop","no","mono","no","18","no","white","no","yes","768","legacy","97","11","C:/Users/ayesh/OneDrive/Desktop/MK-subject-4.csv","legacy","8 7 3","Lentiform Loewenfeld","3.3.12","1","y","0","left","left","NA","return","return","1111","1111","NA","52389","10446","2","legacy","3","1024","2","48000","-16","experiment","4","even","8","774748","776952","778953","780065","778953","NA","773677","774746","6688","149553","695645","6692","139106","775750","59081","Sternberg task ","96","129336","110","yes","1024"
"87.3873873874","87.3873873874","1174.32432432","1174.32432432","black","experiment","legacy","legacy","legacy","0","uniform","1","1","undefined","left","110","110","110","110","110","0","110","110","0","0","110","0","0","110","0","10/23/22 19:28:13","The main experiment item","yes","Sternbergtask.osexp","C:\Users\ayesh\OneDrive\Desktop","no","mono","no","18","no","white","no","yes","768","legacy","98","11","C:/Users/ayesh/OneDrive/Desktop/MK-subject-4.csv","legacy","3 4","Lentiform Loewenfeld","3.3.12","1","y","0","left","left","NA","return","return","1014","1014","NA","52389","10446","2","legacy","2","1024","2","48000","-16","experiment","4","even","3","781139","783345","785346","786361","785346","NA","780069","781138","6688","149553","695645","6692","139106","782140","59081","Sternberg task ","97","130350","111","yes","1024"
"87.5","87.5","1173.52678571","1173.52678571","black","experiment","legacy","legacy","legacy","0","uniform","1","1","undefined","left","111","111","111","111","111","0","111","111","0","0","111","0","0","111","0","10/23/22 19:28:13","The main experiment item","yes","Sternbergtask.osexp","C:\Users\ayesh\OneDrive\Desktop","no","mono","no","18","no","white","no","yes","768","legacy","99","11","C:/Users/ayesh/OneDrive/Desktop/MK-subject-4.csv","legacy","6 7 9 3 1 2","Lentiform Loewenfeld","3.3.12","1","y","0","left","left","NA","return","return","1085","1085","NA","52389","10446","2","legacy","6","1024","2","48000","-16","experiment","4","even","6","787436","789642","791643","792729","791643","NA","786365","787434","6688","149553","695645","6692","139106","788438","59081","Sternberg task ","98","131435","112","yes","1024"
"87.610619469","87.610619469","1177.83185841","1177.83185841","black","experiment","legacy","legacy","legacy","0","uniform","1","1","undefined","left","112","112","112","112","112","0","112","112","0","0","112","0","0","112","0","10/23/22 19:28:13","The main experiment item","yes","Sternbergtask.osexp","C:\Users\ayesh\OneDrive\Desktop","no","mono","no","18","no","white","no","yes","768","legacy","100","11","C:/Users/ayesh/OneDrive/Desktop/MK-subject-4.csv","legacy","2 5 4 8 7","Lentiform Loewenfeld","3.3.12","3","y","0","left","left","NA","return","return","1660","1660","NA","52389","10446","2","legacy","5","1024","2","48000","-16","experiment","4","even","4","793805","796010","798011","799672","798011","NA","792732","793803","6688","149553","695645","6692","139106","794806","59081","Sternberg task ","99","133095","113","yes","1024"
"87.7192982456","87.7192982456","1180.38596491","1180.38596491","black","experiment","legacy","legacy","legacy","0","uniform","1","1","undefined","right","113","113","113","113","113","0","113","113","0","0","113","0","0","113","0","10/23/22 19:28:13","The main experiment item","yes","Sternbergtask.osexp","C:\Users\ayesh\OneDrive\Desktop","no","mono","no","18","no","white","no","yes","768","legacy","101","11","C:/Users/ayesh/OneDrive/Desktop/MK-subject-4.csv","legacy","2 6 4 3 9","Lentiform Loewenfeld","3.3.12","0","n","0","right","right","NA","return","return","1469","1469","NA","52389","10446","2","legacy","5","1024","2","48000","-16","experiment","4","even","1","800748","802953","804954","806425","804954","NA","799677","800747","6688","149553","695645","6692","139106","801749","59081","Sternberg task ","100","134564","114","yes","1024"
"87.8260869565","87.8260869565","1179.45217391","1179.45217391","black","experiment","legacy","legacy","legacy","0","uniform","1","1","undefined","right","114","114","114","114","114","0","114","114","0","0","114","0","0","114","0","10/23/22 19:28:13","The main experiment item","yes","Sternbergtask.osexp","C:\Users\ayesh\OneDrive\Desktop","no","mono","no","18","no","white","no","yes","768","legacy","102","11","C:/Users/ayesh/OneDrive/Desktop/MK-subject-4.csv","legacy","7 1","Lentiform Loewenfeld","3.3.12","0","n","0","right","right","NA","return","return","1073","1073","NA","52389","10446","2","legacy","2","1024","2","48000","-16","experiment","4","even","8","807505","809710","811711","812786","811711","NA","806428","807503","6688","149553","695645","6692","139106","808506","59081","Sternberg task ","101","135637","115","yes","1024"
"87.9310344828","87.9310344828","1182.20689655","1182.20689655","black","experiment","legacy","legacy","legacy","0","uniform","1","1","undefined","left","115","115","115","115","115","0","115","115","0","0","115","0","0","115","0","10/23/22 19:28:13","The main experiment item","yes","Sternbergtask.osexp","C:\Users\ayesh\OneDrive\Desktop","no","mono","no","18","no","white","no","yes","768","legacy","103","11","C:/Users/ayesh/OneDrive/Desktop/MK-subject-4.csv","legacy","8 5 4 7 3 1","Lentiform Loewenfeld","3.3.12","2","y","0","left","left","NA","return","return","1499","1499","NA","52389","10446","2","legacy","6","1024","2","48000","-16","experiment","4","even","5","813863","816067","818068","819568","818068","NA","812789","813861","6688","149553","695645","6692","139106","814864","59081","Sternberg task ","102","137136","116","yes","1024"
"88.0341880342","88.0341880342","1182.77777778","1182.77777778","black","experiment","legacy","legacy","legacy","0","uniform","1","1","undefined","right","116","116","116","116","116","0","116","116","0","0","116","0","0","116","0","10/23/22 19:28:13","The main experiment item","yes","Sternbergtask.osexp","C:\Users\ayesh\OneDrive\Desktop","no","mono","no","18","no","white","no","yes","768","legacy","104","11","C:/Users/ayesh/OneDrive/Desktop/MK-subject-4.csv","legacy","3 4 2","Lentiform Loewenfeld","3.3.12","0","n","0","right","right","NA","return","return","1249","1249","NA","52389","10446","2","legacy","3","1024","2","48000","-16","experiment","4","even","5","820646","822852","824854","826104","824853","NA","819573","820644","6688","149553","695645","6692","139106","821648","59081","Sternberg task ","103","138385","117","yes","1024"
"88.1355932203","88.1355932203","1182.84745763","1182.84745763","black","experiment","legacy","legacy","legacy","0","uniform","1","1","undefined","right","117","117","117","117","117","0","117","117","0","0","117","0","0","117","0","10/23/22 19:28:13","The main experiment item","yes","Sternbergtask.osexp","C:\Users\ayesh\OneDrive\Desktop","no","mono","no","18","no","white","no","yes","768","legacy","105","11","C:/Users/ayesh/OneDrive/Desktop/MK-subject-4.csv","legacy","8 4 3 9","Lentiform Loewenfeld","3.3.12","0","n","0","right","right","NA","return","return","1191","1191","NA","52389","10446","2","legacy","4","1024","2","48000","-16","experiment","4","even","5","827178","829383","831384","832577","831384","NA","826108","827176","6688","149553","695645","6692","139106","828179","59081","Sternberg task ","104","139576","118","yes","1024"
