"acc","accuracy","average_response_time","avg_rt","background","block","canvas_backend","clock_backend","color_backend","compensation","coordinates","correct","correct_instruction1","correct_keyboard_response","correct_response","count_ISI","count_correctFeedback","count_expSequence","count_experiment","count_experimentLoop","count_fixation","count_incorrectFeedback","count_instruction1","count_instruction2","count_keyboard_response","count_logger","count_memorySet","count_practiceLoop","count_probe","count_thankYou","datetime","description","disable_garbage_collection","experiment_file","experiment_path","font_bold","font_family","font_italic","font_size","font_underline","foreground","form_clicks","fullscreen","height","keyboard_backend","live_row","live_row_practiceLoop","logfile","mouse_backend","numberSet","opensesame_codename","opensesame_version","posInSet","present","repeat_cycle","response","response_instruction1","response_instruction2","response_keyboard_response","response_thankYou","response_time","response_time_instruction1","response_time_instruction2","response_time_keyboard_response","response_time_thankYou","round_decimals","sampler_backend","setSize","sound_buf_size","sound_channels","sound_freq","sound_sample_size","start","subject_nr","subject_parity","target","time_ISI","time_correctFeedback","time_expSequence","time_experiment","time_experimentLoop","time_fixation","time_incorrectFeedback","time_instruction1","time_instruction2","time_keyboard_response","time_logger","time_memorySet","time_practiceLoop","time_probe","time_thankYou","title","total_correct","total_response_time","total_responses","uniform_coordinates","width"
"100","100","451","451","black","practice","legacy","legacy","legacy","0","uniform","1","undefined","1","left","0","0","0","0","0","0","0","0","0","0","0","0","0","0","0","Sun Oct 16 21:10:52 2022","The main experiment item","yes","SternbergTask.osexp","/Users/alexisparrish/Documents/Advanced Quant. Methods/Lab 3/Lab 3.1","no","mono","no","18","no","white","no","yes","768","legacy","0","0","/Users/alexisparrish/Documents/Advanced Quant. Methods/Lab 3/Lab 3.2/AP-subject-3.csv","legacy","4 8","Lentiform Loewenfeld","3.3.12","1","y","0","left","right","NA","left","NA","451","16258","NA","451","NA","2","legacy","2","1024","2","48000","-16","experiment","3","odd","4","22759","NA","20545","4061","NA","20549","NA","4072","NA","24763","25215","21554","20348","24763","NA","Sternberg Task","1","451","1","yes","1024"
"100","100","529.5","529.5","black","practice","legacy","legacy","legacy","0","uniform","1","undefined","1","right","1","1","1","0","0","1","1","0","0","1","1","1","0","1","0","Sun Oct 16 21:10:52 2022","The main experiment item","yes","SternbergTask.osexp","/Users/alexisparrish/Documents/Advanced Quant. Methods/Lab 3/Lab 3.1","no","mono","no","18","no","white","no","yes","768","legacy","1","1","/Users/alexisparrish/Documents/Advanced Quant. Methods/Lab 3/Lab 3.2/AP-subject-3.csv","legacy","5 7 8 4 1 2","Lentiform Loewenfeld","3.3.12","0","n","0","right","right","NA","right","NA","608","16258","NA","608","NA","2","legacy","6","1024","2","48000","-16","experiment","3","odd","6","28546","25258","26333","4061","NA","26337","NA","4072","NA","30551","31160","27341","20348","30551","NA","Sternberg Task","2","1059","2","yes","1024"
"100","100","510.3333333333333","510.3333333333333","black","practice","legacy","legacy","legacy","0","uniform","1","undefined","1","left","2","2","2","0","0","2","2","0","0","2","2","2","0","2","0","Sun Oct 16 21:10:52 2022","The main experiment item","yes","SternbergTask.osexp","/Users/alexisparrish/Documents/Advanced Quant. Methods/Lab 3/Lab 3.1","no","mono","no","18","no","white","no","yes","768","legacy","2","2","/Users/alexisparrish/Documents/Advanced Quant. Methods/Lab 3/Lab 3.2/AP-subject-3.csv","legacy","4 3 1 7 9 8","Lentiform Loewenfeld","3.3.12","1","y","0","left","right","NA","left","NA","472","16258","NA","472","NA","2","legacy","6","1024","2","48000","-16","experiment","3","odd","4","34450","31172","32236","4061","NA","32241","NA","4072","NA","36454","36927","33245","20348","36454","NA","Sternberg Task","3","1531","3","yes","1024"
"100","100","524.75","524.75","black","practice","legacy","legacy","legacy","0","uniform","1","undefined","1","right","3","3","3","0","0","3","3","0","0","3","3","3","0","3","0","Sun Oct 16 21:10:52 2022","The main experiment item","yes","SternbergTask.osexp","/Users/alexisparrish/Documents/Advanced Quant. Methods/Lab 3/Lab 3.1","no","mono","no","18","no","white","no","yes","768","legacy","3","3","/Users/alexisparrish/Documents/Advanced Quant. Methods/Lab 3/Lab 3.2/AP-subject-3.csv","legacy","3 1 9 4","Lentiform Loewenfeld","3.3.12","0","n","0","right","right","NA","right","NA","568","16258","NA","568","NA","2","legacy","4","1024","2","48000","-16","experiment","3","odd","6","40218","36937","38002","4061","NA","38006","NA","4072","NA","42222","42790","39013","20348","42222","NA","Sternberg Task","4","2099","4","yes","1024"
"100","100","520.8","520.8","black","practice","legacy","legacy","legacy","0","uniform","1","undefined","1","left","4","4","4","0","0","4","4","0","0","4","4","4","0","4","0","Sun Oct 16 21:10:52 2022","The main experiment item","yes","SternbergTask.osexp","/Users/alexisparrish/Documents/Advanced Quant. Methods/Lab 3/Lab 3.1","no","mono","no","18","no","white","no","yes","768","legacy","4","4","/Users/alexisparrish/Documents/Advanced Quant. Methods/Lab 3/Lab 3.2/AP-subject-3.csv","legacy","1 5 2 9","Lentiform Loewenfeld","3.3.12","2","y","0","left","right","NA","left","NA","505","16258","NA","505","NA","2","legacy","4","1024","2","48000","-16","experiment","3","odd","5","46079","42802","43866","4061","NA","43870","NA","4072","NA","48083","48589","44874","20348","48083","NA","Sternberg Task","5","2604","5","yes","1024"
"100","100","556","556","black","practice","legacy","legacy","legacy","0","uniform","1","undefined","1","right","5","5","5","0","0","5","5","0","0","5","5","5","0","5","0","Sun Oct 16 21:10:52 2022","The main experiment item","yes","SternbergTask.osexp","/Users/alexisparrish/Documents/Advanced Quant. Methods/Lab 3/Lab 3.1","no","mono","no","18","no","white","no","yes","768","legacy","5","5","/Users/alexisparrish/Documents/Advanced Quant. Methods/Lab 3/Lab 3.2/AP-subject-3.csv","legacy","4 1 5","Lentiform Loewenfeld","3.3.12","0","n","0","right","right","NA","right","NA","732","16258","NA","732","NA","2","legacy","3","1024","2","48000","-16","experiment","3","odd","2","51883","48601","49670","4061","NA","49674","NA","4072","NA","53887","54620","50678","20348","53887","NA","Sternberg Task","6","3336","6","yes","1024"
"100","100","552.8571428571429","552.8571428571429","black","practice","legacy","legacy","legacy","0","uniform","1","undefined","1","left","6","6","6","0","0","6","6","0","0","6","6","6","0","6","0","Sun Oct 16 21:10:52 2022","The main experiment item","yes","SternbergTask.osexp","/Users/alexisparrish/Documents/Advanced Quant. Methods/Lab 3/Lab 3.1","no","mono","no","18","no","white","no","yes","768","legacy","6","6","/Users/alexisparrish/Documents/Advanced Quant. Methods/Lab 3/Lab 3.2/AP-subject-3.csv","legacy","6","Lentiform Loewenfeld","3.3.12","1","y","0","left","right","NA","left","NA","534","16258","NA","534","NA","2","legacy","1","1024","2","48000","-16","experiment","3","odd","6","57910","54631","55697","4061","NA","55701","NA","4072","NA","59914","60448","56705","20348","59914","NA","Sternberg Task","7","3870","7","yes","1024"
"100","100","544.375","544.375","black","practice","legacy","legacy","legacy","0","uniform","1","undefined","1","right","7","7","7","0","0","7","7","0","0","7","7","7","0","7","0","Sun Oct 16 21:10:52 2022","The main experiment item","yes","SternbergTask.osexp","/Users/alexisparrish/Documents/Advanced Quant. Methods/Lab 3/Lab 3.1","no","mono","no","18","no","white","no","yes","768","legacy","7","7","/Users/alexisparrish/Documents/Advanced Quant. Methods/Lab 3/Lab 3.2/AP-subject-3.csv","legacy","5","Lentiform Loewenfeld","3.3.12","0","n","0","right","right","NA","right","NA","485","16258","NA","485","NA","2","legacy","1","1024","2","48000","-16","experiment","3","odd","3","63743","60460","61527","4061","NA","61531","NA","4072","NA","65747","66233","62535","20348","65747","NA","Sternberg Task","8","4355","8","yes","1024"
"88.88888888888889","88.88888888888889","554.2222222222222","554.2222222222222","black","practice","legacy","legacy","legacy","0","uniform","0","undefined","0","left","8","8","8","0","0","8","8","0","0","8","8","8","0","8","0","Sun Oct 16 21:10:52 2022","The main experiment item","yes","SternbergTask.osexp","/Users/alexisparrish/Documents/Advanced Quant. Methods/Lab 3/Lab 3.1","no","mono","no","18","no","white","no","yes","768","legacy","8","8","/Users/alexisparrish/Documents/Advanced Quant. Methods/Lab 3/Lab 3.2/AP-subject-3.csv","legacy","1 7 9 8 5","Lentiform Loewenfeld","3.3.12","4","y","0","right","right","NA","right","NA","633","16258","NA","633","NA","2","legacy","5","1024","2","48000","-16","experiment","3","odd","8","69522","66244","67307","4061","NA","67312","NA","4072","NA","71526","72163","68316","20348","71526","NA","Sternberg Task","8","4988","9","yes","1024"
"80","80","625.5","625.5","black","practice","legacy","legacy","legacy","0","uniform","0","undefined","0","right","9","9","9","0","0","9","9","0","0","9","9","9","0","9","0","Sun Oct 16 21:10:52 2022","The main experiment item","yes","SternbergTask.osexp","/Users/alexisparrish/Documents/Advanced Quant. Methods/Lab 3/Lab 3.1","no","mono","no","18","no","white","no","yes","768","legacy","9","9","/Users/alexisparrish/Documents/Advanced Quant. Methods/Lab 3/Lab 3.2/AP-subject-3.csv","legacy","2 1","Lentiform Loewenfeld","3.3.12","0","n","0","left","right","NA","left","NA","1267","16258","NA","1267","NA","2","legacy","2","1024","2","48000","-16","experiment","3","odd","5","75450","66244","73236","4061","NA","73241","72170","4072","NA","77458","78726","74245","20348","77458","NA","Sternberg Task","8","6255","10","yes","1024"
"81.81818181818181","81.81818181818181","620.1818181818181","620.1818181818181","black","practice","legacy","legacy","legacy","0","uniform","1","undefined","1","right","10","10","10","0","0","10","10","0","0","10","10","10","0","10","0","Sun Oct 16 21:10:52 2022","The main experiment item","yes","SternbergTask.osexp","/Users/alexisparrish/Documents/Advanced Quant. Methods/Lab 3/Lab 3.1","no","mono","no","18","no","white","no","yes","768","legacy","10","10","/Users/alexisparrish/Documents/Advanced Quant. Methods/Lab 3/Lab 3.2/AP-subject-3.csv","legacy","9 6 7 4 5","Lentiform Loewenfeld","3.3.12","0","n","0","right","right","NA","right","NA","567","16258","NA","567","NA","2","legacy","5","1024","2","48000","-16","experiment","3","odd","3","82015","66244","79802","4061","NA","79806","78738","4072","NA","84019","84586","80810","20348","84019","NA","Sternberg Task","9","6822","11","yes","1024"
"83.33333333333333","83.33333333333333","638.25","638.25","black","practice","legacy","legacy","legacy","0","uniform","1","undefined","1","left","11","11","11","0","0","11","11","0","0","11","11","11","0","11","0","Sun Oct 16 21:10:52 2022","The main experiment item","yes","SternbergTask.osexp","/Users/alexisparrish/Documents/Advanced Quant. Methods/Lab 3/Lab 3.1","no","mono","no","18","no","white","no","yes","768","legacy","11","11","/Users/alexisparrish/Documents/Advanced Quant. Methods/Lab 3/Lab 3.2/AP-subject-3.csv","legacy","2 9 4","Lentiform Loewenfeld","3.3.12","3","y","0","left","right","NA","left","NA","837","16258","NA","837","NA","2","legacy","3","1024","2","48000","-16","experiment","3","odd","4","87879","84598","85666","4061","NA","85670","78738","4072","NA","89883","90720","86674","20348","89883","NA","Sternberg Task","10","7659","12","yes","1024"
"76.92307692307692","76.92307692307692","618.4615384615385","618.4615384615385","black","experiment","legacy","legacy","legacy","0","uniform","0","undefined","0","right","12","12","12","0","0","12","12","0","0","12","12","12","0","12","0","Sun Oct 16 21:10:52 2022","The main experiment item","yes","SternbergTask.osexp","/Users/alexisparrish/Documents/Advanced Quant. Methods/Lab 3/Lab 3.1","no","mono","no","18","no","white","no","yes","768","legacy","0","11","/Users/alexisparrish/Documents/Advanced Quant. Methods/Lab 3/Lab 3.2/AP-subject-3.csv","legacy","6 9 4 5 3 2","Lentiform Loewenfeld","3.3.12","0","n","0","left","right","right","left","NA","381","16258","15704","381","NA","2","legacy","6","1024","2","48000","-16","experiment","3","odd","8","109743","90729","107528","4061","107469","107533","78738","4072","91764","111747","112129","108537","20348","111747","NA","Sternberg Task","10","8040","13","yes","1024"
"78.57142857142857","78.57142857142857","613.2857142857143","613.2857142857143","black","experiment","legacy","legacy","legacy","0","uniform","1","undefined","1","left","13","13","13","0","0","13","13","0","0","13","13","13","0","13","0","Sun Oct 16 21:10:52 2022","The main experiment item","yes","SternbergTask.osexp","/Users/alexisparrish/Documents/Advanced Quant. Methods/Lab 3/Lab 3.1","no","mono","no","18","no","white","no","yes","768","legacy","1","11","/Users/alexisparrish/Documents/Advanced Quant. Methods/Lab 3/Lab 3.2/AP-subject-3.csv","legacy","6 9 3 1","Lentiform Loewenfeld","3.3.12","4","y","0","left","right","right","left","NA","546","16258","15704","546","NA","2","legacy","4","1024","2","48000","-16","experiment","3","odd","1","115415","90729","113202","4061","107469","113206","112139","4072","91764","117419","117965","114210","20348","117419","NA","Sternberg Task","11","8586","14","yes","1024"
"80","80","589.5333333333333","589.5333333333333","black","experiment","legacy","legacy","legacy","0","uniform","1","undefined","1","left","14","14","14","0","0","14","14","0","0","14","14","14","0","14","0","Sun Oct 16 21:10:52 2022","The main experiment item","yes","SternbergTask.osexp","/Users/alexisparrish/Documents/Advanced Quant. Methods/Lab 3/Lab 3.1","no","mono","no","18","no","white","no","yes","768","legacy","2","11","/Users/alexisparrish/Documents/Advanced Quant. Methods/Lab 3/Lab 3.2/AP-subject-3.csv","legacy","8 5 3 7 4 6","Lentiform Loewenfeld","3.3.12","6","y","0","left","right","right","left","NA","257","16258","15704","257","NA","2","legacy","6","1024","2","48000","-16","experiment","3","odd","6","121257","117977","119044","4061","107469","119048","112139","4072","91764","123261","123519","120052","20348","123261","NA","Sternberg Task","12","8843","15","yes","1024"
"81.25","81.25","585.875","585.875","black","experiment","legacy","legacy","legacy","0","uniform","1","undefined","1","left","15","15","15","0","0","15","15","0","0","15","15","15","0","15","0","Sun Oct 16 21:10:52 2022","The main experiment item","yes","SternbergTask.osexp","/Users/alexisparrish/Documents/Advanced Quant. Methods/Lab 3/Lab 3.1","no","mono","no","18","no","white","no","yes","768","legacy","3","11","/Users/alexisparrish/Documents/Advanced Quant. Methods/Lab 3/Lab 3.2/AP-subject-3.csv","legacy","2 4 6 9","Lentiform Loewenfeld","3.3.12","3","y","0","left","right","right","left","NA","531","16258","15704","531","NA","2","legacy","4","1024","2","48000","-16","experiment","3","odd","6","126807","123531","124594","4061","107469","124598","112139","4072","91764","128811","129343","125602","20348","128811","NA","Sternberg Task","13","9374","16","yes","1024"
"82.3529411764706","82.3529411764706","594.1176470588235","594.1176470588235","black","experiment","legacy","legacy","legacy","0","uniform","1","undefined","1","right","16","16","16","0","0","16","16","0","0","16","16","16","0","16","0","Sun Oct 16 21:10:52 2022","The main experiment item","yes","SternbergTask.osexp","/Users/alexisparrish/Documents/Advanced Quant. Methods/Lab 3/Lab 3.1","no","mono","no","18","no","white","no","yes","768","legacy","4","11","/Users/alexisparrish/Documents/Advanced Quant. Methods/Lab 3/Lab 3.2/AP-subject-3.csv","legacy","6 9 5","Lentiform Loewenfeld","3.3.12","0","n","0","right","right","right","right","NA","726","16258","15704","726","NA","2","legacy","3","1024","2","48000","-16","experiment","3","odd","8","132634","129354","130420","4061","107469","130425","112139","4072","91764","134638","135365","131429","20348","134638","NA","Sternberg Task","14","10100","17","yes","1024"
"77.77777777777777","77.77777777777777","605.5555555555555","605.5555555555555","black","experiment","legacy","legacy","legacy","0","uniform","0","undefined","0","right","17","17","17","0","0","17","17","0","0","17","17","17","0","17","0","Sun Oct 16 21:10:52 2022","The main experiment item","yes","SternbergTask.osexp","/Users/alexisparrish/Documents/Advanced Quant. Methods/Lab 3/Lab 3.1","no","mono","no","18","no","white","no","yes","768","legacy","5","11","/Users/alexisparrish/Documents/Advanced Quant. Methods/Lab 3/Lab 3.2/AP-subject-3.csv","legacy","2 8 6 3 1","Lentiform Loewenfeld","3.3.12","0","n","0","left","right","right","left","NA","800","16258","15704","800","NA","2","legacy","5","1024","2","48000","-16","experiment","3","odd","7","138653","135377","136439","4061","107469","136444","112139","4072","91764","140657","141457","137448","20348","140657","NA","Sternberg Task","14","10900","18","yes","1024"
"73.6842105263158","73.6842105263158","678.9473684210526","678.9473684210526","black","experiment","legacy","legacy","legacy","0","uniform","0","undefined","0","left","18","18","18","0","0","18","18","0","0","18","18","18","0","18","0","Sun Oct 16 21:10:52 2022","The main experiment item","yes","SternbergTask.osexp","/Users/alexisparrish/Documents/Advanced Quant. Methods/Lab 3/Lab 3.1","no","mono","no","18","no","white","no","yes","768","legacy","6","11","/Users/alexisparrish/Documents/Advanced Quant. Methods/Lab 3/Lab 3.2/AP-subject-3.csv","legacy","2 8 5 1","Lentiform Loewenfeld","3.3.12","4","y","0","None","right","right","None","NA","2000","16258","15704","2000","NA","2","legacy","4","1024","2","48000","-16","experiment","3","odd","1","144746","135377","142532","4061","107469","142537","141469","4072","91764","146750","148750","143541","20348","146750","NA","Sternberg Task","14","12900","19","yes","1024"
"75","75","672.6","672.6","black","experiment","legacy","legacy","legacy","0","uniform","1","undefined","1","right","19","19","19","0","0","19","19","0","0","19","19","19","0","19","0","Sun Oct 16 21:10:52 2022","The main experiment item","yes","SternbergTask.osexp","/Users/alexisparrish/Documents/Advanced Quant. Methods/Lab 3/Lab 3.1","no","mono","no","18","no","white","no","yes","768","legacy","7","11","/Users/alexisparrish/Documents/Advanced Quant. Methods/Lab 3/Lab 3.2/AP-subject-3.csv","legacy","9","Lentiform Loewenfeld","3.3.12","0","n","0","right","right","right","right","NA","552","16258","15704","552","NA","2","legacy","1","1024","2","48000","-16","experiment","3","odd","6","152038","135377","149824","4061","107469","149828","148762","4072","91764","154042","154595","150833","20348","154042","NA","Sternberg Task","15","13452","20","yes","1024"
"76.19047619047619","76.19047619047619","692.047619047619","692.047619047619","black","experiment","legacy","legacy","legacy","0","uniform","1","undefined","1","right","20","20","20","0","0","20","20","0","0","20","20","20","0","20","0","Sun Oct 16 21:10:52 2022","The main experiment item","yes","SternbergTask.osexp","/Users/alexisparrish/Documents/Advanced Quant. Methods/Lab 3/Lab 3.1","no","mono","no","18","no","white","no","yes","768","legacy","8","11","/Users/alexisparrish/Documents/Advanced Quant. Methods/Lab 3/Lab 3.2/AP-subject-3.csv","legacy","6 8","Lentiform Loewenfeld","3.3.12","0","n","0","right","right","right","right","NA","1081","16258","15704","1081","NA","2","legacy","2","1024","2","48000","-16","experiment","3","odd","9","157882","154606","155668","4061","107469","155673","148762","4072","91764","159886","160968","156677","20348","159886","NA","Sternberg Task","16","14533","21","yes","1024"
"77.27272727272727","77.27272727272727","709.1363636363636","709.1363636363636","black","experiment","legacy","legacy","legacy","0","uniform","1","undefined","1","left","21","21","21","0","0","21","21","0","0","21","21","21","0","21","0","Sun Oct 16 21:10:52 2022","The main experiment item","yes","SternbergTask.osexp","/Users/alexisparrish/Documents/Advanced Quant. Methods/Lab 3/Lab 3.1","no","mono","no","18","no","white","no","yes","768","legacy","9","11","/Users/alexisparrish/Documents/Advanced Quant. Methods/Lab 3/Lab 3.2/AP-subject-3.csv","legacy","9 5 8 1","Lentiform Loewenfeld","3.3.12","2","y","0","left","right","right","left","NA","1068","16258","15704","1068","NA","2","legacy","4","1024","2","48000","-16","experiment","3","odd","5","164257","160980","162044","4061","107469","162048","148762","4072","91764","166261","167329","163052","20348","166261","NA","Sternberg Task","17","15601","22","yes","1024"
"73.91304347826087","73.91304347826087","765.2608695652174","765.2608695652174","black","experiment","legacy","legacy","legacy","0","uniform","0","undefined","0","left","22","22","22","0","0","22","22","0","0","22","22","22","0","22","0","Sun Oct 16 21:10:52 2022","The main experiment item","yes","SternbergTask.osexp","/Users/alexisparrish/Documents/Advanced Quant. Methods/Lab 3/Lab 3.1","no","mono","no","18","no","white","no","yes","768","legacy","10","11","/Users/alexisparrish/Documents/Advanced Quant. Methods/Lab 3/Lab 3.2/AP-subject-3.csv","legacy","7","Lentiform Loewenfeld","3.3.12","1","y","0","None","right","right","None","NA","2000","16258","15704","2000","NA","2","legacy","1","1024","2","48000","-16","experiment","3","odd","7","170617","167341","168404","4061","107469","168408","148762","4072","91764","172621","174621","169412","20348","172621","NA","Sternberg Task","17","17601","23","yes","1024"
"75","75","768.3333333333334","768.3333333333334","black","experiment","legacy","legacy","legacy","0","uniform","1","undefined","1","right","23","23","23","0","0","23","23","0","0","23","23","23","0","23","0","Sun Oct 16 21:10:52 2022","The main experiment item","yes","SternbergTask.osexp","/Users/alexisparrish/Documents/Advanced Quant. Methods/Lab 3/Lab 3.1","no","mono","no","18","no","white","no","yes","768","legacy","11","11","/Users/alexisparrish/Documents/Advanced Quant. Methods/Lab 3/Lab 3.2/AP-subject-3.csv","legacy","2 5 1 4","Lentiform Loewenfeld","3.3.12","0","n","0","right","right","right","right","NA","839","16258","15704","839","NA","2","legacy","4","1024","2","48000","-16","experiment","3","odd","6","177909","167341","175695","4061","107469","175700","174633","4072","91764","179913","180753","176704","20348","179913","NA","Sternberg Task","18","18440","24","yes","1024"
"72","72","757.36","757.36","black","experiment","legacy","legacy","legacy","0","uniform","0","undefined","0","right","24","24","24","0","0","24","24","0","0","24","24","24","0","24","0","Sun Oct 16 21:10:52 2022","The main experiment item","yes","SternbergTask.osexp","/Users/alexisparrish/Documents/Advanced Quant. Methods/Lab 3/Lab 3.1","no","mono","no","18","no","white","no","yes","768","legacy","12","11","/Users/alexisparrish/Documents/Advanced Quant. Methods/Lab 3/Lab 3.2/AP-subject-3.csv","legacy","3 9 8 1 6 4","Lentiform Loewenfeld","3.3.12","0","n","0","left","right","right","left","NA","494","16258","15704","494","NA","2","legacy","6","1024","2","48000","-16","experiment","3","odd","7","184041","180764","181827","4061","107469","181832","174633","4072","91764","186045","186539","182836","20348","186045","NA","Sternberg Task","18","18934","25","yes","1024"
"69.23076923076923","69.23076923076923","748.8846153846154","748.8846153846154","black","experiment","legacy","legacy","legacy","0","uniform","0","undefined","0","right","25","25","25","0","0","25","25","0","0","25","25","25","0","25","0","Sun Oct 16 21:10:52 2022","The main experiment item","yes","SternbergTask.osexp","/Users/alexisparrish/Documents/Advanced Quant. Methods/Lab 3/Lab 3.1","no","mono","no","18","no","white","no","yes","768","legacy","13","11","/Users/alexisparrish/Documents/Advanced Quant. Methods/Lab 3/Lab 3.2/AP-subject-3.csv","legacy","1 7 5 2 9","Lentiform Loewenfeld","3.3.12","0","n","0","left","right","right","left","NA","537","16258","15704","537","NA","2","legacy","5","1024","2","48000","-16","experiment","3","odd","3","189828","180764","187614","4061","107469","187619","186551","4072","91764","191832","192370","188623","20348","191832","NA","Sternberg Task","18","19471","26","yes","1024"
"66.66666666666667","66.66666666666667","753.4814814814815","753.4814814814815","black","experiment","legacy","legacy","legacy","0","uniform","0","undefined","0","left","26","26","26","0","0","26","26","0","0","26","26","26","0","26","0","Sun Oct 16 21:10:52 2022","The main experiment item","yes","SternbergTask.osexp","/Users/alexisparrish/Documents/Advanced Quant. Methods/Lab 3/Lab 3.1","no","mono","no","18","no","white","no","yes","768","legacy","14","11","/Users/alexisparrish/Documents/Advanced Quant. Methods/Lab 3/Lab 3.2/AP-subject-3.csv","legacy","6 1 2","Lentiform Loewenfeld","3.3.12","3","y","0","right","right","right","right","NA","873","16258","15704","873","NA","2","legacy","3","1024","2","48000","-16","experiment","3","odd","2","195658","180764","193445","4061","107469","193449","192382","4072","91764","197662","198536","194453","20348","197662","NA","Sternberg Task","18","20344","27","yes","1024"
"67.85714285714286","67.85714285714286","749.8571428571429","749.8571428571429","black","experiment","legacy","legacy","legacy","0","uniform","1","undefined","1","right","27","27","27","0","0","27","27","0","0","27","27","27","0","27","0","Sun Oct 16 21:10:52 2022","The main experiment item","yes","SternbergTask.osexp","/Users/alexisparrish/Documents/Advanced Quant. Methods/Lab 3/Lab 3.1","no","mono","no","18","no","white","no","yes","768","legacy","15","11","/Users/alexisparrish/Documents/Advanced Quant. Methods/Lab 3/Lab 3.2/AP-subject-3.csv","legacy","3 9 1","Lentiform Loewenfeld","3.3.12","0","n","0","right","right","right","right","NA","652","16258","15704","652","NA","2","legacy","3","1024","2","48000","-16","experiment","3","odd","7","201827","180764","199613","4061","107469","199617","198547","4072","91764","203831","204484","200622","20348","203831","NA","Sternberg Task","19","20996","28","yes","1024"
"68.96551724137932","68.96551724137932","745.551724137931","745.551724137931","black","experiment","legacy","legacy","legacy","0","uniform","1","undefined","1","left","28","28","28","0","0","28","28","0","0","28","28","28","0","28","0","Sun Oct 16 21:10:52 2022","The main experiment item","yes","SternbergTask.osexp","/Users/alexisparrish/Documents/Advanced Quant. Methods/Lab 3/Lab 3.1","no","mono","no","18","no","white","no","yes","768","legacy","16","11","/Users/alexisparrish/Documents/Advanced Quant. Methods/Lab 3/Lab 3.2/AP-subject-3.csv","legacy","6 8 9 3 4 9","Lentiform Loewenfeld","3.3.12","5","y","0","left","right","right","left","NA","625","16258","15704","625","NA","2","legacy","6","1024","2","48000","-16","experiment","3","odd","4","207770","204494","205557","4061","107469","205561","198547","4072","91764","209774","210400","206565","20348","209774","NA","Sternberg Task","20","21621","29","yes","1024"
"70","70","742.3666666666667","742.3666666666667","black","experiment","legacy","legacy","legacy","0","uniform","1","undefined","1","right","29","29","29","0","0","29","29","0","0","29","29","29","0","29","0","Sun Oct 16 21:10:52 2022","The main experiment item","yes","SternbergTask.osexp","/Users/alexisparrish/Documents/Advanced Quant. Methods/Lab 3/Lab 3.1","no","mono","no","18","no","white","no","yes","768","legacy","17","11","/Users/alexisparrish/Documents/Advanced Quant. Methods/Lab 3/Lab 3.2/AP-subject-3.csv","legacy","7 3 2 8","Lentiform Loewenfeld","3.3.12","0","n","0","right","right","right","right","NA","650","16258","15704","650","NA","2","legacy","4","1024","2","48000","-16","experiment","3","odd","4","213691","210411","211477","4061","107469","211481","198547","4072","91764","215695","216346","212486","20348","215695","NA","Sternberg Task","21","22271","30","yes","1024"
"70.96774193548387","70.96774193548387","740.8064516129032","740.8064516129032","black","experiment","legacy","legacy","legacy","0","uniform","1","undefined","1","left","30","30","30","0","0","30","30","0","0","30","30","30","0","30","0","Sun Oct 16 21:10:52 2022","The main experiment item","yes","SternbergTask.osexp","/Users/alexisparrish/Documents/Advanced Quant. Methods/Lab 3/Lab 3.1","no","mono","no","18","no","white","no","yes","768","legacy","18","11","/Users/alexisparrish/Documents/Advanced Quant. Methods/Lab 3/Lab 3.2/AP-subject-3.csv","legacy","3 5 7 1","Lentiform Loewenfeld","3.3.12","3","y","0","left","right","right","left","NA","694","16258","15704","694","NA","2","legacy","4","1024","2","48000","-16","experiment","3","odd","7","219638","216358","217425","4061","107469","217429","198547","4072","91764","221642","222337","218433","20348","221642","NA","Sternberg Task","22","22965","31","yes","1024"
"71.875","71.875","737.40625","737.40625","black","experiment","legacy","legacy","legacy","0","uniform","1","undefined","1","left","31","31","31","0","0","31","31","0","0","31","31","31","0","31","0","Sun Oct 16 21:10:52 2022","The main experiment item","yes","SternbergTask.osexp","/Users/alexisparrish/Documents/Advanced Quant. Methods/Lab 3/Lab 3.1","no","mono","no","18","no","white","no","yes","768","legacy","19","11","/Users/alexisparrish/Documents/Advanced Quant. Methods/Lab 3/Lab 3.2/AP-subject-3.csv","legacy","2 3","Lentiform Loewenfeld","3.3.12","1","y","0","left","right","right","left","NA","632","16258","15704","632","NA","2","legacy","2","1024","2","48000","-16","experiment","3","odd","2","225627","222348","223413","4061","107469","223418","198547","4072","91764","227631","228264","224422","20348","227631","NA","Sternberg Task","23","23597","32","yes","1024"
"72.72727272727273","72.72727272727273","734.9090909090909","734.9090909090909","black","experiment","legacy","legacy","legacy","0","uniform","1","undefined","1","right","32","32","32","0","0","32","32","0","0","32","32","32","0","32","0","Sun Oct 16 21:10:52 2022","The main experiment item","yes","SternbergTask.osexp","/Users/alexisparrish/Documents/Advanced Quant. Methods/Lab 3/Lab 3.1","no","mono","no","18","no","white","no","yes","768","legacy","20","11","/Users/alexisparrish/Documents/Advanced Quant. Methods/Lab 3/Lab 3.2/AP-subject-3.csv","legacy","2 6 4 3 9","Lentiform Loewenfeld","3.3.12","0","n","0","right","right","right","right","NA","655","16258","15704","655","NA","2","legacy","5","1024","2","48000","-16","experiment","3","odd","1","231557","228275","229343","4061","107469","229348","198547","4072","91764","233561","234217","230352","20348","233561","NA","Sternberg Task","24","24252","33","yes","1024"
"73.52941176470588","73.52941176470588","733.7058823529412","733.7058823529412","black","experiment","legacy","legacy","legacy","0","uniform","1","undefined","1","right","33","33","33","0","0","33","33","0","0","33","33","33","0","33","0","Sun Oct 16 21:10:52 2022","The main experiment item","yes","SternbergTask.osexp","/Users/alexisparrish/Documents/Advanced Quant. Methods/Lab 3/Lab 3.1","no","mono","no","18","no","white","no","yes","768","legacy","21","11","/Users/alexisparrish/Documents/Advanced Quant. Methods/Lab 3/Lab 3.2/AP-subject-3.csv","legacy","7 9 1 6","Lentiform Loewenfeld","3.3.12","0","n","0","right","right","right","right","NA","694","16258","15704","694","NA","2","legacy","4","1024","2","48000","-16","experiment","3","odd","4","237497","234222","235284","4061","107469","235288","198547","4072","91764","239501","240196","236292","20348","239501","NA","Sternberg Task","25","24946","34","yes","1024"
"71.42857142857143","71.42857142857143","762.3142857142857","762.3142857142857","black","experiment","legacy","legacy","legacy","0","uniform","0","undefined","0","right","34","34","34","0","0","34","34","0","0","34","34","34","0","34","0","Sun Oct 16 21:10:52 2022","The main experiment item","yes","SternbergTask.osexp","/Users/alexisparrish/Documents/Advanced Quant. Methods/Lab 3/Lab 3.1","no","mono","no","18","no","white","no","yes","768","legacy","22","11","/Users/alexisparrish/Documents/Advanced Quant. Methods/Lab 3/Lab 3.2/AP-subject-3.csv","legacy","3 4 2","Lentiform Loewenfeld","3.3.12","0","n","0","left","right","right","left","NA","1735","16258","15704","1735","NA","2","legacy","3","1024","2","48000","-16","experiment","3","odd","5","243482","240207","241268","4061","107469","241273","198547","4072","91764","245486","247222","242277","20348","245486","NA","Sternberg Task","25","26681","35","yes","1024"
"72.22222222222223","72.22222222222223","762.3055555555555","762.3055555555555","black","experiment","legacy","legacy","legacy","0","uniform","1","undefined","1","left","35","35","35","0","0","35","35","0","0","35","35","35","0","35","0","Sun Oct 16 21:10:52 2022","The main experiment item","yes","SternbergTask.osexp","/Users/alexisparrish/Documents/Advanced Quant. Methods/Lab 3/Lab 3.1","no","mono","no","18","no","white","no","yes","768","legacy","23","11","/Users/alexisparrish/Documents/Advanced Quant. Methods/Lab 3/Lab 3.2/AP-subject-3.csv","legacy","7 2 3","Lentiform Loewenfeld","3.3.12","3","y","0","left","right","right","left","NA","762","16258","15704","762","NA","2","legacy","3","1024","2","48000","-16","experiment","3","odd","3","250508","240207","248294","4061","107469","248299","247234","4072","91764","252512","253275","249303","20348","252512","NA","Sternberg Task","26","27443","36","yes","1024"
"72.97297297297297","72.97297297297297","756.5945945945946","756.5945945945946","black","experiment","legacy","legacy","legacy","0","uniform","1","undefined","1","right","36","36","36","0","0","36","36","0","0","36","36","36","0","36","0","Sun Oct 16 21:10:52 2022","The main experiment item","yes","SternbergTask.osexp","/Users/alexisparrish/Documents/Advanced Quant. Methods/Lab 3/Lab 3.1","no","mono","no","18","no","white","no","yes","768","legacy","24","11","/Users/alexisparrish/Documents/Advanced Quant. Methods/Lab 3/Lab 3.2/AP-subject-3.csv","legacy","7 1","Lentiform Loewenfeld","3.3.12","0","n","0","right","right","right","right","NA","551","16258","15704","551","NA","2","legacy","2","1024","2","48000","-16","experiment","3","odd","8","256561","253286","254347","4061","107469","254352","247234","4072","91764","258565","259117","255356","20348","258565","NA","Sternberg Task","27","27994","37","yes","1024"
"71.05263157894737","71.05263157894737","762.8947368421053","762.8947368421053","black","experiment","legacy","legacy","legacy","0","uniform","0","undefined","0","right","37","37","37","0","0","37","37","0","0","37","37","37","0","37","0","Sun Oct 16 21:10:52 2022","The main experiment item","yes","SternbergTask.osexp","/Users/alexisparrish/Documents/Advanced Quant. Methods/Lab 3/Lab 3.1","no","mono","no","18","no","white","no","yes","768","legacy","25","11","/Users/alexisparrish/Documents/Advanced Quant. Methods/Lab 3/Lab 3.2/AP-subject-3.csv","legacy","9 8 2 7 4","Lentiform Loewenfeld","3.3.12","0","n","0","left","right","right","left","NA","996","16258","15704","996","NA","2","legacy","5","1024","2","48000","-16","experiment","3","odd","5","262400","259127","260187","4061","107469","260191","247234","4072","91764","264404","265401","261195","20348","264404","NA","Sternberg Task","27","28990","38","yes","1024"
"71.7948717948718","71.7948717948718","761.9230769230769","761.9230769230769","black","experiment","legacy","legacy","legacy","0","uniform","1","undefined","1","left","38","38","38","0","0","38","38","0","0","38","38","38","0","38","0","Sun Oct 16 21:10:52 2022","The main experiment item","yes","SternbergTask.osexp","/Users/alexisparrish/Documents/Advanced Quant. Methods/Lab 3/Lab 3.1","no","mono","no","18","no","white","no","yes","768","legacy","26","11","/Users/alexisparrish/Documents/Advanced Quant. Methods/Lab 3/Lab 3.2/AP-subject-3.csv","legacy","7 8 6 3 1","Lentiform Loewenfeld","3.3.12","5","y","0","left","right","right","left","NA","725","16258","15704","725","NA","2","legacy","5","1024","2","48000","-16","experiment","3","odd","1","268685","259127","266471","4061","107469","266476","265411","4072","91764","270689","271415","267480","20348","270689","NA","Sternberg Task","28","29715","39","yes","1024"
"72.5","72.5","761.5","761.5","black","experiment","legacy","legacy","legacy","0","uniform","1","undefined","1","right","39","39","39","0","0","39","39","0","0","39","39","39","0","39","0","Sun Oct 16 21:10:52 2022","The main experiment item","yes","SternbergTask.osexp","/Users/alexisparrish/Documents/Advanced Quant. Methods/Lab 3/Lab 3.1","no","mono","no","18","no","white","no","yes","768","legacy","27","11","/Users/alexisparrish/Documents/Advanced Quant. Methods/Lab 3/Lab 3.2/AP-subject-3.csv","legacy","5 2","Lentiform Loewenfeld","3.3.12","0","n","0","right","right","right","right","NA","745","16258","15704","745","NA","2","legacy","2","1024","2","48000","-16","experiment","3","odd","7","274704","271426","272490","4061","107469","272495","265411","4072","91764","276708","277454","273499","20348","276708","NA","Sternberg Task","29","30460","40","yes","1024"
"73.17073170731707","73.17073170731707","767.1463414634146","767.1463414634146","black","experiment","legacy","legacy","legacy","0","uniform","1","undefined","1","right","40","40","40","0","0","40","40","0","0","40","40","40","0","40","0","Sun Oct 16 21:10:52 2022","The main experiment item","yes","SternbergTask.osexp","/Users/alexisparrish/Documents/Advanced Quant. Methods/Lab 3/Lab 3.1","no","mono","no","18","no","white","no","yes","768","legacy","28","11","/Users/alexisparrish/Documents/Advanced Quant. Methods/Lab 3/Lab 3.2/AP-subject-3.csv","legacy","5 3 8 7 2 4","Lentiform Loewenfeld","3.3.12","0","n","0","right","right","right","right","NA","993","16258","15704","993","NA","2","legacy","6","1024","2","48000","-16","experiment","3","odd","9","280744","277466","278531","4061","107469","278535","265411","4072","91764","282748","283742","279539","20348","282748","NA","Sternberg Task","30","31453","41","yes","1024"
"71.42857142857143","71.42857142857143","772","772","black","experiment","legacy","legacy","legacy","0","uniform","0","undefined","0","right","41","41","41","0","0","41","41","0","0","41","41","41","0","41","0","Sun Oct 16 21:10:52 2022","The main experiment item","yes","SternbergTask.osexp","/Users/alexisparrish/Documents/Advanced Quant. Methods/Lab 3/Lab 3.1","no","mono","no","18","no","white","no","yes","768","legacy","29","11","/Users/alexisparrish/Documents/Advanced Quant. Methods/Lab 3/Lab 3.2/AP-subject-3.csv","legacy","4 2 6 9","Lentiform Loewenfeld","3.3.12","0","n","0","left","right","right","left","NA","971","16258","15704","971","NA","2","legacy","4","1024","2","48000","-16","experiment","3","odd","7","287032","283754","284815","4061","107469","284823","265411","4072","91764","289036","290009","285827","20348","289036","NA","Sternberg Task","30","32424","42","yes","1024"
"72.09302325581395","72.09302325581395","768.8837209302326","768.8837209302326","black","experiment","legacy","legacy","legacy","0","uniform","1","undefined","1","left","42","42","42","0","0","42","42","0","0","42","42","42","0","42","0","Sun Oct 16 21:10:52 2022","The main experiment item","yes","SternbergTask.osexp","/Users/alexisparrish/Documents/Advanced Quant. Methods/Lab 3/Lab 3.1","no","mono","no","18","no","white","no","yes","768","legacy","30","11","/Users/alexisparrish/Documents/Advanced Quant. Methods/Lab 3/Lab 3.2/AP-subject-3.csv","legacy","2 5 4 8 7","Lentiform Loewenfeld","3.3.12","3","y","0","left","right","right","left","NA","638","16258","15704","638","NA","2","legacy","5","1024","2","48000","-16","experiment","3","odd","4","293298","283754","291085","4061","107469","291089","290018","4072","91764","295302","295941","292093","20348","295302","NA","Sternberg Task","31","33062","43","yes","1024"
"72.72727272727273","72.72727272727273","765.3181818181819","765.3181818181819","black","experiment","legacy","legacy","legacy","0","uniform","1","undefined","1","right","43","43","43","0","0","43","43","0","0","43","43","43","0","43","0","Sun Oct 16 21:10:52 2022","The main experiment item","yes","SternbergTask.osexp","/Users/alexisparrish/Documents/Advanced Quant. Methods/Lab 3/Lab 3.1","no","mono","no","18","no","white","no","yes","768","legacy","31","11","/Users/alexisparrish/Documents/Advanced Quant. Methods/Lab 3/Lab 3.2/AP-subject-3.csv","legacy","1 7 5 2","Lentiform Loewenfeld","3.3.12","0","n","0","right","right","right","right","NA","612","16258","15704","612","NA","2","legacy","4","1024","2","48000","-16","experiment","3","odd","3","299234","295953","297020","4061","107469","297025","290018","4072","91764","301238","301850","298029","20348","301238","NA","Sternberg Task","32","33674","44","yes","1024"
"73.33333333333333","73.33333333333333","762.8666666666667","762.8666666666667","black","experiment","legacy","legacy","legacy","0","uniform","1","undefined","1","right","44","44","44","0","0","44","44","0","0","44","44","44","0","44","0","Sun Oct 16 21:10:52 2022","The main experiment item","yes","SternbergTask.osexp","/Users/alexisparrish/Documents/Advanced Quant. Methods/Lab 3/Lab 3.1","no","mono","no","18","no","white","no","yes","768","legacy","32","11","/Users/alexisparrish/Documents/Advanced Quant. Methods/Lab 3/Lab 3.2/AP-subject-3.csv","legacy","7 8 6 1","Lentiform Loewenfeld","3.3.12","0","n","0","right","right","right","right","NA","655","16258","15704","655","NA","2","legacy","4","1024","2","48000","-16","experiment","3","odd","3","305144","301862","302930","4061","107469","302935","290018","4072","91764","307148","307803","303939","20348","307148","NA","Sternberg Task","33","34329","45","yes","1024"
"73.91304347826087","73.91304347826087","764.9347826086956","764.9347826086956","black","experiment","legacy","legacy","legacy","0","uniform","1","undefined","1","left","45","45","45","0","0","45","45","0","0","45","45","45","0","45","0","Sun Oct 16 21:10:52 2022","The main experiment item","yes","SternbergTask.osexp","/Users/alexisparrish/Documents/Advanced Quant. Methods/Lab 3/Lab 3.1","no","mono","no","18","no","white","no","yes","768","legacy","33","11","/Users/alexisparrish/Documents/Advanced Quant. Methods/Lab 3/Lab 3.2/AP-subject-3.csv","legacy","4 3 2 5 8","Lentiform Loewenfeld","3.3.12","2","y","0","left","right","right","left","NA","858","16258","15704","858","NA","2","legacy","5","1024","2","48000","-16","experiment","3","odd","3","311097","307815","308883","4061","107469","308888","290018","4072","91764","313101","313960","309892","20348","313101","NA","Sternberg Task","34","35187","46","yes","1024"
"72.34042553191489","72.34042553191489","769.0425531914893","769.0425531914893","black","experiment","legacy","legacy","legacy","0","uniform","0","undefined","0","right","46","46","46","0","0","46","46","0","0","46","46","46","0","46","0","Sun Oct 16 21:10:52 2022","The main experiment item","yes","SternbergTask.osexp","/Users/alexisparrish/Documents/Advanced Quant. Methods/Lab 3/Lab 3.1","no","mono","no","18","no","white","no","yes","768","legacy","34","11","/Users/alexisparrish/Documents/Advanced Quant. Methods/Lab 3/Lab 3.2/AP-subject-3.csv","legacy","3 4 9 6 7 8","Lentiform Loewenfeld","3.3.12","0","n","0","left","right","right","left","NA","958","16258","15704","958","NA","2","legacy","6","1024","2","48000","-16","experiment","3","odd","2","317249","313972","315035","4061","107469","315040","290018","4072","91764","319253","320212","316044","20348","319253","NA","Sternberg Task","34","36145","47","yes","1024"
"70.83333333333333","70.83333333333333","777.3541666666666","777.3541666666666","black","experiment","legacy","legacy","legacy","0","uniform","0","undefined","0","left","47","47","47","0","0","47","47","0","0","47","47","47","0","47","0","Sun Oct 16 21:10:52 2022","The main experiment item","yes","SternbergTask.osexp","/Users/alexisparrish/Documents/Advanced Quant. Methods/Lab 3/Lab 3.1","no","mono","no","18","no","white","no","yes","768","legacy","35","11","/Users/alexisparrish/Documents/Advanced Quant. Methods/Lab 3/Lab 3.2/AP-subject-3.csv","legacy","8 5 4 7 3 1","Lentiform Loewenfeld","3.3.12","2","y","0","right","right","right","right","NA","1168","16258","15704","1168","NA","2","legacy","6","1024","2","48000","-16","experiment","3","odd","5","323502","313972","321289","4061","107469","321293","320222","4072","91764","325506","326675","322297","20348","325506","NA","Sternberg Task","34","37313","48","yes","1024"
"71.42857142857143","71.42857142857143","763.734693877551","763.734693877551","black","experiment","legacy","legacy","legacy","0","uniform","1","undefined","1","left","48","48","48","0","0","48","48","0","0","48","48","48","0","48","0","Sun Oct 16 21:10:52 2022","The main experiment item","yes","SternbergTask.osexp","/Users/alexisparrish/Documents/Advanced Quant. Methods/Lab 3/Lab 3.1","no","mono","no","18","no","white","no","yes","768","legacy","36","11","/Users/alexisparrish/Documents/Advanced Quant. Methods/Lab 3/Lab 3.2/AP-subject-3.csv","legacy","8 3","Lentiform Loewenfeld","3.3.12","2","y","0","left","right","right","left","NA","110","16258","15704","110","NA","2","legacy","2","1024","2","48000","-16","experiment","3","odd","3","329961","313972","327748","4061","107469","327752","326687","4072","91764","331965","332076","328756","20348","331965","NA","Sternberg Task","35","37423","49","yes","1024"
"70","70","761.84","761.84","black","experiment","legacy","legacy","legacy","0","uniform","0","undefined","0","left","49","49","49","0","0","49","49","0","0","49","49","49","0","49","0","Sun Oct 16 21:10:52 2022","The main experiment item","yes","SternbergTask.osexp","/Users/alexisparrish/Documents/Advanced Quant. Methods/Lab 3/Lab 3.1","no","mono","no","18","no","white","no","yes","768","legacy","37","11","/Users/alexisparrish/Documents/Advanced Quant. Methods/Lab 3/Lab 3.2/AP-subject-3.csv","legacy","6 5","Lentiform Loewenfeld","3.3.12","2","y","0","right","right","right","right","NA","669","16258","15704","669","NA","2","legacy","2","1024","2","48000","-16","experiment","3","odd","5","335365","332086","333152","4061","107469","333156","326687","4072","91764","337369","338038","334160","20348","337369","NA","Sternberg Task","35","38092","50","yes","1024"
"68.62745098039215","68.62745098039215","785.1372549019608","785.1372549019608","black","experiment","legacy","legacy","legacy","0","uniform","0","undefined","0","left","50","50","50","0","0","50","50","0","0","50","50","50","0","50","0","Sun Oct 16 21:10:52 2022","The main experiment item","yes","SternbergTask.osexp","/Users/alexisparrish/Documents/Advanced Quant. Methods/Lab 3/Lab 3.1","no","mono","no","18","no","white","no","yes","768","legacy","38","11","/Users/alexisparrish/Documents/Advanced Quant. Methods/Lab 3/Lab 3.2/AP-subject-3.csv","legacy","5 7 8 2 3 8","Lentiform Loewenfeld","3.3.12","5","y","0","right","right","right","right","NA","1950","16258","15704","1950","NA","2","legacy","6","1024","2","48000","-16","experiment","3","odd","3","341333","332086","339119","4061","107469","339124","338050","4072","91764","343337","345288","340128","20348","343337","NA","Sternberg Task","35","40042","51","yes","1024"
"67.3076923076923","67.3076923076923","779.9038461538462","779.9038461538462","black","experiment","legacy","legacy","legacy","0","uniform","0","undefined","0","right","51","51","51","0","0","51","51","0","0","51","51","51","0","51","0","Sun Oct 16 21:10:52 2022","The main experiment item","yes","SternbergTask.osexp","/Users/alexisparrish/Documents/Advanced Quant. Methods/Lab 3/Lab 3.1","no","mono","no","18","no","white","no","yes","768","legacy","39","11","/Users/alexisparrish/Documents/Advanced Quant. Methods/Lab 3/Lab 3.2/AP-subject-3.csv","legacy","8 4 3 5","Lentiform Loewenfeld","3.3.12","0","n","0","left","right","right","left","NA","513","16258","15704","513","NA","2","legacy","4","1024","2","48000","-16","experiment","3","odd","6","348576","332086","346362","4061","107469","346367","345300","4072","91764","350580","351094","347371","20348","350580","NA","Sternberg Task","35","40555","52","yes","1024"
"67.9245283018868","67.9245283018868","777.1509433962265","777.1509433962265","black","experiment","legacy","legacy","legacy","0","uniform","1","undefined","1","left","52","52","52","0","0","52","52","0","0","52","52","52","0","52","0","Sun Oct 16 21:10:52 2022","The main experiment item","yes","SternbergTask.osexp","/Users/alexisparrish/Documents/Advanced Quant. Methods/Lab 3/Lab 3.1","no","mono","no","18","no","white","no","yes","768","legacy","40","11","/Users/alexisparrish/Documents/Advanced Quant. Methods/Lab 3/Lab 3.2/AP-subject-3.csv","legacy","4 1 5","Lentiform Loewenfeld","3.3.12","2","y","0","left","right","right","left","NA","634","16258","15704","634","NA","2","legacy","3","1024","2","48000","-16","experiment","3","odd","1","354385","332086","352172","4061","107469","352176","351105","4072","91764","356389","357024","353180","20348","356389","NA","Sternberg Task","36","41189","53","yes","1024"
"68.51851851851852","68.51851851851852","781.7407407407408","781.7407407407408","black","experiment","legacy","legacy","legacy","0","uniform","1","undefined","1","left","53","53","53","0","0","53","53","0","0","53","53","53","0","53","0","Sun Oct 16 21:10:52 2022","The main experiment item","yes","SternbergTask.osexp","/Users/alexisparrish/Documents/Advanced Quant. Methods/Lab 3/Lab 3.1","no","mono","no","18","no","white","no","yes","768","legacy","41","11","/Users/alexisparrish/Documents/Advanced Quant. Methods/Lab 3/Lab 3.2/AP-subject-3.csv","legacy","6 7 9 3 1 2","Lentiform Loewenfeld","3.3.12","1","y","0","left","right","right","left","NA","1025","16258","15704","1025","NA","2","legacy","6","1024","2","48000","-16","experiment","3","odd","6","360317","357036","358103","4061","107469","358107","351105","4072","91764","362321","363347","359112","20348","362321","NA","Sternberg Task","37","42214","54","yes","1024"
"69.0909090909091","69.0909090909091","776.2363636363636","776.2363636363636","black","experiment","legacy","legacy","legacy","0","uniform","1","undefined","1","left","54","54","54","0","0","54","54","0","0","54","54","54","0","54","0","Sun Oct 16 21:10:52 2022","The main experiment item","yes","SternbergTask.osexp","/Users/alexisparrish/Documents/Advanced Quant. Methods/Lab 3/Lab 3.1","no","mono","no","18","no","white","no","yes","768","legacy","42","11","/Users/alexisparrish/Documents/Advanced Quant. Methods/Lab 3/Lab 3.2/AP-subject-3.csv","legacy","8","Lentiform Loewenfeld","3.3.12","1","y","0","left","right","right","left","NA","479","16258","15704","479","NA","2","legacy","1","1024","2","48000","-16","experiment","3","odd","8","366636","363358","364420","4061","107469","364427","351105","4072","91764","368640","369120","365431","20348","368640","NA","Sternberg Task","38","42693","55","yes","1024"
"67.85714285714286","67.85714285714286","765.0535714285714","765.0535714285714","black","experiment","legacy","legacy","legacy","0","uniform","0","undefined","0","right","55","55","55","0","0","55","55","0","0","55","55","55","0","55","0","Sun Oct 16 21:10:52 2022","The main experiment item","yes","SternbergTask.osexp","/Users/alexisparrish/Documents/Advanced Quant. Methods/Lab 3/Lab 3.1","no","mono","no","18","no","white","no","yes","768","legacy","43","11","/Users/alexisparrish/Documents/Advanced Quant. Methods/Lab 3/Lab 3.2/AP-subject-3.csv","legacy","6 8 4","Lentiform Loewenfeld","3.3.12","0","n","0","left","right","right","left","NA","150","16258","15704","150","NA","2","legacy","3","1024","2","48000","-16","experiment","3","odd","1","372410","369133","370197","4061","107469","370201","351105","4072","91764","374414","374565","371205","20348","374414","NA","Sternberg Task","38","42843","56","yes","1024"
"66.66666666666667","66.66666666666667","768.9473684210526","768.9473684210526","black","experiment","legacy","legacy","legacy","0","uniform","0","undefined","0","right","56","56","56","0","0","56","56","0","0","56","56","56","0","56","0","Sun Oct 16 21:10:52 2022","The main experiment item","yes","SternbergTask.osexp","/Users/alexisparrish/Documents/Advanced Quant. Methods/Lab 3/Lab 3.1","no","mono","no","18","no","white","no","yes","768","legacy","44","11","/Users/alexisparrish/Documents/Advanced Quant. Methods/Lab 3/Lab 3.2/AP-subject-3.csv","legacy","1 5 3 2 8","Lentiform Loewenfeld","3.3.12","0","n","0","left","right","right","left","NA","987","16258","15704","987","NA","2","legacy","5","1024","2","48000","-16","experiment","3","odd","4","377861","369133","375644","4061","107469","375648","374577","4072","91764","379865","380853","376652","20348","379865","NA","Sternberg Task","38","43830","57","yes","1024"
"65.51724137931035","65.51724137931035","763.051724137931","763.051724137931","black","experiment","legacy","legacy","legacy","0","uniform","0","undefined","0","right","57","57","57","0","0","57","57","0","0","57","57","57","0","57","0","Sun Oct 16 21:10:52 2022","The main experiment item","yes","SternbergTask.osexp","/Users/alexisparrish/Documents/Advanced Quant. Methods/Lab 3/Lab 3.1","no","mono","no","18","no","white","no","yes","768","legacy","45","11","/Users/alexisparrish/Documents/Advanced Quant. Methods/Lab 3/Lab 3.2/AP-subject-3.csv","legacy","7 1 8 4 9 3","Lentiform Loewenfeld","3.3.12","0","n","0","left","right","right","left","NA","427","16258","15704","427","NA","2","legacy","6","1024","2","48000","-16","experiment","3","odd","6","384145","369133","381931","4061","107469","381936","380865","4072","91764","386149","386577","382940","20348","386149","NA","Sternberg Task","38","44257","58","yes","1024"
"64.40677966101696","64.40677966101696","784.0169491525423","784.0169491525423","black","experiment","legacy","legacy","legacy","0","uniform","0","undefined","0","right","58","58","58","0","0","58","58","0","0","58","58","58","0","58","0","Sun Oct 16 21:10:52 2022","The main experiment item","yes","SternbergTask.osexp","/Users/alexisparrish/Documents/Advanced Quant. Methods/Lab 3/Lab 3.1","no","mono","no","18","no","white","no","yes","768","legacy","46","11","/Users/alexisparrish/Documents/Advanced Quant. Methods/Lab 3/Lab 3.2/AP-subject-3.csv","legacy","7 4 2 8 1 9","Lentiform Loewenfeld","3.3.12","0","n","0","None","right","right","None","NA","2000","16258","15704","2000","NA","2","legacy","6","1024","2","48000","-16","experiment","3","odd","5","389869","369133","387656","4061","107469","387660","386589","4072","91764","391873","393873","388664","20348","391873","NA","Sternberg Task","38","46257","59","yes","1024"
"63.333333333333336","63.333333333333336","778.0333333333333","778.0333333333333","black","experiment","legacy","legacy","legacy","0","uniform","0","undefined","0","right","59","59","59","0","0","59","59","0","0","59","59","59","0","59","0","Sun Oct 16 21:10:52 2022","The main experiment item","yes","SternbergTask.osexp","/Users/alexisparrish/Documents/Advanced Quant. Methods/Lab 3/Lab 3.1","no","mono","no","18","no","white","no","yes","768","legacy","47","11","/Users/alexisparrish/Documents/Advanced Quant. Methods/Lab 3/Lab 3.2/AP-subject-3.csv","legacy","6 2 9 3 8 4","Lentiform Loewenfeld","3.3.12","0","n","0","left","right","right","left","NA","425","16258","15704","425","NA","2","legacy","6","1024","2","48000","-16","experiment","3","odd","1","397161","369133","394948","4061","107469","394952","393885","4072","91764","399165","399591","395956","20348","399165","NA","Sternberg Task","38","46682","60","yes","1024"
"63.9344262295082","63.9344262295082","780.2459016393443","780.2459016393443","black","experiment","legacy","legacy","legacy","0","uniform","1","undefined","1","right","60","60","60","0","0","60","60","0","0","60","60","60","0","60","0","Sun Oct 16 21:10:52 2022","The main experiment item","yes","SternbergTask.osexp","/Users/alexisparrish/Documents/Advanced Quant. Methods/Lab 3/Lab 3.1","no","mono","no","18","no","white","no","yes","768","legacy","48","11","/Users/alexisparrish/Documents/Advanced Quant. Methods/Lab 3/Lab 3.2/AP-subject-3.csv","legacy","5","Lentiform Loewenfeld","3.3.12","0","n","0","right","right","right","right","NA","913","16258","15704","913","NA","2","legacy","1","1024","2","48000","-16","experiment","3","odd","8","402876","369133","400663","4061","107469","400667","399598","4072","91764","404881","405795","401671","20348","404881","NA","Sternberg Task","39","47595","61","yes","1024"
"62.903225806451616","62.903225806451616","788.3064516129032","788.3064516129032","black","experiment","legacy","legacy","legacy","0","uniform","0","undefined","0","right","61","61","61","0","0","61","61","0","0","61","61","61","0","61","0","Sun Oct 16 21:10:52 2022","The main experiment item","yes","SternbergTask.osexp","/Users/alexisparrish/Documents/Advanced Quant. Methods/Lab 3/Lab 3.1","no","mono","no","18","no","white","no","yes","768","legacy","49","11","/Users/alexisparrish/Documents/Advanced Quant. Methods/Lab 3/Lab 3.2/AP-subject-3.csv","legacy","9 7 4 5 8","Lentiform Loewenfeld","3.3.12","0","n","0","left","right","right","left","NA","1280","16258","15704","1280","NA","2","legacy","5","1024","2","48000","-16","experiment","3","odd","6","409086","405806","406873","4061","107469","406877","399598","4072","91764","411090","412371","407881","20348","411090","NA","Sternberg Task","39","48875","62","yes","1024"
"61.904761904761905","61.904761904761905","795.3968253968254","795.3968253968254","black","experiment","legacy","legacy","legacy","0","uniform","0","undefined","0","right","62","62","62","0","0","62","62","0","0","62","62","62","0","62","0","Sun Oct 16 21:10:52 2022","The main experiment item","yes","SternbergTask.osexp","/Users/alexisparrish/Documents/Advanced Quant. Methods/Lab 3/Lab 3.1","no","mono","no","18","no","white","no","yes","768","legacy","50","11","/Users/alexisparrish/Documents/Advanced Quant. Methods/Lab 3/Lab 3.2/AP-subject-3.csv","legacy","1 7 8 3 9","Lentiform Loewenfeld","3.3.12","0","n","0","left","right","right","left","NA","1235","16258","15704","1235","NA","2","legacy","5","1024","2","48000","-16","experiment","3","odd","2","415664","405806","413450","4061","107469","413454","412383","4072","91764","417668","418904","414459","20348","417668","NA","Sternberg Task","39","50110","63","yes","1024"
"62.5","62.5","789.265625","789.265625","black","experiment","legacy","legacy","legacy","0","uniform","1","undefined","1","left","63","63","63","0","0","63","63","0","0","63","63","63","0","63","0","Sun Oct 16 21:10:52 2022","The main experiment item","yes","SternbergTask.osexp","/Users/alexisparrish/Documents/Advanced Quant. Methods/Lab 3/Lab 3.1","no","mono","no","18","no","white","no","yes","768","legacy","51","11","/Users/alexisparrish/Documents/Advanced Quant. Methods/Lab 3/Lab 3.2/AP-subject-3.csv","legacy","7 1 3","Lentiform Loewenfeld","3.3.12","2","y","0","left","right","right","left","NA","403","16258","15704","403","NA","2","legacy","3","1024","2","48000","-16","experiment","3","odd","1","422192","405806","419978","4061","107469","419983","418916","4072","91764","424196","424599","420987","20348","424196","NA","Sternberg Task","40","50513","64","yes","1024"
"61.53846153846154","61.53846153846154","787.7076923076924","787.7076923076924","black","experiment","legacy","legacy","legacy","0","uniform","0","undefined","0","right","64","64","64","0","0","64","64","0","0","64","64","64","0","64","0","Sun Oct 16 21:10:52 2022","The main experiment item","yes","SternbergTask.osexp","/Users/alexisparrish/Documents/Advanced Quant. Methods/Lab 3/Lab 3.1","no","mono","no","18","no","white","no","yes","768","legacy","52","11","/Users/alexisparrish/Documents/Advanced Quant. Methods/Lab 3/Lab 3.2/AP-subject-3.csv","legacy","6 9 7 3 8 2","Lentiform Loewenfeld","3.3.12","0","n","0","left","right","right","left","NA","688","16258","15704","688","NA","2","legacy","6","1024","2","48000","-16","experiment","3","odd","5","427887","424611","425674","4061","107469","425678","418916","4072","91764","429891","430580","426682","20348","429891","NA","Sternberg Task","40","51201","65","yes","1024"
"62.121212121212125","62.121212121212125","783.060606060606","783.060606060606","black","experiment","legacy","legacy","legacy","0","uniform","1","undefined","1","left","65","65","65","0","0","65","65","0","0","65","65","65","0","65","0","Sun Oct 16 21:10:52 2022","The main experiment item","yes","SternbergTask.osexp","/Users/alexisparrish/Documents/Advanced Quant. Methods/Lab 3/Lab 3.1","no","mono","no","18","no","white","no","yes","768","legacy","53","11","/Users/alexisparrish/Documents/Advanced Quant. Methods/Lab 3/Lab 3.2/AP-subject-3.csv","legacy","4 1 8 7 5","Lentiform Loewenfeld","3.3.12","3","y","0","left","right","right","left","NA","481","16258","15704","481","NA","2","legacy","5","1024","2","48000","-16","experiment","3","odd","8","433873","424611","431660","4061","107469","431664","430593","4072","91764","435877","436359","432668","20348","435877","NA","Sternberg Task","41","51682","66","yes","1024"
"61.19402985074627","61.19402985074627","777.7910447761194","777.7910447761194","black","experiment","legacy","legacy","legacy","0","uniform","0","undefined","0","right","66","66","66","0","0","66","66","0","0","66","66","66","0","66","0","Sun Oct 16 21:10:52 2022","The main experiment item","yes","SternbergTask.osexp","/Users/alexisparrish/Documents/Advanced Quant. Methods/Lab 3/Lab 3.1","no","mono","no","18","no","white","no","yes","768","legacy","54","11","/Users/alexisparrish/Documents/Advanced Quant. Methods/Lab 3/Lab 3.2/AP-subject-3.csv","legacy","2 8 7 9 5 3","Lentiform Loewenfeld","3.3.12","0","n","0","left","right","right","left","NA","430","16258","15704","430","NA","2","legacy","6","1024","2","48000","-16","experiment","3","odd","6","439650","436369","437437","4061","107469","437441","430593","4072","91764","441654","442085","438445","20348","441654","NA","Sternberg Task","41","52112","67","yes","1024"
"61.76470588235294","61.76470588235294","787.5735294117648","787.5735294117648","black","experiment","legacy","legacy","legacy","0","uniform","1","undefined","1","left","67","67","67","0","0","67","67","0","0","67","67","67","0","67","0","Sun Oct 16 21:10:52 2022","The main experiment item","yes","SternbergTask.osexp","/Users/alexisparrish/Documents/Advanced Quant. Methods/Lab 3/Lab 3.1","no","mono","no","18","no","white","no","yes","768","legacy","55","11","/Users/alexisparrish/Documents/Advanced Quant. Methods/Lab 3/Lab 3.2/AP-subject-3.csv","legacy","3 4","Lentiform Loewenfeld","3.3.12","1","y","0","left","right","right","left","NA","1443","16258","15704","1443","NA","2","legacy","2","1024","2","48000","-16","experiment","3","odd","3","445378","436369","443165","4061","107469","443169","442097","4072","91764","447382","448826","444173","20348","447382","NA","Sternberg Task","42","53555","68","yes","1024"
"60.869565217391305","60.869565217391305","782.5507246376811","782.5507246376811","black","experiment","legacy","legacy","legacy","0","uniform","0","undefined","0","right","68","68","68","0","0","68","68","0","0","68","68","68","0","68","0","Sun Oct 16 21:10:52 2022","The main experiment item","yes","SternbergTask.osexp","/Users/alexisparrish/Documents/Advanced Quant. Methods/Lab 3/Lab 3.1","no","mono","no","18","no","white","no","yes","768","legacy","56","11","/Users/alexisparrish/Documents/Advanced Quant. Methods/Lab 3/Lab 3.2/AP-subject-3.csv","legacy","2 7 5","Lentiform Loewenfeld","3.3.12","0","n","0","left","right","right","left","NA","441","16258","15704","441","NA","2","legacy","3","1024","2","48000","-16","experiment","3","odd","8","452115","448840","449902","4061","107469","449906","442097","4072","91764","454119","454561","450910","20348","454119","NA","Sternberg Task","42","53996","69","yes","1024"
"60","60","780.6428571428571","780.6428571428571","black","experiment","legacy","legacy","legacy","0","uniform","0","undefined","0","right","69","69","69","0","0","69","69","0","0","69","69","69","0","69","0","Sun Oct 16 21:10:52 2022","The main experiment item","yes","SternbergTask.osexp","/Users/alexisparrish/Documents/Advanced Quant. Methods/Lab 3/Lab 3.1","no","mono","no","18","no","white","no","yes","768","legacy","57","11","/Users/alexisparrish/Documents/Advanced Quant. Methods/Lab 3/Lab 3.2/AP-subject-3.csv","legacy","8 6 3 4 7","Lentiform Loewenfeld","3.3.12","0","n","0","left","right","right","left","NA","649","16258","15704","649","NA","2","legacy","5","1024","2","48000","-16","experiment","3","odd","1","457850","448840","455636","4061","107469","455641","454572","4072","91764","459854","460504","456645","20348","459854","NA","Sternberg Task","42","54645","70","yes","1024"
"60.563380281690144","60.563380281690144","781.6478873239437","781.6478873239437","black","experiment","legacy","legacy","legacy","0","uniform","1","undefined","1","right","70","70","70","0","0","70","70","0","0","70","70","70","0","70","0","Sun Oct 16 21:10:52 2022","The main experiment item","yes","SternbergTask.osexp","/Users/alexisparrish/Documents/Advanced Quant. Methods/Lab 3/Lab 3.1","no","mono","no","18","no","white","no","yes","768","legacy","58","11","/Users/alexisparrish/Documents/Advanced Quant. Methods/Lab 3/Lab 3.2/AP-subject-3.csv","legacy","1 3 2 6 9","Lentiform Loewenfeld","3.3.12","0","n","0","right","right","right","right","NA","852","16258","15704","852","NA","2","legacy","5","1024","2","48000","-16","experiment","3","odd","5","463783","448840","461569","4061","107469","461573","460509","4072","91764","465787","466640","462578","20348","465787","NA","Sternberg Task","43","55497","71","yes","1024"
"59.72222222222222","59.72222222222222","798.5694444444445","798.5694444444445","black","experiment","legacy","legacy","legacy","0","uniform","0","undefined","0","left","71","71","71","0","0","71","71","0","0","71","71","71","0","71","0","Sun Oct 16 21:10:52 2022","The main experiment item","yes","SternbergTask.osexp","/Users/alexisparrish/Documents/Advanced Quant. Methods/Lab 3/Lab 3.1","no","mono","no","18","no","white","no","yes","768","legacy","59","11","/Users/alexisparrish/Documents/Advanced Quant. Methods/Lab 3/Lab 3.2/AP-subject-3.csv","legacy","3 9 6 2","Lentiform Loewenfeld","3.3.12","4","y","0","None","right","right","None","NA","2000","16258","15704","2000","NA","2","legacy","4","1024","2","48000","-16","experiment","3","odd","2","469924","466650","467710","4061","107469","467715","460509","4072","91764","471928","473928","468719","20348","471928","NA","Sternberg Task","43","57497","72","yes","1024"
"60.273972602739725","60.273972602739725","796.4794520547945","796.4794520547945","black","experiment","legacy","legacy","legacy","0","uniform","1","undefined","1","right","72","72","72","0","0","72","72","0","0","72","72","72","0","72","0","Sun Oct 16 21:10:52 2022","The main experiment item","yes","SternbergTask.osexp","/Users/alexisparrish/Documents/Advanced Quant. Methods/Lab 3/Lab 3.1","no","mono","no","18","no","white","no","yes","768","legacy","60","11","/Users/alexisparrish/Documents/Advanced Quant. Methods/Lab 3/Lab 3.2/AP-subject-3.csv","legacy","7 6 4 8 1 2","Lentiform Loewenfeld","3.3.12","0","n","0","right","right","right","right","NA","646","16258","15704","646","NA","2","legacy","6","1024","2","48000","-16","experiment","3","odd","9","477216","466650","475002","4061","107469","475007","473939","4072","91764","479220","479868","476011","20348","479220","NA","Sternberg Task","44","58143","73","yes","1024"
"60.810810810810814","60.810810810810814","798.0540540540541","798.0540540540541","black","experiment","legacy","legacy","legacy","0","uniform","1","undefined","1","right","73","73","73","0","0","73","73","0","0","73","73","73","0","73","0","Sun Oct 16 21:10:52 2022","The main experiment item","yes","SternbergTask.osexp","/Users/alexisparrish/Documents/Advanced Quant. Methods/Lab 3/Lab 3.1","no","mono","no","18","no","white","no","yes","768","legacy","61","11","/Users/alexisparrish/Documents/Advanced Quant. Methods/Lab 3/Lab 3.2/AP-subject-3.csv","legacy","1 6 4 3 9 7","Lentiform Loewenfeld","3.3.12","0","n","0","right","right","right","right","NA","913","16258","15704","913","NA","2","legacy","6","1024","2","48000","-16","experiment","3","odd","8","483156","479879","480942","4061","107469","480947","473939","4072","91764","485160","486074","481951","20348","485160","NA","Sternberg Task","45","59056","74","yes","1024"
"61.333333333333336","61.333333333333336","798.44","798.44","black","experiment","legacy","legacy","legacy","0","uniform","1","undefined","1","left","74","74","74","0","0","74","74","0","0","74","74","74","0","74","0","Sun Oct 16 21:10:52 2022","The main experiment item","yes","SternbergTask.osexp","/Users/alexisparrish/Documents/Advanced Quant. Methods/Lab 3/Lab 3.1","no","mono","no","18","no","white","no","yes","768","legacy","62","11","/Users/alexisparrish/Documents/Advanced Quant. Methods/Lab 3/Lab 3.2/AP-subject-3.csv","legacy","9 8 4","Lentiform Loewenfeld","3.3.12","1","y","0","left","right","right","left","NA","827","16258","15704","827","NA","2","legacy","3","1024","2","48000","-16","experiment","3","odd","9","489361","486085","487148","4061","107469","487152","473939","4072","91764","491365","492193","488156","20348","491365","NA","Sternberg Task","46","59883","75","yes","1024"
"61.8421052631579","61.8421052631579","801.2105263157895","801.2105263157895","black","experiment","legacy","legacy","legacy","0","uniform","1","undefined","1","left","75","75","75","0","0","75","75","0","0","75","75","75","0","75","0","Sun Oct 16 21:10:52 2022","The main experiment item","yes","SternbergTask.osexp","/Users/alexisparrish/Documents/Advanced Quant. Methods/Lab 3/Lab 3.1","no","mono","no","18","no","white","no","yes","768","legacy","63","11","/Users/alexisparrish/Documents/Advanced Quant. Methods/Lab 3/Lab 3.2/AP-subject-3.csv","legacy","7 6","Lentiform Loewenfeld","3.3.12","2","y","0","left","right","right","left","NA","1009","16258","15704","1009","NA","2","legacy","2","1024","2","48000","-16","experiment","3","odd","6","495483","492203","493269","4061","107469","493273","473939","4072","91764","497487","498497","494278","20348","497487","NA","Sternberg Task","47","60892","76","yes","1024"
"61.03896103896104","61.03896103896104","816.7792207792207","816.7792207792207","black","experiment","legacy","legacy","legacy","0","uniform","0","undefined","0","left","76","76","76","0","0","76","76","0","0","76","76","76","0","76","0","Sun Oct 16 21:10:52 2022","The main experiment item","yes","SternbergTask.osexp","/Users/alexisparrish/Documents/Advanced Quant. Methods/Lab 3/Lab 3.1","no","mono","no","18","no","white","no","yes","768","legacy","64","11","/Users/alexisparrish/Documents/Advanced Quant. Methods/Lab 3/Lab 3.2/AP-subject-3.csv","legacy","8 1 6","Lentiform Loewenfeld","3.3.12","3","y","0","None","right","right","None","NA","2000","16258","15704","2000","NA","2","legacy","3","1024","2","48000","-16","experiment","3","odd","6","501786","498509","499572","4061","107469","499577","473939","4072","91764","503790","505790","500581","20348","503790","NA","Sternberg Task","47","62892","77","yes","1024"
"61.53846153846154","61.53846153846154","811.8974358974359","811.8974358974359","black","experiment","legacy","legacy","legacy","0","uniform","1","undefined","1","left","77","77","77","0","0","77","77","0","0","77","77","77","0","77","0","Sun Oct 16 21:10:52 2022","The main experiment item","yes","SternbergTask.osexp","/Users/alexisparrish/Documents/Advanced Quant. Methods/Lab 3/Lab 3.1","no","mono","no","18","no","white","no","yes","768","legacy","65","11","/Users/alexisparrish/Documents/Advanced Quant. Methods/Lab 3/Lab 3.2/AP-subject-3.csv","legacy","4","Lentiform Loewenfeld","3.3.12","1","y","0","left","right","right","left","NA","436","16258","15704","436","NA","2","legacy","1","1024","2","48000","-16","experiment","3","odd","4","509078","498509","506865","4061","107469","506869","505802","4072","91764","511082","511519","507873","20348","511082","NA","Sternberg Task","48","63328","78","yes","1024"
"62.0253164556962","62.0253164556962","808.493670886076","808.493670886076","black","experiment","legacy","legacy","legacy","0","uniform","1","undefined","1","left","78","78","78","0","0","78","78","0","0","78","78","78","0","78","0","Sun Oct 16 21:10:52 2022","The main experiment item","yes","SternbergTask.osexp","/Users/alexisparrish/Documents/Advanced Quant. Methods/Lab 3/Lab 3.1","no","mono","no","18","no","white","no","yes","768","legacy","66","11","/Users/alexisparrish/Documents/Advanced Quant. Methods/Lab 3/Lab 3.2/AP-subject-3.csv","legacy","9 5 3 8 4","Lentiform Loewenfeld","3.3.12","1","y","0","left","right","right","left","NA","543","16258","15704","543","NA","2","legacy","5","1024","2","48000","-16","experiment","3","odd","9","514808","511531","512595","4061","107469","512599","505802","4072","91764","516812","517356","513603","20348","516812","NA","Sternberg Task","49","63871","79","yes","1024"
"62.5","62.5","805.05","805.05","black","experiment","legacy","legacy","legacy","0","uniform","1","undefined","1","right","79","79","79","0","0","79","79","0","0","79","79","79","0","79","0","Sun Oct 16 21:10:52 2022","The main experiment item","yes","SternbergTask.osexp","/Users/alexisparrish/Documents/Advanced Quant. Methods/Lab 3/Lab 3.1","no","mono","no","18","no","white","no","yes","768","legacy","67","11","/Users/alexisparrish/Documents/Advanced Quant. Methods/Lab 3/Lab 3.2/AP-subject-3.csv","legacy","4 8 1 2","Lentiform Loewenfeld","3.3.12","0","n","0","right","right","right","right","NA","533","16258","15704","533","NA","2","legacy","4","1024","2","48000","-16","experiment","3","odd","7","520647","517366","518434","4061","107469","518438","505802","4072","91764","522651","523185","519442","20348","522651","NA","Sternberg Task","50","64404","80","yes","1024"
"62.96296296296296","62.96296296296296","809.1604938271605","809.1604938271605","black","experiment","legacy","legacy","legacy","0","uniform","1","undefined","1","right","80","80","80","0","0","80","80","0","0","80","80","80","0","80","0","Sun Oct 16 21:10:52 2022","The main experiment item","yes","SternbergTask.osexp","/Users/alexisparrish/Documents/Advanced Quant. Methods/Lab 3/Lab 3.1","no","mono","no","18","no","white","no","yes","768","legacy","68","11","/Users/alexisparrish/Documents/Advanced Quant. Methods/Lab 3/Lab 3.2/AP-subject-3.csv","legacy","8 4 3 9","Lentiform Loewenfeld","3.3.12","0","n","0","right","right","right","right","NA","1138","16258","15704","1138","NA","2","legacy","4","1024","2","48000","-16","experiment","3","odd","5","526469","523195","524255","4061","107469","524259","505802","4072","91764","528473","529612","525264","20348","528473","NA","Sternberg Task","51","65542","81","yes","1024"
"63.41463414634146","63.41463414634146","809.5365853658536","809.5365853658536","black","experiment","legacy","legacy","legacy","0","uniform","1","undefined","1","left","81","81","81","0","0","81","81","0","0","81","81","81","0","81","0","Sun Oct 16 21:10:52 2022","The main experiment item","yes","SternbergTask.osexp","/Users/alexisparrish/Documents/Advanced Quant. Methods/Lab 3/Lab 3.1","no","mono","no","18","no","white","no","yes","768","legacy","69","11","/Users/alexisparrish/Documents/Advanced Quant. Methods/Lab 3/Lab 3.2/AP-subject-3.csv","legacy","2 3 7 4","Lentiform Loewenfeld","3.3.12","1","y","0","left","right","right","left","NA","840","16258","15704","840","NA","2","legacy","4","1024","2","48000","-16","experiment","3","odd","2","532901","529624","530688","4061","107469","530692","505802","4072","91764","534905","535746","531696","20348","534905","NA","Sternberg Task","52","66382","82","yes","1024"
"63.855421686746986","63.855421686746986","809.3012048192771","809.3012048192771","black","experiment","legacy","legacy","legacy","0","uniform","1","undefined","1","left","82","82","82","0","0","82","82","0","0","82","82","82","0","82","0","Sun Oct 16 21:10:52 2022","The main experiment item","yes","SternbergTask.osexp","/Users/alexisparrish/Documents/Advanced Quant. Methods/Lab 3/Lab 3.1","no","mono","no","18","no","white","no","yes","768","legacy","70","11","/Users/alexisparrish/Documents/Advanced Quant. Methods/Lab 3/Lab 3.2/AP-subject-3.csv","legacy","4 6 2 5 1","Lentiform Loewenfeld","3.3.12","5","y","0","left","right","right","left","NA","790","16258","15704","790","NA","2","legacy","5","1024","2","48000","-16","experiment","3","odd","1","539040","535758","536826","4061","107469","536831","505802","4072","91764","541044","541835","537835","20348","541044","NA","Sternberg Task","53","67172","83","yes","1024"
"64.28571428571429","64.28571428571429","806.5238095238095","806.5238095238095","black","experiment","legacy","legacy","legacy","0","uniform","1","undefined","1","right","83","83","83","0","0","83","83","0","0","83","83","83","0","83","0","Sun Oct 16 21:10:52 2022","The main experiment item","yes","SternbergTask.osexp","/Users/alexisparrish/Documents/Advanced Quant. Methods/Lab 3/Lab 3.1","no","mono","no","18","no","white","no","yes","768","legacy","71","11","/Users/alexisparrish/Documents/Advanced Quant. Methods/Lab 3/Lab 3.2/AP-subject-3.csv","legacy","1 8 7","Lentiform Loewenfeld","3.3.12","0","n","0","right","right","right","right","NA","576","16258","15704","576","NA","2","legacy","3","1024","2","48000","-16","experiment","3","odd","4","545121","541846","542907","4061","107469","542912","505802","4072","91764","547125","547702","543916","20348","547125","NA","Sternberg Task","54","67748","84","yes","1024"
"64.70588235294117","64.70588235294117","804.8470588235294","804.8470588235294","black","experiment","legacy","legacy","legacy","0","uniform","1","undefined","1","right","84","84","84","0","0","84","84","0","0","84","84","84","0","84","0","Sun Oct 16 21:10:52 2022","The main experiment item","yes","SternbergTask.osexp","/Users/alexisparrish/Documents/Advanced Quant. Methods/Lab 3/Lab 3.1","no","mono","no","18","no","white","no","yes","768","legacy","72","11","/Users/alexisparrish/Documents/Advanced Quant. Methods/Lab 3/Lab 3.2/AP-subject-3.csv","legacy","1 4 9 2 5","Lentiform Loewenfeld","3.3.12","0","n","0","right","right","right","right","NA","664","16258","15704","664","NA","2","legacy","5","1024","2","48000","-16","experiment","3","odd","7","550989","547714","548776","4061","107469","548780","505802","4072","91764","552993","553658","549784","20348","552993","NA","Sternberg Task","55","68412","85","yes","1024"
"65.11627906976744","65.11627906976744","803.6976744186046","803.6976744186046","black","experiment","legacy","legacy","legacy","0","uniform","1","undefined","1","right","85","85","85","0","0","85","85","0","0","85","85","85","0","85","0","Sun Oct 16 21:10:52 2022","The main experiment item","yes","SternbergTask.osexp","/Users/alexisparrish/Documents/Advanced Quant. Methods/Lab 3/Lab 3.1","no","mono","no","18","no","white","no","yes","768","legacy","73","11","/Users/alexisparrish/Documents/Advanced Quant. Methods/Lab 3/Lab 3.2/AP-subject-3.csv","legacy","4 2 7 6 1 3","Lentiform Loewenfeld","3.3.12","0","n","0","right","right","right","right","NA","706","16258","15704","706","NA","2","legacy","6","1024","2","48000","-16","experiment","3","odd","8","556953","553670","554739","4061","107469","554744","505802","4072","91764","558957","559664","555748","20348","558957","NA","Sternberg Task","56","69118","86","yes","1024"
"65.51724137931035","65.51724137931035","801.4137931034483","801.4137931034483","black","experiment","legacy","legacy","legacy","0","uniform","1","undefined","1","left","86","86","86","0","0","86","86","0","0","86","86","86","0","86","0","Sun Oct 16 21:10:52 2022","The main experiment item","yes","SternbergTask.osexp","/Users/alexisparrish/Documents/Advanced Quant. Methods/Lab 3/Lab 3.1","no","mono","no","18","no","white","no","yes","768","legacy","74","11","/Users/alexisparrish/Documents/Advanced Quant. Methods/Lab 3/Lab 3.2/AP-subject-3.csv","legacy","2 6 1 7 4","Lentiform Loewenfeld","3.3.12","2","y","0","left","right","right","left","NA","605","16258","15704","605","NA","2","legacy","5","1024","2","48000","-16","experiment","3","odd","6","562957","559676","560744","4061","107469","560748","505802","4072","91764","564961","565568","561752","20348","564961","NA","Sternberg Task","57","69723","87","yes","1024"
"65.9090909090909","65.9090909090909","800.7045454545455","800.7045454545455","black","experiment","legacy","legacy","legacy","0","uniform","1","undefined","1","left","87","87","87","0","0","87","87","0","0","87","87","87","0","87","0","Sun Oct 16 21:10:52 2022","The main experiment item","yes","SternbergTask.osexp","/Users/alexisparrish/Documents/Advanced Quant. Methods/Lab 3/Lab 3.1","no","mono","no","18","no","white","no","yes","768","legacy","75","11","/Users/alexisparrish/Documents/Advanced Quant. Methods/Lab 3/Lab 3.2/AP-subject-3.csv","legacy","6 9 7 4 5 1","Lentiform Loewenfeld","3.3.12","2","y","0","left","right","right","left","NA","739","16258","15704","739","NA","2","legacy","6","1024","2","48000","-16","experiment","3","odd","9","568859","565578","566646","4061","107469","566650","505802","4072","91764","570863","571603","567654","20348","570863","NA","Sternberg Task","58","70462","88","yes","1024"
"66.29213483146067","66.29213483146067","799.7752808988764","799.7752808988764","black","experiment","legacy","legacy","legacy","0","uniform","1","undefined","1","left","88","88","88","0","0","88","88","0","0","88","88","88","0","88","0","Sun Oct 16 21:10:52 2022","The main experiment item","yes","SternbergTask.osexp","/Users/alexisparrish/Documents/Advanced Quant. Methods/Lab 3/Lab 3.1","no","mono","no","18","no","white","no","yes","768","legacy","76","11","/Users/alexisparrish/Documents/Advanced Quant. Methods/Lab 3/Lab 3.2/AP-subject-3.csv","legacy","9 3 1 2 5","Lentiform Loewenfeld","3.3.12","4","y","0","left","right","right","left","NA","718","16258","15704","718","NA","2","legacy","5","1024","2","48000","-16","experiment","3","odd","2","574896","571615","572682","4061","107469","572686","505802","4072","91764","576900","577620","573691","20348","576900","NA","Sternberg Task","59","71180","89","yes","1024"
"66.66666666666667","66.66666666666667","796.9222222222222","796.9222222222222","black","experiment","legacy","legacy","legacy","0","uniform","1","undefined","1","left","89","89","89","0","0","89","89","0","0","89","89","89","0","89","0","Sun Oct 16 21:10:52 2022","The main experiment item","yes","SternbergTask.osexp","/Users/alexisparrish/Documents/Advanced Quant. Methods/Lab 3/Lab 3.1","no","mono","no","18","no","white","no","yes","768","legacy","77","11","/Users/alexisparrish/Documents/Advanced Quant. Methods/Lab 3/Lab 3.2/AP-subject-3.csv","legacy","7 4 2 6 3 5","Lentiform Loewenfeld","3.3.12","6","y","0","left","right","right","left","NA","543","16258","15704","543","NA","2","legacy","6","1024","2","48000","-16","experiment","3","odd","5","580914","577631","578700","4061","107469","578705","505802","4072","91764","582918","583462","579709","20348","582918","NA","Sternberg Task","60","71723","90","yes","1024"
"67.03296703296704","67.03296703296704","793.7142857142857","793.7142857142857","black","experiment","legacy","legacy","legacy","0","uniform","1","undefined","1","left","90","90","90","0","0","90","90","0","0","90","90","90","0","90","0","Sun Oct 16 21:10:52 2022","The main experiment item","yes","SternbergTask.osexp","/Users/alexisparrish/Documents/Advanced Quant. Methods/Lab 3/Lab 3.1","no","mono","no","18","no","white","no","yes","768","legacy","78","11","/Users/alexisparrish/Documents/Advanced Quant. Methods/Lab 3/Lab 3.2/AP-subject-3.csv","legacy","9 3 8 2 1 4","Lentiform Loewenfeld","3.3.12","3","y","0","left","right","right","left","NA","505","16258","15704","505","NA","2","legacy","6","1024","2","48000","-16","experiment","3","odd","8","586753","583473","584540","4061","107469","584544","505802","4072","91764","588757","589263","585548","20348","588757","NA","Sternberg Task","61","72228","91","yes","1024"
"67.3913043478261","67.3913043478261","789.9565217391304","789.9565217391304","black","experiment","legacy","legacy","legacy","0","uniform","1","undefined","1","left","91","91","91","0","0","91","91","0","0","91","91","91","0","91","0","Sun Oct 16 21:10:52 2022","The main experiment item","yes","SternbergTask.osexp","/Users/alexisparrish/Documents/Advanced Quant. Methods/Lab 3/Lab 3.1","no","mono","no","18","no","white","no","yes","768","legacy","79","11","/Users/alexisparrish/Documents/Advanced Quant. Methods/Lab 3/Lab 3.2/AP-subject-3.csv","legacy","5 2 9 6 1 7","Lentiform Loewenfeld","3.3.12","3","y","0","left","right","right","left","NA","448","16258","15704","448","NA","2","legacy","6","1024","2","48000","-16","experiment","3","odd","9","592552","589275","590338","4061","107469","590343","505802","4072","91764","594556","595005","591347","20348","594556","NA","Sternberg Task","62","72676","92","yes","1024"
"67.74193548387096","67.74193548387096","786.2903225806451","786.2903225806451","black","experiment","legacy","legacy","legacy","0","uniform","1","undefined","1","left","92","92","92","0","0","92","92","0","0","92","92","92","0","92","0","Sun Oct 16 21:10:52 2022","The main experiment item","yes","SternbergTask.osexp","/Users/alexisparrish/Documents/Advanced Quant. Methods/Lab 3/Lab 3.1","no","mono","no","18","no","white","no","yes","768","legacy","80","11","/Users/alexisparrish/Documents/Advanced Quant. Methods/Lab 3/Lab 3.2/AP-subject-3.csv","legacy","1 4 9 3 2 5","Lentiform Loewenfeld","3.3.12","3","y","0","left","right","right","left","NA","449","16258","15704","449","NA","2","legacy","6","1024","2","48000","-16","experiment","3","odd","9","598294","595016","596081","4061","107469","596085","505802","4072","91764","600298","600748","597089","20348","600298","NA","Sternberg Task","63","73125","93","yes","1024"
"68.08510638297872","68.08510638297872","783.1276595744681","783.1276595744681","black","experiment","legacy","legacy","legacy","0","uniform","1","undefined","1","left","93","93","93","0","0","93","93","0","0","93","93","93","0","93","0","Sun Oct 16 21:10:52 2022","The main experiment item","yes","SternbergTask.osexp","/Users/alexisparrish/Documents/Advanced Quant. Methods/Lab 3/Lab 3.1","no","mono","no","18","no","white","no","yes","768","legacy","81","11","/Users/alexisparrish/Documents/Advanced Quant. Methods/Lab 3/Lab 3.2/AP-subject-3.csv","legacy","4 7 6 8 2 3","Lentiform Loewenfeld","3.3.12","6","y","0","left","right","right","left","NA","489","16258","15704","489","NA","2","legacy","6","1024","2","48000","-16","experiment","3","odd","3","604041","600760","601827","4061","107469","601832","505802","4072","91764","606045","606536","602836","20348","606045","NA","Sternberg Task","64","73614","94","yes","1024"
"68.42105263157895","68.42105263157895","780.0105263157894","780.0105263157894","black","experiment","legacy","legacy","legacy","0","uniform","1","undefined","1","left","94","94","94","0","0","94","94","0","0","94","94","94","0","94","0","Sun Oct 16 21:10:52 2022","The main experiment item","yes","SternbergTask.osexp","/Users/alexisparrish/Documents/Advanced Quant. Methods/Lab 3/Lab 3.1","no","mono","no","18","no","white","no","yes","768","legacy","82","11","/Users/alexisparrish/Documents/Advanced Quant. Methods/Lab 3/Lab 3.2/AP-subject-3.csv","legacy","8 5 1 3 9","Lentiform Loewenfeld","3.3.12","4","y","0","left","right","right","left","NA","487","16258","15704","487","NA","2","legacy","5","1024","2","48000","-16","experiment","3","odd","3","609829","606547","607615","4061","107469","607620","505802","4072","91764","611833","612321","608624","20348","611833","NA","Sternberg Task","65","74101","95","yes","1024"
"68.75","68.75","776.4270833333334","776.4270833333334","black","experiment","legacy","legacy","legacy","0","uniform","1","undefined","1","left","95","95","95","0","0","95","95","0","0","95","95","95","0","95","0","Sun Oct 16 21:10:52 2022","The main experiment item","yes","SternbergTask.osexp","/Users/alexisparrish/Documents/Advanced Quant. Methods/Lab 3/Lab 3.1","no","mono","no","18","no","white","no","yes","768","legacy","83","11","/Users/alexisparrish/Documents/Advanced Quant. Methods/Lab 3/Lab 3.2/AP-subject-3.csv","legacy","2 4 8 5 1 3","Lentiform Loewenfeld","3.3.12","1","y","0","left","right","right","left","NA","436","16258","15704","436","NA","2","legacy","6","1024","2","48000","-16","experiment","3","odd","2","615609","612328","613395","4061","107469","613400","505802","4072","91764","617613","618050","614404","20348","617613","NA","Sternberg Task","66","74537","96","yes","1024"
"69.0721649484536","69.0721649484536","772.5154639175257","772.5154639175257","black","experiment","legacy","legacy","legacy","0","uniform","1","undefined","1","left","96","96","96","0","0","96","96","0","0","96","96","96","0","96","0","Sun Oct 16 21:10:52 2022","The main experiment item","yes","SternbergTask.osexp","/Users/alexisparrish/Documents/Advanced Quant. Methods/Lab 3/Lab 3.1","no","mono","no","18","no","white","no","yes","768","legacy","84","11","/Users/alexisparrish/Documents/Advanced Quant. Methods/Lab 3/Lab 3.2/AP-subject-3.csv","legacy","4 9 7 8 5 3","Lentiform Loewenfeld","3.3.12","4","y","0","left","right","right","left","NA","397","16258","15704","397","NA","2","legacy","6","1024","2","48000","-16","experiment","3","odd","8","621341","618060","619127","4061","107469","619132","505802","4072","91764","623346","623744","620136","20348","623346","NA","Sternberg Task","67","74934","97","yes","1024"
"69.38775510204081","69.38775510204081","768.5102040816327","768.5102040816327","black","experiment","legacy","legacy","legacy","0","uniform","1","undefined","1","left","97","97","97","0","0","97","97","0","0","97","97","97","0","97","0","Sun Oct 16 21:10:52 2022","The main experiment item","yes","SternbergTask.osexp","/Users/alexisparrish/Documents/Advanced Quant. Methods/Lab 3/Lab 3.1","no","mono","no","18","no","white","no","yes","768","legacy","85","11","/Users/alexisparrish/Documents/Advanced Quant. Methods/Lab 3/Lab 3.2/AP-subject-3.csv","legacy","7 8 4 6 9 5","Lentiform Loewenfeld","3.3.12","4","y","0","left","right","right","left","NA","380","16258","15704","380","NA","2","legacy","6","1024","2","48000","-16","experiment","3","odd","6","627030","623754","624817","4061","107469","624821","505802","4072","91764","629034","629415","625825","20348","629034","NA","Sternberg Task","68","75314","98","yes","1024"
"69.6969696969697","69.6969696969697","766.4848484848485","766.4848484848485","black","experiment","legacy","legacy","legacy","0","uniform","1","undefined","1","right","98","98","98","0","0","98","98","0","0","98","98","98","0","98","0","Sun Oct 16 21:10:52 2022","The main experiment item","yes","SternbergTask.osexp","/Users/alexisparrish/Documents/Advanced Quant. Methods/Lab 3/Lab 3.1","no","mono","no","18","no","white","no","yes","768","legacy","86","11","/Users/alexisparrish/Documents/Advanced Quant. Methods/Lab 3/Lab 3.2/AP-subject-3.csv","legacy","5 7 3","Lentiform Loewenfeld","3.3.12","0","n","0","right","right","right","right","NA","568","16258","15704","568","NA","2","legacy","3","1024","2","48000","-16","experiment","3","odd","9","632703","629426","630490","4061","107469","630494","505802","4072","91764","634708","635277","631498","20348","634708","NA","Sternberg Task","69","75882","99","yes","1024"
"70","70","763.49","763.49","black","experiment","legacy","legacy","legacy","0","uniform","1","undefined","1","left","99","99","99","0","0","99","99","0","0","99","99","99","0","99","0","Sun Oct 16 21:10:52 2022","The main experiment item","yes","SternbergTask.osexp","/Users/alexisparrish/Documents/Advanced Quant. Methods/Lab 3/Lab 3.1","no","mono","no","18","no","white","no","yes","768","legacy","87","11","/Users/alexisparrish/Documents/Advanced Quant. Methods/Lab 3/Lab 3.2/AP-subject-3.csv","legacy","9 4 2","Lentiform Loewenfeld","3.3.12","1","y","0","left","right","right","left","NA","467","16258","15704","467","NA","2","legacy","3","1024","2","48000","-16","experiment","3","odd","9","638563","635289","636349","4061","107469","636354","505802","4072","91764","640567","641035","637358","20348","640567","NA","Sternberg Task","70","76349","100","yes","1024"
"69.3069306930693","69.3069306930693","761.8415841584158","761.8415841584158","black","experiment","legacy","legacy","legacy","0","uniform","0","undefined","0","right","100","100","100","0","0","100","100","0","0","100","100","100","0","100","0","Sun Oct 16 21:10:52 2022","The main experiment item","yes","SternbergTask.osexp","/Users/alexisparrish/Documents/Advanced Quant. Methods/Lab 3/Lab 3.1","no","mono","no","18","no","white","no","yes","768","legacy","88","11","/Users/alexisparrish/Documents/Advanced Quant. Methods/Lab 3/Lab 3.2/AP-subject-3.csv","legacy","9 5 3 2 8 6","Lentiform Loewenfeld","3.3.12","0","n","0","left","right","right","left","NA","597","16258","15704","597","NA","2","legacy","6","1024","2","48000","-16","experiment","3","odd","7","644323","641047","642109","4061","107469","642114","505802","4072","91764","646327","646925","643118","20348","646327","NA","Sternberg Task","70","76946","101","yes","1024"
"69.6078431372549","69.6078431372549","764.156862745098","764.156862745098","black","experiment","legacy","legacy","legacy","0","uniform","1","undefined","1","right","101","101","101","0","0","101","101","0","0","101","101","101","0","101","0","Sun Oct 16 21:10:52 2022","The main experiment item","yes","SternbergTask.osexp","/Users/alexisparrish/Documents/Advanced Quant. Methods/Lab 3/Lab 3.1","no","mono","no","18","no","white","no","yes","768","legacy","89","11","/Users/alexisparrish/Documents/Advanced Quant. Methods/Lab 3/Lab 3.2/AP-subject-3.csv","legacy","6 7 5 9","Lentiform Loewenfeld","3.3.12","0","n","0","right","right","right","right","NA","998","16258","15704","998","NA","2","legacy","4","1024","2","48000","-16","experiment","3","odd","2","650210","641047","647996","4061","107469","648000","646932","4072","91764","652214","653213","649005","20348","652214","NA","Sternberg Task","71","77944","102","yes","1024"
"69.90291262135922","69.90291262135922","762.4271844660194","762.4271844660194","black","experiment","legacy","legacy","legacy","0","uniform","1","undefined","1","right","102","102","102","0","0","102","102","0","0","102","102","102","0","102","0","Sun Oct 16 21:10:52 2022","The main experiment item","yes","SternbergTask.osexp","/Users/alexisparrish/Documents/Advanced Quant. Methods/Lab 3/Lab 3.1","no","mono","no","18","no","white","no","yes","768","legacy","90","11","/Users/alexisparrish/Documents/Advanced Quant. Methods/Lab 3/Lab 3.2/AP-subject-3.csv","legacy","6 9 4 5 2","Lentiform Loewenfeld","3.3.12","0","n","0","right","right","right","right","NA","586","16258","15704","586","NA","2","legacy","5","1024","2","48000","-16","experiment","3","odd","1","656501","653224","654287","4061","107469","654292","646932","4072","91764","658505","659093","655296","20348","658505","NA","Sternberg Task","72","78530","103","yes","1024"
"70.1923076923077","70.1923076923077","760.9423076923077","760.9423076923077","black","experiment","legacy","legacy","legacy","0","uniform","1","undefined","1","left","103","103","103","0","0","103","103","0","0","103","103","103","0","103","0","Sun Oct 16 21:10:52 2022","The main experiment item","yes","SternbergTask.osexp","/Users/alexisparrish/Documents/Advanced Quant. Methods/Lab 3/Lab 3.1","no","mono","no","18","no","white","no","yes","768","legacy","91","11","/Users/alexisparrish/Documents/Advanced Quant. Methods/Lab 3/Lab 3.2/AP-subject-3.csv","legacy","6 7 8 5","Lentiform Loewenfeld","3.3.12","3","y","0","left","right","right","left","NA","608","16258","15704","608","NA","2","legacy","4","1024","2","48000","-16","experiment","3","odd","8","662382","659104","660168","4061","107469","660173","646932","4072","91764","664386","664996","661177","20348","664386","NA","Sternberg Task","73","79138","104","yes","1024"
"70.47619047619048","70.47619047619048","758.8285714285714","758.8285714285714","black","experiment","legacy","legacy","legacy","0","uniform","1","undefined","1","right","104","104","104","0","0","104","104","0","0","104","104","104","0","104","0","Sun Oct 16 21:10:52 2022","The main experiment item","yes","SternbergTask.osexp","/Users/alexisparrish/Documents/Advanced Quant. Methods/Lab 3/Lab 3.1","no","mono","no","18","no","white","no","yes","768","legacy","92","11","/Users/alexisparrish/Documents/Advanced Quant. Methods/Lab 3/Lab 3.2/AP-subject-3.csv","legacy","1 4 9 3","Lentiform Loewenfeld","3.3.12","0","n","0","right","right","right","right","NA","539","16258","15704","539","NA","2","legacy","4","1024","2","48000","-16","experiment","3","odd","5","668292","665004","666078","4061","107469","666083","646932","4072","91764","670296","670836","667087","20348","670296","NA","Sternberg Task","74","79677","105","yes","1024"
"70.75471698113208","70.75471698113208","757.6603773584906","757.6603773584906","black","experiment","legacy","legacy","legacy","0","uniform","1","undefined","1","left","105","105","105","0","0","105","105","0","0","105","105","105","0","105","0","Sun Oct 16 21:10:52 2022","The main experiment item","yes","SternbergTask.osexp","/Users/alexisparrish/Documents/Advanced Quant. Methods/Lab 3/Lab 3.1","no","mono","no","18","no","white","no","yes","768","legacy","93","11","/Users/alexisparrish/Documents/Advanced Quant. Methods/Lab 3/Lab 3.2/AP-subject-3.csv","legacy","9 1 7 2","Lentiform Loewenfeld","3.3.12","2","y","0","left","right","right","left","NA","635","16258","15704","635","NA","2","legacy","4","1024","2","48000","-16","experiment","3","odd","1","674124","670844","671911","4061","107469","671915","646932","4072","91764","676128","676764","672919","20348","676128","NA","Sternberg Task","75","80312","106","yes","1024"
"70.09345794392523","70.09345794392523","755.2990654205607","755.2990654205607","black","experiment","legacy","legacy","legacy","0","uniform","0","undefined","0","left","106","106","106","0","0","106","106","0","0","106","106","106","0","106","0","Sun Oct 16 21:10:52 2022","The main experiment item","yes","SternbergTask.osexp","/Users/alexisparrish/Documents/Advanced Quant. Methods/Lab 3/Lab 3.1","no","mono","no","18","no","white","no","yes","768","legacy","94","11","/Users/alexisparrish/Documents/Advanced Quant. Methods/Lab 3/Lab 3.2/AP-subject-3.csv","legacy","3 5 4 7","Lentiform Loewenfeld","3.3.12","1","y","0","right","right","right","right","NA","505","16258","15704","505","NA","2","legacy","4","1024","2","48000","-16","experiment","3","odd","3","680052","676775","677836","4061","107469","677842","646932","4072","91764","682056","682563","678847","20348","682056","NA","Sternberg Task","75","80817","107","yes","1024"
