"acc","accuracy","average_response_time","avg_rt","background","block","canvas_backend","clock_backend","color_backend","compensation","coordinates","correct","correct_instruction1","correct_keyboard_response","correct_response","count_ISI","count_correctFeedback","count_expSequence","count_experiment","count_experimentLoop","count_fixation","count_incorrectFeedback","count_instruction1","count_instruction2","count_keyboard_response","count_logger","count_memorySet","count_practiceLoop","count_probe","count_thankYou","datetime","description","disable_garbage_collection","experiment_file","experiment_path","font_bold","font_family","font_italic","font_size","font_underline","foreground","form_clicks","fullscreen","height","keyboard_backend","live_row","live_row_practiceLoop","logfile","mouse_backend","numberSet","opensesame_codename","opensesame_version","posInSet","present","repeat_cycle","response","response_instruction1","response_instruction2","response_keyboard_response","response_thankYou","response_time","response_time_instruction1","response_time_instruction2","response_time_keyboard_response","response_time_thankYou","round_decimals","sampler_backend","setSize","sound_buf_size","sound_channels","sound_freq","sound_sample_size","start","subject_nr","subject_parity","target","time_ISI","time_correctFeedback","time_expSequence","time_experiment","time_experimentLoop","time_fixation","time_incorrectFeedback","time_instruction1","time_instruction2","time_keyboard_response","time_logger","time_memorySet","time_practiceLoop","time_probe","time_thankYou","title","total_correct","total_response_time","total_responses","uniform_coordinates","width"
"100","100","937","937","black","practice","legacy","legacy","legacy","0","uniform","1","undefined","1","right","0","0","0","0","0","0","0","0","0","0","0","0","0","0","0","Sat Oct 15 19:04:10 2022","The main experiment item","yes","Sternbergtask.osexp","/Users/keelyn/Library/CloudStorage/OneDrive-Personal","no","mono","no","18","no","white","no","yes","768","legacy","0","0","/Users/keelyn/Library/CloudStorage/OneDrive-Personal/KB-subject-1.csv","legacy","5 7 8 4 1 2","Lentiform Loewenfeld","3.3.12","0","n","0","right","left","NA","right","NA","937","11409","NA","937","NA","2","legacy","6","1024","2","48000","-16","experiment","1","odd","6","14593","NA","12355","828","NA","12360","NA","838","NA","16605","17543","13374","12259","16605","NA","Sternberg task","1","937","1","yes","1024"
"100","100","763.5","763.5","black","practice","legacy","legacy","legacy","0","uniform","1","undefined","1","left","1","1","1","0","0","1","1","0","0","1","1","1","0","1","0","Sat Oct 15 19:04:10 2022","The main experiment item","yes","Sternbergtask.osexp","/Users/keelyn/Library/CloudStorage/OneDrive-Personal","no","mono","no","18","no","white","no","yes","768","legacy","1","1","/Users/keelyn/Library/CloudStorage/OneDrive-Personal/KB-subject-1.csv","legacy","1 5 2 9","Lentiform Loewenfeld","3.3.12","2","y","0","left","left","NA","left","NA","590","11409","NA","590","NA","2","legacy","4","1024","2","48000","-16","experiment","1","odd","5","20872","17564","18638","828","NA","18643","NA","838","NA","22882","23472","19656","12259","22882","NA","Sternberg task","2","1527","2","yes","1024"
"100","100","705.3333333333334","705.3333333333334","black","practice","legacy","legacy","legacy","0","uniform","1","undefined","1","left","2","2","2","0","0","2","2","0","0","2","2","2","0","2","0","Sat Oct 15 19:04:10 2022","The main experiment item","yes","Sternbergtask.osexp","/Users/keelyn/Library/CloudStorage/OneDrive-Personal","no","mono","no","18","no","white","no","yes","768","legacy","2","2","/Users/keelyn/Library/CloudStorage/OneDrive-Personal/KB-subject-1.csv","legacy","6","Lentiform Loewenfeld","3.3.12","1","y","0","left","left","NA","left","NA","589","11409","NA","589","NA","2","legacy","1","1024","2","48000","-16","experiment","1","odd","6","26776","23478","24543","828","NA","24549","NA","838","NA","28789","29384","25561","12259","28789","NA","Sternberg task","3","2116","3","yes","1024"
"100","100","730.25","730.25","black","practice","legacy","legacy","legacy","0","uniform","1","undefined","1","left","3","3","3","0","0","3","3","0","0","3","3","3","0","3","0","Sat Oct 15 19:04:10 2022","The main experiment item","yes","Sternbergtask.osexp","/Users/keelyn/Library/CloudStorage/OneDrive-Personal","no","mono","no","18","no","white","no","yes","768","legacy","3","3","/Users/keelyn/Library/CloudStorage/OneDrive-Personal/KB-subject-1.csv","legacy","4 8","Lentiform Loewenfeld","3.3.12","1","y","0","left","left","NA","left","NA","805","11409","NA","805","NA","2","legacy","2","1024","2","48000","-16","experiment","1","odd","4","32683","29389","30450","828","NA","30456","NA","838","NA","34695","35501","31467","12259","34695","NA","Sternberg task","4","2921","4","yes","1024"
"100","100","731.6","731.6","black","practice","legacy","legacy","legacy","0","uniform","1","undefined","1","left","4","4","4","0","0","4","4","0","0","4","4","4","0","4","0","Sat Oct 15 19:04:10 2022","The main experiment item","yes","Sternbergtask.osexp","/Users/keelyn/Library/CloudStorage/OneDrive-Personal","no","mono","no","18","no","white","no","yes","768","legacy","4","4","/Users/keelyn/Library/CloudStorage/OneDrive-Personal/KB-subject-1.csv","legacy","2 9 4","Lentiform Loewenfeld","3.3.12","3","y","0","left","left","NA","left","NA","737","11409","NA","737","NA","2","legacy","3","1024","2","48000","-16","experiment","1","odd","4","38800","35506","36568","828","NA","36574","NA","838","NA","40814","41552","37585","12259","40814","NA","Sternberg task","5","3658","5","yes","1024"
"100","100","722.8333333333334","722.8333333333334","black","practice","legacy","legacy","legacy","0","uniform","1","undefined","1","right","5","5","5","0","0","5","5","0","0","5","5","5","0","5","0","Sat Oct 15 19:04:10 2022","The main experiment item","yes","Sternbergtask.osexp","/Users/keelyn/Library/CloudStorage/OneDrive-Personal","no","mono","no","18","no","white","no","yes","768","legacy","5","5","/Users/keelyn/Library/CloudStorage/OneDrive-Personal/KB-subject-1.csv","legacy","3 1 9 4","Lentiform Loewenfeld","3.3.12","0","n","0","right","left","NA","right","NA","679","11409","NA","679","NA","2","legacy","4","1024","2","48000","-16","experiment","1","odd","6","44849","41556","42614","828","NA","42620","NA","838","NA","46861","47541","43633","12259","46861","NA","Sternberg task","6","4337","6","yes","1024"
"85.71428571428571","85.71428571428571","715.8571428571429","715.8571428571429","black","practice","legacy","legacy","legacy","0","uniform","0","undefined","0","right","6","6","6","0","0","6","6","0","0","6","6","6","0","6","0","Sat Oct 15 19:04:10 2022","The main experiment item","yes","Sternbergtask.osexp","/Users/keelyn/Library/CloudStorage/OneDrive-Personal","no","mono","no","18","no","white","no","yes","768","legacy","6","6","/Users/keelyn/Library/CloudStorage/OneDrive-Personal/KB-subject-1.csv","legacy","2 1","Lentiform Loewenfeld","3.3.12","0","n","0","left","left","NA","left","NA","674","11409","NA","674","NA","2","legacy","2","1024","2","48000","-16","experiment","1","odd","5","50838","47546","48605","828","NA","48610","NA","838","NA","52849","53524","49623","12259","52849","NA","Sternberg task","6","5011","7","yes","1024"
"87.5","87.5","718","718","black","practice","legacy","legacy","legacy","0","uniform","1","undefined","1","left","7","7","7","0","0","7","7","0","0","7","7","7","0","7","0","Sat Oct 15 19:04:10 2022","The main experiment item","yes","Sternbergtask.osexp","/Users/keelyn/Library/CloudStorage/OneDrive-Personal","no","mono","no","18","no","white","no","yes","768","legacy","7","7","/Users/keelyn/Library/CloudStorage/OneDrive-Personal/KB-subject-1.csv","legacy","4 3 1 7 9 8","Lentiform Loewenfeld","3.3.12","1","y","0","left","left","NA","left","NA","733","11409","NA","733","NA","2","legacy","6","1024","2","48000","-16","experiment","1","odd","4","56824","47546","54587","828","NA","54592","53529","838","NA","58835","59569","55605","12259","58835","NA","Sternberg task","7","5744","8","yes","1024"
"88.88888888888889","88.88888888888889","718.5555555555555","718.5555555555555","black","practice","legacy","legacy","legacy","0","uniform","1","undefined","1","right","8","8","8","0","0","8","8","0","0","8","8","8","0","8","0","Sat Oct 15 19:04:10 2022","The main experiment item","yes","Sternbergtask.osexp","/Users/keelyn/Library/CloudStorage/OneDrive-Personal","no","mono","no","18","no","white","no","yes","768","legacy","8","8","/Users/keelyn/Library/CloudStorage/OneDrive-Personal/KB-subject-1.csv","legacy","9 6 7 4 5","Lentiform Loewenfeld","3.3.12","0","n","0","right","left","NA","right","NA","723","11409","NA","723","NA","2","legacy","5","1024","2","48000","-16","experiment","1","odd","3","62872","59574","60637","828","NA","60642","53529","838","NA","64884","65608","61655","12259","64884","NA","Sternberg task","8","6467","9","yes","1024"
"90","90","748","748","black","practice","legacy","legacy","legacy","0","uniform","1","undefined","1","right","9","9","9","0","0","9","9","0","0","9","9","9","0","9","0","Sat Oct 15 19:04:10 2022","The main experiment item","yes","Sternbergtask.osexp","/Users/keelyn/Library/CloudStorage/OneDrive-Personal","no","mono","no","18","no","white","no","yes","768","legacy","9","9","/Users/keelyn/Library/CloudStorage/OneDrive-Personal/KB-subject-1.csv","legacy","5","Lentiform Loewenfeld","3.3.12","0","n","0","right","left","NA","right","NA","1013","11409","NA","1013","NA","2","legacy","1","1024","2","48000","-16","experiment","1","odd","3","68902","65613","66667","828","NA","66672","53529","838","NA","70913","71927","67684","12259","70913","NA","Sternberg task","9","7480","10","yes","1024"
"90.9090909090909","90.9090909090909","746.3636363636364","746.3636363636364","black","practice","legacy","legacy","legacy","0","uniform","1","undefined","1","right","10","10","10","0","0","10","10","0","0","10","10","10","0","10","0","Sat Oct 15 19:04:10 2022","The main experiment item","yes","Sternbergtask.osexp","/Users/keelyn/Library/CloudStorage/OneDrive-Personal","no","mono","no","18","no","white","no","yes","768","legacy","10","10","/Users/keelyn/Library/CloudStorage/OneDrive-Personal/KB-subject-1.csv","legacy","4 1 5","Lentiform Loewenfeld","3.3.12","0","n","0","right","left","NA","right","NA","730","11409","NA","730","NA","2","legacy","3","1024","2","48000","-16","experiment","1","odd","2","75228","71932","72993","828","NA","72999","53529","838","NA","77240","77971","74012","12259","77240","NA","Sternberg task","10","8210","11","yes","1024"
"91.66666666666667","91.66666666666667","748","748","black","practice","legacy","legacy","legacy","0","uniform","1","undefined","1","left","11","11","11","0","0","11","11","0","0","11","11","11","0","11","0","Sat Oct 15 19:04:10 2022","The main experiment item","yes","Sternbergtask.osexp","/Users/keelyn/Library/CloudStorage/OneDrive-Personal","no","mono","no","18","no","white","no","yes","768","legacy","11","11","/Users/keelyn/Library/CloudStorage/OneDrive-Personal/KB-subject-1.csv","legacy","1 7 9 8 5","Lentiform Loewenfeld","3.3.12","4","y","0","left","left","NA","left","NA","766","11409","NA","766","NA","2","legacy","5","1024","2","48000","-16","experiment","1","odd","8","81272","77976","79035","828","NA","79041","53529","838","NA","83284","84051","80054","12259","83284","NA","Sternberg task","11","8976","12","yes","1024"
"92.3076923076923","92.3076923076923","746.2307692307693","746.2307692307693","black","experiment","legacy","legacy","legacy","0","uniform","1","undefined","1","right","12","12","12","0","0","12","12","0","0","12","12","12","0","12","0","Sat Oct 15 19:04:10 2022","The main experiment item","yes","Sternbergtask.osexp","/Users/keelyn/Library/CloudStorage/OneDrive-Personal","no","mono","no","18","no","white","no","yes","768","legacy","0","11","/Users/keelyn/Library/CloudStorage/OneDrive-Personal/KB-subject-1.csv","legacy","6 7 5 9","Lentiform Loewenfeld","3.3.12","0","n","0","right","left","left","right","NA","725","11409","25187","725","NA","2","legacy","4","1024","2","48000","-16","experiment","1","odd","2","112553","84056","110319","828","110282","110323","53529","838","85094","114563","115289","111337","12259","114562","NA","Sternberg task","12","9701","13","yes","1024"
"92.85714285714286","92.85714285714286","745.5","745.5","black","experiment","legacy","legacy","legacy","0","uniform","1","undefined","1","right","13","13","13","0","0","13","13","0","0","13","13","13","0","13","0","Sat Oct 15 19:04:10 2022","The main experiment item","yes","Sternbergtask.osexp","/Users/keelyn/Library/CloudStorage/OneDrive-Personal","no","mono","no","18","no","white","no","yes","768","legacy","1","11","/Users/keelyn/Library/CloudStorage/OneDrive-Personal/KB-subject-1.csv","legacy","6 9 7 3 8 2","Lentiform Loewenfeld","3.3.12","0","n","0","right","left","left","right","NA","736","11409","25187","736","NA","2","legacy","6","1024","2","48000","-16","experiment","1","odd","5","118597","115294","116357","828","110282","116363","53529","838","85094","120607","121343","117382","12259","120607","NA","Sternberg task","13","10437","14","yes","1024"
"93.33333333333333","93.33333333333333","735.7333333333333","735.7333333333333","black","experiment","legacy","legacy","legacy","0","uniform","1","undefined","1","left","14","14","14","0","0","14","14","0","0","14","14","14","0","14","0","Sat Oct 15 19:04:10 2022","The main experiment item","yes","Sternbergtask.osexp","/Users/keelyn/Library/CloudStorage/OneDrive-Personal","no","mono","no","18","no","white","no","yes","768","legacy","2","11","/Users/keelyn/Library/CloudStorage/OneDrive-Personal/KB-subject-1.csv","legacy","5 2 6","Lentiform Loewenfeld","3.3.12","2","y","0","left","left","left","left","NA","599","11409","25187","599","NA","2","legacy","3","1024","2","48000","-16","experiment","1","odd","2","124646","121348","122408","828","110282","122413","53529","838","85094","126655","127254","123425","12259","126654","NA","Sternberg task","14","11036","15","yes","1024"
"93.75","93.75","747.25","747.25","black","experiment","legacy","legacy","legacy","0","uniform","1","undefined","1","left","15","15","15","0","0","15","15","0","0","15","15","15","0","15","0","Sat Oct 15 19:04:10 2022","The main experiment item","yes","Sternbergtask.osexp","/Users/keelyn/Library/CloudStorage/OneDrive-Personal","no","mono","no","18","no","white","no","yes","768","legacy","3","11","/Users/keelyn/Library/CloudStorage/OneDrive-Personal/KB-subject-1.csv","legacy","8 9 5 7 1 6","Lentiform Loewenfeld","3.3.12","4","y","0","left","left","left","left","NA","920","11409","25187","920","NA","2","legacy","6","1024","2","48000","-16","experiment","1","odd","7","130555","127259","128321","828","110282","128327","53529","838","85094","132564","133485","129340","12259","132564","NA","Sternberg task","15","11956","16","yes","1024"
"94.11764705882354","94.11764705882354","738.7058823529412","738.7058823529412","black","experiment","legacy","legacy","legacy","0","uniform","1","undefined","1","right","16","16","16","0","0","16","16","0","0","16","16","16","0","16","0","Sat Oct 15 19:04:10 2022","The main experiment item","yes","Sternbergtask.osexp","/Users/keelyn/Library/CloudStorage/OneDrive-Personal","no","mono","no","18","no","white","no","yes","768","legacy","4","11","/Users/keelyn/Library/CloudStorage/OneDrive-Personal/KB-subject-1.csv","legacy","8 6 3 4 7","Lentiform Loewenfeld","3.3.12","0","n","0","right","left","left","right","NA","602","11409","25187","602","NA","2","legacy","5","1024","2","48000","-16","experiment","1","odd","1","136789","133490","134554","828","110282","134560","53529","838","85094","138800","139403","135573","12259","138800","NA","Sternberg task","16","12558","17","yes","1024"
"94.44444444444444","94.44444444444444","734.7777777777778","734.7777777777778","black","experiment","legacy","legacy","legacy","0","uniform","1","undefined","1","left","17","17","17","0","0","17","17","0","0","17","17","17","0","17","0","Sat Oct 15 19:04:10 2022","The main experiment item","yes","Sternbergtask.osexp","/Users/keelyn/Library/CloudStorage/OneDrive-Personal","no","mono","no","18","no","white","no","yes","768","legacy","5","11","/Users/keelyn/Library/CloudStorage/OneDrive-Personal/KB-subject-1.csv","legacy","2 5 4 8 7","Lentiform Loewenfeld","3.3.12","3","y","0","left","left","left","left","NA","668","11409","25187","668","NA","2","legacy","5","1024","2","48000","-16","experiment","1","odd","4","142699","139408","140466","828","110282","140472","53529","838","85094","144709","145378","141484","12259","144709","NA","Sternberg task","17","13226","18","yes","1024"
"94.73684210526316","94.73684210526316","726.578947368421","726.578947368421","black","experiment","legacy","legacy","legacy","0","uniform","1","undefined","1","left","18","18","18","0","0","18","18","0","0","18","18","18","0","18","0","Sat Oct 15 19:04:10 2022","The main experiment item","yes","Sternbergtask.osexp","/Users/keelyn/Library/CloudStorage/OneDrive-Personal","no","mono","no","18","no","white","no","yes","768","legacy","6","11","/Users/keelyn/Library/CloudStorage/OneDrive-Personal/KB-subject-1.csv","legacy","8 1 6","Lentiform Loewenfeld","3.3.12","3","y","0","left","left","left","left","NA","579","11409","25187","579","NA","2","legacy","3","1024","2","48000","-16","experiment","1","odd","6","148681","145383","146444","828","110282","146450","53529","838","85094","150695","151274","147465","12259","150695","NA","Sternberg task","18","13805","19","yes","1024"
"95","95","729.05","729.05","black","experiment","legacy","legacy","legacy","0","uniform","1","undefined","1","left","19","19","19","0","0","19","19","0","0","19","19","19","0","19","0","Sat Oct 15 19:04:10 2022","The main experiment item","yes","Sternbergtask.osexp","/Users/keelyn/Library/CloudStorage/OneDrive-Personal","no","mono","no","18","no","white","no","yes","768","legacy","7","11","/Users/keelyn/Library/CloudStorage/OneDrive-Personal/KB-subject-1.csv","legacy","9 5 3 8 4","Lentiform Loewenfeld","3.3.12","1","y","0","left","left","left","left","NA","776","11409","25187","776","NA","2","legacy","5","1024","2","48000","-16","experiment","1","odd","9","154573","151280","152341","828","110282","152346","53529","838","85094","156584","157361","153358","12259","156584","NA","Sternberg task","19","14581","20","yes","1024"
"95.23809523809524","95.23809523809524","728.1904761904761","728.1904761904761","black","experiment","legacy","legacy","legacy","0","uniform","1","undefined","1","right","20","20","20","0","0","20","20","0","0","20","20","20","0","20","0","Sat Oct 15 19:04:10 2022","The main experiment item","yes","Sternbergtask.osexp","/Users/keelyn/Library/CloudStorage/OneDrive-Personal","no","mono","no","18","no","white","no","yes","768","legacy","8","11","/Users/keelyn/Library/CloudStorage/OneDrive-Personal/KB-subject-1.csv","legacy","9 7 4 5 8","Lentiform Loewenfeld","3.3.12","0","n","0","right","left","left","right","NA","711","11409","25187","711","NA","2","legacy","5","1024","2","48000","-16","experiment","1","odd","6","160669","157366","158428","828","110282","158434","53529","838","85094","162681","163392","159454","12259","162681","NA","Sternberg task","20","15292","21","yes","1024"
"95.45454545454545","95.45454545454545","725.2727272727273","725.2727272727273","black","experiment","legacy","legacy","legacy","0","uniform","1","undefined","1","left","21","21","21","0","0","21","21","0","0","21","21","21","0","21","0","Sat Oct 15 19:04:10 2022","The main experiment item","yes","Sternbergtask.osexp","/Users/keelyn/Library/CloudStorage/OneDrive-Personal","no","mono","no","18","no","white","no","yes","768","legacy","9","11","/Users/keelyn/Library/CloudStorage/OneDrive-Personal/KB-subject-1.csv","legacy","6 1 2","Lentiform Loewenfeld","3.3.12","3","y","0","left","left","left","left","NA","664","11409","25187","664","NA","2","legacy","3","1024","2","48000","-16","experiment","1","odd","2","166689","163397","164456","828","110282","164462","53529","838","85094","168700","169365","165474","12259","168700","NA","Sternberg task","21","15956","22","yes","1024"
"95.65217391304348","95.65217391304348","730.9565217391304","730.9565217391304","black","experiment","legacy","legacy","legacy","0","uniform","1","undefined","1","left","22","22","22","0","0","22","22","0","0","22","22","22","0","22","0","Sat Oct 15 19:04:10 2022","The main experiment item","yes","Sternbergtask.osexp","/Users/keelyn/Library/CloudStorage/OneDrive-Personal","no","mono","no","18","no","white","no","yes","768","legacy","10","11","/Users/keelyn/Library/CloudStorage/OneDrive-Personal/KB-subject-1.csv","legacy","5 7 8 2 3 8","Lentiform Loewenfeld","3.3.12","5","y","0","left","left","left","left","NA","856","11409","25187","856","NA","2","legacy","6","1024","2","48000","-16","experiment","1","odd","3","172667","169370","170428","828","110282","170434","53529","838","85094","174677","175534","171452","12259","174677","NA","Sternberg task","22","16812","23","yes","1024"
"95.83333333333333","95.83333333333333","730.25","730.25","black","experiment","legacy","legacy","legacy","0","uniform","1","undefined","1","right","23","23","23","0","0","23","23","0","0","23","23","23","0","23","0","Sat Oct 15 19:04:10 2022","The main experiment item","yes","Sternbergtask.osexp","/Users/keelyn/Library/CloudStorage/OneDrive-Personal","no","mono","no","18","no","white","no","yes","768","legacy","11","11","/Users/keelyn/Library/CloudStorage/OneDrive-Personal/KB-subject-1.csv","legacy","8 4 3 5","Lentiform Loewenfeld","3.3.12","0","n","0","right","left","left","right","NA","714","11409","25187","714","NA","2","legacy","4","1024","2","48000","-16","experiment","1","odd","6","178835","175539","176601","828","110282","176606","53529","838","85094","180847","181562","177619","12259","180847","NA","Sternberg task","23","17526","24","yes","1024"
"96","96","742.64","742.64","black","experiment","legacy","legacy","legacy","0","uniform","1","undefined","1","right","24","24","24","0","0","24","24","0","0","24","24","24","0","24","0","Sat Oct 15 19:04:10 2022","The main experiment item","yes","Sternbergtask.osexp","/Users/keelyn/Library/CloudStorage/OneDrive-Personal","no","mono","no","18","no","white","no","yes","768","legacy","12","11","/Users/keelyn/Library/CloudStorage/OneDrive-Personal/KB-subject-1.csv","legacy","2 5 1 4","Lentiform Loewenfeld","3.3.12","0","n","0","right","left","left","right","NA","1040","11409","25187","1040","NA","2","legacy","4","1024","2","48000","-16","experiment","1","odd","6","184856","181567","182624","828","110282","182629","53529","838","85094","186868","187908","183641","12259","186868","NA","Sternberg task","24","18566","25","yes","1024"
"96.15384615384616","96.15384615384616","737.4230769230769","737.4230769230769","black","experiment","legacy","legacy","legacy","0","uniform","1","undefined","1","left","25","25","25","0","0","25","25","0","0","25","25","25","0","25","0","Sat Oct 15 19:04:10 2022","The main experiment item","yes","Sternbergtask.osexp","/Users/keelyn/Library/CloudStorage/OneDrive-Personal","no","mono","no","18","no","white","no","yes","768","legacy","13","11","/Users/keelyn/Library/CloudStorage/OneDrive-Personal/KB-subject-1.csv","legacy","3 5 4 7","Lentiform Loewenfeld","3.3.12","1","y","0","left","left","left","left","NA","607","11409","25187","607","NA","2","legacy","4","1024","2","48000","-16","experiment","1","odd","3","191209","187913","188975","828","110282","188980","53529","838","85094","193218","193826","189994","12259","193218","NA","Sternberg task","25","19173","26","yes","1024"
"96.29629629629629","96.29629629629629","738.1111111111111","738.1111111111111","black","experiment","legacy","legacy","legacy","0","uniform","1","undefined","1","right","26","26","26","0","0","26","26","0","0","26","26","26","0","26","0","Sat Oct 15 19:04:10 2022","The main experiment item","yes","Sternbergtask.osexp","/Users/keelyn/Library/CloudStorage/OneDrive-Personal","no","mono","no","18","no","white","no","yes","768","legacy","14","11","/Users/keelyn/Library/CloudStorage/OneDrive-Personal/KB-subject-1.csv","legacy","1 4 9 3","Lentiform Loewenfeld","3.3.12","0","n","0","right","left","left","right","NA","756","11409","25187","756","NA","2","legacy","4","1024","2","48000","-16","experiment","1","odd","5","197124","193831","194891","828","110282","194897","53529","838","85094","199135","199892","195909","12259","199135","NA","Sternberg task","26","19929","27","yes","1024"
"96.42857142857143","96.42857142857143","744.2142857142857","744.2142857142857","black","experiment","legacy","legacy","legacy","0","uniform","1","undefined","1","left","27","27","27","0","0","27","27","0","0","27","27","27","0","27","0","Sat Oct 15 19:04:10 2022","The main experiment item","yes","Sternbergtask.osexp","/Users/keelyn/Library/CloudStorage/OneDrive-Personal","no","mono","no","18","no","white","no","yes","768","legacy","15","11","/Users/keelyn/Library/CloudStorage/OneDrive-Personal/KB-subject-1.csv","legacy","7 1 8 5 6 2","Lentiform Loewenfeld","3.3.12","2","y","0","left","left","left","left","NA","909","11409","25187","909","NA","2","legacy","6","1024","2","48000","-16","experiment","1","odd","1","203192","199897","200956","828","110282","200962","53529","838","85094","205203","206112","201975","12259","205203","NA","Sternberg task","27","20838","28","yes","1024"
"96.55172413793103","96.55172413793103","746.8965517241379","746.8965517241379","black","experiment","legacy","legacy","legacy","0","uniform","1","undefined","1","left","28","28","28","0","0","28","28","0","0","28","28","28","0","28","0","Sat Oct 15 19:04:10 2022","The main experiment item","yes","Sternbergtask.osexp","/Users/keelyn/Library/CloudStorage/OneDrive-Personal","no","mono","no","18","no","white","no","yes","768","legacy","16","11","/Users/keelyn/Library/CloudStorage/OneDrive-Personal/KB-subject-1.csv","legacy","4 6 2 5 1","Lentiform Loewenfeld","3.3.12","5","y","0","left","left","left","left","NA","822","11409","25187","822","NA","2","legacy","5","1024","2","48000","-16","experiment","1","odd","1","209416","206118","207177","828","110282","207183","53529","838","85094","211426","212249","208197","12259","211426","NA","Sternberg task","28","21660","29","yes","1024"
"96.66666666666667","96.66666666666667","743.2333333333333","743.2333333333333","black","experiment","legacy","legacy","legacy","0","uniform","1","undefined","1","left","29","29","29","0","0","29","29","0","0","29","29","29","0","29","0","Sat Oct 15 19:04:10 2022","The main experiment item","yes","Sternbergtask.osexp","/Users/keelyn/Library/CloudStorage/OneDrive-Personal","no","mono","no","18","no","white","no","yes","768","legacy","17","11","/Users/keelyn/Library/CloudStorage/OneDrive-Personal/KB-subject-1.csv","legacy","9 1 6 7 8","Lentiform Loewenfeld","3.3.12","1","y","0","left","left","left","left","NA","637","11409","25187","637","NA","2","legacy","5","1024","2","48000","-16","experiment","1","odd","9","215551","212254","213316","828","110282","213322","53529","838","85094","217561","218198","214335","12259","217561","NA","Sternberg task","29","22297","30","yes","1024"
"96.7741935483871","96.7741935483871","741.9677419354839","741.9677419354839","black","experiment","legacy","legacy","legacy","0","uniform","1","undefined","1","right","30","30","30","0","0","30","30","0","0","30","30","30","0","30","0","Sat Oct 15 19:04:10 2022","The main experiment item","yes","Sternbergtask.osexp","/Users/keelyn/Library/CloudStorage/OneDrive-Personal","no","mono","no","18","no","white","no","yes","768","legacy","18","11","/Users/keelyn/Library/CloudStorage/OneDrive-Personal/KB-subject-1.csv","legacy","1 7 8 3 9","Lentiform Loewenfeld","3.3.12","0","n","0","right","left","left","right","NA","704","11409","25187","704","NA","2","legacy","5","1024","2","48000","-16","experiment","1","odd","2","221500","218203","219266","828","110282","219272","53529","838","85094","223510","224214","220285","12259","223510","NA","Sternberg task","30","23001","31","yes","1024"
"96.875","96.875","741.125","741.125","black","experiment","legacy","legacy","legacy","0","uniform","1","undefined","1","right","31","31","31","0","0","31","31","0","0","31","31","31","0","31","0","Sat Oct 15 19:04:10 2022","The main experiment item","yes","Sternbergtask.osexp","/Users/keelyn/Library/CloudStorage/OneDrive-Personal","no","mono","no","18","no","white","no","yes","768","legacy","19","11","/Users/keelyn/Library/CloudStorage/OneDrive-Personal/KB-subject-1.csv","legacy","7 1","Lentiform Loewenfeld","3.3.12","0","n","0","right","left","left","right","NA","715","11409","25187","715","NA","2","legacy","2","1024","2","48000","-16","experiment","1","odd","8","227518","224219","225281","828","110282","225287","53529","838","85094","229533","230248","226303","12259","229533","NA","Sternberg task","31","23716","32","yes","1024"
"96.96969696969697","96.96969696969697","737.9090909090909","737.9090909090909","black","experiment","legacy","legacy","legacy","0","uniform","1","undefined","1","left","32","32","32","0","0","32","32","0","0","32","32","32","0","32","0","Sat Oct 15 19:04:10 2022","The main experiment item","yes","Sternbergtask.osexp","/Users/keelyn/Library/CloudStorage/OneDrive-Personal","no","mono","no","18","no","white","no","yes","768","legacy","20","11","/Users/keelyn/Library/CloudStorage/OneDrive-Personal/KB-subject-1.csv","legacy","4 1 5","Lentiform Loewenfeld","3.3.12","2","y","0","left","left","left","left","NA","635","11409","25187","635","NA","2","legacy","3","1024","2","48000","-16","experiment","1","odd","1","233540","230253","231308","828","110282","231313","53529","838","85094","235552","236188","232325","12259","235552","NA","Sternberg task","32","24351","33","yes","1024"
"97.05882352941177","97.05882352941177","736.3823529411765","736.3823529411765","black","experiment","legacy","legacy","legacy","0","uniform","1","undefined","1","left","33","33","33","0","0","33","33","0","0","33","33","33","0","33","0","Sat Oct 15 19:04:10 2022","The main experiment item","yes","Sternbergtask.osexp","/Users/keelyn/Library/CloudStorage/OneDrive-Personal","no","mono","no","18","no","white","no","yes","768","legacy","21","11","/Users/keelyn/Library/CloudStorage/OneDrive-Personal/KB-subject-1.csv","legacy","8 9 6 1","Lentiform Loewenfeld","3.3.12","2","y","0","left","left","left","left","NA","686","11409","25187","686","NA","2","legacy","4","1024","2","48000","-16","experiment","1","odd","9","239492","236193","237254","828","110282","237260","53529","838","85094","241504","242191","238273","12259","241504","NA","Sternberg task","33","25037","34","yes","1024"
"97.14285714285714","97.14285714285714","739.0571428571428","739.0571428571428","black","experiment","legacy","legacy","legacy","0","uniform","1","undefined","1","left","34","34","34","0","0","34","34","0","0","34","34","34","0","34","0","Sat Oct 15 19:04:10 2022","The main experiment item","yes","Sternbergtask.osexp","/Users/keelyn/Library/CloudStorage/OneDrive-Personal","no","mono","no","18","no","white","no","yes","768","legacy","22","11","/Users/keelyn/Library/CloudStorage/OneDrive-Personal/KB-subject-1.csv","legacy","3 9 6 2","Lentiform Loewenfeld","3.3.12","4","y","0","left","left","left","left","NA","830","11409","25187","830","NA","2","legacy","4","1024","2","48000","-16","experiment","1","odd","2","245492","242196","243258","828","110282","243263","53529","838","85094","247505","248336","244276","12259","247505","NA","Sternberg task","34","25867","35","yes","1024"
"97.22222222222223","97.22222222222223","738.1388888888889","738.1388888888889","black","experiment","legacy","legacy","legacy","0","uniform","1","undefined","1","right","35","35","35","0","0","35","35","0","0","35","35","35","0","35","0","Sat Oct 15 19:04:10 2022","The main experiment item","yes","Sternbergtask.osexp","/Users/keelyn/Library/CloudStorage/OneDrive-Personal","no","mono","no","18","no","white","no","yes","768","legacy","23","11","/Users/keelyn/Library/CloudStorage/OneDrive-Personal/KB-subject-1.csv","legacy","8 5 7 3 6","Lentiform Loewenfeld","3.3.12","0","n","0","right","left","left","right","NA","706","11409","25187","706","NA","2","legacy","5","1024","2","48000","-16","experiment","1","odd","9","251634","248341","249398","828","110282","249403","53529","838","85094","253644","254351","250418","12259","253644","NA","Sternberg task","35","26573","36","yes","1024"
"97.29729729729729","97.29729729729729","741.1351351351351","741.1351351351351","black","experiment","legacy","legacy","legacy","0","uniform","1","undefined","1","right","36","36","36","0","0","36","36","0","0","36","36","36","0","36","0","Sat Oct 15 19:04:10 2022","The main experiment item","yes","Sternbergtask.osexp","/Users/keelyn/Library/CloudStorage/OneDrive-Personal","no","mono","no","18","no","white","no","yes","768","legacy","24","11","/Users/keelyn/Library/CloudStorage/OneDrive-Personal/KB-subject-1.csv","legacy","5 7 3","Lentiform Loewenfeld","3.3.12","0","n","0","right","left","left","right","NA","849","11409","25187","849","NA","2","legacy","3","1024","2","48000","-16","experiment","1","odd","9","257652","254356","255417","828","110282","255423","53529","838","85094","259669","260519","256437","12259","259668","NA","Sternberg task","36","27422","37","yes","1024"
"97.36842105263158","97.36842105263158","737.6578947368421","737.6578947368421","black","experiment","legacy","legacy","legacy","0","uniform","1","undefined","1","right","37","37","37","0","0","37","37","0","0","37","37","37","0","37","0","Sat Oct 15 19:04:10 2022","The main experiment item","yes","Sternbergtask.osexp","/Users/keelyn/Library/CloudStorage/OneDrive-Personal","no","mono","no","18","no","white","no","yes","768","legacy","25","11","/Users/keelyn/Library/CloudStorage/OneDrive-Personal/KB-subject-1.csv","legacy","4 1","Lentiform Loewenfeld","3.3.12","0","n","0","right","left","left","right","NA","609","11409","25187","609","NA","2","legacy","2","1024","2","48000","-16","experiment","1","odd","6","263811","260523","261577","828","110282","261582","53529","838","85094","265823","266433","262594","12259","265822","NA","Sternberg task","37","28031","38","yes","1024"
"97.43589743589743","97.43589743589743","741.8974358974359","741.8974358974359","black","experiment","legacy","legacy","legacy","0","uniform","1","undefined","1","right","38","38","38","0","0","38","38","0","0","38","38","38","0","38","0","Sat Oct 15 19:04:10 2022","The main experiment item","yes","Sternbergtask.osexp","/Users/keelyn/Library/CloudStorage/OneDrive-Personal","no","mono","no","18","no","white","no","yes","768","legacy","26","11","/Users/keelyn/Library/CloudStorage/OneDrive-Personal/KB-subject-1.csv","legacy","2 8 9 4 1","Lentiform Loewenfeld","3.3.12","0","n","0","right","left","left","right","NA","903","11409","25187","903","NA","2","legacy","5","1024","2","48000","-16","experiment","1","odd","5","269737","266438","267498","828","110282","267504","53529","838","85094","271751","272655","268522","12259","271750","NA","Sternberg task","38","28934","39","yes","1024"
"97.5","97.5","749.3","749.3","black","experiment","legacy","legacy","legacy","0","uniform","1","undefined","1","right","39","39","39","0","0","39","39","0","0","39","39","39","0","39","0","Sat Oct 15 19:04:10 2022","The main experiment item","yes","Sternbergtask.osexp","/Users/keelyn/Library/CloudStorage/OneDrive-Personal","no","mono","no","18","no","white","no","yes","768","legacy","27","11","/Users/keelyn/Library/CloudStorage/OneDrive-Personal/KB-subject-1.csv","legacy","6 9 4 5 2","Lentiform Loewenfeld","3.3.12","0","n","0","right","left","left","right","NA","1038","11409","25187","1038","NA","2","legacy","5","1024","2","48000","-16","experiment","1","odd","1","275956","272660","273722","828","110282","273727","53529","838","85094","277970","279009","274740","12259","277970","NA","Sternberg task","39","29972","40","yes","1024"
"97.5609756097561","97.5609756097561","749","749","black","experiment","legacy","legacy","legacy","0","uniform","1","undefined","1","right","40","40","40","0","0","40","40","0","0","40","40","40","0","40","0","Sat Oct 15 19:04:10 2022","The main experiment item","yes","Sternbergtask.osexp","/Users/keelyn/Library/CloudStorage/OneDrive-Personal","no","mono","no","18","no","white","no","yes","768","legacy","28","11","/Users/keelyn/Library/CloudStorage/OneDrive-Personal/KB-subject-1.csv","legacy","4 2 6 9","Lentiform Loewenfeld","3.3.12","0","n","0","right","left","left","right","NA","737","11409","25187","737","NA","2","legacy","4","1024","2","48000","-16","experiment","1","odd","7","282305","279014","280070","828","110282","280076","53529","838","85094","284315","285053","281088","12259","284315","NA","Sternberg task","40","30709","41","yes","1024"
"97.61904761904762","97.61904761904762","745.3809523809524","745.3809523809524","black","experiment","legacy","legacy","legacy","0","uniform","1","undefined","1","right","41","41","41","0","0","41","41","0","0","41","41","41","0","41","0","Sat Oct 15 19:04:10 2022","The main experiment item","yes","Sternbergtask.osexp","/Users/keelyn/Library/CloudStorage/OneDrive-Personal","no","mono","no","18","no","white","no","yes","768","legacy","29","11","/Users/keelyn/Library/CloudStorage/OneDrive-Personal/KB-subject-1.csv","legacy","7 8 6 1","Lentiform Loewenfeld","3.3.12","0","n","0","right","left","left","right","NA","597","11409","25187","597","NA","2","legacy","4","1024","2","48000","-16","experiment","1","odd","3","288352","285058","286117","828","110282","286123","53529","838","85094","290361","290958","287136","12259","290361","NA","Sternberg task","41","31306","42","yes","1024"
"97.67441860465117","97.67441860465117","744.3023255813954","744.3023255813954","black","experiment","legacy","legacy","legacy","0","uniform","1","undefined","1","right","42","42","42","0","0","42","42","0","0","42","42","42","0","42","0","Sat Oct 15 19:04:10 2022","The main experiment item","yes","Sternbergtask.osexp","/Users/keelyn/Library/CloudStorage/OneDrive-Personal","no","mono","no","18","no","white","no","yes","768","legacy","30","11","/Users/keelyn/Library/CloudStorage/OneDrive-Personal/KB-subject-1.csv","legacy","1 5 3 2 8","Lentiform Loewenfeld","3.3.12","0","n","0","right","left","left","right","NA","699","11409","25187","699","NA","2","legacy","5","1024","2","48000","-16","experiment","1","odd","4","294258","290963","292025","828","110282","292030","53529","838","85094","296270","296970","293043","12259","296270","NA","Sternberg task","42","32005","43","yes","1024"
"97.72727272727273","97.72727272727273","743.25","743.25","black","experiment","legacy","legacy","legacy","0","uniform","1","undefined","1","left","43","43","43","0","0","43","43","0","0","43","43","43","0","43","0","Sat Oct 15 19:04:10 2022","The main experiment item","yes","Sternbergtask.osexp","/Users/keelyn/Library/CloudStorage/OneDrive-Personal","no","mono","no","18","no","white","no","yes","768","legacy","31","11","/Users/keelyn/Library/CloudStorage/OneDrive-Personal/KB-subject-1.csv","legacy","1 4 9 3 2 5","Lentiform Loewenfeld","3.3.12","3","y","0","left","left","left","left","NA","698","11409","25187","698","NA","2","legacy","6","1024","2","48000","-16","experiment","1","odd","9","300273","296975","298037","828","110282","298043","53529","838","85094","302285","302984","299057","12259","302285","NA","Sternberg task","43","32703","44","yes","1024"
"97.77777777777777","97.77777777777777","745.3333333333334","745.3333333333334","black","experiment","legacy","legacy","legacy","0","uniform","1","undefined","1","left","44","44","44","0","0","44","44","0","0","44","44","44","0","44","0","Sat Oct 15 19:04:10 2022","The main experiment item","yes","Sternbergtask.osexp","/Users/keelyn/Library/CloudStorage/OneDrive-Personal","no","mono","no","18","no","white","no","yes","768","legacy","32","11","/Users/keelyn/Library/CloudStorage/OneDrive-Personal/KB-subject-1.csv","legacy","8 3","Lentiform Loewenfeld","3.3.12","2","y","0","left","left","left","left","NA","837","11409","25187","837","NA","2","legacy","2","1024","2","48000","-16","experiment","1","odd","3","306272","302989","304040","828","110282","304044","53529","838","85094","308282","309120","305057","12259","308282","NA","Sternberg task","44","33540","45","yes","1024"
"97.82608695652173","97.82608695652173","746.6086956521739","746.6086956521739","black","experiment","legacy","legacy","legacy","0","uniform","1","undefined","1","left","45","45","45","0","0","45","45","0","0","45","45","45","0","45","0","Sat Oct 15 19:04:10 2022","The main experiment item","yes","Sternbergtask.osexp","/Users/keelyn/Library/CloudStorage/OneDrive-Personal","no","mono","no","18","no","white","no","yes","768","legacy","33","11","/Users/keelyn/Library/CloudStorage/OneDrive-Personal/KB-subject-1.csv","legacy","6 7 9 3 1 2","Lentiform Loewenfeld","3.3.12","1","y","0","left","left","left","left","NA","804","11409","25187","804","NA","2","legacy","6","1024","2","48000","-16","experiment","1","odd","6","312415","309125","310180","828","110282","310185","53529","838","85094","314428","315233","311198","12259","314427","NA","Sternberg task","45","34344","46","yes","1024"
"97.87234042553192","97.87234042553192","745.1489361702128","745.1489361702128","black","experiment","legacy","legacy","legacy","0","uniform","1","undefined","1","right","46","46","46","0","0","46","46","0","0","46","46","46","0","46","0","Sat Oct 15 19:04:10 2022","The main experiment item","yes","Sternbergtask.osexp","/Users/keelyn/Library/CloudStorage/OneDrive-Personal","no","mono","no","18","no","white","no","yes","768","legacy","34","11","/Users/keelyn/Library/CloudStorage/OneDrive-Personal/KB-subject-1.csv","legacy","1 7 5 2","Lentiform Loewenfeld","3.3.12","0","n","0","right","left","left","right","NA","678","11409","25187","678","NA","2","legacy","4","1024","2","48000","-16","experiment","1","odd","3","318532","315238","316300","828","110282","316305","53529","838","85094","320544","321223","317317","12259","320544","NA","Sternberg task","46","35022","47","yes","1024"
"97.91666666666667","97.91666666666667","751.5625","751.5625","black","experiment","legacy","legacy","legacy","0","uniform","1","undefined","1","left","47","47","47","0","0","47","47","0","0","47","47","47","0","47","0","Sat Oct 15 19:04:10 2022","The main experiment item","yes","Sternbergtask.osexp","/Users/keelyn/Library/CloudStorage/OneDrive-Personal","no","mono","no","18","no","white","no","yes","768","legacy","35","11","/Users/keelyn/Library/CloudStorage/OneDrive-Personal/KB-subject-1.csv","legacy","7 8 6 3 1","Lentiform Loewenfeld","3.3.12","5","y","0","left","left","left","left","NA","1053","11409","25187","1053","NA","2","legacy","5","1024","2","48000","-16","experiment","1","odd","1","324519","321228","322286","828","110282","322292","53529","838","85094","326530","327584","323304","12259","326530","NA","Sternberg task","47","36075","48","yes","1024"
"97.95918367346938","97.95918367346938","755.3673469387755","755.3673469387755","black","experiment","legacy","legacy","legacy","0","uniform","1","undefined","1","right","48","48","48","0","0","48","48","0","0","48","48","48","0","48","0","Sat Oct 15 19:04:10 2022","The main experiment item","yes","Sternbergtask.osexp","/Users/keelyn/Library/CloudStorage/OneDrive-Personal","no","mono","no","18","no","white","no","yes","768","legacy","36","11","/Users/keelyn/Library/CloudStorage/OneDrive-Personal/KB-subject-1.csv","legacy","2 8 9","Lentiform Loewenfeld","3.3.12","0","n","0","right","left","left","right","NA","938","11409","25187","938","NA","2","legacy","3","1024","2","48000","-16","experiment","1","odd","6","330884","327589","328648","828","110282","328654","53529","838","85094","332897","333836","329670","12259","332897","NA","Sternberg task","48","37013","49","yes","1024"
"98","98","756.06","756.06","black","experiment","legacy","legacy","legacy","0","uniform","1","undefined","1","left","49","49","49","0","0","49","49","0","0","49","49","49","0","49","0","Sat Oct 15 19:04:10 2022","The main experiment item","yes","Sternbergtask.osexp","/Users/keelyn/Library/CloudStorage/OneDrive-Personal","no","mono","no","18","no","white","no","yes","768","legacy","37","11","/Users/keelyn/Library/CloudStorage/OneDrive-Personal/KB-subject-1.csv","legacy","8 7 3","Lentiform Loewenfeld","3.3.12","1","y","0","left","left","left","left","NA","790","11409","25187","790","NA","2","legacy","3","1024","2","48000","-16","experiment","1","odd","8","337140","333841","334902","828","110282","334908","53529","838","85094","339150","339940","335920","12259","339150","NA","Sternberg task","49","37803","50","yes","1024"
"98.03921568627452","98.03921568627452","757.4705882352941","757.4705882352941","black","experiment","legacy","legacy","legacy","0","uniform","1","undefined","1","left","50","50","50","0","0","50","50","0","0","50","50","50","0","50","0","Sat Oct 15 19:04:10 2022","The main experiment item","yes","Sternbergtask.osexp","/Users/keelyn/Library/CloudStorage/OneDrive-Personal","no","mono","no","18","no","white","no","yes","768","legacy","38","11","/Users/keelyn/Library/CloudStorage/OneDrive-Personal/KB-subject-1.csv","legacy","9 5 8 1","Lentiform Loewenfeld","3.3.12","2","y","0","left","left","left","left","NA","828","11409","25187","828","NA","2","legacy","4","1024","2","48000","-16","experiment","1","odd","5","343240","339945","341007","828","110282","341012","53529","838","85094","345251","346080","342025","12259","345251","NA","Sternberg task","50","38631","51","yes","1024"
"98.07692307692308","98.07692307692308","754.5576923076923","754.5576923076923","black","experiment","legacy","legacy","legacy","0","uniform","1","undefined","1","left","51","51","51","0","0","51","51","0","0","51","51","51","0","51","0","Sat Oct 15 19:04:10 2022","The main experiment item","yes","Sternbergtask.osexp","/Users/keelyn/Library/CloudStorage/OneDrive-Personal","no","mono","no","18","no","white","no","yes","768","legacy","39","11","/Users/keelyn/Library/CloudStorage/OneDrive-Personal/KB-subject-1.csv","legacy","8 9 5 6 7","Lentiform Loewenfeld","3.3.12","1","y","0","left","left","left","left","NA","606","11409","25187","606","NA","2","legacy","5","1024","2","48000","-16","experiment","1","odd","8","349383","346085","347144","828","110282","347150","53529","838","85094","351395","352002","348162","12259","351395","NA","Sternberg task","51","39237","52","yes","1024"
"98.11320754716981","98.11320754716981","756.811320754717","756.811320754717","black","experiment","legacy","legacy","legacy","0","uniform","1","undefined","1","left","52","52","52","0","0","52","52","0","0","52","52","52","0","52","0","Sat Oct 15 19:04:10 2022","The main experiment item","yes","Sternbergtask.osexp","/Users/keelyn/Library/CloudStorage/OneDrive-Personal","no","mono","no","18","no","white","no","yes","768","legacy","40","11","/Users/keelyn/Library/CloudStorage/OneDrive-Personal/KB-subject-1.csv","legacy","5 7 3 6 2","Lentiform Loewenfeld","3.3.12","5","y","0","left","left","left","left","NA","874","11409","25187","874","NA","2","legacy","5","1024","2","48000","-16","experiment","1","odd","2","355305","352007","353065","828","110282","353070","53529","838","85094","357314","358189","354083","12259","357314","NA","Sternberg task","52","40111","53","yes","1024"
"98.14814814814815","98.14814814814815","759.0185185185185","759.0185185185185","black","experiment","legacy","legacy","legacy","0","uniform","1","undefined","1","right","53","53","53","0","0","53","53","0","0","53","53","53","0","53","0","Sat Oct 15 19:04:10 2022","The main experiment item","yes","Sternbergtask.osexp","/Users/keelyn/Library/CloudStorage/OneDrive-Personal","no","mono","no","18","no","white","no","yes","768","legacy","41","11","/Users/keelyn/Library/CloudStorage/OneDrive-Personal/KB-subject-1.csv","legacy","1 7 5 2 9","Lentiform Loewenfeld","3.3.12","0","n","0","right","left","left","right","NA","876","11409","25187","876","NA","2","legacy","5","1024","2","48000","-16","experiment","1","odd","3","361485","358194","359251","828","110282","359257","53529","838","85094","363495","364372","360270","12259","363495","NA","Sternberg task","53","40987","54","yes","1024"
"98.18181818181819","98.18181818181819","757.4363636363636","757.4363636363636","black","experiment","legacy","legacy","legacy","0","uniform","1","undefined","1","left","54","54","54","0","0","54","54","0","0","54","54","54","0","54","0","Sat Oct 15 19:04:10 2022","The main experiment item","yes","Sternbergtask.osexp","/Users/keelyn/Library/CloudStorage/OneDrive-Personal","no","mono","no","18","no","white","no","yes","768","legacy","42","11","/Users/keelyn/Library/CloudStorage/OneDrive-Personal/KB-subject-1.csv","legacy","2 4 8 5 1 3","Lentiform Loewenfeld","3.3.12","1","y","0","left","left","left","left","NA","672","11409","25187","672","NA","2","legacy","6","1024","2","48000","-16","experiment","1","odd","2","367672","364377","365439","828","110282","365445","53529","838","85094","369684","370356","366457","12259","369684","NA","Sternberg task","54","41659","55","yes","1024"
"98.21428571428571","98.21428571428571","756.8928571428571","756.8928571428571","black","experiment","legacy","legacy","legacy","0","uniform","1","undefined","1","left","55","55","55","0","0","55","55","0","0","55","55","55","0","55","0","Sat Oct 15 19:04:10 2022","The main experiment item","yes","Sternbergtask.osexp","/Users/keelyn/Library/CloudStorage/OneDrive-Personal","no","mono","no","18","no","white","no","yes","768","legacy","43","11","/Users/keelyn/Library/CloudStorage/OneDrive-Personal/KB-subject-1.csv","legacy","4 9 7 8 5 3","Lentiform Loewenfeld","3.3.12","4","y","0","left","left","left","left","NA","727","11409","25187","727","NA","2","legacy","6","1024","2","48000","-16","experiment","1","odd","8","373649","370361","371416","828","110282","371421","53529","838","85094","375661","376389","372433","12259","375660","NA","Sternberg task","55","42386","56","yes","1024"
"98.24561403508773","98.24561403508773","756.7368421052631","756.7368421052631","black","experiment","legacy","legacy","legacy","0","uniform","1","undefined","1","right","56","56","56","0","0","56","56","0","0","56","56","56","0","56","0","Sat Oct 15 19:04:10 2022","The main experiment item","yes","Sternbergtask.osexp","/Users/keelyn/Library/CloudStorage/OneDrive-Personal","no","mono","no","18","no","white","no","yes","768","legacy","44","11","/Users/keelyn/Library/CloudStorage/OneDrive-Personal/KB-subject-1.csv","legacy","9 8 2 7 4","Lentiform Loewenfeld","3.3.12","0","n","0","right","left","left","right","NA","748","11409","25187","748","NA","2","legacy","5","1024","2","48000","-16","experiment","1","odd","5","379690","376394","377455","828","110282","377461","53529","838","85094","381699","382448","378474","12259","381699","NA","Sternberg task","56","43134","57","yes","1024"
"98.27586206896552","98.27586206896552","758.9655172413793","758.9655172413793","black","experiment","legacy","legacy","legacy","0","uniform","1","undefined","1","right","57","57","57","0","0","57","57","0","0","57","57","57","0","57","0","Sat Oct 15 19:04:10 2022","The main experiment item","yes","Sternbergtask.osexp","/Users/keelyn/Library/CloudStorage/OneDrive-Personal","no","mono","no","18","no","white","no","yes","768","legacy","45","11","/Users/keelyn/Library/CloudStorage/OneDrive-Personal/KB-subject-1.csv","legacy","6 9 4 5 3 2","Lentiform Loewenfeld","3.3.12","0","n","0","right","left","left","right","NA","886","11409","25187","886","NA","2","legacy","6","1024","2","48000","-16","experiment","1","odd","8","385748","382453","383514","828","110282","383520","53529","838","85094","387758","388645","384533","12259","387758","NA","Sternberg task","57","44020","58","yes","1024"
"98.30508474576271","98.30508474576271","759.1186440677966","759.1186440677966","black","experiment","legacy","legacy","legacy","0","uniform","1","undefined","1","right","58","58","58","0","0","58","58","0","0","58","58","58","0","58","0","Sat Oct 15 19:04:10 2022","The main experiment item","yes","Sternbergtask.osexp","/Users/keelyn/Library/CloudStorage/OneDrive-Personal","no","mono","no","18","no","white","no","yes","768","legacy","46","11","/Users/keelyn/Library/CloudStorage/OneDrive-Personal/KB-subject-1.csv","legacy","5 3 2 6 9 8","Lentiform Loewenfeld","3.3.12","0","n","0","right","left","left","right","NA","768","11409","25187","768","NA","2","legacy","6","1024","2","48000","-16","experiment","1","odd","4","391944","388650","389710","828","110282","389716","53529","838","85094","393955","394723","390728","12259","393955","NA","Sternberg task","58","44788","59","yes","1024"
"98.33333333333333","98.33333333333333","758.25","758.25","black","experiment","legacy","legacy","legacy","0","uniform","1","undefined","1","right","59","59","59","0","0","59","59","0","0","59","59","59","0","59","0","Sat Oct 15 19:04:10 2022","The main experiment item","yes","Sternbergtask.osexp","/Users/keelyn/Library/CloudStorage/OneDrive-Personal","no","mono","no","18","no","white","no","yes","768","legacy","47","11","/Users/keelyn/Library/CloudStorage/OneDrive-Personal/KB-subject-1.csv","legacy","1 6 4","Lentiform Loewenfeld","3.3.12","0","n","0","right","left","left","right","NA","707","11409","25187","707","NA","2","legacy","3","1024","2","48000","-16","experiment","1","odd","7","398020","394728","395787","828","110282","395793","53529","838","85094","400031","400739","396805","12259","400031","NA","Sternberg task","59","45495","60","yes","1024"
"98.36065573770492","98.36065573770492","759.2950819672132","759.2950819672132","black","experiment","legacy","legacy","legacy","0","uniform","1","undefined","1","left","60","60","60","0","0","60","60","0","0","60","60","60","0","60","0","Sat Oct 15 19:04:10 2022","The main experiment item","yes","Sternbergtask.osexp","/Users/keelyn/Library/CloudStorage/OneDrive-Personal","no","mono","no","18","no","white","no","yes","768","legacy","48","11","/Users/keelyn/Library/CloudStorage/OneDrive-Personal/KB-subject-1.csv","legacy","8 5 4 7 3 1","Lentiform Loewenfeld","3.3.12","2","y","0","left","left","left","left","NA","822","11409","25187","822","NA","2","legacy","6","1024","2","48000","-16","experiment","1","odd","5","404036","400744","401804","828","110282","401809","53529","838","85094","406046","406868","402821","12259","406046","NA","Sternberg task","60","46317","61","yes","1024"
"98.38709677419355","98.38709677419355","760.5","760.5","black","experiment","legacy","legacy","legacy","0","uniform","1","undefined","1","left","61","61","61","0","0","61","61","0","0","61","61","61","0","61","0","Sat Oct 15 19:04:10 2022","The main experiment item","yes","Sternbergtask.osexp","/Users/keelyn/Library/CloudStorage/OneDrive-Personal","no","mono","no","18","no","white","no","yes","768","legacy","49","11","/Users/keelyn/Library/CloudStorage/OneDrive-Personal/KB-subject-1.csv","legacy","2 8 5 1","Lentiform Loewenfeld","3.3.12","4","y","0","left","left","left","left","NA","834","11409","25187","834","NA","2","legacy","4","1024","2","48000","-16","experiment","1","odd","1","410166","406873","407930","828","110282","407935","53529","838","85094","412180","413015","408951","12259","412180","NA","Sternberg task","61","47151","62","yes","1024"
"98.41269841269842","98.41269841269842","758.7936507936508","758.7936507936508","black","experiment","legacy","legacy","legacy","0","uniform","1","undefined","1","left","62","62","62","0","0","62","62","0","0","62","62","62","0","62","0","Sat Oct 15 19:04:10 2022","The main experiment item","yes","Sternbergtask.osexp","/Users/keelyn/Library/CloudStorage/OneDrive-Personal","no","mono","no","18","no","white","no","yes","768","legacy","50","11","/Users/keelyn/Library/CloudStorage/OneDrive-Personal/KB-subject-1.csv","legacy","9 8 4","Lentiform Loewenfeld","3.3.12","1","y","0","left","left","left","left","NA","653","11409","25187","653","NA","2","legacy","3","1024","2","48000","-16","experiment","1","odd","9","416321","413020","414081","828","110282","414086","53529","838","85094","418334","418988","415104","12259","418334","NA","Sternberg task","62","47804","63","yes","1024"
"98.4375","98.4375","759.765625","759.765625","black","experiment","legacy","legacy","legacy","0","uniform","1","undefined","1","right","63","63","63","0","0","63","63","0","0","63","63","63","0","63","0","Sat Oct 15 19:04:10 2022","The main experiment item","yes","Sternbergtask.osexp","/Users/keelyn/Library/CloudStorage/OneDrive-Personal","no","mono","no","18","no","white","no","yes","768","legacy","51","11","/Users/keelyn/Library/CloudStorage/OneDrive-Personal/KB-subject-1.csv","legacy","7 1 5 6 3","Lentiform Loewenfeld","3.3.12","0","n","0","right","left","left","right","NA","821","11409","25187","821","NA","2","legacy","5","1024","2","48000","-16","experiment","1","odd","8","422283","418993","420047","828","110282","420052","53529","838","85094","424294","425116","421068","12259","424294","NA","Sternberg task","63","48625","64","yes","1024"
"98.46153846153847","98.46153846153847","761.0153846153846","761.0153846153846","black","experiment","legacy","legacy","legacy","0","uniform","1","undefined","1","right","64","64","64","0","0","64","64","0","0","64","64","64","0","64","0","Sat Oct 15 19:04:10 2022","The main experiment item","yes","Sternbergtask.osexp","/Users/keelyn/Library/CloudStorage/OneDrive-Personal","no","mono","no","18","no","white","no","yes","768","legacy","52","11","/Users/keelyn/Library/CloudStorage/OneDrive-Personal/KB-subject-1.csv","legacy","1 6 4 3 9 7","Lentiform Loewenfeld","3.3.12","0","n","0","right","left","left","right","NA","841","11409","25187","841","NA","2","legacy","6","1024","2","48000","-16","experiment","1","odd","8","428424","425121","426184","828","110282","426189","53529","838","85094","430436","431278","427201","12259","430435","NA","Sternberg task","64","49466","65","yes","1024"
"98.48484848484848","98.48484848484848","759.0909090909091","759.0909090909091","black","experiment","legacy","legacy","legacy","0","uniform","1","undefined","1","left","65","65","65","0","0","65","65","0","0","65","65","65","0","65","0","Sat Oct 15 19:04:10 2022","The main experiment item","yes","Sternbergtask.osexp","/Users/keelyn/Library/CloudStorage/OneDrive-Personal","no","mono","no","18","no","white","no","yes","768","legacy","53","11","/Users/keelyn/Library/CloudStorage/OneDrive-Personal/KB-subject-1.csv","legacy","4","Lentiform Loewenfeld","3.3.12","1","y","0","left","left","left","left","NA","634","11409","25187","634","NA","2","legacy","1","1024","2","48000","-16","experiment","1","odd","4","434574","431283","432341","828","110282","432346","53529","838","85094","436584","437219","433359","12259","436584","NA","Sternberg task","65","50100","66","yes","1024"
"97.01492537313433","97.01492537313433","758.3880597014926","758.3880597014926","black","experiment","legacy","legacy","legacy","0","uniform","0","undefined","0","left","66","66","66","0","0","66","66","0","0","66","66","66","0","66","0","Sat Oct 15 19:04:10 2022","The main experiment item","yes","Sternbergtask.osexp","/Users/keelyn/Library/CloudStorage/OneDrive-Personal","no","mono","no","18","no","white","no","yes","768","legacy","54","11","/Users/keelyn/Library/CloudStorage/OneDrive-Personal/KB-subject-1.csv","legacy","7 4 2 6 3 5","Lentiform Loewenfeld","3.3.12","6","y","0","right","left","left","right","NA","712","11409","25187","712","NA","2","legacy","6","1024","2","48000","-16","experiment","1","odd","5","440520","437224","438287","828","110282","438292","53529","838","85094","442532","443245","439304","12259","442532","NA","Sternberg task","65","50812","67","yes","1024"
"97.05882352941177","97.05882352941177","759.6617647058823","759.6617647058823","black","experiment","legacy","legacy","legacy","0","uniform","1","undefined","1","left","67","67","67","0","0","67","67","0","0","67","67","67","0","67","0","Sat Oct 15 19:04:10 2022","The main experiment item","yes","Sternbergtask.osexp","/Users/keelyn/Library/CloudStorage/OneDrive-Personal","no","mono","no","18","no","white","no","yes","768","legacy","55","11","/Users/keelyn/Library/CloudStorage/OneDrive-Personal/KB-subject-1.csv","legacy","4 1 8 7 5","Lentiform Loewenfeld","3.3.12","3","y","0","left","left","left","left","NA","845","11409","25187","845","NA","2","legacy","5","1024","2","48000","-16","experiment","1","odd","8","446540","437224","444305","828","110282","444311","443250","838","85094","448555","449401","445324","12259","448554","NA","Sternberg task","66","51657","68","yes","1024"
"97.10144927536231","97.10144927536231","758.8985507246376","758.8985507246376","black","experiment","legacy","legacy","legacy","0","uniform","1","undefined","1","right","68","68","68","0","0","68","68","0","0","68","68","68","0","68","0","Sat Oct 15 19:04:10 2022","The main experiment item","yes","Sternbergtask.osexp","/Users/keelyn/Library/CloudStorage/OneDrive-Personal","no","mono","no","18","no","white","no","yes","768","legacy","56","11","/Users/keelyn/Library/CloudStorage/OneDrive-Personal/KB-subject-1.csv","legacy","1 8 7","Lentiform Loewenfeld","3.3.12","0","n","0","right","left","left","right","NA","707","11409","25187","707","NA","2","legacy","3","1024","2","48000","-16","experiment","1","odd","4","452700","449406","450465","828","110282","450470","443250","838","85094","454711","455419","451483","12259","454711","NA","Sternberg task","67","52364","69","yes","1024"
"97.14285714285714","97.14285714285714","757.8428571428572","757.8428571428572","black","experiment","legacy","legacy","legacy","0","uniform","1","undefined","1","left","69","69","69","0","0","69","69","0","0","69","69","69","0","69","0","Sat Oct 15 19:04:10 2022","The main experiment item","yes","Sternbergtask.osexp","/Users/keelyn/Library/CloudStorage/OneDrive-Personal","no","mono","no","18","no","white","no","yes","768","legacy","57","11","/Users/keelyn/Library/CloudStorage/OneDrive-Personal/KB-subject-1.csv","legacy","7 6","Lentiform Loewenfeld","3.3.12","2","y","0","left","left","left","left","NA","685","11409","25187","685","NA","2","legacy","2","1024","2","48000","-16","experiment","1","odd","6","458720","455424","456487","828","110282","456493","443250","838","85094","460731","461417","457506","12259","460731","NA","Sternberg task","68","53049","70","yes","1024"
"97.1830985915493","97.1830985915493","759.4507042253521","759.4507042253521","black","experiment","legacy","legacy","legacy","0","uniform","1","undefined","1","left","70","70","70","0","0","70","70","0","0","70","70","70","0","70","0","Sat Oct 15 19:04:10 2022","The main experiment item","yes","Sternbergtask.osexp","/Users/keelyn/Library/CloudStorage/OneDrive-Personal","no","mono","no","18","no","white","no","yes","768","legacy","58","11","/Users/keelyn/Library/CloudStorage/OneDrive-Personal/KB-subject-1.csv","legacy","3 5 9 6 2 4","Lentiform Loewenfeld","3.3.12","1","y","0","left","left","left","left","NA","872","11409","25187","872","NA","2","legacy","6","1024","2","48000","-16","experiment","1","odd","3","464717","461422","462481","828","110282","462487","443250","838","85094","466726","467598","463500","12259","466726","NA","Sternberg task","69","53921","71","yes","1024"
"97.22222222222223","97.22222222222223","760.4305555555555","760.4305555555555","black","experiment","legacy","legacy","legacy","0","uniform","1","undefined","1","right","71","71","71","0","0","71","71","0","0","71","71","71","0","71","0","Sat Oct 15 19:04:10 2022","The main experiment item","yes","Sternbergtask.osexp","/Users/keelyn/Library/CloudStorage/OneDrive-Personal","no","mono","no","18","no","white","no","yes","768","legacy","59","11","/Users/keelyn/Library/CloudStorage/OneDrive-Personal/KB-subject-1.csv","legacy","4 8 1 2","Lentiform Loewenfeld","3.3.12","0","n","0","right","left","left","right","NA","830","11409","25187","830","NA","2","legacy","4","1024","2","48000","-16","experiment","1","odd","7","470902","467603","468667","828","110282","468673","443250","838","85094","472913","473744","469686","12259","472913","NA","Sternberg task","70","54751","72","yes","1024"
"97.26027397260275","97.26027397260275","762.8767123287671","762.8767123287671","black","experiment","legacy","legacy","legacy","0","uniform","1","undefined","1","left","72","72","72","0","0","72","72","0","0","72","72","72","0","72","0","Sat Oct 15 19:04:10 2022","The main experiment item","yes","Sternbergtask.osexp","/Users/keelyn/Library/CloudStorage/OneDrive-Personal","no","mono","no","18","no","white","no","yes","768","legacy","60","11","/Users/keelyn/Library/CloudStorage/OneDrive-Personal/KB-subject-1.csv","legacy","8 5 1 3 9","Lentiform Loewenfeld","3.3.12","4","y","0","left","left","left","left","NA","939","11409","25187","939","NA","2","legacy","5","1024","2","48000","-16","experiment","1","odd","3","477046","473749","474811","828","110282","474817","443250","838","85094","479058","479998","475830","12259","479057","NA","Sternberg task","71","55690","73","yes","1024"
"97.29729729729729","97.29729729729729","761.7297297297297","761.7297297297297","black","experiment","legacy","legacy","legacy","0","uniform","1","undefined","1","right","73","73","73","0","0","73","73","0","0","73","73","73","0","73","0","Sat Oct 15 19:04:10 2022","The main experiment item","yes","Sternbergtask.osexp","/Users/keelyn/Library/CloudStorage/OneDrive-Personal","no","mono","no","18","no","white","no","yes","768","legacy","61","11","/Users/keelyn/Library/CloudStorage/OneDrive-Personal/KB-subject-1.csv","legacy","3 4 2","Lentiform Loewenfeld","3.3.12","0","n","0","right","left","left","right","NA","678","11409","25187","678","NA","2","legacy","3","1024","2","48000","-16","experiment","1","odd","5","483297","480003","481063","828","110282","481069","443250","838","85094","485308","485986","482082","12259","485307","NA","Sternberg task","72","56368","74","yes","1024"
"97.33333333333333","97.33333333333333","761.7066666666667","761.7066666666667","black","experiment","legacy","legacy","legacy","0","uniform","1","undefined","1","left","74","74","74","0","0","74","74","0","0","74","74","74","0","74","0","Sat Oct 15 19:04:10 2022","The main experiment item","yes","Sternbergtask.osexp","/Users/keelyn/Library/CloudStorage/OneDrive-Personal","no","mono","no","18","no","white","no","yes","768","legacy","62","11","/Users/keelyn/Library/CloudStorage/OneDrive-Personal/KB-subject-1.csv","legacy","3 2 1 4 7","Lentiform Loewenfeld","3.3.12","2","y","0","left","left","left","left","NA","760","11409","25187","760","NA","2","legacy","5","1024","2","48000","-16","experiment","1","odd","2","489288","485992","487051","828","110282","487056","443250","838","85094","491299","492060","488073","12259","491299","NA","Sternberg task","73","57128","75","yes","1024"
"97.36842105263158","97.36842105263158","761.9342105263158","761.9342105263158","black","experiment","legacy","legacy","legacy","0","uniform","1","undefined","1","right","75","75","75","0","0","75","75","0","0","75","75","75","0","75","0","Sat Oct 15 19:04:10 2022","The main experiment item","yes","Sternbergtask.osexp","/Users/keelyn/Library/CloudStorage/OneDrive-Personal","no","mono","no","18","no","white","no","yes","768","legacy","63","11","/Users/keelyn/Library/CloudStorage/OneDrive-Personal/KB-subject-1.csv","legacy","2 3 8 5 6 7","Lentiform Loewenfeld","3.3.12","0","n","0","right","left","left","right","NA","779","11409","25187","779","NA","2","legacy","6","1024","2","48000","-16","experiment","1","odd","1","495361","492065","493127","828","110282","493132","443250","838","85094","497373","498153","494145","12259","497373","NA","Sternberg task","74","57907","76","yes","1024"
"97.40259740259741","97.40259740259741","762.2597402597403","762.2597402597403","black","experiment","legacy","legacy","legacy","0","uniform","1","undefined","1","left","76","76","76","0","0","76","76","0","0","76","76","76","0","76","0","Sat Oct 15 19:04:10 2022","The main experiment item","yes","Sternbergtask.osexp","/Users/keelyn/Library/CloudStorage/OneDrive-Personal","no","mono","no","18","no","white","no","yes","768","legacy","64","11","/Users/keelyn/Library/CloudStorage/OneDrive-Personal/KB-subject-1.csv","legacy","9 1 7 2","Lentiform Loewenfeld","3.3.12","2","y","0","left","left","left","left","NA","787","11409","25187","787","NA","2","legacy","4","1024","2","48000","-16","experiment","1","odd","1","501453","498157","499220","828","110282","499226","443250","838","85094","503469","504257","500238","12259","503469","NA","Sternberg task","75","58694","77","yes","1024"
"97.43589743589743","97.43589743589743","770.4487179487179","770.4487179487179","black","experiment","legacy","legacy","legacy","0","uniform","1","undefined","1","right","77","77","77","0","0","77","77","0","0","77","77","77","0","77","0","Sat Oct 15 19:04:10 2022","The main experiment item","yes","Sternbergtask.osexp","/Users/keelyn/Library/CloudStorage/OneDrive-Personal","no","mono","no","18","no","white","no","yes","768","legacy","65","11","/Users/keelyn/Library/CloudStorage/OneDrive-Personal/KB-subject-1.csv","legacy","1 4 3 6 5","Lentiform Loewenfeld","3.3.12","0","n","0","right","left","left","right","NA","1401","11409","25187","1401","NA","2","legacy","5","1024","2","48000","-16","experiment","1","odd","8","507565","504262","505331","828","110282","505337","443250","838","85094","509575","510977","506350","12259","509575","NA","Sternberg task","76","60095","78","yes","1024"
"97.46835443037975","97.46835443037975","772.3417721518987","772.3417721518987","black","experiment","legacy","legacy","legacy","0","uniform","1","undefined","1","right","78","78","78","0","0","78","78","0","0","78","78","78","0","78","0","Sat Oct 15 19:04:10 2022","The main experiment item","yes","Sternbergtask.osexp","/Users/keelyn/Library/CloudStorage/OneDrive-Personal","no","mono","no","18","no","white","no","yes","768","legacy","66","11","/Users/keelyn/Library/CloudStorage/OneDrive-Personal/KB-subject-1.csv","legacy","2 8 6 3 1","Lentiform Loewenfeld","3.3.12","0","n","0","right","left","left","right","NA","920","11409","25187","920","NA","2","legacy","5","1024","2","48000","-16","experiment","1","odd","7","514277","510982","512044","828","110282","512050","443250","838","85094","516289","517209","513062","12259","516289","NA","Sternberg task","77","61015","79","yes","1024"
"97.5","97.5","773.0375","773.0375","black","experiment","legacy","legacy","legacy","0","uniform","1","undefined","1","right","79","79","79","0","0","79","79","0","0","79","79","79","0","79","0","Sat Oct 15 19:04:10 2022","The main experiment item","yes","Sternbergtask.osexp","/Users/keelyn/Library/CloudStorage/OneDrive-Personal","no","mono","no","18","no","white","no","yes","768","legacy","67","11","/Users/keelyn/Library/CloudStorage/OneDrive-Personal/KB-subject-1.csv","legacy","7 3 2 8","Lentiform Loewenfeld","3.3.12","0","n","0","right","left","left","right","NA","828","11409","25187","828","NA","2","legacy","4","1024","2","48000","-16","experiment","1","odd","4","520512","517215","518276","828","110282","518282","443250","838","85094","522524","523353","519294","12259","522524","NA","Sternberg task","78","61843","80","yes","1024"
"97.53086419753086","97.53086419753086","771.6543209876543","771.6543209876543","black","experiment","legacy","legacy","legacy","0","uniform","1","undefined","1","right","80","80","80","0","0","80","80","0","0","80","80","80","0","80","0","Sat Oct 15 19:04:10 2022","The main experiment item","yes","Sternbergtask.osexp","/Users/keelyn/Library/CloudStorage/OneDrive-Personal","no","mono","no","18","no","white","no","yes","768","legacy","68","11","/Users/keelyn/Library/CloudStorage/OneDrive-Personal/KB-subject-1.csv","legacy","3 9 1","Lentiform Loewenfeld","3.3.12","0","n","0","right","left","left","right","NA","661","11409","25187","661","NA","2","legacy","3","1024","2","48000","-16","experiment","1","odd","7","526656","523358","524417","828","110282","524422","443250","838","85094","528666","529327","525441","12259","528666","NA","Sternberg task","79","62504","81","yes","1024"
"97.5609756097561","97.5609756097561","772.4634146341464","772.4634146341464","black","experiment","legacy","legacy","legacy","0","uniform","1","undefined","1","right","81","81","81","0","0","81","81","0","0","81","81","81","0","81","0","Sat Oct 15 19:04:10 2022","The main experiment item","yes","Sternbergtask.osexp","/Users/keelyn/Library/CloudStorage/OneDrive-Personal","no","mono","no","18","no","white","no","yes","768","legacy","69","11","/Users/keelyn/Library/CloudStorage/OneDrive-Personal/KB-subject-1.csv","legacy","6 2 9 3 8 4","Lentiform Loewenfeld","3.3.12","0","n","0","right","left","left","right","NA","838","11409","25187","838","NA","2","legacy","6","1024","2","48000","-16","experiment","1","odd","1","532625","529332","530391","828","110282","530397","443250","838","85094","534636","535475","531409","12259","534635","NA","Sternberg task","80","63342","82","yes","1024"
"97.59036144578313","97.59036144578313","772","772","black","experiment","legacy","legacy","legacy","0","uniform","1","undefined","1","right","82","82","82","0","0","82","82","0","0","82","82","82","0","82","0","Sat Oct 15 19:04:10 2022","The main experiment item","yes","Sternbergtask.osexp","/Users/keelyn/Library/CloudStorage/OneDrive-Personal","no","mono","no","18","no","white","no","yes","768","legacy","70","11","/Users/keelyn/Library/CloudStorage/OneDrive-Personal/KB-subject-1.csv","legacy","5 2","Lentiform Loewenfeld","3.3.12","0","n","0","right","left","left","right","NA","734","11409","25187","734","NA","2","legacy","2","1024","2","48000","-16","experiment","1","odd","7","538772","535480","536537","828","110282","536543","443250","838","85094","540784","541519","537557","12259","540783","NA","Sternberg task","81","64076","83","yes","1024"
"97.61904761904762","97.61904761904762","771.1428571428571","771.1428571428571","black","experiment","legacy","legacy","legacy","0","uniform","1","undefined","1","right","83","83","83","0","0","83","83","0","0","83","83","83","0","83","0","Sat Oct 15 19:04:10 2022","The main experiment item","yes","Sternbergtask.osexp","/Users/keelyn/Library/CloudStorage/OneDrive-Personal","no","mono","no","18","no","white","no","yes","768","legacy","71","11","/Users/keelyn/Library/CloudStorage/OneDrive-Personal/KB-subject-1.csv","legacy","7 6 4 8 1 2","Lentiform Loewenfeld","3.3.12","0","n","0","right","left","left","right","NA","700","11409","25187","700","NA","2","legacy","6","1024","2","48000","-16","experiment","1","odd","9","544817","541524","542585","828","110282","542590","443250","838","85094","546828","547528","543602","12259","546828","NA","Sternberg task","82","64776","84","yes","1024"
"97.6470588235294","97.6470588235294","769.4588235294118","769.4588235294118","black","experiment","legacy","legacy","legacy","0","uniform","1","undefined","1","right","84","84","84","0","0","84","84","0","0","84","84","84","0","84","0","Sat Oct 15 19:04:10 2022","The main experiment item","yes","Sternbergtask.osexp","/Users/keelyn/Library/CloudStorage/OneDrive-Personal","no","mono","no","18","no","white","no","yes","768","legacy","72","11","/Users/keelyn/Library/CloudStorage/OneDrive-Personal/KB-subject-1.csv","legacy","7 9 1 6","Lentiform Loewenfeld","3.3.12","0","n","0","right","left","left","right","NA","628","11409","25187","628","NA","2","legacy","4","1024","2","48000","-16","experiment","1","odd","4","550829","547533","548595","828","110282","548601","443250","838","85094","552841","553470","549614","12259","552841","NA","Sternberg task","83","65404","85","yes","1024"
"97.67441860465117","97.67441860465117","773.8255813953489","773.8255813953489","black","experiment","legacy","legacy","legacy","0","uniform","1","undefined","1","left","85","85","85","0","0","85","85","0","0","85","85","85","0","85","0","Sat Oct 15 19:04:10 2022","The main experiment item","yes","Sternbergtask.osexp","/Users/keelyn/Library/CloudStorage/OneDrive-Personal","no","mono","no","18","no","white","no","yes","768","legacy","73","11","/Users/keelyn/Library/CloudStorage/OneDrive-Personal/KB-subject-1.csv","legacy","8 5 3 7 4 6","Lentiform Loewenfeld","3.3.12","6","y","0","left","left","left","left","NA","1145","11409","25187","1145","NA","2","legacy","6","1024","2","48000","-16","experiment","1","odd","6","556770","553475","554535","828","110282","554541","443250","838","85094","558782","559928","555554","12259","558782","NA","Sternberg task","84","66549","86","yes","1024"
"97.70114942528735","97.70114942528735","774.5402298850574","774.5402298850574","black","experiment","legacy","legacy","legacy","0","uniform","1","undefined","1","left","86","86","86","0","0","86","86","0","0","86","86","86","0","86","0","Sat Oct 15 19:04:10 2022","The main experiment item","yes","Sternbergtask.osexp","/Users/keelyn/Library/CloudStorage/OneDrive-Personal","no","mono","no","18","no","white","no","yes","768","legacy","74","11","/Users/keelyn/Library/CloudStorage/OneDrive-Personal/KB-subject-1.csv","legacy","9 3 8 2 1 4","Lentiform Loewenfeld","3.3.12","3","y","0","left","left","left","left","NA","836","11409","25187","836","NA","2","legacy","6","1024","2","48000","-16","experiment","1","odd","8","563219","559933","560986","828","110282","560991","443250","838","85094","565231","566068","562004","12259","565231","NA","Sternberg task","85","67385","87","yes","1024"
"97.72727272727273","97.72727272727273","772.5795454545455","772.5795454545455","black","experiment","legacy","legacy","legacy","0","uniform","1","undefined","1","left","87","87","87","0","0","87","87","0","0","87","87","87","0","87","0","Sat Oct 15 19:04:10 2022","The main experiment item","yes","Sternbergtask.osexp","/Users/keelyn/Library/CloudStorage/OneDrive-Personal","no","mono","no","18","no","white","no","yes","768","legacy","75","11","/Users/keelyn/Library/CloudStorage/OneDrive-Personal/KB-subject-1.csv","legacy","8","Lentiform Loewenfeld","3.3.12","1","y","0","left","left","left","left","NA","602","11409","25187","602","NA","2","legacy","1","1024","2","48000","-16","experiment","1","odd","8","569368","566073","567134","828","110282","567140","443250","838","85094","571383","571985","568153","12259","571383","NA","Sternberg task","86","67987","88","yes","1024"
"97.75280898876404","97.75280898876404","773.0786516853933","773.0786516853933","black","experiment","legacy","legacy","legacy","0","uniform","1","undefined","1","left","88","88","88","0","0","88","88","0","0","88","88","88","0","88","0","Sat Oct 15 19:04:10 2022","The main experiment item","yes","Sternbergtask.osexp","/Users/keelyn/Library/CloudStorage/OneDrive-Personal","no","mono","no","18","no","white","no","yes","768","legacy","76","11","/Users/keelyn/Library/CloudStorage/OneDrive-Personal/KB-subject-1.csv","legacy","7 1 3","Lentiform Loewenfeld","3.3.12","2","y","0","left","left","left","left","NA","817","11409","25187","817","NA","2","legacy","3","1024","2","48000","-16","experiment","1","odd","1","575288","571990","573053","828","110282","573059","443250","838","85094","577298","578116","574072","12259","577298","NA","Sternberg task","87","68804","89","yes","1024"
"97.77777777777777","97.77777777777777","771.3444444444444","771.3444444444444","black","experiment","legacy","legacy","legacy","0","uniform","1","undefined","1","right","89","89","89","0","0","89","89","0","0","89","89","89","0","89","0","Sat Oct 15 19:04:10 2022","The main experiment item","yes","Sternbergtask.osexp","/Users/keelyn/Library/CloudStorage/OneDrive-Personal","no","mono","no","18","no","white","no","yes","768","legacy","77","11","/Users/keelyn/Library/CloudStorage/OneDrive-Personal/KB-subject-1.csv","legacy","9","Lentiform Loewenfeld","3.3.12","0","n","0","right","left","left","right","NA","617","11409","25187","617","NA","2","legacy","1","1024","2","48000","-16","experiment","1","odd","6","581420","578121","579182","828","110282","579188","443250","838","85094","583430","584048","580200","12259","583430","NA","Sternberg task","88","69421","90","yes","1024"
"97.8021978021978","97.8021978021978","769.6813186813187","769.6813186813187","black","experiment","legacy","legacy","legacy","0","uniform","1","undefined","1","left","90","90","90","0","0","90","90","0","0","90","90","90","0","90","0","Sat Oct 15 19:04:10 2022","The main experiment item","yes","Sternbergtask.osexp","/Users/keelyn/Library/CloudStorage/OneDrive-Personal","no","mono","no","18","no","white","no","yes","768","legacy","78","11","/Users/keelyn/Library/CloudStorage/OneDrive-Personal/KB-subject-1.csv","legacy","2 3","Lentiform Loewenfeld","3.3.12","1","y","0","left","left","left","left","NA","620","11409","25187","620","NA","2","legacy","2","1024","2","48000","-16","experiment","1","odd","2","587345","584053","585111","828","110282","585116","443250","838","85094","589357","589978","586130","12259","589356","NA","Sternberg task","89","70041","91","yes","1024"
"97.82608695652173","97.82608695652173","770.6739130434783","770.6739130434783","black","experiment","legacy","legacy","legacy","0","uniform","1","undefined","1","right","91","91","91","0","0","91","91","0","0","91","91","91","0","91","0","Sat Oct 15 19:04:10 2022","The main experiment item","yes","Sternbergtask.osexp","/Users/keelyn/Library/CloudStorage/OneDrive-Personal","no","mono","no","18","no","white","no","yes","768","legacy","79","11","/Users/keelyn/Library/CloudStorage/OneDrive-Personal/KB-subject-1.csv","legacy","8 5 4 2 9 6","Lentiform Loewenfeld","3.3.12","0","n","0","right","left","left","right","NA","861","11409","25187","861","NA","2","legacy","6","1024","2","48000","-16","experiment","1","odd","3","593287","589983","591050","828","110282","591056","443250","838","85094","595301","596163","592070","12259","595300","NA","Sternberg task","90","70902","92","yes","1024"
"97.84946236559139","97.84946236559139","771.9354838709677","771.9354838709677","black","experiment","legacy","legacy","legacy","0","uniform","1","undefined","1","right","92","92","92","0","0","92","92","0","0","92","92","92","0","92","0","Sat Oct 15 19:04:10 2022","The main experiment item","yes","Sternbergtask.osexp","/Users/keelyn/Library/CloudStorage/OneDrive-Personal","no","mono","no","18","no","white","no","yes","768","legacy","80","11","/Users/keelyn/Library/CloudStorage/OneDrive-Personal/KB-subject-1.csv","legacy","4 2 7 6 1 3","Lentiform Loewenfeld","3.3.12","0","n","0","right","left","left","right","NA","888","11409","25187","888","NA","2","legacy","6","1024","2","48000","-16","experiment","1","odd","8","599457","596169","597224","828","110282","597229","443250","838","85094","601466","602355","598242","12259","601466","NA","Sternberg task","91","71790","93","yes","1024"
"97.87234042553192","97.87234042553192","771.6595744680851","771.6595744680851","black","experiment","legacy","legacy","legacy","0","uniform","1","undefined","1","right","93","93","93","0","0","93","93","0","0","93","93","93","0","93","0","Sat Oct 15 19:04:10 2022","The main experiment item","yes","Sternbergtask.osexp","/Users/keelyn/Library/CloudStorage/OneDrive-Personal","no","mono","no","18","no","white","no","yes","768","legacy","81","11","/Users/keelyn/Library/CloudStorage/OneDrive-Personal/KB-subject-1.csv","legacy","1","Lentiform Loewenfeld","3.3.12","0","n","0","right","left","left","right","NA","746","11409","25187","746","NA","2","legacy","1","1024","2","48000","-16","experiment","1","odd","7","605653","602359","603417","828","110282","603423","443250","838","85094","607663","608409","604437","12259","607663","NA","Sternberg task","92","72536","94","yes","1024"
"97.89473684210526","97.89473684210526","772.421052631579","772.421052631579","black","experiment","legacy","legacy","legacy","0","uniform","1","undefined","1","left","94","94","94","0","0","94","94","0","0","94","94","94","0","94","0","Sat Oct 15 19:04:10 2022","The main experiment item","yes","Sternbergtask.osexp","/Users/keelyn/Library/CloudStorage/OneDrive-Personal","no","mono","no","18","no","white","no","yes","768","legacy","82","11","/Users/keelyn/Library/CloudStorage/OneDrive-Personal/KB-subject-1.csv","legacy","4 7 6 8 2 3","Lentiform Loewenfeld","3.3.12","6","y","0","left","left","left","left","NA","844","11409","25187","844","NA","2","legacy","6","1024","2","48000","-16","experiment","1","odd","3","611704","608415","609470","828","110282","609475","443250","838","85094","613715","614560","610489","12259","613715","NA","Sternberg task","93","73380","95","yes","1024"
"97.91666666666667","97.91666666666667","774.0729166666666","774.0729166666666","black","experiment","legacy","legacy","legacy","0","uniform","1","undefined","1","left","95","95","95","0","0","95","95","0","0","95","95","95","0","95","0","Sat Oct 15 19:04:10 2022","The main experiment item","yes","Sternbergtask.osexp","/Users/keelyn/Library/CloudStorage/OneDrive-Personal","no","mono","no","18","no","white","no","yes","768","legacy","83","11","/Users/keelyn/Library/CloudStorage/OneDrive-Personal/KB-subject-1.csv","legacy","7 2 3","Lentiform Loewenfeld","3.3.12","3","y","0","left","left","left","left","NA","931","11409","25187","931","NA","2","legacy","3","1024","2","48000","-16","experiment","1","odd","3","617857","614565","615623","828","110282","615629","443250","838","85094","619869","620801","616641","12259","619869","NA","Sternberg task","94","74311","96","yes","1024"
"97.9381443298969","97.9381443298969","772.9587628865979","772.9587628865979","black","experiment","legacy","legacy","legacy","0","uniform","1","undefined","1","left","96","96","96","0","0","96","96","0","0","96","96","96","0","96","0","Sat Oct 15 19:04:10 2022","The main experiment item","yes","Sternbergtask.osexp","/Users/keelyn/Library/CloudStorage/OneDrive-Personal","no","mono","no","18","no","white","no","yes","768","legacy","84","11","/Users/keelyn/Library/CloudStorage/OneDrive-Personal/KB-subject-1.csv","legacy","6 5","Lentiform Loewenfeld","3.3.12","2","y","0","left","left","left","left","NA","666","11409","25187","666","NA","2","legacy","2","1024","2","48000","-16","experiment","1","odd","5","624089","620806","621857","828","110282","621862","443250","838","85094","626098","626765","622874","12259","626098","NA","Sternberg task","95","74977","97","yes","1024"
"97.95918367346938","97.95918367346938","771.9591836734694","771.9591836734694","black","experiment","legacy","legacy","legacy","0","uniform","1","undefined","1","left","97","97","97","0","0","97","97","0","0","97","97","97","0","97","0","Sat Oct 15 19:04:10 2022","The main experiment item","yes","Sternbergtask.osexp","/Users/keelyn/Library/CloudStorage/OneDrive-Personal","no","mono","no","18","no","white","no","yes","768","legacy","85","11","/Users/keelyn/Library/CloudStorage/OneDrive-Personal/KB-subject-1.csv","legacy","3 5 7 1","Lentiform Loewenfeld","3.3.12","3","y","0","left","left","left","left","NA","675","11409","25187","675","NA","2","legacy","4","1024","2","48000","-16","experiment","1","odd","7","630073","626770","627832","828","110282","627838","443250","838","85094","632089","632765","628851","12259","632089","NA","Sternberg task","96","75652","98","yes","1024"
"97.97979797979798","97.97979797979798","773.3131313131313","773.3131313131313","black","experiment","legacy","legacy","legacy","0","uniform","1","undefined","1","right","98","98","98","0","0","98","98","0","0","98","98","98","0","98","0","Sat Oct 15 19:04:10 2022","The main experiment item","yes","Sternbergtask.osexp","/Users/keelyn/Library/CloudStorage/OneDrive-Personal","no","mono","no","18","no","white","no","yes","768","legacy","86","11","/Users/keelyn/Library/CloudStorage/OneDrive-Personal/KB-subject-1.csv","legacy","1 4 9 2 5","Lentiform Loewenfeld","3.3.12","0","n","0","right","left","left","right","NA","906","11409","25187","906","NA","2","legacy","5","1024","2","48000","-16","experiment","1","odd","7","636066","632770","633831","828","110282","633837","443250","838","85094","638075","638982","634852","12259","638075","NA","Sternberg task","97","76558","99","yes","1024"
"98","98","774.04","774.04","black","experiment","legacy","legacy","legacy","0","uniform","1","undefined","1","left","99","99","99","0","0","99","99","0","0","99","99","99","0","99","0","Sat Oct 15 19:04:10 2022","The main experiment item","yes","Sternbergtask.osexp","/Users/keelyn/Library/CloudStorage/OneDrive-Personal","no","mono","no","18","no","white","no","yes","768","legacy","87","11","/Users/keelyn/Library/CloudStorage/OneDrive-Personal/KB-subject-1.csv","legacy","7 8 4 6 9 5","Lentiform Loewenfeld","3.3.12","4","y","0","left","left","left","left","NA","846","11409","25187","846","NA","2","legacy","6","1024","2","48000","-16","experiment","1","odd","6","642280","638987","640048","828","110282","640054","443250","838","85094","644292","645139","641066","12259","644292","NA","Sternberg task","98","77404","100","yes","1024"
"98.01980198019803","98.01980198019803","773.0891089108911","773.0891089108911","black","experiment","legacy","legacy","legacy","0","uniform","1","undefined","1","right","100","100","100","0","0","100","100","0","0","100","100","100","0","100","0","Sat Oct 15 19:04:10 2022","The main experiment item","yes","Sternbergtask.osexp","/Users/keelyn/Library/CloudStorage/OneDrive-Personal","no","mono","no","18","no","white","no","yes","768","legacy","88","11","/Users/keelyn/Library/CloudStorage/OneDrive-Personal/KB-subject-1.csv","legacy","7 1 8 4 9 3","Lentiform Loewenfeld","3.3.12","0","n","0","right","left","left","right","NA","678","11409","25187","678","NA","2","legacy","6","1024","2","48000","-16","experiment","1","odd","6","648437","645144","646204","828","110282","646210","443250","838","85094","650448","651127","647222","12259","650447","NA","Sternberg task","99","78082","101","yes","1024"
"98.03921568627452","98.03921568627452","772.8137254901961","772.8137254901961","black","experiment","legacy","legacy","legacy","0","uniform","1","undefined","1","right","101","101","101","0","0","101","101","0","0","101","101","101","0","101","0","Sat Oct 15 19:04:10 2022","The main experiment item","yes","Sternbergtask.osexp","/Users/keelyn/Library/CloudStorage/OneDrive-Personal","no","mono","no","18","no","white","no","yes","768","legacy","89","11","/Users/keelyn/Library/CloudStorage/OneDrive-Personal/KB-subject-1.csv","legacy","3 9 8 1 6 4","Lentiform Loewenfeld","3.3.12","0","n","0","right","left","left","right","NA","745","11409","25187","745","NA","2","legacy","6","1024","2","48000","-16","experiment","1","odd","7","654418","651132","652183","828","110282","652187","443250","838","85094","656429","657175","653200","12259","656428","NA","Sternberg task","100","78827","102","yes","1024"
"98.05825242718447","98.05825242718447","777.1359223300971","777.1359223300971","black","experiment","legacy","legacy","legacy","0","uniform","1","undefined","1","left","102","102","102","0","0","102","102","0","0","102","102","102","0","102","0","Sat Oct 15 19:04:10 2022","The main experiment item","yes","Sternbergtask.osexp","/Users/keelyn/Library/CloudStorage/OneDrive-Personal","no","mono","no","18","no","white","no","yes","768","legacy","90","11","/Users/keelyn/Library/CloudStorage/OneDrive-Personal/KB-subject-1.csv","legacy","3 4","Lentiform Loewenfeld","3.3.12","1","y","0","left","left","left","left","NA","1218","11409","25187","1218","NA","2","legacy","2","1024","2","48000","-16","experiment","1","odd","3","660472","657180","658236","828","110282","658241","443250","838","85094","662481","663700","659254","12259","662481","NA","Sternberg task","101","80045","103","yes","1024"
"98.07692307692308","98.07692307692308","776.9326923076923","776.9326923076923","black","experiment","legacy","legacy","legacy","0","uniform","1","undefined","1","right","103","103","103","0","0","103","103","0","0","103","103","103","0","103","0","Sat Oct 15 19:04:10 2022","The main experiment item","yes","Sternbergtask.osexp","/Users/keelyn/Library/CloudStorage/OneDrive-Personal","no","mono","no","18","no","white","no","yes","768","legacy","91","11","/Users/keelyn/Library/CloudStorage/OneDrive-Personal/KB-subject-1.csv","legacy","1 3 2 6 9","Lentiform Loewenfeld","3.3.12","0","n","0","right","left","left","right","NA","756","11409","25187","756","NA","2","legacy","5","1024","2","48000","-16","experiment","1","odd","5","667000","663705","664767","828","110282","664772","443250","838","85094","669011","669768","665785","12259","669011","NA","Sternberg task","102","80801","104","yes","1024"
"98.0952380952381","98.0952380952381","780.5619047619048","780.5619047619048","black","experiment","legacy","legacy","legacy","0","uniform","1","undefined","1","left","104","104","104","0","0","104","104","0","0","104","104","104","0","104","0","Sat Oct 15 19:04:10 2022","The main experiment item","yes","Sternbergtask.osexp","/Users/keelyn/Library/CloudStorage/OneDrive-Personal","no","mono","no","18","no","white","no","yes","768","legacy","92","11","/Users/keelyn/Library/CloudStorage/OneDrive-Personal/KB-subject-1.csv","legacy","2 6 1 7 4","Lentiform Loewenfeld","3.3.12","2","y","0","left","left","left","left","NA","1158","11409","25187","1158","NA","2","legacy","5","1024","2","48000","-16","experiment","1","odd","6","673066","669773","670832","828","110282","670838","443250","838","85094","675078","676237","671851","12259","675078","NA","Sternberg task","103","81959","105","yes","1024"
"98.11320754716981","98.11320754716981","781.1415094339623","781.1415094339623","black","experiment","legacy","legacy","legacy","0","uniform","1","undefined","1","left","105","105","105","0","0","105","105","0","0","105","105","105","0","105","0","Sat Oct 15 19:04:10 2022","The main experiment item","yes","Sternbergtask.osexp","/Users/keelyn/Library/CloudStorage/OneDrive-Personal","no","mono","no","18","no","white","no","yes","768","legacy","93","11","/Users/keelyn/Library/CloudStorage/OneDrive-Personal/KB-subject-1.csv","legacy","2 3 7 4","Lentiform Loewenfeld","3.3.12","1","y","0","left","left","left","left","NA","842","11409","25187","842","NA","2","legacy","4","1024","2","48000","-16","experiment","1","odd","2","679540","676242","677307","828","110282","677312","443250","838","85094","681551","682394","678325","12259","681551","NA","Sternberg task","104","82801","106","yes","1024"
"98.13084112149532","98.13084112149532","779.626168224299","779.626168224299","black","experiment","legacy","legacy","legacy","0","uniform","1","undefined","1","right","106","106","106","0","0","106","106","0","0","106","106","106","0","106","0","Sat Oct 15 19:04:10 2022","The main experiment item","yes","Sternbergtask.osexp","/Users/keelyn/Library/CloudStorage/OneDrive-Personal","no","mono","no","18","no","white","no","yes","768","legacy","94","11","/Users/keelyn/Library/CloudStorage/OneDrive-Personal/KB-subject-1.csv","legacy","6 9 5","Lentiform Loewenfeld","3.3.12","0","n","0","right","left","left","right","NA","619","11409","25187","619","NA","2","legacy","3","1024","2","48000","-16","experiment","1","odd","8","685695","682399","683460","828","110282","683465","443250","838","85094","687705","688325","684478","12259","687705","NA","Sternberg task","105","83420","107","yes","1024"
"98.14814814814815","98.14814814814815","780.8425925925926","780.8425925925926","black","experiment","legacy","legacy","legacy","0","uniform","1","undefined","1","left","107","107","107","0","0","107","107","0","0","107","107","107","0","107","0","Sat Oct 15 19:04:10 2022","The main experiment item","yes","Sternbergtask.osexp","/Users/keelyn/Library/CloudStorage/OneDrive-Personal","no","mono","no","18","no","white","no","yes","768","legacy","95","11","/Users/keelyn/Library/CloudStorage/OneDrive-Personal/KB-subject-1.csv","legacy","3 4 9 6 2 9","Lentiform Loewenfeld","3.3.12","5","y","0","left","left","left","left","NA","911","11409","25187","911","NA","2","legacy","6","1024","2","48000","-16","experiment","1","odd","2","691620","688330","689385","828","110282","689391","443250","838","85094","693634","694546","690404","12259","693634","NA","Sternberg task","106","84331","108","yes","1024"
"98.1651376146789","98.1651376146789","783.1284403669724","783.1284403669724","black","experiment","legacy","legacy","legacy","0","uniform","1","undefined","1","left","108","108","108","0","0","108","108","0","0","108","108","108","0","108","0","Sat Oct 15 19:04:10 2022","The main experiment item","yes","Sternbergtask.osexp","/Users/keelyn/Library/CloudStorage/OneDrive-Personal","no","mono","no","18","no","white","no","yes","768","legacy","96","11","/Users/keelyn/Library/CloudStorage/OneDrive-Personal/KB-subject-1.csv","legacy","6 7 8 5","Lentiform Loewenfeld","3.3.12","3","y","0","left","left","left","left","NA","1030","11409","25187","1030","NA","2","legacy","4","1024","2","48000","-16","experiment","1","odd","8","697843","694551","695610","828","110282","695616","443250","838","85094","699855","700886","696628","12259","699855","NA","Sternberg task","107","85361","109","yes","1024"
"98.18181818181819","98.18181818181819","782.5363636363636","782.5363636363636","black","experiment","legacy","legacy","legacy","0","uniform","1","undefined","1","left","109","109","109","0","0","109","109","0","0","109","109","109","0","109","0","Sat Oct 15 19:04:10 2022","The main experiment item","yes","Sternbergtask.osexp","/Users/keelyn/Library/CloudStorage/OneDrive-Personal","no","mono","no","18","no","white","no","yes","768","legacy","97","11","/Users/keelyn/Library/CloudStorage/OneDrive-Personal/KB-subject-1.csv","legacy","6 8 9 3 4 9","Lentiform Loewenfeld","3.3.12","5","y","0","left","left","left","left","NA","718","11409","25187","718","NA","2","legacy","6","1024","2","48000","-16","experiment","1","odd","4","704183","700891","701950","828","110282","701955","443250","838","85094","706195","706914","702968","12259","706195","NA","Sternberg task","108","86079","110","yes","1024"
"98.1981981981982","98.1981981981982","783.5315315315315","783.5315315315315","black","experiment","legacy","legacy","legacy","0","uniform","1","undefined","1","right","110","110","110","0","0","110","110","0","0","110","110","110","0","110","0","Sat Oct 15 19:04:10 2022","The main experiment item","yes","Sternbergtask.osexp","/Users/keelyn/Library/CloudStorage/OneDrive-Personal","no","mono","no","18","no","white","no","yes","768","legacy","98","11","/Users/keelyn/Library/CloudStorage/OneDrive-Personal/KB-subject-1.csv","legacy","7 9","Lentiform Loewenfeld","3.3.12","0","n","0","right","left","left","right","NA","893","11409","25187","893","NA","2","legacy","2","1024","2","48000","-16","experiment","1","odd","1","710215","706919","707981","828","110282","707986","443250","838","85094","712225","713119","709000","12259","712225","NA","Sternberg task","109","86972","111","yes","1024"
"98.21428571428571","98.21428571428571","786.1964285714286","786.1964285714286","black","experiment","legacy","legacy","legacy","0","uniform","1","undefined","1","left","111","111","111","0","0","111","111","0","0","111","111","111","0","111","0","Sat Oct 15 19:04:10 2022","The main experiment item","yes","Sternbergtask.osexp","/Users/keelyn/Library/CloudStorage/OneDrive-Personal","no","mono","no","18","no","white","no","yes","768","legacy","99","11","/Users/keelyn/Library/CloudStorage/OneDrive-Personal/KB-subject-1.csv","legacy","9 4 2","Lentiform Loewenfeld","3.3.12","1","y","0","left","left","left","left","NA","1082","11409","25187","1082","NA","2","legacy","3","1024","2","48000","-16","experiment","1","odd","9","716421","713124","714188","828","110282","714194","443250","838","85094","718433","719516","715206","12259","718433","NA","Sternberg task","110","88054","112","yes","1024"
