"acc","accuracy","average_response_time","avg_rt","background","block","canvas_backend","clock_backend","color_backend","compensation","coordinates","correct","correct_instruction1","correct_keyboard_response","correct_response","count_ISI","count_correctFeedback","count_expLoop","count_expSequence","count_experiment","count_fixation","count_incorrectFeedback","count_instruction1","count_instruction2","count_keyboard_response","count_logger","count_memorySet","count_practiceLoop","count_probe","count_thankYou","datetime","description","disable_garbage_collection","experiment_file","experiment_path","font_bold","font_family","font_italic","font_size","font_underline","foreground","form_clicks","fullscreen","height","keyboard_backend","live_row","live_row_practiceLoop","logfile","mouse_backend","numberSet","opensesame_codename","opensesame_version","posInSet","present","repeat_cycle","response","response_instruction1","response_instruction2","response_keyboard_response","response_thankYou","response_time","response_time_instruction1","response_time_instruction2","response_time_keyboard_response","response_time_thankYou","round_decimals","sampler_backend","setSize","sound_buf_size","sound_channels","sound_freq","sound_sample_size","start","subject_nr","subject_parity","target","time_ISI","time_correctFeedback","time_expLoop","time_expSequence","time_experiment","time_fixation","time_incorrectFeedback","time_instruction1","time_instruction2","time_keyboard_response","time_logger","time_memorySet","time_practiceLoop","time_probe","time_thankYou","title","total_correct","total_response_time","total_responses","uniform_coordinates","width"
"100","100","467","467","black","practice","legacy","legacy","legacy","0","uniform","1","undefined","1","right","0","0","0","0","0","0","0","0","0","0","0","0","0","0","0","Wed Oct 12 13:21:33 2022","The main experiment item","yes","SternbergTask.osexp","C:/Users/Austin/Documents/PSYC 5316/Lab 3","no","mono","no","18","no","white","no","yes","768","legacy","0","0","C:/Users/Austin/Documents/PSYC 5316/Lab 3/AH-subject-1.csv","legacy","2 1","Lentiform Loewenfeld","3.3.12","0","n","0","right","right","NA","right","NA","467","29356","NA","467","NA","2","legacy","2","1024","2","48000","-16","experiment","1","odd","5","36913","NA","NA","34700","4302","34706","NA","4310","NA","38918","39386","35709","33668","38918","NA","Sternberg Task","1","467","1","yes","1024"
"50","50","623.5","623.5","black","practice","legacy","legacy","legacy","0","uniform","0","undefined","0","left","1","1","0","1","0","1","1","0","0","1","1","1","0","1","0","Wed Oct 12 13:21:33 2022","The main experiment item","yes","SternbergTask.osexp","C:/Users/Austin/Documents/PSYC 5316/Lab 3","no","mono","no","18","no","white","no","yes","768","legacy","1","1","C:/Users/Austin/Documents/PSYC 5316/Lab 3/AH-subject-1.csv","legacy","1 7 9 8 5","Lentiform Loewenfeld","3.3.12","4","y","0","right","right","NA","right","NA","780","29356","NA","780","NA","2","legacy","5","1024","2","48000","-16","experiment","1","odd","8","42821","39461","NA","40609","4302","40613","NA","4310","NA","44827","45608","41618","33668","44826","NA","Sternberg Task","1","1247","2","yes","1024"
"66.66666666666667","66.66666666666667","587.6666666666666","587.6666666666666","black","practice","legacy","legacy","legacy","0","uniform","1","undefined","1","left","2","2","0","2","0","2","2","0","0","2","2","2","0","2","0","Wed Oct 12 13:21:33 2022","The main experiment item","yes","SternbergTask.osexp","C:/Users/Austin/Documents/PSYC 5316/Lab 3","no","mono","no","18","no","white","no","yes","768","legacy","2","2","C:/Users/Austin/Documents/PSYC 5316/Lab 3/AH-subject-1.csv","legacy","4 8","Lentiform Loewenfeld","3.3.12","1","y","0","left","right","NA","left","NA","516","29356","NA","516","NA","2","legacy","2","1024","2","48000","-16","experiment","1","odd","4","48996","39461","NA","46782","4302","46787","45615","4310","NA","51000","51517","47792","33668","51000","NA","Sternberg Task","2","1763","3","yes","1024"
"50","50","603","603","black","practice","legacy","legacy","legacy","0","uniform","0","undefined","0","right","3","3","0","3","0","3","3","0","0","3","3","3","0","3","0","Wed Oct 12 13:21:33 2022","The main experiment item","yes","SternbergTask.osexp","C:/Users/Austin/Documents/PSYC 5316/Lab 3","no","mono","no","18","no","white","no","yes","768","legacy","3","3","C:/Users/Austin/Documents/PSYC 5316/Lab 3/AH-subject-1.csv","legacy","5","Lentiform Loewenfeld","3.3.12","0","n","0","left","right","NA","left","NA","649","29356","NA","649","NA","2","legacy","1","1024","2","48000","-16","experiment","1","odd","3","54897","51526","NA","52682","4302","52686","45615","4310","NA","56903","57553","53691","33668","56901","NA","Sternberg Task","2","2412","4","yes","1024"
"60","60","670","670","black","practice","legacy","legacy","legacy","0","uniform","1","undefined","1","right","4","4","0","4","0","4","4","0","0","4","4","4","0","4","0","Wed Oct 12 13:21:33 2022","The main experiment item","yes","SternbergTask.osexp","C:/Users/Austin/Documents/PSYC 5316/Lab 3","no","mono","no","18","no","white","no","yes","768","legacy","4","4","C:/Users/Austin/Documents/PSYC 5316/Lab 3/AH-subject-1.csv","legacy","4 1 5","Lentiform Loewenfeld","3.3.12","0","n","0","right","right","NA","right","NA","938","29356","NA","938","NA","2","legacy","3","1024","2","48000","-16","experiment","1","odd","2","60946","51526","NA","58734","4302","58738","57562","4310","NA","62950","63889","59742","33668","62950","NA","Sternberg Task","3","3350","5","yes","1024"
"66.66666666666667","66.66666666666667","664.1666666666666","664.1666666666666","black","practice","legacy","legacy","legacy","0","uniform","1","undefined","1","left","5","5","0","5","0","5","5","0","0","5","5","5","0","5","0","Wed Oct 12 13:21:33 2022","The main experiment item","yes","SternbergTask.osexp","C:/Users/Austin/Documents/PSYC 5316/Lab 3","no","mono","no","18","no","white","no","yes","768","legacy","5","5","C:/Users/Austin/Documents/PSYC 5316/Lab 3/AH-subject-1.csv","legacy","1 5 2 9","Lentiform Loewenfeld","3.3.12","2","y","0","left","right","NA","left","NA","635","29356","NA","635","NA","2","legacy","4","1024","2","48000","-16","experiment","1","odd","5","67275","63898","NA","65062","4302","65066","57562","4310","NA","69279","69915","66070","33668","69279","NA","Sternberg Task","4","3985","6","yes","1024"
"71.42857142857143","71.42857142857143","656.4285714285714","656.4285714285714","black","practice","legacy","legacy","legacy","0","uniform","1","undefined","1","left","6","6","0","6","0","6","6","0","0","6","6","6","0","6","0","Wed Oct 12 13:21:33 2022","The main experiment item","yes","SternbergTask.osexp","C:/Users/Austin/Documents/PSYC 5316/Lab 3","no","mono","no","18","no","white","no","yes","768","legacy","6","6","C:/Users/Austin/Documents/PSYC 5316/Lab 3/AH-subject-1.csv","legacy","4 3 1 7 9 8","Lentiform Loewenfeld","3.3.12","1","y","0","left","right","NA","left","NA","610","29356","NA","610","NA","2","legacy","6","1024","2","48000","-16","experiment","1","odd","4","73298","69924","NA","71086","4302","71090","57562","4310","NA","75304","75915","72093","33668","75304","NA","Sternberg Task","5","4595","7","yes","1024"
"75","75","686.875","686.875","black","practice","legacy","legacy","legacy","0","uniform","1","undefined","1","right","7","7","0","7","0","7","7","0","0","7","7","7","0","7","0","Wed Oct 12 13:21:33 2022","The main experiment item","yes","SternbergTask.osexp","C:/Users/Austin/Documents/PSYC 5316/Lab 3","no","mono","no","18","no","white","no","yes","768","legacy","7","7","C:/Users/Austin/Documents/PSYC 5316/Lab 3/AH-subject-1.csv","legacy","9 6 7 4 5","Lentiform Loewenfeld","3.3.12","0","n","0","right","right","NA","right","NA","900","29356","NA","900","NA","2","legacy","5","1024","2","48000","-16","experiment","1","odd","3","79288","75924","NA","77076","4302","77080","57562","4310","NA","81292","82193","78084","33668","81292","NA","Sternberg Task","6","5495","8","yes","1024"
"77.77777777777777","77.77777777777777","680.4444444444445","680.4444444444445","black","practice","legacy","legacy","legacy","0","uniform","1","undefined","1","left","8","8","0","8","0","8","8","0","0","8","8","8","0","8","0","Wed Oct 12 13:21:33 2022","The main experiment item","yes","SternbergTask.osexp","C:/Users/Austin/Documents/PSYC 5316/Lab 3","no","mono","no","18","no","white","no","yes","768","legacy","8","8","C:/Users/Austin/Documents/PSYC 5316/Lab 3/AH-subject-1.csv","legacy","6","Lentiform Loewenfeld","3.3.12","1","y","0","left","right","NA","left","NA","629","29356","NA","629","NA","2","legacy","1","1024","2","48000","-16","experiment","1","odd","6","85558","82203","NA","83346","4302","83350","57562","4310","NA","87562","88192","84354","33668","87562","NA","Sternberg Task","7","6124","9","yes","1024"
"80","80","759.3","759.3","black","practice","legacy","legacy","legacy","0","uniform","1","undefined","1","right","9","9","0","9","0","9","9","0","0","9","9","9","0","9","0","Wed Oct 12 13:21:33 2022","The main experiment item","yes","SternbergTask.osexp","C:/Users/Austin/Documents/PSYC 5316/Lab 3","no","mono","no","18","no","white","no","yes","768","legacy","9","9","C:/Users/Austin/Documents/PSYC 5316/Lab 3/AH-subject-1.csv","legacy","3 1 9 4","Lentiform Loewenfeld","3.3.12","0","n","0","right","right","NA","right","NA","1469","29356","NA","1469","NA","2","legacy","4","1024","2","48000","-16","experiment","1","odd","6","91576","88200","NA","89362","4302","89366","57562","4310","NA","93582","95052","90371","33668","93581","NA","Sternberg Task","8","7593","10","yes","1024"
"81.81818181818181","81.81818181818181","773.9090909090909","773.9090909090909","black","practice","legacy","legacy","legacy","0","uniform","1","undefined","1","right","10","10","0","10","0","10","10","0","0","10","10","10","0","10","0","Wed Oct 12 13:21:33 2022","The main experiment item","yes","SternbergTask.osexp","C:/Users/Austin/Documents/PSYC 5316/Lab 3","no","mono","no","18","no","white","no","yes","768","legacy","10","10","C:/Users/Austin/Documents/PSYC 5316/Lab 3/AH-subject-1.csv","legacy","5 7 8 4 1 2","Lentiform Loewenfeld","3.3.12","0","n","0","right","right","NA","right","NA","920","29356","NA","920","NA","2","legacy","6","1024","2","48000","-16","experiment","1","odd","6","98425","95060","NA","96211","4302","96215","57562","4310","NA","100429","101350","97219","33668","100429","NA","Sternberg Task","9","8513","11","yes","1024"
"75","75","803.5833333333334","803.5833333333334","black","practice","legacy","legacy","legacy","0","uniform","0","undefined","0","left","11","11","0","11","0","11","11","0","0","11","11","11","0","11","0","Wed Oct 12 13:21:33 2022","The main experiment item","yes","SternbergTask.osexp","C:/Users/Austin/Documents/PSYC 5316/Lab 3","no","mono","no","18","no","white","no","yes","768","legacy","11","11","C:/Users/Austin/Documents/PSYC 5316/Lab 3/AH-subject-1.csv","legacy","2 9 4","Lentiform Loewenfeld","3.3.12","3","y","0","right","right","NA","right","NA","1130","29356","NA","1130","NA","2","legacy","3","1024","2","48000","-16","experiment","1","odd","4","104737","101358","NA","102525","4302","102529","57562","4310","NA","106741","107872","103532","33668","106741","NA","Sternberg Task","9","9643","12","yes","1024"
"76.92307692307692","76.92307692307692","763.3846153846154","763.3846153846154","black","experiment","legacy","legacy","legacy","0","uniform","1","undefined","1","left","12","12","0","12","0","12","12","0","0","12","12","12","0","12","0","Wed Oct 12 13:21:33 2022","The main experiment item","yes","SternbergTask.osexp","C:/Users/Austin/Documents/PSYC 5316/Lab 3","no","mono","no","18","no","white","no","yes","768","legacy","0","11","C:/Users/Austin/Documents/PSYC 5316/Lab 3/AH-subject-1.csv","legacy","2 4 8 5 1 3","Lentiform Loewenfeld","3.3.12","1","y","0","left","right","right","left","NA","281","29356","4203","281","NA","2","legacy","6","1024","2","48000","-16","experiment","1","odd","2","115523","101358","113170","113311","4302","113315","107880","4310","108966","117527","117809","114319","33668","117526","NA","Sternberg Task","10","9924","13","yes","1024"
"78.57142857142857","78.57142857142857","732.4285714285714","732.4285714285714","black","experiment","legacy","legacy","legacy","0","uniform","1","undefined","1","right","13","13","0","13","0","13","13","0","0","13","13","13","0","13","0","Wed Oct 12 13:21:33 2022","The main experiment item","yes","SternbergTask.osexp","C:/Users/Austin/Documents/PSYC 5316/Lab 3","no","mono","no","18","no","white","no","yes","768","legacy","1","11","C:/Users/Austin/Documents/PSYC 5316/Lab 3/AH-subject-1.csv","legacy","1 5 3 2 8","Lentiform Loewenfeld","3.3.12","0","n","0","right","right","right","right","NA","330","29356","4203","330","NA","2","legacy","5","1024","2","48000","-16","experiment","1","odd","4","121175","117817","113170","118963","4302","118967","107880","4310","108966","123180","123512","119971","33668","123179","NA","Sternberg Task","11","10254","14","yes","1024"
"73.33333333333333","73.33333333333333","704.5333333333333","704.5333333333333","black","experiment","legacy","legacy","legacy","0","uniform","0","undefined","0","left","14","14","0","14","0","14","14","0","0","14","14","14","0","14","0","Wed Oct 12 13:21:33 2022","The main experiment item","yes","SternbergTask.osexp","C:/Users/Austin/Documents/PSYC 5316/Lab 3","no","mono","no","18","no","white","no","yes","768","legacy","2","11","C:/Users/Austin/Documents/PSYC 5316/Lab 3/AH-subject-1.csv","legacy","8 9 5 7 1 6","Lentiform Loewenfeld","3.3.12","4","y","0","right","right","right","right","NA","314","29356","4203","314","NA","2","legacy","6","1024","2","48000","-16","experiment","1","odd","7","126902","123518","113170","124690","4302","124695","107880","4310","108966","128905","129220","125698","33668","128905","NA","Sternberg Task","11","10568","15","yes","1024"
"68.75","68.75","681.1875","681.1875","black","experiment","legacy","legacy","legacy","0","uniform","0","undefined","0","right","15","15","0","15","0","15","15","0","0","15","15","15","0","15","0","Wed Oct 12 13:21:33 2022","The main experiment item","yes","SternbergTask.osexp","C:/Users/Austin/Documents/PSYC 5316/Lab 3","no","mono","no","18","no","white","no","yes","768","legacy","3","11","C:/Users/Austin/Documents/PSYC 5316/Lab 3/AH-subject-1.csv","legacy","6 8","Lentiform Loewenfeld","3.3.12","0","n","0","left","right","right","left","NA","331","29356","4203","331","NA","2","legacy","2","1024","2","48000","-16","experiment","1","odd","9","132607","123518","113170","130396","4302","130400","129229","4310","108966","134612","134944","131403","33668","134612","NA","Sternberg Task","11","10899","16","yes","1024"
"70.58823529411765","70.58823529411765","690.4117647058823","690.4117647058823","black","experiment","legacy","legacy","legacy","0","uniform","1","undefined","1","left","16","16","0","16","0","16","16","0","0","16","16","16","0","16","0","Wed Oct 12 13:21:33 2022","The main experiment item","yes","SternbergTask.osexp","C:/Users/Austin/Documents/PSYC 5316/Lab 3","no","mono","no","18","no","white","no","yes","768","legacy","4","11","C:/Users/Austin/Documents/PSYC 5316/Lab 3/AH-subject-1.csv","legacy","2 6 1 7 4","Lentiform Loewenfeld","3.3.12","2","y","0","left","right","right","left","NA","838","29356","4203","838","NA","2","legacy","5","1024","2","48000","-16","experiment","1","odd","6","138310","123518","113170","136097","4302","136101","134952","4310","108966","140313","141152","137106","33668","140313","NA","Sternberg Task","12","11737","17","yes","1024"
"72.22222222222223","72.22222222222223","687.2222222222222","687.2222222222222","black","experiment","legacy","legacy","legacy","0","uniform","1","undefined","1","right","17","17","0","17","0","17","17","0","0","17","17","17","0","17","0","Wed Oct 12 13:21:33 2022","The main experiment item","yes","SternbergTask.osexp","C:/Users/Austin/Documents/PSYC 5316/Lab 3","no","mono","no","18","no","white","no","yes","768","legacy","5","11","C:/Users/Austin/Documents/PSYC 5316/Lab 3/AH-subject-1.csv","legacy","6 9 4 5 2","Lentiform Loewenfeld","3.3.12","0","n","0","right","right","right","right","NA","633","29356","4203","633","NA","2","legacy","5","1024","2","48000","-16","experiment","1","odd","1","144519","141160","113170","142307","4302","142310","134952","4310","108966","146523","147157","143314","33668","146523","NA","Sternberg Task","13","12370","18","yes","1024"
"73.6842105263158","73.6842105263158","687.8421052631579","687.8421052631579","black","experiment","legacy","legacy","legacy","0","uniform","1","undefined","1","left","18","18","0","18","0","18","18","0","0","18","18","18","0","18","0","Wed Oct 12 13:21:33 2022","The main experiment item","yes","SternbergTask.osexp","C:/Users/Austin/Documents/PSYC 5316/Lab 3","no","mono","no","18","no","white","no","yes","768","legacy","6","11","C:/Users/Austin/Documents/PSYC 5316/Lab 3/AH-subject-1.csv","legacy","8 5 1 3 9","Lentiform Loewenfeld","3.3.12","4","y","0","left","right","right","left","NA","699","29356","4203","699","NA","2","legacy","5","1024","2","48000","-16","experiment","1","odd","3","150550","147166","113170","148336","4302","148340","134952","4310","108966","152555","153255","149345","33668","152554","NA","Sternberg Task","14","13069","19","yes","1024"
"75","75","696","696","black","experiment","legacy","legacy","legacy","0","uniform","1","undefined","1","left","19","19","0","19","0","19","19","0","0","19","19","19","0","19","0","Wed Oct 12 13:21:33 2022","The main experiment item","yes","SternbergTask.osexp","C:/Users/Austin/Documents/PSYC 5316/Lab 3","no","mono","no","18","no","white","no","yes","768","legacy","7","11","C:/Users/Austin/Documents/PSYC 5316/Lab 3/AH-subject-1.csv","legacy","3 2 1 4 7","Lentiform Loewenfeld","3.3.12","2","y","0","left","right","right","left","NA","851","29356","4203","851","NA","2","legacy","5","1024","2","48000","-16","experiment","1","odd","2","156624","153264","113170","154412","4302","154417","134952","4310","108966","158629","159481","155420","33668","158629","NA","Sternberg Task","15","13920","20","yes","1024"
"76.19047619047619","76.19047619047619","693.9047619047619","693.9047619047619","black","experiment","legacy","legacy","legacy","0","uniform","1","undefined","1","right","20","20","0","20","0","20","20","0","0","20","20","20","0","20","0","Wed Oct 12 13:21:33 2022","The main experiment item","yes","SternbergTask.osexp","C:/Users/Austin/Documents/PSYC 5316/Lab 3","no","mono","no","18","no","white","no","yes","768","legacy","8","11","C:/Users/Austin/Documents/PSYC 5316/Lab 3/AH-subject-1.csv","legacy","8 9","Lentiform Loewenfeld","3.3.12","0","n","0","right","right","right","right","NA","652","29356","4203","652","NA","2","legacy","2","1024","2","48000","-16","experiment","1","odd","5","162876","159490","113170","160664","4302","160668","134952","4310","108966","164880","165533","161672","33668","164880","NA","Sternberg Task","16","14572","21","yes","1024"
"72.72727272727273","72.72727272727273","696.5","696.5","black","experiment","legacy","legacy","legacy","0","uniform","0","undefined","0","left","21","21","0","21","0","21","21","0","0","21","21","21","0","21","0","Wed Oct 12 13:21:33 2022","The main experiment item","yes","SternbergTask.osexp","C:/Users/Austin/Documents/PSYC 5316/Lab 3","no","mono","no","18","no","white","no","yes","768","legacy","9","11","C:/Users/Austin/Documents/PSYC 5316/Lab 3/AH-subject-1.csv","legacy","3 9 6 2","Lentiform Loewenfeld","3.3.12","4","y","0","right","right","right","right","NA","751","29356","4203","751","NA","2","legacy","4","1024","2","48000","-16","experiment","1","odd","2","168904","165541","113170","166692","4302","166697","134952","4310","108966","170907","171659","167700","33668","170907","NA","Sternberg Task","16","15323","22","yes","1024"
"73.91304347826087","73.91304347826087","713.8695652173913","713.8695652173913","black","experiment","legacy","legacy","legacy","0","uniform","1","undefined","1","left","22","22","0","22","0","22","22","0","0","22","22","22","0","22","0","Wed Oct 12 13:21:33 2022","The main experiment item","yes","SternbergTask.osexp","C:/Users/Austin/Documents/PSYC 5316/Lab 3","no","mono","no","18","no","white","no","yes","768","legacy","10","11","C:/Users/Austin/Documents/PSYC 5316/Lab 3/AH-subject-1.csv","legacy","9 1 6 7 8","Lentiform Loewenfeld","3.3.12","1","y","0","left","right","right","left","NA","1096","29356","4203","1096","NA","2","legacy","5","1024","2","48000","-16","experiment","1","odd","9","175043","165541","113170","172831","4302","172835","171669","4310","108966","177048","178145","173839","33668","177048","NA","Sternberg Task","17","16419","23","yes","1024"
"75","75","716.4583333333334","716.4583333333334","black","experiment","legacy","legacy","legacy","0","uniform","1","undefined","1","left","23","23","0","23","0","23","23","0","0","23","23","23","0","23","0","Wed Oct 12 13:21:33 2022","The main experiment item","yes","SternbergTask.osexp","C:/Users/Austin/Documents/PSYC 5316/Lab 3","no","mono","no","18","no","white","no","yes","768","legacy","11","11","C:/Users/Austin/Documents/PSYC 5316/Lab 3/AH-subject-1.csv","legacy","8 9 5 6 7","Lentiform Loewenfeld","3.3.12","1","y","0","left","right","right","left","NA","776","29356","4203","776","NA","2","legacy","5","1024","2","48000","-16","experiment","1","odd","8","181527","178153","113170","179315","4302","179318","171669","4310","108966","183532","184310","180322","33668","183532","NA","Sternberg Task","18","17195","24","yes","1024"
"76","76","713.28","713.28","black","experiment","legacy","legacy","legacy","0","uniform","1","undefined","1","right","24","24","0","24","0","24","24","0","0","24","24","24","0","24","0","Wed Oct 12 13:21:33 2022","The main experiment item","yes","SternbergTask.osexp","C:/Users/Austin/Documents/PSYC 5316/Lab 3","no","mono","no","18","no","white","no","yes","768","legacy","12","11","C:/Users/Austin/Documents/PSYC 5316/Lab 3/AH-subject-1.csv","legacy","7 3 2 8","Lentiform Loewenfeld","3.3.12","0","n","0","right","right","right","right","NA","637","29356","4203","637","NA","2","legacy","4","1024","2","48000","-16","experiment","1","odd","4","187677","184318","113170","185464","4302","185468","171669","4310","108966","189682","190320","186472","33668","189682","NA","Sternberg Task","19","17832","25","yes","1024"
"76.92307692307692","76.92307692307692","710.2307692307693","710.2307692307693","black","experiment","legacy","legacy","legacy","0","uniform","1","undefined","1","right","25","25","0","25","0","25","25","0","0","25","25","25","0","25","0","Wed Oct 12 13:21:33 2022","The main experiment item","yes","SternbergTask.osexp","C:/Users/Austin/Documents/PSYC 5316/Lab 3","no","mono","no","18","no","white","no","yes","768","legacy","13","11","C:/Users/Austin/Documents/PSYC 5316/Lab 3/AH-subject-1.csv","legacy","5 9 2 3","Lentiform Loewenfeld","3.3.12","0","n","0","right","right","right","right","NA","634","29356","4203","634","NA","2","legacy","4","1024","2","48000","-16","experiment","1","odd","8","193688","190330","113170","191476","4302","191480","171669","4310","108966","195692","196327","192484","33668","195692","NA","Sternberg Task","20","18466","26","yes","1024"
"77.77777777777777","77.77777777777777","709.925925925926","709.925925925926","black","experiment","legacy","legacy","legacy","0","uniform","1","undefined","1","right","26","26","0","26","0","26","26","0","0","26","26","26","0","26","0","Wed Oct 12 13:21:33 2022","The main experiment item","yes","SternbergTask.osexp","C:/Users/Austin/Documents/PSYC 5316/Lab 3","no","mono","no","18","no","white","no","yes","768","legacy","14","11","C:/Users/Austin/Documents/PSYC 5316/Lab 3/AH-subject-1.csv","legacy","2 8 6 3 1","Lentiform Loewenfeld","3.3.12","0","n","0","right","right","right","right","NA","702","29356","4203","702","NA","2","legacy","5","1024","2","48000","-16","experiment","1","odd","7","199714","196334","113170","197501","4302","197505","171669","4310","108966","201717","202420","198509","33668","201717","NA","Sternberg Task","21","19168","27","yes","1024"
"78.57142857142857","78.57142857142857","703.2142857142857","703.2142857142857","black","experiment","legacy","legacy","legacy","0","uniform","1","undefined","1","left","27","27","0","27","0","27","27","0","0","27","27","27","0","27","0","Wed Oct 12 13:21:33 2022","The main experiment item","yes","SternbergTask.osexp","C:/Users/Austin/Documents/PSYC 5316/Lab 3","no","mono","no","18","no","white","no","yes","768","legacy","15","11","C:/Users/Austin/Documents/PSYC 5316/Lab 3/AH-subject-1.csv","legacy","8 7 3","Lentiform Loewenfeld","3.3.12","1","y","0","left","right","right","left","NA","522","29356","4203","522","NA","2","legacy","3","1024","2","48000","-16","experiment","1","odd","8","205811","202428","113170","203597","4302","203602","171669","4310","108966","207815","208339","204607","33668","207814","NA","Sternberg Task","22","19690","28","yes","1024"
"79.3103448275862","79.3103448275862","700.1379310344828","700.1379310344828","black","experiment","legacy","legacy","legacy","0","uniform","1","undefined","1","right","28","28","0","28","0","28","28","0","0","28","28","28","0","28","0","Wed Oct 12 13:21:33 2022","The main experiment item","yes","SternbergTask.osexp","C:/Users/Austin/Documents/PSYC 5316/Lab 3","no","mono","no","18","no","white","no","yes","768","legacy","16","11","C:/Users/Austin/Documents/PSYC 5316/Lab 3/AH-subject-1.csv","legacy","5 7 3","Lentiform Loewenfeld","3.3.12","0","n","0","right","right","right","right","NA","614","29356","4203","614","NA","2","legacy","3","1024","2","48000","-16","experiment","1","odd","9","211707","208347","113170","209495","4302","209499","171669","4310","108966","213711","214326","210503","33668","213711","NA","Sternberg Task","23","20304","29","yes","1024"
"80","80","703.4333333333333","703.4333333333333","black","experiment","legacy","legacy","legacy","0","uniform","1","undefined","1","right","29","29","0","29","0","29","29","0","0","29","29","29","0","29","0","Wed Oct 12 13:21:33 2022","The main experiment item","yes","SternbergTask.osexp","C:/Users/Austin/Documents/PSYC 5316/Lab 3","no","mono","no","18","no","white","no","yes","768","legacy","17","11","C:/Users/Austin/Documents/PSYC 5316/Lab 3/AH-subject-1.csv","legacy","8 4 3 9","Lentiform Loewenfeld","3.3.12","0","n","0","right","right","right","right","NA","799","29356","4203","799","NA","2","legacy","4","1024","2","48000","-16","experiment","1","odd","5","217715","214335","113170","215503","4302","215507","171669","4310","108966","219719","220519","216511","33668","219719","NA","Sternberg Task","24","21103","30","yes","1024"
"77.41935483870968","77.41935483870968","701.5483870967741","701.5483870967741","black","experiment","legacy","legacy","legacy","0","uniform","0","undefined","0","right","30","30","0","30","0","30","30","0","0","30","30","30","0","30","0","Wed Oct 12 13:21:33 2022","The main experiment item","yes","SternbergTask.osexp","C:/Users/Austin/Documents/PSYC 5316/Lab 3","no","mono","no","18","no","white","no","yes","768","legacy","18","11","C:/Users/Austin/Documents/PSYC 5316/Lab 3/AH-subject-1.csv","legacy","1 4 9 3","Lentiform Loewenfeld","3.3.12","0","n","0","left","right","right","left","NA","645","29356","4203","645","NA","2","legacy","4","1024","2","48000","-16","experiment","1","odd","5","223915","220528","113170","221703","4302","221708","171669","4310","108966","225918","226564","222711","33668","225918","NA","Sternberg Task","24","21748","31","yes","1024"
"78.125","78.125","701.46875","701.46875","black","experiment","legacy","legacy","legacy","0","uniform","1","undefined","1","left","31","31","0","31","0","31","31","0","0","31","31","31","0","31","0","Wed Oct 12 13:21:33 2022","The main experiment item","yes","SternbergTask.osexp","C:/Users/Austin/Documents/PSYC 5316/Lab 3","no","mono","no","18","no","white","no","yes","768","legacy","19","11","C:/Users/Austin/Documents/PSYC 5316/Lab 3/AH-subject-1.csv","legacy","6 8 9 3 4 9","Lentiform Loewenfeld","3.3.12","5","y","0","left","right","right","left","NA","699","29356","4203","699","NA","2","legacy","6","1024","2","48000","-16","experiment","1","odd","4","229933","220528","113170","227721","4302","227725","226573","4310","108966","231938","232638","228729","33668","231937","NA","Sternberg Task","25","22447","32","yes","1024"
"78.78787878787878","78.78787878787878","696.3333333333334","696.3333333333334","black","experiment","legacy","legacy","legacy","0","uniform","1","undefined","1","left","32","32","0","32","0","32","32","0","0","32","32","32","0","32","0","Wed Oct 12 13:21:33 2022","The main experiment item","yes","SternbergTask.osexp","C:/Users/Austin/Documents/PSYC 5316/Lab 3","no","mono","no","18","no","white","no","yes","768","legacy","20","11","C:/Users/Austin/Documents/PSYC 5316/Lab 3/AH-subject-1.csv","legacy","2 3","Lentiform Loewenfeld","3.3.12","1","y","0","left","right","right","left","NA","532","29356","4203","532","NA","2","legacy","2","1024","2","48000","-16","experiment","1","odd","2","236020","232646","113170","233808","4302","233812","226573","4310","108966","238023","238556","234816","33668","238023","NA","Sternberg Task","26","22979","33","yes","1024"
"79.41176470588235","79.41176470588235","691.8235294117648","691.8235294117648","black","experiment","legacy","legacy","legacy","0","uniform","1","undefined","1","left","33","33","0","33","0","33","33","0","0","33","33","33","0","33","0","Wed Oct 12 13:21:33 2022","The main experiment item","yes","SternbergTask.osexp","C:/Users/Austin/Documents/PSYC 5316/Lab 3","no","mono","no","18","no","white","no","yes","768","legacy","21","11","C:/Users/Austin/Documents/PSYC 5316/Lab 3/AH-subject-1.csv","legacy","7 8 6 3 1","Lentiform Loewenfeld","3.3.12","5","y","0","left","right","right","left","NA","543","29356","4203","543","NA","2","legacy","5","1024","2","48000","-16","experiment","1","odd","1","241930","238565","113170","239718","4302","239722","226573","4310","108966","243933","244477","240726","33668","243933","NA","Sternberg Task","27","23522","34","yes","1024"
"80","80","709.8857142857142","709.8857142857142","black","experiment","legacy","legacy","legacy","0","uniform","1","undefined","1","left","34","34","0","34","0","34","34","0","0","34","34","34","0","34","0","Wed Oct 12 13:21:33 2022","The main experiment item","yes","SternbergTask.osexp","C:/Users/Austin/Documents/PSYC 5316/Lab 3","no","mono","no","18","no","white","no","yes","768","legacy","22","11","C:/Users/Austin/Documents/PSYC 5316/Lab 3/AH-subject-1.csv","legacy","3 5 7 1","Lentiform Loewenfeld","3.3.12","3","y","0","left","right","right","left","NA","1324","29356","4203","1324","NA","2","legacy","4","1024","2","48000","-16","experiment","1","odd","7","247869","244485","113170","245657","4302","245660","226573","4310","108966","249874","251199","246665","33668","249874","NA","Sternberg Task","28","24846","35","yes","1024"
"77.77777777777777","77.77777777777777","709.7222222222222","709.7222222222222","black","experiment","legacy","legacy","legacy","0","uniform","0","undefined","0","right","35","35","0","35","0","35","35","0","0","35","35","35","0","35","0","Wed Oct 12 13:21:33 2022","The main experiment item","yes","SternbergTask.osexp","C:/Users/Austin/Documents/PSYC 5316/Lab 3","no","mono","no","18","no","white","no","yes","768","legacy","23","11","C:/Users/Austin/Documents/PSYC 5316/Lab 3/AH-subject-1.csv","legacy","9","Lentiform Loewenfeld","3.3.12","0","n","0","left","right","right","left","NA","704","29356","4203","704","NA","2","legacy","1","1024","2","48000","-16","experiment","1","odd","6","254587","251209","113170","252375","4302","252379","226573","4310","108966","256590","257295","253382","33668","256590","NA","Sternberg Task","28","25550","36","yes","1024"
"78.37837837837837","78.37837837837837","705.0540540540541","705.0540540540541","black","experiment","legacy","legacy","legacy","0","uniform","1","undefined","1","left","36","36","0","36","0","36","36","0","0","36","36","36","0","36","0","Wed Oct 12 13:21:33 2022","The main experiment item","yes","SternbergTask.osexp","C:/Users/Austin/Documents/PSYC 5316/Lab 3","no","mono","no","18","no","white","no","yes","768","legacy","24","11","C:/Users/Austin/Documents/PSYC 5316/Lab 3/AH-subject-1.csv","legacy","9 1 7 2","Lentiform Loewenfeld","3.3.12","2","y","0","left","right","right","left","NA","537","29356","4203","537","NA","2","legacy","4","1024","2","48000","-16","experiment","1","odd","1","260661","251209","113170","258449","4302","258453","257302","4310","108966","262665","263204","259456","33668","262665","NA","Sternberg Task","29","26087","37","yes","1024"
"78.94736842105263","78.94736842105263","702.8684210526316","702.8684210526316","black","experiment","legacy","legacy","legacy","0","uniform","1","undefined","1","left","37","37","0","37","0","37","37","0","0","37","37","37","0","37","0","Wed Oct 12 13:21:33 2022","The main experiment item","yes","SternbergTask.osexp","C:/Users/Austin/Documents/PSYC 5316/Lab 3","no","mono","no","18","no","white","no","yes","768","legacy","25","11","C:/Users/Austin/Documents/PSYC 5316/Lab 3/AH-subject-1.csv","legacy","3 9 7 6 4","Lentiform Loewenfeld","3.3.12","3","y","0","left","right","right","left","NA","622","29356","4203","622","NA","2","legacy","5","1024","2","48000","-16","experiment","1","odd","7","266569","263212","113170","264358","4302","264362","257302","4310","108966","268574","269197","265365","33668","268573","NA","Sternberg Task","30","26709","38","yes","1024"
"79.48717948717949","79.48717948717949","695.6666666666666","695.6666666666666","black","experiment","legacy","legacy","legacy","0","uniform","1","undefined","1","left","38","38","0","38","0","38","38","0","0","38","38","38","0","38","0","Wed Oct 12 13:21:33 2022","The main experiment item","yes","SternbergTask.osexp","C:/Users/Austin/Documents/PSYC 5316/Lab 3","no","mono","no","18","no","white","no","yes","768","legacy","26","11","C:/Users/Austin/Documents/PSYC 5316/Lab 3/AH-subject-1.csv","legacy","5 2 6","Lentiform Loewenfeld","3.3.12","2","y","0","left","right","right","left","NA","422","29356","4203","422","NA","2","legacy","3","1024","2","48000","-16","experiment","1","odd","2","272586","269206","113170","270373","4302","270377","257302","4310","108966","274590","275014","271381","33668","274590","NA","Sternberg Task","31","27131","39","yes","1024"
"80","80","689.85","689.85","black","experiment","legacy","legacy","legacy","0","uniform","1","undefined","1","left","39","39","0","39","0","39","39","0","0","39","39","39","0","39","0","Wed Oct 12 13:21:33 2022","The main experiment item","yes","SternbergTask.osexp","C:/Users/Austin/Documents/PSYC 5316/Lab 3","no","mono","no","18","no","white","no","yes","768","legacy","27","11","C:/Users/Austin/Documents/PSYC 5316/Lab 3/AH-subject-1.csv","legacy","5 2 9 6 1 7","Lentiform Loewenfeld","3.3.12","3","y","0","left","right","right","left","NA","463","29356","4203","463","NA","2","legacy","6","1024","2","48000","-16","experiment","1","odd","9","278401","275023","113170","276190","4302","276194","257302","4310","108966","280407","280872","277198","33668","280406","NA","Sternberg Task","32","27594","40","yes","1024"
"78.04878048780488","78.04878048780488","684.5365853658536","684.5365853658536","black","experiment","legacy","legacy","legacy","0","uniform","0","undefined","0","right","40","40","0","40","0","40","40","0","0","40","40","40","0","40","0","Wed Oct 12 13:21:33 2022","The main experiment item","yes","SternbergTask.osexp","C:/Users/Austin/Documents/PSYC 5316/Lab 3","no","mono","no","18","no","white","no","yes","768","legacy","28","11","C:/Users/Austin/Documents/PSYC 5316/Lab 3/AH-subject-1.csv","legacy","2 8 9 4 1","Lentiform Loewenfeld","3.3.12","0","n","0","left","right","right","left","NA","472","29356","4203","472","NA","2","legacy","5","1024","2","48000","-16","experiment","1","odd","5","284246","280881","113170","282033","4302","282037","257302","4310","108966","286250","286723","283041","33668","286249","NA","Sternberg Task","32","28066","41","yes","1024"
"78.57142857142857","78.57142857142857","682.952380952381","682.952380952381","black","experiment","legacy","legacy","legacy","0","uniform","1","undefined","1","right","41","41","0","41","0","41","41","0","0","41","41","41","0","41","0","Wed Oct 12 13:21:33 2022","The main experiment item","yes","SternbergTask.osexp","C:/Users/Austin/Documents/PSYC 5316/Lab 3","no","mono","no","18","no","white","no","yes","768","legacy","29","11","C:/Users/Austin/Documents/PSYC 5316/Lab 3/AH-subject-1.csv","legacy","1 6 4","Lentiform Loewenfeld","3.3.12","0","n","0","right","right","right","right","NA","618","29356","4203","618","NA","2","legacy","3","1024","2","48000","-16","experiment","1","odd","7","290090","280881","113170","287879","4302","287883","286733","4310","108966","292096","292715","288886","33668","292096","NA","Sternberg Task","33","28684","42","yes","1024"
"79.06976744186046","79.06976744186046","679.9069767441861","679.9069767441861","black","experiment","legacy","legacy","legacy","0","uniform","1","undefined","1","left","42","42","0","42","0","42","42","0","0","42","42","42","0","42","0","Wed Oct 12 13:21:33 2022","The main experiment item","yes","SternbergTask.osexp","C:/Users/Austin/Documents/PSYC 5316/Lab 3","no","mono","no","18","no","white","no","yes","768","legacy","30","11","C:/Users/Austin/Documents/PSYC 5316/Lab 3/AH-subject-1.csv","legacy","7 6","Lentiform Loewenfeld","3.3.12","2","y","0","left","right","right","left","NA","552","29356","4203","552","NA","2","legacy","2","1024","2","48000","-16","experiment","1","odd","6","296099","292724","113170","293886","4302","293890","286733","4310","108966","298103","298656","294895","33668","298103","NA","Sternberg Task","34","29236","43","yes","1024"
"79.54545454545455","79.54545454545455","678.3181818181819","678.3181818181819","black","experiment","legacy","legacy","legacy","0","uniform","1","undefined","1","left","43","43","0","43","0","43","43","0","0","43","43","43","0","43","0","Wed Oct 12 13:21:33 2022","The main experiment item","yes","SternbergTask.osexp","C:/Users/Austin/Documents/PSYC 5316/Lab 3","no","mono","no","18","no","white","no","yes","768","legacy","31","11","C:/Users/Austin/Documents/PSYC 5316/Lab 3/AH-subject-1.csv","legacy","9 5 3 8 4","Lentiform Loewenfeld","3.3.12","1","y","0","left","right","right","left","NA","610","29356","4203","610","NA","2","legacy","5","1024","2","48000","-16","experiment","1","odd","9","302050","298665","113170","299837","4302","299841","286733","4310","108966","304056","304667","300845","33668","304055","NA","Sternberg Task","35","29846","44","yes","1024"
"80","80","679.1555555555556","679.1555555555556","black","experiment","legacy","legacy","legacy","0","uniform","1","undefined","1","right","44","44","0","44","0","44","44","0","0","44","44","44","0","44","0","Wed Oct 12 13:21:33 2022","The main experiment item","yes","SternbergTask.osexp","C:/Users/Austin/Documents/PSYC 5316/Lab 3","no","mono","no","18","no","white","no","yes","768","legacy","32","11","C:/Users/Austin/Documents/PSYC 5316/Lab 3/AH-subject-1.csv","legacy","7 1 8 4 9 3","Lentiform Loewenfeld","3.3.12","0","n","0","right","right","right","right","NA","716","29356","4203","716","NA","2","legacy","6","1024","2","48000","-16","experiment","1","odd","6","308055","304676","113170","305843","4302","305847","286733","4310","108966","310059","310776","306851","33668","310059","NA","Sternberg Task","36","30562","45","yes","1024"
"80.43478260869566","80.43478260869566","673.6304347826087","673.6304347826087","black","experiment","legacy","legacy","legacy","0","uniform","1","undefined","1","left","45","45","0","45","0","45","45","0","0","45","45","45","0","45","0","Wed Oct 12 13:21:33 2022","The main experiment item","yes","SternbergTask.osexp","C:/Users/Austin/Documents/PSYC 5316/Lab 3","no","mono","no","18","no","white","no","yes","768","legacy","33","11","C:/Users/Austin/Documents/PSYC 5316/Lab 3/AH-subject-1.csv","legacy","6 1 2","Lentiform Loewenfeld","3.3.12","3","y","0","left","right","right","left","NA","425","29356","4203","425","NA","2","legacy","3","1024","2","48000","-16","experiment","1","odd","2","314162","310786","113170","311950","4302","311953","286733","4310","108966","316167","316594","312958","33668","316166","NA","Sternberg Task","37","30987","46","yes","1024"
"80.85106382978724","80.85106382978724","672.063829787234","672.063829787234","black","experiment","legacy","legacy","legacy","0","uniform","1","undefined","1","right","46","46","0","46","0","46","46","0","0","46","46","46","0","46","0","Wed Oct 12 13:21:33 2022","The main experiment item","yes","SternbergTask.osexp","C:/Users/Austin/Documents/PSYC 5316/Lab 3","no","mono","no","18","no","white","no","yes","768","legacy","34","11","C:/Users/Austin/Documents/PSYC 5316/Lab 3/AH-subject-1.csv","legacy","6 9 7 3 8 2","Lentiform Loewenfeld","3.3.12","0","n","0","right","right","right","right","NA","600","29356","4203","600","NA","2","legacy","6","1024","2","48000","-16","experiment","1","odd","5","319982","316602","113170","317771","4302","317775","286733","4310","108966","321985","322587","318778","33668","321985","NA","Sternberg Task","38","31587","47","yes","1024"
"81.25","81.25","672","672","black","experiment","legacy","legacy","legacy","0","uniform","1","undefined","1","left","47","47","0","47","0","47","47","0","0","47","47","47","0","47","0","Wed Oct 12 13:21:33 2022","The main experiment item","yes","SternbergTask.osexp","C:/Users/Austin/Documents/PSYC 5316/Lab 3","no","mono","no","18","no","white","no","yes","768","legacy","35","11","C:/Users/Austin/Documents/PSYC 5316/Lab 3/AH-subject-1.csv","legacy","7 1 3","Lentiform Loewenfeld","3.3.12","2","y","0","left","right","right","left","NA","669","29356","4203","669","NA","2","legacy","3","1024","2","48000","-16","experiment","1","odd","1","325968","322596","113170","323753","4302","323757","286733","4310","108966","327971","328641","324762","33668","327971","NA","Sternberg Task","39","32256","48","yes","1024"
"81.63265306122449","81.63265306122449","668.2857142857143","668.2857142857143","black","experiment","legacy","legacy","legacy","0","uniform","1","undefined","1","right","48","48","0","48","0","48","48","0","0","48","48","48","0","48","0","Wed Oct 12 13:21:33 2022","The main experiment item","yes","SternbergTask.osexp","C:/Users/Austin/Documents/PSYC 5316/Lab 3","no","mono","no","18","no","white","no","yes","768","legacy","36","11","C:/Users/Austin/Documents/PSYC 5316/Lab 3/AH-subject-1.csv","legacy","1","Lentiform Loewenfeld","3.3.12","0","n","0","right","right","right","right","NA","490","29356","4203","490","NA","2","legacy","1","1024","2","48000","-16","experiment","1","odd","7","332031","328650","113170","329818","4302","329822","286733","4310","108966","334034","334525","330827","33668","334034","NA","Sternberg Task","40","32746","49","yes","1024"
"82","82","667.62","667.62","black","experiment","legacy","legacy","legacy","0","uniform","1","undefined","1","right","49","49","0","49","0","49","49","0","0","49","49","49","0","49","0","Wed Oct 12 13:21:33 2022","The main experiment item","yes","SternbergTask.osexp","C:/Users/Austin/Documents/PSYC 5316/Lab 3","no","mono","no","18","no","white","no","yes","768","legacy","37","11","C:/Users/Austin/Documents/PSYC 5316/Lab 3/AH-subject-1.csv","legacy","2 8 7 9 5 3","Lentiform Loewenfeld","3.3.12","0","n","0","right","right","right","right","NA","635","29356","4203","635","NA","2","legacy","6","1024","2","48000","-16","experiment","1","odd","6","337901","334534","113170","335690","4302","335694","286733","4310","108966","339905","340541","336697","33668","339905","NA","Sternberg Task","41","33381","50","yes","1024"
"82.3529411764706","82.3529411764706","666.4705882352941","666.4705882352941","black","experiment","legacy","legacy","legacy","0","uniform","1","undefined","1","left","50","50","0","50","0","50","50","0","0","50","50","50","0","50","0","Wed Oct 12 13:21:33 2022","The main experiment item","yes","SternbergTask.osexp","C:/Users/Austin/Documents/PSYC 5316/Lab 3","no","mono","no","18","no","white","no","yes","768","legacy","38","11","C:/Users/Austin/Documents/PSYC 5316/Lab 3/AH-subject-1.csv","legacy","8 1 6","Lentiform Loewenfeld","3.3.12","3","y","0","left","right","right","left","NA","609","29356","4203","609","NA","2","legacy","3","1024","2","48000","-16","experiment","1","odd","6","343913","340550","113170","341700","4302","341704","286733","4310","108966","345917","346528","342709","33668","345917","NA","Sternberg Task","42","33990","51","yes","1024"
"82.6923076923077","82.6923076923077","663.3076923076923","663.3076923076923","black","experiment","legacy","legacy","legacy","0","uniform","1","undefined","1","right","51","51","0","51","0","51","51","0","0","51","51","51","0","51","0","Wed Oct 12 13:21:33 2022","The main experiment item","yes","SternbergTask.osexp","C:/Users/Austin/Documents/PSYC 5316/Lab 3","no","mono","no","18","no","white","no","yes","768","legacy","39","11","C:/Users/Austin/Documents/PSYC 5316/Lab 3/AH-subject-1.csv","legacy","6 9 4 5 3 2","Lentiform Loewenfeld","3.3.12","0","n","0","right","right","right","right","NA","502","29356","4203","502","NA","2","legacy","6","1024","2","48000","-16","experiment","1","odd","8","349900","346537","113170","347686","4302","347691","286733","4310","108966","351906","352409","348697","33668","351906","NA","Sternberg Task","43","34492","52","yes","1024"
"83.01886792452831","83.01886792452831","665.377358490566","665.377358490566","black","experiment","legacy","legacy","legacy","0","uniform","1","undefined","1","left","52","52","0","52","0","52","52","0","0","52","52","52","0","52","0","Wed Oct 12 13:21:33 2022","The main experiment item","yes","SternbergTask.osexp","C:/Users/Austin/Documents/PSYC 5316/Lab 3","no","mono","no","18","no","white","no","yes","768","legacy","40","11","C:/Users/Austin/Documents/PSYC 5316/Lab 3/AH-subject-1.csv","legacy","3 5 4 7","Lentiform Loewenfeld","3.3.12","1","y","0","left","right","right","left","NA","773","29356","4203","773","NA","2","legacy","4","1024","2","48000","-16","experiment","1","odd","3","355795","352418","113170","353584","4302","353588","286733","4310","108966","357800","358574","354591","33668","357800","NA","Sternberg Task","44","35265","53","yes","1024"
"81.48148148148148","81.48148148148148","666.8703703703703","666.8703703703703","black","experiment","legacy","legacy","legacy","0","uniform","0","undefined","0","left","53","53","0","53","0","53","53","0","0","53","53","53","0","53","0","Wed Oct 12 13:21:33 2022","The main experiment item","yes","SternbergTask.osexp","C:/Users/Austin/Documents/PSYC 5316/Lab 3","no","mono","no","18","no","white","no","yes","768","legacy","41","11","C:/Users/Austin/Documents/PSYC 5316/Lab 3/AH-subject-1.csv","legacy","6 9 3 1","Lentiform Loewenfeld","3.3.12","4","y","0","right","right","right","right","NA","746","29356","4203","746","NA","2","legacy","4","1024","2","48000","-16","experiment","1","odd","1","361969","358583","113170","359757","4302","359761","286733","4310","108966","363972","364719","360764","33668","363972","NA","Sternberg Task","44","36011","54","yes","1024"
"81.81818181818181","81.81818181818181","668.8","668.8","black","experiment","legacy","legacy","legacy","0","uniform","1","undefined","1","left","54","54","0","54","0","54","54","0","0","54","54","54","0","54","0","Wed Oct 12 13:21:33 2022","The main experiment item","yes","SternbergTask.osexp","C:/Users/Austin/Documents/PSYC 5316/Lab 3","no","mono","no","18","no","white","no","yes","768","legacy","42","11","C:/Users/Austin/Documents/PSYC 5316/Lab 3/AH-subject-1.csv","legacy","9 4 2","Lentiform Loewenfeld","3.3.12","1","y","0","left","right","right","left","NA","773","29356","4203","773","NA","2","legacy","3","1024","2","48000","-16","experiment","1","odd","9","368103","358583","113170","365891","4302","365895","364728","4310","108966","370108","370883","366899","33668","370108","NA","Sternberg Task","45","36784","55","yes","1024"
"82.14285714285714","82.14285714285714","667.125","667.125","black","experiment","legacy","legacy","legacy","0","uniform","1","undefined","1","left","55","55","0","55","0","55","55","0","0","55","55","55","0","55","0","Wed Oct 12 13:21:33 2022","The main experiment item","yes","SternbergTask.osexp","C:/Users/Austin/Documents/PSYC 5316/Lab 3","no","mono","no","18","no","white","no","yes","768","legacy","43","11","C:/Users/Austin/Documents/PSYC 5316/Lab 3/AH-subject-1.csv","legacy","9 5 8 1","Lentiform Loewenfeld","3.3.12","2","y","0","left","right","right","left","NA","575","29356","4203","575","NA","2","legacy","4","1024","2","48000","-16","experiment","1","odd","5","374263","370892","113170","372052","4302","372056","364728","4310","108966","376268","376845","373059","33668","376267","NA","Sternberg Task","46","37359","56","yes","1024"
"82.45614035087719","82.45614035087719","666.0877192982456","666.0877192982456","black","experiment","legacy","legacy","legacy","0","uniform","1","undefined","1","right","56","56","0","56","0","56","56","0","0","56","56","56","0","56","0","Wed Oct 12 13:21:33 2022","The main experiment item","yes","SternbergTask.osexp","C:/Users/Austin/Documents/PSYC 5316/Lab 3","no","mono","no","18","no","white","no","yes","768","legacy","44","11","C:/Users/Austin/Documents/PSYC 5316/Lab 3/AH-subject-1.csv","legacy","2 8 9","Lentiform Loewenfeld","3.3.12","0","n","0","right","right","right","right","NA","608","29356","4203","608","NA","2","legacy","3","1024","2","48000","-16","experiment","1","odd","6","380216","376852","113170","378002","4302","378006","364728","4310","108966","382219","382829","379011","33668","382219","NA","Sternberg Task","47","37967","57","yes","1024"
"82.75862068965517","82.75862068965517","665.6206896551724","665.6206896551724","black","experiment","legacy","legacy","legacy","0","uniform","1","undefined","1","right","57","57","0","57","0","57","57","0","0","57","57","57","0","57","0","Wed Oct 12 13:21:33 2022","The main experiment item","yes","SternbergTask.osexp","C:/Users/Austin/Documents/PSYC 5316/Lab 3","no","mono","no","18","no","white","no","yes","768","legacy","45","11","C:/Users/Austin/Documents/PSYC 5316/Lab 3/AH-subject-1.csv","legacy","2 3 8 5 6 7","Lentiform Loewenfeld","3.3.12","0","n","0","right","right","right","right","NA","639","29356","4203","639","NA","2","legacy","6","1024","2","48000","-16","experiment","1","odd","1","386209","382839","113170","383997","4302","384001","364728","4310","108966","388214","388855","385006","33668","388213","NA","Sternberg Task","48","38606","58","yes","1024"
"83.05084745762711","83.05084745762711","664.8813559322034","664.8813559322034","black","experiment","legacy","legacy","legacy","0","uniform","1","undefined","1","right","58","58","0","58","0","58","58","0","0","58","58","58","0","58","0","Wed Oct 12 13:21:33 2022","The main experiment item","yes","SternbergTask.osexp","C:/Users/Austin/Documents/PSYC 5316/Lab 3","no","mono","no","18","no","white","no","yes","768","legacy","46","11","C:/Users/Austin/Documents/PSYC 5316/Lab 3/AH-subject-1.csv","legacy","3 4 2","Lentiform Loewenfeld","3.3.12","0","n","0","right","right","right","right","NA","622","29356","4203","622","NA","2","legacy","3","1024","2","48000","-16","experiment","1","odd","5","392223","388864","113170","390010","4302","390014","364728","4310","108966","394226","394850","391018","33668","394226","NA","Sternberg Task","49","39228","59","yes","1024"
"83.33333333333333","83.33333333333333","661.75","661.75","black","experiment","legacy","legacy","legacy","0","uniform","1","undefined","1","left","59","59","0","59","0","59","59","0","0","59","59","59","0","59","0","Wed Oct 12 13:21:33 2022","The main experiment item","yes","SternbergTask.osexp","C:/Users/Austin/Documents/PSYC 5316/Lab 3","no","mono","no","18","no","white","no","yes","768","legacy","47","11","C:/Users/Austin/Documents/PSYC 5316/Lab 3/AH-subject-1.csv","legacy","4 1 5","Lentiform Loewenfeld","3.3.12","2","y","0","left","right","right","left","NA","477","29356","4203","477","NA","2","legacy","3","1024","2","48000","-16","experiment","1","odd","1","398217","394858","113170","396005","4302","396009","364728","4310","108966","400222","400702","397013","33668","400222","NA","Sternberg Task","50","39705","60","yes","1024"
"83.60655737704919","83.60655737704919","660.4426229508197","660.4426229508197","black","experiment","legacy","legacy","legacy","0","uniform","1","undefined","1","right","60","60","0","60","0","60","60","0","0","60","60","60","0","60","0","Wed Oct 12 13:21:33 2022","The main experiment item","yes","SternbergTask.osexp","C:/Users/Austin/Documents/PSYC 5316/Lab 3","no","mono","no","18","no","white","no","yes","768","legacy","48","11","C:/Users/Austin/Documents/PSYC 5316/Lab 3/AH-subject-1.csv","legacy","3 9 1","Lentiform Loewenfeld","3.3.12","0","n","0","right","right","right","right","NA","582","29356","4203","582","NA","2","legacy","3","1024","2","48000","-16","experiment","1","odd","7","404073","400711","113170","401861","4302","401865","364728","4310","108966","406076","406660","402869","33668","406076","NA","Sternberg Task","51","40287","61","yes","1024"
"83.87096774193549","83.87096774193549","659.1129032258065","659.1129032258065","black","experiment","legacy","legacy","legacy","0","uniform","1","undefined","1","left","61","61","0","61","0","61","61","0","0","61","61","61","0","61","0","Wed Oct 12 13:21:33 2022","The main experiment item","yes","SternbergTask.osexp","C:/Users/Austin/Documents/PSYC 5316/Lab 3","no","mono","no","18","no","white","no","yes","768","legacy","49","11","C:/Users/Austin/Documents/PSYC 5316/Lab 3/AH-subject-1.csv","legacy","4","Lentiform Loewenfeld","3.3.12","1","y","0","left","right","right","left","NA","578","29356","4203","578","NA","2","legacy","1","1024","2","48000","-16","experiment","1","odd","4","410038","406668","113170","407823","4302","407828","364728","4310","108966","412043","412622","408833","33668","412043","NA","Sternberg Task","52","40865","62","yes","1024"
"84.12698412698413","84.12698412698413","657.0793650793651","657.0793650793651","black","experiment","legacy","legacy","legacy","0","uniform","1","undefined","1","right","62","62","0","62","0","62","62","0","0","62","62","62","0","62","0","Wed Oct 12 13:21:33 2022","The main experiment item","yes","SternbergTask.osexp","C:/Users/Austin/Documents/PSYC 5316/Lab 3","no","mono","no","18","no","white","no","yes","768","legacy","50","11","C:/Users/Austin/Documents/PSYC 5316/Lab 3/AH-subject-1.csv","legacy","4 1","Lentiform Loewenfeld","3.3.12","0","n","0","right","right","right","right","NA","531","29356","4203","531","NA","2","legacy","2","1024","2","48000","-16","experiment","1","odd","6","415996","412632","113170","413783","4302","413787","364728","4310","108966","418001","418533","414791","33668","418000","NA","Sternberg Task","53","41396","63","yes","1024"
"84.375","84.375","657.015625","657.015625","black","experiment","legacy","legacy","legacy","0","uniform","1","undefined","1","right","63","63","0","63","0","63","63","0","0","63","63","63","0","63","0","Wed Oct 12 13:21:33 2022","The main experiment item","yes","SternbergTask.osexp","C:/Users/Austin/Documents/PSYC 5316/Lab 3","no","mono","no","18","no","white","no","yes","768","legacy","51","11","C:/Users/Austin/Documents/PSYC 5316/Lab 3/AH-subject-1.csv","legacy","7 9","Lentiform Loewenfeld","3.3.12","0","n","0","right","right","right","right","NA","653","29356","4203","653","NA","2","legacy","2","1024","2","48000","-16","experiment","1","odd","1","421902","418542","113170","419688","4302","419692","364728","4310","108966","423907","424563","420696","33668","423907","NA","Sternberg Task","54","42049","64","yes","1024"
"84.61538461538461","84.61538461538461","657.276923076923","657.276923076923","black","experiment","legacy","legacy","legacy","0","uniform","1","undefined","1","right","64","64","0","64","0","64","64","0","0","64","64","64","0","64","0","Wed Oct 12 13:21:33 2022","The main experiment item","yes","SternbergTask.osexp","C:/Users/Austin/Documents/PSYC 5316/Lab 3","no","mono","no","18","no","white","no","yes","768","legacy","52","11","C:/Users/Austin/Documents/PSYC 5316/Lab 3/AH-subject-1.csv","legacy","1 3 2 6 9","Lentiform Loewenfeld","3.3.12","0","n","0","right","right","right","right","NA","674","29356","4203","674","NA","2","legacy","5","1024","2","48000","-16","experiment","1","odd","5","427940","424576","113170","425726","4302","425730","364728","4310","108966","429943","430619","426735","33668","429943","NA","Sternberg Task","55","42723","65","yes","1024"
"84.84848484848484","84.84848484848484","655.6666666666666","655.6666666666666","black","experiment","legacy","legacy","legacy","0","uniform","1","undefined","1","right","65","65","0","65","0","65","65","0","0","65","65","65","0","65","0","Wed Oct 12 13:21:33 2022","The main experiment item","yes","SternbergTask.osexp","C:/Users/Austin/Documents/PSYC 5316/Lab 3","no","mono","no","18","no","white","no","yes","768","legacy","53","11","C:/Users/Austin/Documents/PSYC 5316/Lab 3/AH-subject-1.csv","legacy","7 1 5 6 3","Lentiform Loewenfeld","3.3.12","0","n","0","right","right","right","right","NA","551","29356","4203","551","NA","2","legacy","5","1024","2","48000","-16","experiment","1","odd","8","434007","430627","113170","431794","4302","431798","364728","4310","108966","436012","436565","432803","33668","436011","NA","Sternberg Task","56","43274","66","yes","1024"
"85.07462686567165","85.07462686567165","654.179104477612","654.179104477612","black","experiment","legacy","legacy","legacy","0","uniform","1","undefined","1","right","66","66","0","66","0","66","66","0","0","66","66","66","0","66","0","Wed Oct 12 13:21:33 2022","The main experiment item","yes","SternbergTask.osexp","C:/Users/Austin/Documents/PSYC 5316/Lab 3","no","mono","no","18","no","white","no","yes","768","legacy","54","11","C:/Users/Austin/Documents/PSYC 5316/Lab 3/AH-subject-1.csv","legacy","1 7 8 3 9","Lentiform Loewenfeld","3.3.12","0","n","0","right","right","right","right","NA","556","29356","4203","556","NA","2","legacy","5","1024","2","48000","-16","experiment","1","odd","2","439933","436573","113170","437722","4302","437726","364728","4310","108966","441936","442493","438729","33668","441936","NA","Sternberg Task","57","43830","67","yes","1024"
"83.82352941176471","83.82352941176471","656.1470588235294","656.1470588235294","black","experiment","legacy","legacy","legacy","0","uniform","0","undefined","0","right","67","67","0","67","0","67","67","0","0","67","67","67","0","67","0","Wed Oct 12 13:21:33 2022","The main experiment item","yes","SternbergTask.osexp","C:/Users/Austin/Documents/PSYC 5316/Lab 3","no","mono","no","18","no","white","no","yes","768","legacy","55","11","C:/Users/Austin/Documents/PSYC 5316/Lab 3/AH-subject-1.csv","legacy","6 7 5 9","Lentiform Loewenfeld","3.3.12","0","n","0","left","right","right","left","NA","788","29356","4203","788","NA","2","legacy","4","1024","2","48000","-16","experiment","1","odd","2","445904","442502","113170","443690","4302","443695","364728","4310","108966","447908","448698","444699","33668","447908","NA","Sternberg Task","57","44618","68","yes","1024"
"82.6086956521739","82.6086956521739","655.8550724637681","655.8550724637681","black","experiment","legacy","legacy","legacy","0","uniform","0","undefined","0","left","68","68","0","68","0","68","68","0","0","68","68","68","0","68","0","Wed Oct 12 13:21:33 2022","The main experiment item","yes","SternbergTask.osexp","C:/Users/Austin/Documents/PSYC 5316/Lab 3","no","mono","no","18","no","white","no","yes","768","legacy","56","11","C:/Users/Austin/Documents/PSYC 5316/Lab 3/AH-subject-1.csv","legacy","5 7 8 2 3 8","Lentiform Loewenfeld","3.3.12","5","y","0","right","right","right","right","NA","636","29356","4203","636","NA","2","legacy","6","1024","2","48000","-16","experiment","1","odd","3","452101","442502","113170","449884","4302","449889","448706","4310","108966","454104","454742","450893","33668","454104","NA","Sternberg Task","57","45254","69","yes","1024"
"82.85714285714286","82.85714285714286","655.1285714285714","655.1285714285714","black","experiment","legacy","legacy","legacy","0","uniform","1","undefined","1","right","69","69","0","69","0","69","69","0","0","69","69","69","0","69","0","Wed Oct 12 13:21:33 2022","The main experiment item","yes","SternbergTask.osexp","C:/Users/Austin/Documents/PSYC 5316/Lab 3","no","mono","no","18","no","white","no","yes","768","legacy","57","11","C:/Users/Austin/Documents/PSYC 5316/Lab 3/AH-subject-1.csv","legacy","7 8 6 1","Lentiform Loewenfeld","3.3.12","0","n","0","right","right","right","right","NA","605","29356","4203","605","NA","2","legacy","4","1024","2","48000","-16","experiment","1","odd","3","458112","442502","113170","455898","4302","455902","454750","4310","108966","460117","460724","456908","33668","460116","NA","Sternberg Task","58","45859","70","yes","1024"
"83.09859154929578","83.09859154929578","655.1267605633802","655.1267605633802","black","experiment","legacy","legacy","legacy","0","uniform","1","undefined","1","right","70","70","0","70","0","70","70","0","0","70","70","70","0","70","0","Wed Oct 12 13:21:33 2022","The main experiment item","yes","SternbergTask.osexp","C:/Users/Austin/Documents/PSYC 5316/Lab 3","no","mono","no","18","no","white","no","yes","768","legacy","58","11","C:/Users/Austin/Documents/PSYC 5316/Lab 3/AH-subject-1.csv","legacy","6 2 9 3 8 4","Lentiform Loewenfeld","3.3.12","0","n","0","right","right","right","right","NA","655","29356","4203","655","NA","2","legacy","6","1024","2","48000","-16","experiment","1","odd","1","464097","460732","113170","461884","4302","461887","454750","4310","108966","466101","466758","462893","33668","466101","NA","Sternberg Task","59","46514","71","yes","1024"
"83.33333333333333","83.33333333333333","653.9305555555555","653.9305555555555","black","experiment","legacy","legacy","legacy","0","uniform","1","undefined","1","right","71","71","0","71","0","71","71","0","0","71","71","71","0","71","0","Wed Oct 12 13:21:33 2022","The main experiment item","yes","SternbergTask.osexp","C:/Users/Austin/Documents/PSYC 5316/Lab 3","no","mono","no","18","no","white","no","yes","768","legacy","59","11","C:/Users/Austin/Documents/PSYC 5316/Lab 3/AH-subject-1.csv","legacy","9 5 3 2 8 6","Lentiform Loewenfeld","3.3.12","0","n","0","right","right","right","right","NA","569","29356","4203","569","NA","2","legacy","6","1024","2","48000","-16","experiment","1","odd","7","470132","466768","113170","467918","4302","467922","454750","4310","108966","472135","472706","468927","33668","472135","NA","Sternberg Task","60","47083","72","yes","1024"
"83.56164383561644","83.56164383561644","654.013698630137","654.013698630137","black","experiment","legacy","legacy","legacy","0","uniform","1","undefined","1","left","72","72","0","72","0","72","72","0","0","72","72","72","0","72","0","Wed Oct 12 13:21:33 2022","The main experiment item","yes","SternbergTask.osexp","C:/Users/Austin/Documents/PSYC 5316/Lab 3","no","mono","no","18","no","white","no","yes","768","legacy","60","11","C:/Users/Austin/Documents/PSYC 5316/Lab 3/AH-subject-1.csv","legacy","3 5 9 6 2 4","Lentiform Loewenfeld","3.3.12","1","y","0","left","right","right","left","NA","660","29356","4203","660","NA","2","legacy","6","1024","2","48000","-16","experiment","1","odd","3","476108","472714","113170","473889","4302","473894","454750","4310","108966","478112","478774","474903","33668","478111","NA","Sternberg Task","61","47743","73","yes","1024"
"83.78378378378379","83.78378378378379","652.7837837837837","652.7837837837837","black","experiment","legacy","legacy","legacy","0","uniform","1","undefined","1","right","73","73","0","73","0","73","73","0","0","73","73","73","0","73","0","Wed Oct 12 13:21:33 2022","The main experiment item","yes","SternbergTask.osexp","C:/Users/Austin/Documents/PSYC 5316/Lab 3","no","mono","no","18","no","white","no","yes","768","legacy","61","11","C:/Users/Austin/Documents/PSYC 5316/Lab 3/AH-subject-1.csv","legacy","3 9 8 1 6 4","Lentiform Loewenfeld","3.3.12","0","n","0","right","right","right","right","NA","563","29356","4203","563","NA","2","legacy","6","1024","2","48000","-16","experiment","1","odd","7","482160","478782","113170","479948","4302","479952","454750","4310","108966","484163","484728","480956","33668","484163","NA","Sternberg Task","62","48306","74","yes","1024"
"84","84","653.2266666666667","653.2266666666667","black","experiment","legacy","legacy","legacy","0","uniform","1","undefined","1","right","74","74","0","74","0","74","74","0","0","74","74","74","0","74","0","Wed Oct 12 13:21:33 2022","The main experiment item","yes","SternbergTask.osexp","C:/Users/Austin/Documents/PSYC 5316/Lab 3","no","mono","no","18","no","white","no","yes","768","legacy","62","11","C:/Users/Austin/Documents/PSYC 5316/Lab 3/AH-subject-1.csv","legacy","1 4 9 2 5","Lentiform Loewenfeld","3.3.12","0","n","0","right","right","right","right","NA","686","29356","4203","686","NA","2","legacy","5","1024","2","48000","-16","experiment","1","odd","7","488102","484738","113170","485888","4302","485892","454750","4310","108966","490105","490793","486896","33668","490105","NA","Sternberg Task","63","48992","75","yes","1024"
"82.89473684210526","82.89473684210526","651.6052631578947","651.6052631578947","black","experiment","legacy","legacy","legacy","0","uniform","0","undefined","0","right","75","75","0","75","0","75","75","0","0","75","75","75","0","75","0","Wed Oct 12 13:21:33 2022","The main experiment item","yes","SternbergTask.osexp","C:/Users/Austin/Documents/PSYC 5316/Lab 3","no","mono","no","18","no","white","no","yes","768","legacy","63","11","C:/Users/Austin/Documents/PSYC 5316/Lab 3/AH-subject-1.csv","legacy","8 5 7 3 6","Lentiform Loewenfeld","3.3.12","0","n","0","left","right","right","left","NA","530","29356","4203","530","NA","2","legacy","5","1024","2","48000","-16","experiment","1","odd","9","494166","490803","113170","491952","4302","491957","454750","4310","108966","496169","496700","492960","33668","496169","NA","Sternberg Task","63","49522","76","yes","1024"
"83.11688311688312","83.11688311688312","649.8181818181819","649.8181818181819","black","experiment","legacy","legacy","legacy","0","uniform","1","undefined","1","left","76","76","0","76","0","76","76","0","0","76","76","76","0","76","0","Wed Oct 12 13:21:33 2022","The main experiment item","yes","SternbergTask.osexp","C:/Users/Austin/Documents/PSYC 5316/Lab 3","no","mono","no","18","no","white","no","yes","768","legacy","64","11","C:/Users/Austin/Documents/PSYC 5316/Lab 3/AH-subject-1.csv","legacy","7","Lentiform Loewenfeld","3.3.12","1","y","0","left","right","right","left","NA","514","29356","4203","514","NA","2","legacy","1","1024","2","48000","-16","experiment","1","odd","7","500074","490803","113170","497861","4302","497865","496709","4310","108966","502078","502593","498870","33668","502078","NA","Sternberg Task","64","50036","77","yes","1024"
"82.05128205128206","82.05128205128206","648.5","648.5","black","experiment","legacy","legacy","legacy","0","uniform","0","undefined","0","left","77","77","0","77","0","77","77","0","0","77","77","77","0","77","0","Wed Oct 12 13:21:33 2022","The main experiment item","yes","SternbergTask.osexp","C:/Users/Austin/Documents/PSYC 5316/Lab 3","no","mono","no","18","no","white","no","yes","768","legacy","65","11","C:/Users/Austin/Documents/PSYC 5316/Lab 3/AH-subject-1.csv","legacy","9 3 1 2 5","Lentiform Loewenfeld","3.3.12","4","y","0","right","right","right","right","NA","547","29356","4203","547","NA","2","legacy","5","1024","2","48000","-16","experiment","1","odd","2","505974","502602","113170","503763","4302","503767","496709","4310","108966","507978","508526","504770","33668","507978","NA","Sternberg Task","64","50583","78","yes","1024"
"82.27848101265823","82.27848101265823","647.9367088607595","647.9367088607595","black","experiment","legacy","legacy","legacy","0","uniform","1","undefined","1","left","78","78","0","78","0","78","78","0","0","78","78","78","0","78","0","Wed Oct 12 13:21:33 2022","The main experiment item","yes","SternbergTask.osexp","C:/Users/Austin/Documents/PSYC 5316/Lab 3","no","mono","no","18","no","white","no","yes","768","legacy","66","11","C:/Users/Austin/Documents/PSYC 5316/Lab 3/AH-subject-1.csv","legacy","4 9 7 8 5 3","Lentiform Loewenfeld","3.3.12","4","y","0","left","right","right","left","NA","604","29356","4203","604","NA","2","legacy","6","1024","2","48000","-16","experiment","1","odd","8","511897","502602","113170","509684","4302","509688","508535","4310","108966","513901","514507","510692","33668","513900","NA","Sternberg Task","65","51187","79","yes","1024"
"82.5","82.5","645.825","645.825","black","experiment","legacy","legacy","legacy","0","uniform","1","undefined","1","right","79","79","0","79","0","79","79","0","0","79","79","79","0","79","0","Wed Oct 12 13:21:33 2022","The main experiment item","yes","SternbergTask.osexp","C:/Users/Austin/Documents/PSYC 5316/Lab 3","no","mono","no","18","no","white","no","yes","768","legacy","67","11","C:/Users/Austin/Documents/PSYC 5316/Lab 3/AH-subject-1.csv","legacy","5","Lentiform Loewenfeld","3.3.12","0","n","0","right","right","right","right","NA","479","29356","4203","479","NA","2","legacy","1","1024","2","48000","-16","experiment","1","odd","8","517921","514516","113170","515707","4302","515712","508535","4310","108966","519926","520407","516717","33668","519925","NA","Sternberg Task","66","51666","80","yes","1024"
"82.71604938271605","82.71604938271605","646.2592592592592","646.2592592592592","black","experiment","legacy","legacy","legacy","0","uniform","1","undefined","1","left","80","80","0","80","0","80","80","0","0","80","80","80","0","80","0","Wed Oct 12 13:21:33 2022","The main experiment item","yes","SternbergTask.osexp","C:/Users/Austin/Documents/PSYC 5316/Lab 3","no","mono","no","18","no","white","no","yes","768","legacy","68","11","C:/Users/Austin/Documents/PSYC 5316/Lab 3/AH-subject-1.csv","legacy","6 5","Lentiform Loewenfeld","3.3.12","2","y","0","left","right","right","left","NA","681","29356","4203","681","NA","2","legacy","2","1024","2","48000","-16","experiment","1","odd","5","523772","520414","113170","521559","4302","521563","508535","4310","108966","525777","526460","522567","33668","525776","NA","Sternberg Task","67","52347","81","yes","1024"
"82.92682926829268","82.92682926829268","657.0731707317074","657.0731707317074","black","experiment","legacy","legacy","legacy","0","uniform","1","undefined","1","right","81","81","0","81","0","81","81","0","0","81","81","81","0","81","0","Wed Oct 12 13:21:33 2022","The main experiment item","yes","SternbergTask.osexp","C:/Users/Austin/Documents/PSYC 5316/Lab 3","no","mono","no","18","no","white","no","yes","768","legacy","69","11","C:/Users/Austin/Documents/PSYC 5316/Lab 3/AH-subject-1.csv","legacy","8 4 3 5","Lentiform Loewenfeld","3.3.12","0","n","0","right","right","right","right","NA","1533","29356","4203","1533","NA","2","legacy","4","1024","2","48000","-16","experiment","1","odd","6","529842","526469","113170","527630","4302","527634","508535","4310","108966","531848","533383","528638","33668","531847","NA","Sternberg Task","68","53880","82","yes","1024"
"83.13253012048193","83.13253012048193","659.0722891566265","659.0722891566265","black","experiment","legacy","legacy","legacy","0","uniform","1","undefined","1","right","82","82","0","82","0","82","82","0","0","82","82","82","0","82","0","Wed Oct 12 13:21:33 2022","The main experiment item","yes","SternbergTask.osexp","C:/Users/Austin/Documents/PSYC 5316/Lab 3","no","mono","no","18","no","white","no","yes","768","legacy","70","11","C:/Users/Austin/Documents/PSYC 5316/Lab 3/AH-subject-1.csv","legacy","2 6 4 3 9","Lentiform Loewenfeld","3.3.12","0","n","0","right","right","right","right","NA","823","29356","4203","823","NA","2","legacy","5","1024","2","48000","-16","experiment","1","odd","1","536749","533390","113170","534538","4302","534542","508535","4310","108966","538752","539577","535545","33668","538752","NA","Sternberg Task","69","54703","83","yes","1024"
"83.33333333333333","83.33333333333333","657.4404761904761","657.4404761904761","black","experiment","legacy","legacy","legacy","0","uniform","1","undefined","1","left","83","83","0","83","0","83","83","0","0","83","83","83","0","83","0","Wed Oct 12 13:21:33 2022","The main experiment item","yes","SternbergTask.osexp","C:/Users/Austin/Documents/PSYC 5316/Lab 3","no","mono","no","18","no","white","no","yes","768","legacy","71","11","C:/Users/Austin/Documents/PSYC 5316/Lab 3/AH-subject-1.csv","legacy","2 3 7 4","Lentiform Loewenfeld","3.3.12","1","y","0","left","right","right","left","NA","522","29356","4203","522","NA","2","legacy","4","1024","2","48000","-16","experiment","1","odd","2","542947","539586","113170","540735","4302","540739","508535","4310","108966","544951","545475","541743","33668","544951","NA","Sternberg Task","70","55225","84","yes","1024"
"82.3529411764706","82.3529411764706","656.8117647058823","656.8117647058823","black","experiment","legacy","legacy","legacy","0","uniform","0","undefined","0","left","84","84","0","84","0","84","84","0","0","84","84","84","0","84","0","Wed Oct 12 13:21:33 2022","The main experiment item","yes","SternbergTask.osexp","C:/Users/Austin/Documents/PSYC 5316/Lab 3","no","mono","no","18","no","white","no","yes","768","legacy","72","11","C:/Users/Austin/Documents/PSYC 5316/Lab 3/AH-subject-1.csv","legacy","4 6 2 5 1","Lentiform Loewenfeld","3.3.12","5","y","0","right","right","right","right","NA","604","29356","4203","604","NA","2","legacy","5","1024","2","48000","-16","experiment","1","odd","1","548849","545484","113170","546636","4302","546640","508535","4310","108966","550853","551458","547643","33668","550853","NA","Sternberg Task","70","55829","85","yes","1024"
"82.55813953488372","82.55813953488372","658.8255813953489","658.8255813953489","black","experiment","legacy","legacy","legacy","0","uniform","1","undefined","1","left","85","85","0","85","0","85","85","0","0","85","85","85","0","85","0","Wed Oct 12 13:21:33 2022","The main experiment item","yes","SternbergTask.osexp","C:/Users/Austin/Documents/PSYC 5316/Lab 3","no","mono","no","18","no","white","no","yes","768","legacy","73","11","C:/Users/Austin/Documents/PSYC 5316/Lab 3/AH-subject-1.csv","legacy","3 4 9 6 2 9","Lentiform Loewenfeld","3.3.12","5","y","0","left","right","right","left","NA","830","29356","4203","830","NA","2","legacy","6","1024","2","48000","-16","experiment","1","odd","2","554825","545484","113170","552612","4302","552616","551467","4310","108966","556833","557665","553620","33668","556832","NA","Sternberg Task","71","56659","86","yes","1024"
"81.60919540229885","81.60919540229885","657.0344827586207","657.0344827586207","black","experiment","legacy","legacy","legacy","0","uniform","0","undefined","0","left","86","86","0","86","0","86","86","0","0","86","86","86","0","86","0","Wed Oct 12 13:21:33 2022","The main experiment item","yes","SternbergTask.osexp","C:/Users/Austin/Documents/PSYC 5316/Lab 3","no","mono","no","18","no","white","no","yes","768","legacy","74","11","C:/Users/Austin/Documents/PSYC 5316/Lab 3/AH-subject-1.csv","legacy","6 9 7 4 5 1","Lentiform Loewenfeld","3.3.12","2","y","0","right","right","right","right","NA","503","29356","4203","503","NA","2","legacy","6","1024","2","48000","-16","experiment","1","odd","9","561059","557674","113170","558844","4302","558850","551467","4310","108966","563062","563567","559854","33668","563062","NA","Sternberg Task","71","57162","87","yes","1024"
"80.68181818181819","80.68181818181819","655.4659090909091","655.4659090909091","black","experiment","legacy","legacy","legacy","0","uniform","0","undefined","0","right","87","87","0","87","0","87","87","0","0","87","87","87","0","87","0","Wed Oct 12 13:21:33 2022","The main experiment item","yes","SternbergTask.osexp","C:/Users/Austin/Documents/PSYC 5316/Lab 3","no","mono","no","18","no","white","no","yes","768","legacy","75","11","C:/Users/Austin/Documents/PSYC 5316/Lab 3/AH-subject-1.csv","legacy","1 4 3 6 5","Lentiform Loewenfeld","3.3.12","0","n","0","left","right","right","left","NA","519","29356","4203","519","NA","2","legacy","5","1024","2","48000","-16","experiment","1","odd","8","566962","557674","113170","564749","4302","564753","563577","4310","108966","568967","569487","565757","33668","568967","NA","Sternberg Task","71","57681","88","yes","1024"
"80.89887640449439","80.89887640449439","653.685393258427","653.685393258427","black","experiment","legacy","legacy","legacy","0","uniform","1","undefined","1","left","88","88","0","88","0","88","88","0","0","88","88","88","0","88","0","Wed Oct 12 13:21:33 2022","The main experiment item","yes","SternbergTask.osexp","C:/Users/Austin/Documents/PSYC 5316/Lab 3","no","mono","no","18","no","white","no","yes","768","legacy","76","11","C:/Users/Austin/Documents/PSYC 5316/Lab 3/AH-subject-1.csv","legacy","9 8 4","Lentiform Loewenfeld","3.3.12","1","y","0","left","right","right","left","NA","497","29356","4203","497","NA","2","legacy","3","1024","2","48000","-16","experiment","1","odd","9","572876","557674","113170","570663","4302","570668","569496","4310","108966","574881","575381","571672","33668","574880","NA","Sternberg Task","72","58178","89","yes","1024"
"81.11111111111111","81.11111111111111","653.0777777777778","653.0777777777778","black","experiment","legacy","legacy","legacy","0","uniform","1","undefined","1","right","89","89","0","89","0","89","89","0","0","89","89","89","0","89","0","Wed Oct 12 13:21:33 2022","The main experiment item","yes","SternbergTask.osexp","C:/Users/Austin/Documents/PSYC 5316/Lab 3","no","mono","no","18","no","white","no","yes","768","legacy","77","11","C:/Users/Austin/Documents/PSYC 5316/Lab 3/AH-subject-1.csv","legacy","7 9 1 6","Lentiform Loewenfeld","3.3.12","0","n","0","right","right","right","right","NA","599","29356","4203","599","NA","2","legacy","4","1024","2","48000","-16","experiment","1","odd","4","578755","575390","113170","576541","4302","576546","569496","4310","108966","580759","581360","577550","33668","580759","NA","Sternberg Task","73","58777","90","yes","1024"
"81.31868131868131","81.31868131868131","650.2527472527472","650.2527472527472","black","experiment","legacy","legacy","legacy","0","uniform","1","undefined","1","left","90","90","0","90","0","90","90","0","0","90","90","90","0","90","0","Wed Oct 12 13:21:33 2022","The main experiment item","yes","SternbergTask.osexp","C:/Users/Austin/Documents/PSYC 5316/Lab 3","no","mono","no","18","no","white","no","yes","768","legacy","78","11","C:/Users/Austin/Documents/PSYC 5316/Lab 3/AH-subject-1.csv","legacy","9 6 2 4 1","Lentiform Loewenfeld","3.3.12","4","y","0","left","right","right","left","NA","396","29356","4203","396","NA","2","legacy","5","1024","2","48000","-16","experiment","1","odd","4","584744","581368","113170","582531","4302","582535","569496","4310","108966","586748","587147","583539","33668","586748","NA","Sternberg Task","74","59173","91","yes","1024"
"81.52173913043478","81.52173913043478","649.1847826086956","649.1847826086956","black","experiment","legacy","legacy","legacy","0","uniform","1","undefined","1","right","91","91","0","91","0","91","91","0","0","91","91","91","0","91","0","Wed Oct 12 13:21:33 2022","The main experiment item","yes","SternbergTask.osexp","C:/Users/Austin/Documents/PSYC 5316/Lab 3","no","mono","no","18","no","white","no","yes","768","legacy","79","11","C:/Users/Austin/Documents/PSYC 5316/Lab 3/AH-subject-1.csv","legacy","6 9 5","Lentiform Loewenfeld","3.3.12","0","n","0","right","right","right","right","NA","552","29356","4203","552","NA","2","legacy","3","1024","2","48000","-16","experiment","1","odd","8","590516","587157","113170","588303","4302","588307","569496","4310","108966","592521","593076","589312","33668","592521","NA","Sternberg Task","75","59725","92","yes","1024"
"81.72043010752688","81.72043010752688","648.4086021505376","648.4086021505376","black","experiment","legacy","legacy","legacy","0","uniform","1","undefined","1","left","92","92","0","92","0","92","92","0","0","92","92","92","0","92","0","Wed Oct 12 13:21:33 2022","The main experiment item","yes","SternbergTask.osexp","C:/Users/Austin/Documents/PSYC 5316/Lab 3","no","mono","no","18","no","white","no","yes","768","legacy","80","11","C:/Users/Austin/Documents/PSYC 5316/Lab 3/AH-subject-1.csv","legacy","5 7 3 6 2","Lentiform Loewenfeld","3.3.12","5","y","0","left","right","right","left","NA","577","29356","4203","577","NA","2","legacy","5","1024","2","48000","-16","experiment","1","odd","2","596460","593084","113170","594247","4302","594251","569496","4310","108966","598465","599044","595256","33668","598464","NA","Sternberg Task","76","60302","93","yes","1024"
"80.85106382978724","80.85106382978724","647.7978723404256","647.7978723404256","black","experiment","legacy","legacy","legacy","0","uniform","0","undefined","0","left","93","93","0","93","0","93","93","0","0","93","93","93","0","93","0","Wed Oct 12 13:21:33 2022","The main experiment item","yes","SternbergTask.osexp","C:/Users/Austin/Documents/PSYC 5316/Lab 3","no","mono","no","18","no","white","no","yes","768","legacy","81","11","C:/Users/Austin/Documents/PSYC 5316/Lab 3/AH-subject-1.csv","legacy","8 5 4 7 3 1","Lentiform Loewenfeld","3.3.12","2","y","0","right","right","right","right","NA","591","29356","4203","591","NA","2","legacy","6","1024","2","48000","-16","experiment","1","odd","5","602428","599052","113170","600217","4302","600221","569496","4310","108966","604434","605027","601224","33668","604434","NA","Sternberg Task","76","60893","94","yes","1024"
"80","80","647.0526315789474","647.0526315789474","black","experiment","legacy","legacy","legacy","0","uniform","0","undefined","0","right","94","94","0","94","0","94","94","0","0","94","94","94","0","94","0","Wed Oct 12 13:21:33 2022","The main experiment item","yes","SternbergTask.osexp","C:/Users/Austin/Documents/PSYC 5316/Lab 3","no","mono","no","18","no","white","no","yes","768","legacy","82","11","C:/Users/Austin/Documents/PSYC 5316/Lab 3/AH-subject-1.csv","legacy","5 3 2 6 9 8","Lentiform Loewenfeld","3.3.12","0","n","0","left","right","right","left","NA","577","29356","4203","577","NA","2","legacy","6","1024","2","48000","-16","experiment","1","odd","4","608393","599052","113170","606181","4302","606185","605037","4310","108966","610396","610975","607188","33668","610396","NA","Sternberg Task","76","61470","95","yes","1024"
"80.20833333333333","80.20833333333333","644.1979166666666","644.1979166666666","black","experiment","legacy","legacy","legacy","0","uniform","1","undefined","1","left","95","95","0","95","0","95","95","0","0","95","95","95","0","95","0","Wed Oct 12 13:21:33 2022","The main experiment item","yes","SternbergTask.osexp","C:/Users/Austin/Documents/PSYC 5316/Lab 3","no","mono","no","18","no","white","no","yes","768","legacy","83","11","C:/Users/Austin/Documents/PSYC 5316/Lab 3/AH-subject-1.csv","legacy","7 4 2 6 3 5","Lentiform Loewenfeld","3.3.12","6","y","0","left","right","right","left","NA","373","29356","4203","373","NA","2","legacy","6","1024","2","48000","-16","experiment","1","odd","5","614347","599052","113170","612134","4302","612138","610986","4310","108966","616351","616726","613142","33668","616351","NA","Sternberg Task","77","61843","96","yes","1024"
"80.41237113402062","80.41237113402062","642.1546391752578","642.1546391752578","black","experiment","legacy","legacy","legacy","0","uniform","1","undefined","1","right","96","96","0","96","0","96","96","0","0","96","96","96","0","96","0","Wed Oct 12 13:21:33 2022","The main experiment item","yes","SternbergTask.osexp","C:/Users/Austin/Documents/PSYC 5316/Lab 3","no","mono","no","18","no","white","no","yes","768","legacy","84","11","C:/Users/Austin/Documents/PSYC 5316/Lab 3/AH-subject-1.csv","legacy","1 6 4 3 9 7","Lentiform Loewenfeld","3.3.12","0","n","0","right","right","right","right","NA","446","29356","4203","446","NA","2","legacy","6","1024","2","48000","-16","experiment","1","odd","8","620104","616735","113170","617893","4302","617897","610986","4310","108966","622109","622557","618900","33668","622108","NA","Sternberg Task","78","62289","97","yes","1024"
"79.59183673469387","79.59183673469387","640","640","black","experiment","legacy","legacy","legacy","0","uniform","0","undefined","0","right","97","97","0","97","0","97","97","0","0","97","97","97","0","97","0","Wed Oct 12 13:21:33 2022","The main experiment item","yes","SternbergTask.osexp","C:/Users/Austin/Documents/PSYC 5316/Lab 3","no","mono","no","18","no","white","no","yes","768","legacy","85","11","C:/Users/Austin/Documents/PSYC 5316/Lab 3/AH-subject-1.csv","legacy","8 2 1 4 5 9","Lentiform Loewenfeld","3.3.12","0","n","0","left","right","right","left","NA","431","29356","4203","431","NA","2","legacy","6","1024","2","48000","-16","experiment","1","odd","7","625926","622566","113170","623713","4302","623717","610986","4310","108966","627930","628363","624721","33668","627930","NA","Sternberg Task","78","62720","98","yes","1024"
"79.79797979797979","79.79797979797979","639.6262626262626","639.6262626262626","black","experiment","legacy","legacy","legacy","0","uniform","1","undefined","1","right","98","98","0","98","0","98","98","0","0","98","98","98","0","98","0","Wed Oct 12 13:21:33 2022","The main experiment item","yes","SternbergTask.osexp","C:/Users/Austin/Documents/PSYC 5316/Lab 3","no","mono","no","18","no","white","no","yes","768","legacy","86","11","C:/Users/Austin/Documents/PSYC 5316/Lab 3/AH-subject-1.csv","legacy","7 1","Lentiform Loewenfeld","3.3.12","0","n","0","right","right","right","right","NA","603","29356","4203","603","NA","2","legacy","2","1024","2","48000","-16","experiment","1","odd","8","631730","622566","113170","629517","4302","629521","628374","4310","108966","633735","634340","630525","33668","633734","NA","Sternberg Task","79","63323","99","yes","1024"
"79","79","636.14","636.14","black","experiment","legacy","legacy","legacy","0","uniform","0","undefined","0","left","99","99","0","99","0","99","99","0","0","99","99","99","0","99","0","Wed Oct 12 13:21:33 2022","The main experiment item","yes","SternbergTask.osexp","C:/Users/Austin/Documents/PSYC 5316/Lab 3","no","mono","no","18","no","white","no","yes","768","legacy","87","11","C:/Users/Austin/Documents/PSYC 5316/Lab 3/AH-subject-1.csv","legacy","1 4 9 3 2 5","Lentiform Loewenfeld","3.3.12","3","y","0","right","right","right","right","NA","291","29356","4203","291","NA","2","legacy","6","1024","2","48000","-16","experiment","1","odd","9","637716","634348","113170","635505","4302","635509","628374","4310","108966","639720","640012","636512","33668","639720","NA","Sternberg Task","79","63614","100","yes","1024"
"78.21782178217822","78.21782178217822","634.1188118811881","634.1188118811881","black","experiment","legacy","legacy","legacy","0","uniform","0","undefined","0","right","100","100","0","100","0","100","100","0","0","100","100","100","0","100","0","Wed Oct 12 13:21:33 2022","The main experiment item","yes","SternbergTask.osexp","C:/Users/Austin/Documents/PSYC 5316/Lab 3","no","mono","no","18","no","white","no","yes","768","legacy","88","11","C:/Users/Austin/Documents/PSYC 5316/Lab 3/AH-subject-1.csv","legacy","7 4 2 8 1 9","Lentiform Loewenfeld","3.3.12","0","n","0","left","right","right","left","NA","432","29356","4203","432","NA","2","legacy","6","1024","2","48000","-16","experiment","1","odd","5","643372","634348","113170","641160","4302","641164","640020","4310","108966","645375","645809","642168","33668","645375","NA","Sternberg Task","79","64046","101","yes","1024"
"78.43137254901961","78.43137254901961","633.0882352941177","633.0882352941177","black","experiment","legacy","legacy","legacy","0","uniform","1","undefined","1","left","101","101","0","101","0","101","101","0","0","101","101","101","0","101","0","Wed Oct 12 13:21:33 2022","The main experiment item","yes","SternbergTask.osexp","C:/Users/Austin/Documents/PSYC 5316/Lab 3","no","mono","no","18","no","white","no","yes","768","legacy","89","11","C:/Users/Austin/Documents/PSYC 5316/Lab 3/AH-subject-1.csv","legacy","4 3 2 5 8","Lentiform Loewenfeld","3.3.12","2","y","0","left","right","right","left","NA","529","29356","4203","529","NA","2","legacy","5","1024","2","48000","-16","experiment","1","odd","3","649184","634348","113170","646971","4302","646975","645817","4310","108966","651189","651720","647980","33668","651189","NA","Sternberg Task","80","64575","102","yes","1024"
"78.64077669902913","78.64077669902913","632.5533980582525","632.5533980582525","black","experiment","legacy","legacy","legacy","0","uniform","1","undefined","1","right","102","102","0","102","0","102","102","0","0","102","102","102","0","102","0","Wed Oct 12 13:21:33 2022","The main experiment item","yes","SternbergTask.osexp","C:/Users/Austin/Documents/PSYC 5316/Lab 3","no","mono","no","18","no","white","no","yes","768","legacy","90","11","C:/Users/Austin/Documents/PSYC 5316/Lab 3/AH-subject-1.csv","legacy","4 2 7 6 1 3","Lentiform Loewenfeld","3.3.12","0","n","0","right","right","right","right","NA","578","29356","4203","578","NA","2","legacy","6","1024","2","48000","-16","experiment","1","odd","8","655113","651728","113170","652901","4302","652906","645817","4310","108966","657116","657696","653909","33668","657116","NA","Sternberg Task","81","65153","103","yes","1024"
"78.84615384615384","78.84615384615384","632.6346153846154","632.6346153846154","black","experiment","legacy","legacy","legacy","0","uniform","1","undefined","1","left","103","103","0","103","0","103","103","0","0","103","103","103","0","103","0","Wed Oct 12 13:21:33 2022","The main experiment item","yes","SternbergTask.osexp","C:/Users/Austin/Documents/PSYC 5316/Lab 3","no","mono","no","18","no","white","no","yes","768","legacy","91","11","C:/Users/Austin/Documents/PSYC 5316/Lab 3/AH-subject-1.csv","legacy","8","Lentiform Loewenfeld","3.3.12","1","y","0","left","right","right","left","NA","641","29356","4203","641","NA","2","legacy","1","1024","2","48000","-16","experiment","1","odd","8","661084","657704","113170","658871","4302","658876","645817","4310","108966","663087","663730","659880","33668","663087","NA","Sternberg Task","82","65794","104","yes","1024"
"78.0952380952381","78.0952380952381","632.552380952381","632.552380952381","black","experiment","legacy","legacy","legacy","0","uniform","0","undefined","0","right","104","104","0","104","0","104","104","0","0","104","104","104","0","104","0","Wed Oct 12 13:21:33 2022","The main experiment item","yes","SternbergTask.osexp","C:/Users/Austin/Documents/PSYC 5316/Lab 3","no","mono","no","18","no","white","no","yes","768","legacy","92","11","C:/Users/Austin/Documents/PSYC 5316/Lab 3/AH-subject-1.csv","legacy","4 2 6 9","Lentiform Loewenfeld","3.3.12","0","n","0","left","right","right","left","NA","624","29356","4203","624","NA","2","legacy","4","1024","2","48000","-16","experiment","1","odd","7","667100","663738","113170","664889","4302","664893","645817","4310","108966","669103","669729","665896","33668","669103","NA","Sternberg Task","82","66418","105","yes","1024"
"78.30188679245283","78.30188679245283","631.7075471698113","631.7075471698113","black","experiment","legacy","legacy","legacy","0","uniform","1","undefined","1","right","105","105","0","105","0","105","105","0","0","105","105","105","0","105","0","Wed Oct 12 13:21:33 2022","The main experiment item","yes","SternbergTask.osexp","C:/Users/Austin/Documents/PSYC 5316/Lab 3","no","mono","no","18","no","white","no","yes","768","legacy","93","11","C:/Users/Austin/Documents/PSYC 5316/Lab 3/AH-subject-1.csv","legacy","5 3 8 7 2 4","Lentiform Loewenfeld","3.3.12","0","n","0","right","right","right","right","NA","543","29356","4203","543","NA","2","legacy","6","1024","2","48000","-16","experiment","1","odd","9","673102","663738","113170","670890","4302","670894","669737","4310","108966","675105","675650","671898","33668","675105","NA","Sternberg Task","83","66961","106","yes","1024"
"78.50467289719626","78.50467289719626","630.7850467289719","630.7850467289719","black","experiment","legacy","legacy","legacy","0","uniform","1","undefined","1","right","106","106","0","106","0","106","106","0","0","106","106","106","0","106","0","Wed Oct 12 13:21:33 2022","The main experiment item","yes","SternbergTask.osexp","C:/Users/Austin/Documents/PSYC 5316/Lab 3","no","mono","no","18","no","white","no","yes","768","legacy","94","11","C:/Users/Austin/Documents/PSYC 5316/Lab 3/AH-subject-1.csv","legacy","3 4 9 6 7 8","Lentiform Loewenfeld","3.3.12","0","n","0","right","right","right","right","NA","533","29356","4203","533","NA","2","legacy","6","1024","2","48000","-16","experiment","1","odd","2","679018","675658","113170","676806","4302","676810","669737","4310","108966","681022","681557","677813","33668","681022","NA","Sternberg Task","84","67494","107","yes","1024"
"78.70370370370371","78.70370370370371","630.6388888888889","630.6388888888889","black","experiment","legacy","legacy","legacy","0","uniform","1","undefined","1","left","107","107","0","107","0","107","107","0","0","107","107","107","0","107","0","Wed Oct 12 13:21:33 2022","The main experiment item","yes","SternbergTask.osexp","C:/Users/Austin/Documents/PSYC 5316/Lab 3","no","mono","no","18","no","white","no","yes","768","legacy","95","11","C:/Users/Austin/Documents/PSYC 5316/Lab 3/AH-subject-1.csv","legacy","6 7 8 5","Lentiform Loewenfeld","3.3.12","3","y","0","left","right","right","left","NA","615","29356","4203","615","NA","2","legacy","4","1024","2","48000","-16","experiment","1","odd","8","684941","681566","113170","682727","4302","682732","669737","4310","108966","686944","687561","683737","33668","686944","NA","Sternberg Task","85","68109","108","yes","1024"
"77.98165137614679","77.98165137614679","629.6330275229358","629.6330275229358","black","experiment","legacy","legacy","legacy","0","uniform","0","undefined","0","left","108","108","0","108","0","108","108","0","0","108","108","108","0","108","0","Wed Oct 12 13:21:33 2022","The main experiment item","yes","SternbergTask.osexp","C:/Users/Austin/Documents/PSYC 5316/Lab 3","no","mono","no","18","no","white","no","yes","768","legacy","96","11","C:/Users/Austin/Documents/PSYC 5316/Lab 3/AH-subject-1.csv","legacy","8 5 3 7 4 6","Lentiform Loewenfeld","3.3.12","6","y","0","right","right","right","right","NA","521","29356","4203","521","NA","2","legacy","6","1024","2","48000","-16","experiment","1","odd","6","690941","687571","113170","688730","4302","688733","669737","4310","108966","692946","693469","689737","33668","692946","NA","Sternberg Task","85","68630","109","yes","1024"
"78.18181818181819","78.18181818181819","627.6","627.6","black","experiment","legacy","legacy","legacy","0","uniform","1","undefined","1","left","109","109","0","109","0","109","109","0","0","109","109","109","0","109","0","Wed Oct 12 13:21:33 2022","The main experiment item","yes","SternbergTask.osexp","C:/Users/Austin/Documents/PSYC 5316/Lab 3","no","mono","no","18","no","white","no","yes","768","legacy","97","11","C:/Users/Austin/Documents/PSYC 5316/Lab 3/AH-subject-1.csv","legacy","8 3","Lentiform Loewenfeld","3.3.12","2","y","0","left","right","right","left","NA","406","29356","4203","406","NA","2","legacy","2","1024","2","48000","-16","experiment","1","odd","3","696859","687571","113170","694646","4302","694650","693478","4310","108966","698865","699274","695653","33668","698864","NA","Sternberg Task","86","69036","110","yes","1024"
"78.37837837837837","78.37837837837837","625.2072072072073","625.2072072072073","black","experiment","legacy","legacy","legacy","0","uniform","1","undefined","1","left","110","110","0","110","0","110","110","0","0","110","110","110","0","110","0","Wed Oct 12 13:21:33 2022","The main experiment item","yes","SternbergTask.osexp","C:/Users/Austin/Documents/PSYC 5316/Lab 3","no","mono","no","18","no","white","no","yes","768","legacy","98","11","C:/Users/Austin/Documents/PSYC 5316/Lab 3/AH-subject-1.csv","legacy","2 8 5 1","Lentiform Loewenfeld","3.3.12","4","y","0","left","right","right","left","NA","362","29356","4203","362","NA","2","legacy","4","1024","2","48000","-16","experiment","1","odd","1","702658","699283","113170","700446","4302","700450","693478","4310","108966","704662","705026","701453","33668","704662","NA","Sternberg Task","87","69398","111","yes","1024"
"77.67857142857143","77.67857142857143","624.5357142857143","624.5357142857143","black","experiment","legacy","legacy","legacy","0","uniform","0","undefined","0","right","111","111","0","111","0","111","111","0","0","111","111","111","0","111","0","Wed Oct 12 13:21:33 2022","The main experiment item","yes","SternbergTask.osexp","C:/Users/Austin/Documents/PSYC 5316/Lab 3","no","mono","no","18","no","white","no","yes","768","legacy","99","11","C:/Users/Austin/Documents/PSYC 5316/Lab 3/AH-subject-1.csv","legacy","6 3 1 7 9 8","Lentiform Loewenfeld","3.3.12","0","n","0","left","right","right","left","NA","550","29356","4203","550","NA","2","legacy","6","1024","2","48000","-16","experiment","1","odd","4","708412","705035","113170","706201","4302","706205","693478","4310","108966","710418","710970","707209","33668","710417","NA","Sternberg Task","87","69948","112","yes","1024"
"76.99115044247787","76.99115044247787","621.4690265486726","621.4690265486726","black","experiment","legacy","legacy","legacy","0","uniform","0","undefined","0","left","112","112","0","112","0","112","112","0","0","112","112","112","0","112","0","Wed Oct 12 13:21:33 2022","The main experiment item","yes","SternbergTask.osexp","C:/Users/Austin/Documents/PSYC 5316/Lab 3","no","mono","no","18","no","white","no","yes","768","legacy","100","11","C:/Users/Austin/Documents/PSYC 5316/Lab 3/AH-subject-1.csv","legacy","2 5 4 8 7","Lentiform Loewenfeld","3.3.12","3","y","0","right","right","right","right","NA","278","29356","4203","278","NA","2","legacy","5","1024","2","48000","-16","experiment","1","odd","4","714336","705035","113170","712124","4302","712128","710978","4310","108966","716342","716622","713131","33668","716341","NA","Sternberg Task","87","70226","113","yes","1024"
"77.19298245614036","77.19298245614036","620.6578947368421","620.6578947368421","black","experiment","legacy","legacy","legacy","0","uniform","1","undefined","1","left","113","113","0","113","0","113","113","0","0","113","113","113","0","113","0","Wed Oct 12 13:21:33 2022","The main experiment item","yes","SternbergTask.osexp","C:/Users/Austin/Documents/PSYC 5316/Lab 3","no","mono","no","18","no","white","no","yes","768","legacy","101","11","C:/Users/Austin/Documents/PSYC 5316/Lab 3/AH-subject-1.csv","legacy","8 9 6 1","Lentiform Loewenfeld","3.3.12","2","y","0","left","right","right","left","NA","529","29356","4203","529","NA","2","legacy","4","1024","2","48000","-16","experiment","1","odd","9","719991","705035","113170","717779","4302","717783","716630","4310","108966","721994","722525","718787","33668","721994","NA","Sternberg Task","88","70755","114","yes","1024"
