"acc","accuracy","average_response_time","avg_rt","background","block","canvas_backend","clock_backend","color_backend","compensation","coordinates","correct","correct_instruction1","correct_keyboard_response","correct_response","count_ISI","count_correctFeedback","count_experiment","count_experimentalLoop","count_expsequence","count_fixation","count_incorrectFeedback","count_instruction1","count_instruction2","count_instruction3","count_keyboard_response","count_logger","count_memoryset","count_practiceloop","count_probe","datetime","description","disable_garbage_collection","experiment_file","experiment_path","font_bold","font_family","font_italic","font_size","font_underline","foreground","form_clicks","fullscreen","height","keyboard_backend","live_row","live_row_practiceloop","logfile","mouse_backend","numberSet","opensesame_codename","opensesame_version","posInSet","present","repeat_cycle","response","response_instruction1","response_instruction2","response_instruction3","response_keyboard_response","response_time","response_time_instruction1","response_time_instruction2","response_time_instruction3","response_time_keyboard_response","round_decimals","sampler_backend","setSize","sound_buf_size","sound_channels","sound_freq","sound_sample_size","start","subject_nr","subject_parity","target","time_ISI","time_correctFeedback","time_experiment","time_experimentalLoop","time_expsequence","time_fixation","time_incorrectFeedback","time_instruction1","time_instruction2","time_instruction3","time_keyboard_response","time_logger","time_memoryset","time_practiceloop","time_probe","title","total_correct","total_response_time","total_responses","uniform_coordinates","width"
"0","0","517","517","black","practice","legacy","legacy","legacy","0","uniform","0","undefined","0","left","0","0","0","0","0","0","0","0","0","0","0","0","0","0","0","10/23/22 20:15:33","The main experiment item","yes","SternbergTask.osexp","C:/Users/casme/OneDrive/Desktop/Fall 2022","no","mono","no","18","no","white","no","yes","768","legacy","0","0","C:/Users/casme/OneDrive/Desktop/Fall 2022/IC-subjectx-4.csv","legacy","1 7 9 8 5","Lentiform Loewenfeld","3.3.12","4","y","0","right","left","NA","NA","right","517","2702","NA","NA","517","2","legacy","5","1024","2","48000","-16","experiment","4","even","8","7900","NA","2253","NA","5693","5695","NA","2255","NA","NA","9906","10423","6697","4959","9903","Sternberg Task","0","517","1","yes","1024"
"0","0","1258.5","1258.5","black","practice","legacy","legacy","legacy","0","uniform","0","undefined","0","right","1","1","0","0","1","1","1","0","0","0","1","1","1","0","1","10/23/22 20:15:33","The main experiment item","yes","SternbergTask.osexp","C:/Users/casme/OneDrive/Desktop/Fall 2022","no","mono","no","18","no","white","no","yes","768","legacy","1","1","C:/Users/casme/OneDrive/Desktop/Fall 2022/IC-subjectx-4.csv","legacy","5 7 8 4 1 2","Lentiform Loewenfeld","3.3.12","0","n","0","None","left","NA","NA","None","2000","2702","NA","NA","2000","2","legacy","6","1024","2","48000","-16","experiment","4","even","6","13758","NA","2253","NA","11550","11552","10473","2255","NA","NA","15762","17762","12555","4959","15762","Sternberg Task","0","2517","2","yes","1024"
"33.3333333333","33.3333333333","1227.33333333","1227.33333333","black","practice","legacy","legacy","legacy","0","uniform","1","undefined","1","right","2","2","0","0","2","2","2","0","0","0","2","2","2","0","2","10/23/22 20:15:33","The main experiment item","yes","SternbergTask.osexp","C:/Users/casme/OneDrive/Desktop/Fall 2022","no","mono","no","18","no","white","no","yes","768","legacy","2","2","C:/Users/casme/OneDrive/Desktop/Fall 2022/IC-subjectx-4.csv","legacy","3 1 9 4","Lentiform Loewenfeld","3.3.12","0","n","0","right","left","NA","NA","right","1165","2702","NA","NA","1165","2","legacy","4","1024","2","48000","-16","experiment","4","even","6","21078","NA","2253","NA","18871","18873","17767","2255","NA","NA","23079","24244","19875","4959","23079","Sternberg Task","1","3682","3","yes","1024"
"50","50","1121.75","1121.75","black","practice","legacy","legacy","legacy","0","uniform","1","undefined","1","left","3","3","0","0","3","3","3","0","0","0","3","3","3","0","3","10/23/22 20:15:33","The main experiment item","yes","SternbergTask.osexp","C:/Users/casme/OneDrive/Desktop/Fall 2022","no","mono","no","18","no","white","no","yes","768","legacy","3","3","C:/Users/casme/OneDrive/Desktop/Fall 2022/IC-subjectx-4.csv","legacy","1 5 2 9","Lentiform Loewenfeld","3.3.12","2","y","0","left","left","NA","NA","left","805","2702","NA","NA","805","2","legacy","4","1024","2","48000","-16","experiment","4","even","5","27536","24250","2253","NA","25329","25331","17767","2255","NA","NA","29538","30343","26333","4959","29538","Sternberg Task","2","4487","4","yes","1024"
"60","60","1066.2","1066.2","black","practice","legacy","legacy","legacy","0","uniform","1","undefined","1","right","4","4","0","0","4","4","4","0","0","0","4","4","4","0","4","10/23/22 20:15:33","The main experiment item","yes","SternbergTask.osexp","C:/Users/casme/OneDrive/Desktop/Fall 2022","no","mono","no","18","no","white","no","yes","768","legacy","4","4","C:/Users/casme/OneDrive/Desktop/Fall 2022/IC-subjectx-4.csv","legacy","9 6 7 4 5","Lentiform Loewenfeld","3.3.12","0","n","0","right","left","NA","NA","right","844","2702","NA","NA","844","2","legacy","5","1024","2","48000","-16","experiment","4","even","3","33631","30349","2253","NA","31426","31427","17767","2255","NA","NA","35632","36477","32429","4959","35632","Sternberg Task","3","5331","5","yes","1024"
"66.6666666667","66.6666666667","1013","1013","black","practice","legacy","legacy","legacy","0","uniform","1","undefined","1","right","5","5","0","0","5","5","5","0","0","0","5","5","5","0","5","10/23/22 20:15:33","The main experiment item","yes","SternbergTask.osexp","C:/Users/casme/OneDrive/Desktop/Fall 2022","no","mono","no","18","no","white","no","yes","768","legacy","5","5","C:/Users/casme/OneDrive/Desktop/Fall 2022/IC-subjectx-4.csv","legacy","5","Lentiform Loewenfeld","3.3.12","0","n","0","right","left","NA","NA","right","747","2702","NA","NA","747","2","legacy","1","1024","2","48000","-16","experiment","4","even","3","39753","36482","2253","NA","37548","37549","17767","2255","NA","NA","41754","42501","38551","4959","41754","Sternberg Task","4","6078","6","yes","1024"
"71.4285714286","71.4285714286","944.857142857","944.857142857","black","practice","legacy","legacy","legacy","0","uniform","1","undefined","1","right","6","6","0","0","6","6","6","0","0","0","6","6","6","0","6","10/23/22 20:15:33","The main experiment item","yes","SternbergTask.osexp","C:/Users/casme/OneDrive/Desktop/Fall 2022","no","mono","no","18","no","white","no","yes","768","legacy","6","6","C:/Users/casme/OneDrive/Desktop/Fall 2022/IC-subjectx-4.csv","legacy","4 1 5","Lentiform Loewenfeld","3.3.12","0","n","0","right","left","NA","NA","right","536","2702","NA","NA","536","2","legacy","3","1024","2","48000","-16","experiment","4","even","2","45792","42508","2253","NA","43586","43588","17767","2255","NA","NA","47795","48332","44590","4959","47794","Sternberg Task","5","6614","7","yes","1024"
"75","75","923","923","black","practice","legacy","legacy","legacy","0","uniform","1","undefined","1","left","7","7","0","0","7","7","7","0","0","0","7","7","7","0","7","10/23/22 20:15:33","The main experiment item","yes","SternbergTask.osexp","C:/Users/casme/OneDrive/Desktop/Fall 2022","no","mono","no","18","no","white","no","yes","768","legacy","7","7","C:/Users/casme/OneDrive/Desktop/Fall 2022/IC-subjectx-4.csv","legacy","6","Lentiform Loewenfeld","3.3.12","1","y","0","left","left","NA","NA","left","770","2702","NA","NA","770","2","legacy","1","1024","2","48000","-16","experiment","4","even","6","51604","48338","2253","NA","49398","49400","17767","2255","NA","NA","53607","54377","50402","4959","53606","Sternberg Task","6","7384","8","yes","1024"
"77.7777777778","77.7777777778","998.777777778","998.777777778","black","practice","legacy","legacy","legacy","0","uniform","1","undefined","1","left","8","8","0","0","8","8","8","0","0","0","8","8","8","0","8","10/23/22 20:15:33","The main experiment item","yes","SternbergTask.osexp","C:/Users/casme/OneDrive/Desktop/Fall 2022","no","mono","no","18","no","white","no","yes","768","legacy","8","8","C:/Users/casme/OneDrive/Desktop/Fall 2022/IC-subjectx-4.csv","legacy","2 9 4","Lentiform Loewenfeld","3.3.12","3","y","0","left","left","NA","NA","left","1605","2702","NA","NA","1605","2","legacy","3","1024","2","48000","-16","experiment","4","even","4","57667","54383","2253","NA","55460","55462","17767","2255","NA","NA","59670","61275","56464","4959","59670","Sternberg Task","7","8989","9","yes","1024"
"70","70","1015.8","1015.8","black","practice","legacy","legacy","legacy","0","uniform","0","undefined","0","left","9","9","0","0","9","9","9","0","0","0","9","9","9","0","9","10/23/22 20:15:33","The main experiment item","yes","SternbergTask.osexp","C:/Users/casme/OneDrive/Desktop/Fall 2022","no","mono","no","18","no","white","no","yes","768","legacy","9","9","C:/Users/casme/OneDrive/Desktop/Fall 2022/IC-subjectx-4.csv","legacy","4 3 1 7 9 8","Lentiform Loewenfeld","3.3.12","1","y","0","right","left","NA","NA","right","1169","2702","NA","NA","1169","2","legacy","6","1024","2","48000","-16","experiment","4","even","4","64563","61280","2253","NA","62357","62359","17767","2255","NA","NA","66566","67735","63361","4959","66566","Sternberg Task","7","10158","10","yes","1024"
"72.7272727273","72.7272727273","981.363636364","981.363636364","black","practice","legacy","legacy","legacy","0","uniform","1","undefined","1","left","10","10","0","0","10","10","10","0","0","0","10","10","10","0","10","10/23/22 20:15:33","The main experiment item","yes","SternbergTask.osexp","C:/Users/casme/OneDrive/Desktop/Fall 2022","no","mono","no","18","no","white","no","yes","768","legacy","10","10","C:/Users/casme/OneDrive/Desktop/Fall 2022/IC-subjectx-4.csv","legacy","4 8","Lentiform Loewenfeld","3.3.12","1","y","0","left","left","NA","NA","left","637","2702","NA","NA","637","2","legacy","2","1024","2","48000","-16","experiment","4","even","4","71024","61280","2253","NA","68817","68819","67741","2255","NA","NA","73028","73666","69821","4959","73028","Sternberg Task","8","10795","11","yes","1024"
"66.6666666667","66.6666666667","1032","1032","black","practice","legacy","legacy","legacy","0","uniform","0","undefined","0","right","11","11","0","0","11","11","11","0","0","0","11","11","11","0","11","10/23/22 20:15:33","The main experiment item","yes","SternbergTask.osexp","C:/Users/casme/OneDrive/Desktop/Fall 2022","no","mono","no","18","no","white","no","yes","768","legacy","11","11","C:/Users/casme/OneDrive/Desktop/Fall 2022/IC-subjectx-4.csv","legacy","2 1","Lentiform Loewenfeld","3.3.12","0","n","0","left","left","NA","NA","left","1589","2702","NA","NA","1589","2","legacy","2","1024","2","48000","-16","experiment","4","even","5","76958","73672","2253","NA","74751","74753","67741","2255","NA","NA","78960","80549","75755","4959","78960","Sternberg Task","8","12384","12","yes","1024"
"61.5384615385","61.5384615385","1106.46153846","1106.46153846","black","experiment","legacy","legacy","legacy","0","uniform","0","undefined","0","left","12","12","0","0","12","12","12","0","0","0","12","12","12","0","12","10/23/22 20:15:33","The main experiment item","yes","SternbergTask.osexp","C:/Users/casme/OneDrive/Desktop/Fall 2022","no","mono","no","18","no","white","no","yes","768","legacy","0","11","C:/Users/casme/OneDrive/Desktop/Fall 2022/IC-subjectx-4.csv","legacy","5 7 8 2 3 8","Lentiform Loewenfeld","3.3.12","5","y","0","None","left","right","NA","None","2000","2702","1688","NA","2000","2","legacy","6","1024","2","48000","-16","experiment","4","even","3","85538","73672","2253","83257","83333","83334","80555","2255","81569","NA","87540","89540","84336","4959","87540","Sternberg Task","8","14384","13","yes","1024"
"57.1428571429","57.1428571429","1082.57142857","1082.57142857","black","experiment","legacy","legacy","legacy","0","uniform","0","undefined","0","left","13","13","0","0","13","13","13","0","0","0","13","13","13","0","13","10/23/22 20:15:33","The main experiment item","yes","SternbergTask.osexp","C:/Users/casme/OneDrive/Desktop/Fall 2022","no","mono","no","18","no","white","no","yes","768","legacy","1","11","C:/Users/casme/OneDrive/Desktop/Fall 2022/IC-subjectx-4.csv","legacy","5 7 3 6 2","Lentiform Loewenfeld","3.3.12","5","y","0","right","left","right","NA","right","772","2702","1688","NA","772","2","legacy","5","1024","2","48000","-16","experiment","4","even","2","92832","73672","2253","83257","90626","90627","89546","2255","81569","NA","94835","95608","91630","4959","94834","Sternberg Task","8","15156","14","yes","1024"
"60","60","1048.6","1048.6","black","experiment","legacy","legacy","legacy","0","uniform","1","undefined","1","right","14","14","0","0","14","14","14","0","0","0","14","14","14","0","14","10/23/22 20:15:33","The main experiment item","yes","SternbergTask.osexp","C:/Users/casme/OneDrive/Desktop/Fall 2022","no","mono","no","18","no","white","no","yes","768","legacy","2","11","C:/Users/casme/OneDrive/Desktop/Fall 2022/IC-subjectx-4.csv","legacy","2 7 5","Lentiform Loewenfeld","3.3.12","0","n","0","right","left","right","NA","right","573","2702","1688","NA","573","2","legacy","3","1024","2","48000","-16","experiment","4","even","8","98882","73672","2253","83257","96674","96676","95612","2255","81569","NA","100885","101458","97679","4959","100885","Sternberg Task","9","15729","15","yes","1024"
"56.25","56.25","1108.0625","1108.0625","black","experiment","legacy","legacy","legacy","0","uniform","0","undefined","0","right","15","15","0","0","15","15","15","0","0","0","15","15","15","0","15","10/23/22 20:15:33","The main experiment item","yes","SternbergTask.osexp","C:/Users/casme/OneDrive/Desktop/Fall 2022","no","mono","no","18","no","white","no","yes","768","legacy","3","11","C:/Users/casme/OneDrive/Desktop/Fall 2022/IC-subjectx-4.csv","legacy","4 2 6 9","Lentiform Loewenfeld","3.3.12","0","n","0","None","left","right","NA","None","2000","2702","1688","NA","2000","2","legacy","4","1024","2","48000","-16","experiment","4","even","7","104745","101464","2253","83257","102539","102541","95612","2255","81569","NA","106747","108747","103543","4959","106747","Sternberg Task","9","17729","16","yes","1024"
"58.8235294118","58.8235294118","1072.47058824","1072.47058824","black","experiment","legacy","legacy","legacy","0","uniform","1","undefined","1","right","16","16","0","0","16","16","16","0","0","0","16","16","16","0","16","10/23/22 20:15:33","The main experiment item","yes","SternbergTask.osexp","C:/Users/casme/OneDrive/Desktop/Fall 2022","no","mono","no","18","no","white","no","yes","768","legacy","4","11","C:/Users/casme/OneDrive/Desktop/Fall 2022/IC-subjectx-4.csv","legacy","7 9","Lentiform Loewenfeld","3.3.12","0","n","0","right","left","right","NA","right","503","2702","1688","NA","503","2","legacy","2","1024","2","48000","-16","experiment","4","even","1","112036","101464","2253","83257","109830","109832","108752","2255","81569","NA","114039","114542","110834","4959","114039","Sternberg Task","10","18232","17","yes","1024"
"55.5555555556","55.5555555556","1045.22222222","1045.22222222","black","experiment","legacy","legacy","legacy","0","uniform","0","undefined","0","left","17","17","0","0","17","17","17","0","0","0","17","17","17","0","17","10/23/22 20:15:33","The main experiment item","yes","SternbergTask.osexp","C:/Users/casme/OneDrive/Desktop/Fall 2022","no","mono","no","18","no","white","no","yes","768","legacy","5","11","C:/Users/casme/OneDrive/Desktop/Fall 2022/IC-subjectx-4.csv","legacy","8 3","Lentiform Loewenfeld","3.3.12","2","y","0","right","left","right","NA","right","582","2702","1688","NA","582","2","legacy","2","1024","2","48000","-16","experiment","4","even","3","117831","114549","2253","83257","115624","115626","108752","2255","81569","NA","119834","120416","116629","4959","119833","Sternberg Task","10","18814","18","yes","1024"
"52.6315789474","52.6315789474","1095.47368421","1095.47368421","black","experiment","legacy","legacy","legacy","0","uniform","0","undefined","0","right","18","18","0","0","18","18","18","0","0","0","18","18","18","0","18","10/23/22 20:15:33","The main experiment item","yes","SternbergTask.osexp","C:/Users/casme/OneDrive/Desktop/Fall 2022","no","mono","no","18","no","white","no","yes","768","legacy","6","11","C:/Users/casme/OneDrive/Desktop/Fall 2022/IC-subjectx-4.csv","legacy","2 8 9 4 1","Lentiform Loewenfeld","3.3.12","0","n","0","None","left","right","NA","None","2000","2702","1688","NA","2000","2","legacy","5","1024","2","48000","-16","experiment","4","even","5","123695","114549","2253","83257","121488","121490","120422","2255","81569","NA","125698","127698","122493","4959","125698","Sternberg Task","10","20814","19","yes","1024"
"55","55","1090.2","1090.2","black","experiment","legacy","legacy","legacy","0","uniform","1","undefined","1","right","19","19","0","0","19","19","19","0","0","0","19","19","19","0","19","10/23/22 20:15:33","The main experiment item","yes","SternbergTask.osexp","C:/Users/casme/OneDrive/Desktop/Fall 2022","no","mono","no","18","no","white","no","yes","768","legacy","7","11","C:/Users/casme/OneDrive/Desktop/Fall 2022/IC-subjectx-4.csv","legacy","7 9 1 6","Lentiform Loewenfeld","3.3.12","0","n","0","right","left","right","NA","right","990","2702","1688","NA","990","2","legacy","4","1024","2","48000","-16","experiment","4","even","4","130989","114549","2253","83257","128783","128784","127703","2255","81569","NA","132990","133981","129787","4959","132990","Sternberg Task","11","21804","20","yes","1024"
"57.1428571429","57.1428571429","1076.19047619","1076.19047619","black","experiment","legacy","legacy","legacy","0","uniform","1","undefined","1","right","20","20","0","0","20","20","20","0","0","0","20","20","20","0","20","10/23/22 20:15:33","The main experiment item","yes","SternbergTask.osexp","C:/Users/casme/OneDrive/Desktop/Fall 2022","no","mono","no","18","no","white","no","yes","768","legacy","8","11","C:/Users/casme/OneDrive/Desktop/Fall 2022/IC-subjectx-4.csv","legacy","8 5 7 3 6","Lentiform Loewenfeld","3.3.12","0","n","0","right","left","right","NA","right","796","2702","1688","NA","796","2","legacy","5","1024","2","48000","-16","experiment","4","even","9","137264","133986","2253","83257","135057","135059","127703","2255","81569","NA","139266","140062","136061","4959","139266","Sternberg Task","12","22600","21","yes","1024"
"54.5454545455","54.5454545455","1118.18181818","1118.18181818","black","experiment","legacy","legacy","legacy","0","uniform","0","undefined","0","left","21","21","0","0","21","21","21","0","0","0","21","21","21","0","21","10/23/22 20:15:33","The main experiment item","yes","SternbergTask.osexp","C:/Users/casme/OneDrive/Desktop/Fall 2022","no","mono","no","18","no","white","no","yes","768","legacy","9","11","C:/Users/casme/OneDrive/Desktop/Fall 2022/IC-subjectx-4.csv","legacy","5 2 6","Lentiform Loewenfeld","3.3.12","2","y","0","None","left","right","NA","None","2000","2702","1688","NA","2000","2","legacy","3","1024","2","48000","-16","experiment","4","even","2","143350","140068","2253","83257","141143","141145","127703","2255","81569","NA","145353","147353","142148","4959","145352","Sternberg Task","12","24600","22","yes","1024"
"56.5217391304","56.5217391304","1097.34782609","1097.34782609","black","experiment","legacy","legacy","legacy","0","uniform","1","undefined","1","right","22","22","0","0","22","22","22","0","0","0","22","22","22","0","22","10/23/22 20:15:33","The main experiment item","yes","SternbergTask.osexp","C:/Users/casme/OneDrive/Desktop/Fall 2022","no","mono","no","18","no","white","no","yes","768","legacy","10","11","C:/Users/casme/OneDrive/Desktop/Fall 2022/IC-subjectx-4.csv","legacy","1 7 5 2","Lentiform Loewenfeld","3.3.12","0","n","0","right","left","right","NA","right","639","2702","1688","NA","639","2","legacy","4","1024","2","48000","-16","experiment","4","even","3","150643","140068","2253","83257","148436","148437","147358","2255","81569","NA","152646","153286","149440","4959","152646","Sternberg Task","13","25239","23","yes","1024"
"58.3333333333","58.3333333333","1107.91666667","1107.91666667","black","experiment","legacy","legacy","legacy","0","uniform","1","undefined","1","left","23","23","0","0","23","23","23","0","0","0","23","23","23","0","23","10/23/22 20:15:33","The main experiment item","yes","SternbergTask.osexp","C:/Users/casme/OneDrive/Desktop/Fall 2022","no","mono","no","18","no","white","no","yes","768","legacy","11","11","C:/Users/casme/OneDrive/Desktop/Fall 2022/IC-subjectx-4.csv","legacy","2 4 8 5 1 3","Lentiform Loewenfeld","3.3.12","1","y","0","left","left","right","NA","left","1351","2702","1688","NA","1351","2","legacy","6","1024","2","48000","-16","experiment","4","even","2","156579","153293","2253","83257","154371","154373","147358","2255","81569","NA","158581","159932","155376","4959","158581","Sternberg Task","14","26590","24","yes","1024"
"60","60","1105.64","1105.64","black","experiment","legacy","legacy","legacy","0","uniform","1","undefined","1","left","24","24","0","0","24","24","24","0","0","0","24","24","24","0","24","10/23/22 20:15:33","The main experiment item","yes","SternbergTask.osexp","C:/Users/casme/OneDrive/Desktop/Fall 2022","no","mono","no","18","no","white","no","yes","768","legacy","12","11","C:/Users/casme/OneDrive/Desktop/Fall 2022/IC-subjectx-4.csv","legacy","7","Lentiform Loewenfeld","3.3.12","1","y","0","left","left","right","NA","left","1051","2702","1688","NA","1051","2","legacy","1","1024","2","48000","-16","experiment","4","even","7","163205","159938","2253","83257","161000","161001","147358","2255","81569","NA","165208","166259","162003","4959","165207","Sternberg Task","15","27641","25","yes","1024"
"61.5384615385","61.5384615385","1090.96153846","1090.96153846","black","experiment","legacy","legacy","legacy","0","uniform","1","undefined","1","left","25","25","0","0","25","25","25","0","0","0","25","25","25","0","25","10/23/22 20:15:33","The main experiment item","yes","SternbergTask.osexp","C:/Users/casme/OneDrive/Desktop/Fall 2022","no","mono","no","18","no","white","no","yes","768","legacy","13","11","C:/Users/casme/OneDrive/Desktop/Fall 2022/IC-subjectx-4.csv","legacy","8 7 3","Lentiform Loewenfeld","3.3.12","1","y","0","left","left","right","NA","left","724","2702","1688","NA","724","2","legacy","3","1024","2","48000","-16","experiment","4","even","8","169533","166265","2253","83257","167328","167330","147358","2255","81569","NA","171536","172260","168332","4959","171536","Sternberg Task","16","28365","26","yes","1024"
"62.962962963","62.962962963","1074.18518519","1074.18518519","black","experiment","legacy","legacy","legacy","0","uniform","1","undefined","1","right","26","26","0","0","26","26","26","0","0","0","26","26","26","0","26","10/23/22 20:15:33","The main experiment item","yes","SternbergTask.osexp","C:/Users/casme/OneDrive/Desktop/Fall 2022","no","mono","no","18","no","white","no","yes","768","legacy","14","11","C:/Users/casme/OneDrive/Desktop/Fall 2022/IC-subjectx-4.csv","legacy","2 5 1 4","Lentiform Loewenfeld","3.3.12","0","n","0","right","left","right","NA","right","638","2702","1688","NA","638","2","legacy","4","1024","2","48000","-16","experiment","4","even","6","175550","172268","2253","83257","173344","173346","147358","2255","81569","NA","177552","178190","174348","4959","177552","Sternberg Task","17","29003","27","yes","1024"
"64.2857142857","64.2857142857","1055.14285714","1055.14285714","black","experiment","legacy","legacy","legacy","0","uniform","1","undefined","1","right","27","27","0","0","27","27","27","0","0","0","27","27","27","0","27","10/23/22 20:15:33","The main experiment item","yes","SternbergTask.osexp","C:/Users/casme/OneDrive/Desktop/Fall 2022","no","mono","no","18","no","white","no","yes","768","legacy","15","11","C:/Users/casme/OneDrive/Desktop/Fall 2022/IC-subjectx-4.csv","legacy","5 2","Lentiform Loewenfeld","3.3.12","0","n","0","right","left","right","NA","right","541","2702","1688","NA","541","2","legacy","2","1024","2","48000","-16","experiment","4","even","7","181483","178197","2253","83257","179277","179279","147358","2255","81569","NA","183485","184027","180281","4959","183485","Sternberg Task","18","29544","28","yes","1024"
"65.5172413793","65.5172413793","1040.06896552","1040.06896552","black","experiment","legacy","legacy","legacy","0","uniform","1","undefined","1","right","28","28","0","0","28","28","28","0","0","0","28","28","28","0","28","10/23/22 20:15:33","The main experiment item","yes","SternbergTask.osexp","C:/Users/casme/OneDrive/Desktop/Fall 2022","no","mono","no","18","no","white","no","yes","768","legacy","16","11","C:/Users/casme/OneDrive/Desktop/Fall 2022/IC-subjectx-4.csv","legacy","1 7 8 3 9","Lentiform Loewenfeld","3.3.12","0","n","0","right","left","right","NA","right","618","2702","1688","NA","618","2","legacy","5","1024","2","48000","-16","experiment","4","even","2","187315","184032","2253","83257","185109","185111","147358","2255","81569","NA","189317","189935","186113","4959","189317","Sternberg Task","19","30162","29","yes","1024"
"63.3333333333","63.3333333333","1029.7","1029.7","black","experiment","legacy","legacy","legacy","0","uniform","0","undefined","0","left","29","29","0","0","29","29","29","0","0","0","29","29","29","0","29","10/23/22 20:15:33","The main experiment item","yes","SternbergTask.osexp","C:/Users/casme/OneDrive/Desktop/Fall 2022","no","mono","no","18","no","white","no","yes","768","legacy","17","11","C:/Users/casme/OneDrive/Desktop/Fall 2022/IC-subjectx-4.csv","legacy","9 1 6 7 8","Lentiform Loewenfeld","3.3.12","1","y","0","right","left","right","NA","right","729","2702","1688","NA","729","2","legacy","5","1024","2","48000","-16","experiment","4","even","9","193209","189941","2253","83257","191002","191003","147358","2255","81569","NA","195212","195941","192006","4959","195212","Sternberg Task","19","30891","30","yes","1024"
"64.5161290323","64.5161290323","1012.09677419","1012.09677419","black","experiment","legacy","legacy","legacy","0","uniform","1","undefined","1","left","30","30","0","0","30","30","30","0","0","0","30","30","30","0","30","10/23/22 20:15:33","The main experiment item","yes","SternbergTask.osexp","C:/Users/casme/OneDrive/Desktop/Fall 2022","no","mono","no","18","no","white","no","yes","768","legacy","18","11","C:/Users/casme/OneDrive/Desktop/Fall 2022/IC-subjectx-4.csv","legacy","8","Lentiform Loewenfeld","3.3.12","1","y","0","left","left","right","NA","left","484","2702","1688","NA","484","2","legacy","1","1024","2","48000","-16","experiment","4","even","8","199232","189941","2253","83257","197026","197028","195948","2255","81569","NA","201236","201721","198030","4959","201236","Sternberg Task","20","31375","31","yes","1024"
"65.625","65.625","1003.875","1003.875","black","experiment","legacy","legacy","legacy","0","uniform","1","undefined","1","left","31","31","0","0","31","31","31","0","0","0","31","31","31","0","31","10/23/22 20:15:33","The main experiment item","yes","SternbergTask.osexp","C:/Users/casme/OneDrive/Desktop/Fall 2022","no","mono","no","18","no","white","no","yes","768","legacy","19","11","C:/Users/casme/OneDrive/Desktop/Fall 2022/IC-subjectx-4.csv","legacy","6 5","Lentiform Loewenfeld","3.3.12","2","y","0","left","left","right","NA","left","749","2702","1688","NA","749","2","legacy","2","1024","2","48000","-16","experiment","4","even","5","205011","201727","2253","83257","202805","202806","195948","2255","81569","NA","207013","207762","203808","4959","207013","Sternberg Task","21","32124","32","yes","1024"
"63.6363636364","63.6363636364","989.060606061","989.060606061","black","experiment","legacy","legacy","legacy","0","uniform","0","undefined","0","left","32","32","0","0","32","32","32","0","0","0","32","32","32","0","32","10/23/22 20:15:33","The main experiment item","yes","SternbergTask.osexp","C:/Users/casme/OneDrive/Desktop/Fall 2022","no","mono","no","18","no","white","no","yes","768","legacy","20","11","C:/Users/casme/OneDrive/Desktop/Fall 2022/IC-subjectx-4.csv","legacy","8 5 3 7 4 6","Lentiform Loewenfeld","3.3.12","6","y","0","right","left","right","NA","right","515","2702","1688","NA","515","2","legacy","6","1024","2","48000","-16","experiment","4","even","6","211050","207769","2253","83257","208843","208845","195948","2255","81569","NA","213053","213569","209848","4959","213052","Sternberg Task","21","32639","33","yes","1024"
"61.7647058824","61.7647058824","1018.79411765","1018.79411765","black","experiment","legacy","legacy","legacy","0","uniform","0","undefined","0","left","33","33","0","0","33","33","33","0","0","0","33","33","33","0","33","10/23/22 20:15:33","The main experiment item","yes","SternbergTask.osexp","C:/Users/casme/OneDrive/Desktop/Fall 2022","no","mono","no","18","no","white","no","yes","768","legacy","21","11","C:/Users/casme/OneDrive/Desktop/Fall 2022/IC-subjectx-4.csv","legacy","3 5 9 6 2 4","Lentiform Loewenfeld","3.3.12","1","y","0","None","left","right","NA","None","2000","2702","1688","NA","2000","2","legacy","6","1024","2","48000","-16","experiment","4","even","3","216856","207769","2253","83257","214651","214653","213575","2255","81569","NA","218858","220858","215654","4959","218858","Sternberg Task","21","34639","34","yes","1024"
"62.8571428571","62.8571428571","1009.45714286","1009.45714286","black","experiment","legacy","legacy","legacy","0","uniform","1","undefined","1","right","34","34","0","0","34","34","34","0","0","0","34","34","34","0","34","10/23/22 20:15:33","The main experiment item","yes","SternbergTask.osexp","C:/Users/casme/OneDrive/Desktop/Fall 2022","no","mono","no","18","no","white","no","yes","768","legacy","22","11","C:/Users/casme/OneDrive/Desktop/Fall 2022/IC-subjectx-4.csv","legacy","1 4 9 3","Lentiform Loewenfeld","3.3.12","0","n","0","right","left","right","NA","right","692","2702","1688","NA","692","2","legacy","4","1024","2","48000","-16","experiment","4","even","5","224147","207769","2253","83257","221941","221943","220864","2255","81569","NA","226148","226840","222945","4959","226148","Sternberg Task","22","35331","35","yes","1024"
"63.8888888889","63.8888888889","1006.27777778","1006.27777778","black","experiment","legacy","legacy","legacy","0","uniform","1","undefined","1","left","35","35","0","0","35","35","35","0","0","0","35","35","35","0","35","10/23/22 20:15:33","The main experiment item","yes","SternbergTask.osexp","C:/Users/casme/OneDrive/Desktop/Fall 2022","no","mono","no","18","no","white","no","yes","768","legacy","23","11","C:/Users/casme/OneDrive/Desktop/Fall 2022/IC-subjectx-4.csv","legacy","8 9 5 6 7","Lentiform Loewenfeld","3.3.12","1","y","0","left","left","right","NA","left","895","2702","1688","NA","895","2","legacy","5","1024","2","48000","-16","experiment","4","even","8","230131","226847","2253","83257","227924","227926","220864","2255","81569","NA","232134","233029","228928","4959","232133","Sternberg Task","23","36226","36","yes","1024"
"62.1621621622","62.1621621622","990.945945946","990.945945946","black","experiment","legacy","legacy","legacy","0","uniform","0","undefined","0","left","36","36","0","0","36","36","36","0","0","0","36","36","36","0","36","10/23/22 20:15:33","The main experiment item","yes","SternbergTask.osexp","C:/Users/casme/OneDrive/Desktop/Fall 2022","no","mono","no","18","no","white","no","yes","768","legacy","24","11","C:/Users/casme/OneDrive/Desktop/Fall 2022/IC-subjectx-4.csv","legacy","3 2 1 4 7","Lentiform Loewenfeld","3.3.12","2","y","0","right","left","right","NA","right","439","2702","1688","NA","439","2","legacy","5","1024","2","48000","-16","experiment","4","even","2","236315","233037","2253","83257","234108","234111","220864","2255","81569","NA","238318","238758","235113","4959","238318","Sternberg Task","23","36665","37","yes","1024"
"63.1578947368","63.1578947368","991.368421053","991.368421053","black","experiment","legacy","legacy","legacy","0","uniform","1","undefined","1","left","37","37","0","0","37","37","37","0","0","0","37","37","37","0","37","10/23/22 20:15:33","The main experiment item","yes","SternbergTask.osexp","C:/Users/casme/OneDrive/Desktop/Fall 2022","no","mono","no","18","no","white","no","yes","768","legacy","25","11","C:/Users/casme/OneDrive/Desktop/Fall 2022/IC-subjectx-4.csv","legacy","4 7 6 8 2 3","Lentiform Loewenfeld","3.3.12","6","y","0","left","left","right","NA","left","1007","2702","1688","NA","1007","2","legacy","6","1024","2","48000","-16","experiment","4","even","3","242050","233037","2253","83257","239845","239846","238763","2255","81569","NA","244052","245059","240848","4959","244052","Sternberg Task","24","37672","38","yes","1024"
"64.1025641026","64.1025641026","983.205128205","983.205128205","black","experiment","legacy","legacy","legacy","0","uniform","1","undefined","1","left","38","38","0","0","38","38","38","0","0","0","38","38","38","0","38","10/23/22 20:15:33","The main experiment item","yes","SternbergTask.osexp","C:/Users/casme/OneDrive/Desktop/Fall 2022","no","mono","no","18","no","white","no","yes","768","legacy","26","11","C:/Users/casme/OneDrive/Desktop/Fall 2022/IC-subjectx-4.csv","legacy","8 9 6 1","Lentiform Loewenfeld","3.3.12","2","y","0","left","left","right","NA","left","673","2702","1688","NA","673","2","legacy","4","1024","2","48000","-16","experiment","4","even","9","248351","245066","2253","83257","246145","246147","238763","2255","81569","NA","250353","251026","247149","4959","250353","Sternberg Task","25","38345","39","yes","1024"
"65","65","976.9","976.9","black","experiment","legacy","legacy","legacy","0","uniform","1","undefined","1","left","39","39","0","0","39","39","39","0","0","0","39","39","39","0","39","10/23/22 20:15:33","The main experiment item","yes","SternbergTask.osexp","C:/Users/casme/OneDrive/Desktop/Fall 2022","no","mono","no","18","no","white","no","yes","768","legacy","27","11","C:/Users/casme/OneDrive/Desktop/Fall 2022/IC-subjectx-4.csv","legacy","6 1 2","Lentiform Loewenfeld","3.3.12","3","y","0","left","left","right","NA","left","731","2702","1688","NA","731","2","legacy","3","1024","2","48000","-16","experiment","4","even","2","254310","251032","2253","83257","252105","252106","238763","2255","81569","NA","256313","257045","253108","4959","256313","Sternberg Task","26","39076","40","yes","1024"
"65.8536585366","65.8536585366","966.902439024","966.902439024","black","experiment","legacy","legacy","legacy","0","uniform","1","undefined","1","right","40","40","0","0","40","40","40","0","0","0","40","40","40","0","40","10/23/22 20:15:33","The main experiment item","yes","SternbergTask.osexp","C:/Users/casme/OneDrive/Desktop/Fall 2022","no","mono","no","18","no","white","no","yes","768","legacy","28","11","C:/Users/casme/OneDrive/Desktop/Fall 2022/IC-subjectx-4.csv","legacy","6 9 4 5 2","Lentiform Loewenfeld","3.3.12","0","n","0","right","left","right","NA","right","567","2702","1688","NA","567","2","legacy","5","1024","2","48000","-16","experiment","4","even","1","260333","257051","2253","83257","258127","258129","238763","2255","81569","NA","262335","262903","259131","4959","262335","Sternberg Task","27","39643","41","yes","1024"
"64.2857142857","64.2857142857","965.523809524","965.523809524","black","experiment","legacy","legacy","legacy","0","uniform","0","undefined","0","left","41","41","0","0","41","41","41","0","0","0","41","41","41","0","41","10/23/22 20:15:33","The main experiment item","yes","SternbergTask.osexp","C:/Users/casme/OneDrive/Desktop/Fall 2022","no","mono","no","18","no","white","no","yes","768","legacy","29","11","C:/Users/casme/OneDrive/Desktop/Fall 2022/IC-subjectx-4.csv","legacy","2 3 7 4","Lentiform Loewenfeld","3.3.12","1","y","0","right","left","right","NA","right","909","2702","1688","NA","909","2","legacy","4","1024","2","48000","-16","experiment","4","even","2","266176","262908","2253","83257","263970","263972","238763","2255","81569","NA","268178","269087","264974","4959","268178","Sternberg Task","27","40552","42","yes","1024"
"65.1162790698","65.1162790698","977","977","black","experiment","legacy","legacy","legacy","0","uniform","1","undefined","1","right","42","42","0","0","42","42","42","0","0","0","42","42","42","0","42","10/23/22 20:15:33","The main experiment item","yes","SternbergTask.osexp","C:/Users/casme/OneDrive/Desktop/Fall 2022","no","mono","no","18","no","white","no","yes","768","legacy","30","11","C:/Users/casme/OneDrive/Desktop/Fall 2022/IC-subjectx-4.csv","legacy","7 1 8 4 9 3","Lentiform Loewenfeld","3.3.12","0","n","0","right","left","right","NA","right","1459","2702","1688","NA","1459","2","legacy","6","1024","2","48000","-16","experiment","4","even","6","272365","262908","2253","83257","270159","270161","269093","2255","81569","NA","274368","275828","271163","4959","274368","Sternberg Task","28","42011","43","yes","1024"
"63.6363636364","63.6363636364","1000.25","1000.25","black","experiment","legacy","legacy","legacy","0","uniform","0","undefined","0","left","43","43","0","0","43","43","43","0","0","0","43","43","43","0","43","10/23/22 20:15:33","The main experiment item","yes","SternbergTask.osexp","C:/Users/casme/OneDrive/Desktop/Fall 2022","no","mono","no","18","no","white","no","yes","768","legacy","31","11","C:/Users/casme/OneDrive/Desktop/Fall 2022/IC-subjectx-4.csv","legacy","5 2 9 6 1 7","Lentiform Loewenfeld","3.3.12","3","y","0","None","left","right","NA","None","2000","2702","1688","NA","2000","2","legacy","6","1024","2","48000","-16","experiment","4","even","9","279101","275833","2253","83257","276894","276896","269093","2255","81569","NA","281104","283104","277899","4959","281104","Sternberg Task","28","44011","44","yes","1024"
"64.4444444444","64.4444444444","994.911111111","994.911111111","black","experiment","legacy","legacy","legacy","0","uniform","1","undefined","1","left","44","44","0","0","44","44","44","0","0","0","44","44","44","0","44","10/23/22 20:15:33","The main experiment item","yes","SternbergTask.osexp","C:/Users/casme/OneDrive/Desktop/Fall 2022","no","mono","no","18","no","white","no","yes","768","legacy","32","11","C:/Users/casme/OneDrive/Desktop/Fall 2022/IC-subjectx-4.csv","legacy","4","Lentiform Loewenfeld","3.3.12","1","y","0","left","left","right","NA","left","760","2702","1688","NA","760","2","legacy","1","1024","2","48000","-16","experiment","4","even","4","286377","275833","2253","83257","284172","284173","283110","2255","81569","NA","288380","289140","285175","4959","288380","Sternberg Task","29","44771","45","yes","1024"
"63.0434782609","63.0434782609","1016.76086957","1016.76086957","black","experiment","legacy","legacy","legacy","0","uniform","0","undefined","0","right","45","45","0","0","45","45","45","0","0","0","45","45","45","0","45","10/23/22 20:15:33","The main experiment item","yes","SternbergTask.osexp","C:/Users/casme/OneDrive/Desktop/Fall 2022","no","mono","no","18","no","white","no","yes","768","legacy","33","11","C:/Users/casme/OneDrive/Desktop/Fall 2022/IC-subjectx-4.csv","legacy","6 7 5 9","Lentiform Loewenfeld","3.3.12","0","n","0","None","left","right","NA","None","2000","2702","1688","NA","2000","2","legacy","4","1024","2","48000","-16","experiment","4","even","2","292427","289146","2253","83257","290222","290223","283110","2255","81569","NA","294429","296429","291225","4959","294429","Sternberg Task","29","46771","46","yes","1024"
"63.829787234","63.829787234","1015.85106383","1015.85106383","black","experiment","legacy","legacy","legacy","0","uniform","1","undefined","1","right","46","46","0","0","46","46","46","0","0","0","46","46","46","0","46","10/23/22 20:15:33","The main experiment item","yes","SternbergTask.osexp","C:/Users/casme/OneDrive/Desktop/Fall 2022","no","mono","no","18","no","white","no","yes","768","legacy","34","11","C:/Users/casme/OneDrive/Desktop/Fall 2022/IC-subjectx-4.csv","legacy","1 6 4 3 9 7","Lentiform Loewenfeld","3.3.12","0","n","0","right","left","right","NA","right","974","2702","1688","NA","974","2","legacy","6","1024","2","48000","-16","experiment","4","even","8","299703","289146","2253","83257","297497","297497","296435","2255","81569","NA","301705","302679","298501","4959","301705","Sternberg Task","30","47745","47","yes","1024"
"64.5833333333","64.5833333333","1020.6875","1020.6875","black","experiment","legacy","legacy","legacy","0","uniform","1","undefined","1","left","47","47","0","0","47","47","47","0","0","0","47","47","47","0","47","10/23/22 20:15:33","The main experiment item","yes","SternbergTask.osexp","C:/Users/casme/OneDrive/Desktop/Fall 2022","no","mono","no","18","no","white","no","yes","768","legacy","35","11","C:/Users/casme/OneDrive/Desktop/Fall 2022/IC-subjectx-4.csv","legacy","7 4 2 6 3 5","Lentiform Loewenfeld","3.3.12","6","y","0","left","left","right","NA","left","1248","2702","1688","NA","1248","2","legacy","6","1024","2","48000","-16","experiment","4","even","5","305969","302686","2253","83257","303764","303766","296435","2255","81569","NA","307972","309221","304767","4959","307972","Sternberg Task","31","48993","48","yes","1024"
"63.2653061224","63.2653061224","1021.08163265","1021.08163265","black","experiment","legacy","legacy","legacy","0","uniform","0","undefined","0","right","48","48","0","0","48","48","48","0","0","0","48","48","48","0","48","10/23/22 20:15:33","The main experiment item","yes","SternbergTask.osexp","C:/Users/casme/OneDrive/Desktop/Fall 2022","no","mono","no","18","no","white","no","yes","768","legacy","36","11","C:/Users/casme/OneDrive/Desktop/Fall 2022/IC-subjectx-4.csv","legacy","7 3 2 8","Lentiform Loewenfeld","3.3.12","0","n","0","left","left","right","NA","left","1040","2702","1688","NA","1040","2","legacy","4","1024","2","48000","-16","experiment","4","even","4","312496","309226","2253","83257","310288","310290","296435","2255","81569","NA","314498","315538","311293","4959","314498","Sternberg Task","31","50033","49","yes","1024"
"62","62","1040.66","1040.66","black","experiment","legacy","legacy","legacy","0","uniform","0","undefined","0","right","49","49","0","0","49","49","49","0","0","0","49","49","49","0","49","10/23/22 20:15:33","The main experiment item","yes","SternbergTask.osexp","C:/Users/casme/OneDrive/Desktop/Fall 2022","no","mono","no","18","no","white","no","yes","768","legacy","37","11","C:/Users/casme/OneDrive/Desktop/Fall 2022/IC-subjectx-4.csv","legacy","4 8 1 2","Lentiform Loewenfeld","3.3.12","0","n","0","None","left","right","NA","None","2000","2702","1688","NA","2000","2","legacy","4","1024","2","48000","-16","experiment","4","even","7","318831","309226","2253","83257","316624","316626","315545","2255","81569","NA","320833","322833","317629","4959","320833","Sternberg Task","31","52033","50","yes","1024"
"60.7843137255","60.7843137255","1059.47058824","1059.47058824","black","experiment","legacy","legacy","legacy","0","uniform","0","undefined","0","right","50","50","0","0","50","50","50","0","0","0","50","50","50","0","50","10/23/22 20:15:33","The main experiment item","yes","SternbergTask.osexp","C:/Users/casme/OneDrive/Desktop/Fall 2022","no","mono","no","18","no","white","no","yes","768","legacy","38","11","C:/Users/casme/OneDrive/Desktop/Fall 2022/IC-subjectx-4.csv","legacy","5","Lentiform Loewenfeld","3.3.12","0","n","0","None","left","right","NA","None","2000","2702","1688","NA","2000","2","legacy","1","1024","2","48000","-16","experiment","4","even","8","326119","309226","2253","83257","323914","323915","322839","2255","81569","NA","328122","330122","324917","4959","328121","Sternberg Task","31","54033","51","yes","1024"
"61.5384615385","61.5384615385","1049.78846154","1049.78846154","black","experiment","legacy","legacy","legacy","0","uniform","1","undefined","1","right","51","51","0","0","51","51","51","0","0","0","51","51","51","0","51","10/23/22 20:15:33","The main experiment item","yes","SternbergTask.osexp","C:/Users/casme/OneDrive/Desktop/Fall 2022","no","mono","no","18","no","white","no","yes","768","legacy","39","11","C:/Users/casme/OneDrive/Desktop/Fall 2022/IC-subjectx-4.csv","legacy","2 8 7 9 5 3","Lentiform Loewenfeld","3.3.12","0","n","0","right","left","right","NA","right","556","2702","1688","NA","556","2","legacy","6","1024","2","48000","-16","experiment","4","even","6","333410","309226","2253","83257","331204","331205","330128","2255","81569","NA","335412","335969","332207","4959","335412","Sternberg Task","32","54589","52","yes","1024"
"60.3773584906","60.3773584906","1045.54716981","1045.54716981","black","experiment","legacy","legacy","legacy","0","uniform","0","undefined","0","right","52","52","0","0","52","52","52","0","0","0","52","52","52","0","52","10/23/22 20:15:33","The main experiment item","yes","SternbergTask.osexp","C:/Users/casme/OneDrive/Desktop/Fall 2022","no","mono","no","18","no","white","no","yes","768","legacy","40","11","C:/Users/casme/OneDrive/Desktop/Fall 2022/IC-subjectx-4.csv","legacy","6 9 7 3 8 2","Lentiform Loewenfeld","3.3.12","0","n","0","left","left","right","NA","left","825","2702","1688","NA","825","2","legacy","6","1024","2","48000","-16","experiment","4","even","5","339254","335974","2253","83257","337047","337050","330128","2255","81569","NA","341256","342082","338052","4959","341256","Sternberg Task","32","55414","53","yes","1024"
"59.2592592593","59.2592592593","1063.22222222","1063.22222222","black","experiment","legacy","legacy","legacy","0","uniform","0","undefined","0","left","53","53","0","0","53","53","53","0","0","0","53","53","53","0","53","10/23/22 20:15:33","The main experiment item","yes","SternbergTask.osexp","C:/Users/casme/OneDrive/Desktop/Fall 2022","no","mono","no","18","no","white","no","yes","768","legacy","41","11","C:/Users/casme/OneDrive/Desktop/Fall 2022/IC-subjectx-4.csv","legacy","4 9 7 8 5 3","Lentiform Loewenfeld","3.3.12","4","y","0","None","left","right","NA","None","2000","2702","1688","NA","2000","2","legacy","6","1024","2","48000","-16","experiment","4","even","8","345372","335974","2253","83257","343166","343168","342088","2255","81569","NA","347373","349373","344170","4959","347373","Sternberg Task","32","57414","54","yes","1024"
"58.1818181818","58.1818181818","1080.25454545","1080.25454545","black","experiment","legacy","legacy","legacy","0","uniform","0","undefined","0","left","54","54","0","0","54","54","54","0","0","0","54","54","54","0","54","10/23/22 20:15:33","The main experiment item","yes","SternbergTask.osexp","C:/Users/casme/OneDrive/Desktop/Fall 2022","no","mono","no","18","no","white","no","yes","768","legacy","42","11","C:/Users/casme/OneDrive/Desktop/Fall 2022/IC-subjectx-4.csv","legacy","3 9 6 2","Lentiform Loewenfeld","3.3.12","4","y","0","None","left","right","NA","None","2000","2702","1688","NA","2000","2","legacy","4","1024","2","48000","-16","experiment","4","even","2","352661","335974","2253","83257","350454","350455","349378","2255","81569","NA","354663","356663","351459","4959","354663","Sternberg Task","32","59414","55","yes","1024"
"58.9285714286","58.9285714286","1072.07142857","1072.07142857","black","experiment","legacy","legacy","legacy","0","uniform","1","undefined","1","left","55","55","0","0","55","55","55","0","0","0","55","55","55","0","55","10/23/22 20:15:33","The main experiment item","yes","SternbergTask.osexp","C:/Users/casme/OneDrive/Desktop/Fall 2022","no","mono","no","18","no","white","no","yes","768","legacy","43","11","C:/Users/casme/OneDrive/Desktop/Fall 2022/IC-subjectx-4.csv","legacy","9 1 7 2","Lentiform Loewenfeld","3.3.12","2","y","0","left","left","right","NA","left","622","2702","1688","NA","622","2","legacy","4","1024","2","48000","-16","experiment","4","even","1","359936","335974","2253","83257","357730","357731","356669","2255","81569","NA","361938","362561","358733","4959","361938","Sternberg Task","33","60036","56","yes","1024"
"57.8947368421","57.8947368421","1064.56140351","1064.56140351","black","experiment","legacy","legacy","legacy","0","uniform","0","undefined","0","right","56","56","0","0","56","56","56","0","0","0","56","56","56","0","56","10/23/22 20:15:33","The main experiment item","yes","SternbergTask.osexp","C:/Users/casme/OneDrive/Desktop/Fall 2022","no","mono","no","18","no","white","no","yes","768","legacy","44","11","C:/Users/casme/OneDrive/Desktop/Fall 2022/IC-subjectx-4.csv","legacy","8 2 1 4 5 9","Lentiform Loewenfeld","3.3.12","0","n","0","left","left","right","NA","left","644","2702","1688","NA","644","2","legacy","6","1024","2","48000","-16","experiment","4","even","7","365836","362567","2253","83257","363630","363632","356669","2255","81569","NA","367839","368484","364634","4959","367839","Sternberg Task","33","60680","57","yes","1024"
"56.8965517241","56.8965517241","1080.68965517","1080.68965517","black","experiment","legacy","legacy","legacy","0","uniform","0","undefined","0","right","57","57","0","0","57","57","57","0","0","0","57","57","57","0","57","10/23/22 20:15:33","The main experiment item","yes","SternbergTask.osexp","C:/Users/casme/OneDrive/Desktop/Fall 2022","no","mono","no","18","no","white","no","yes","768","legacy","45","11","C:/Users/casme/OneDrive/Desktop/Fall 2022/IC-subjectx-4.csv","legacy","4 2 7 6 1 3","Lentiform Loewenfeld","3.3.12","0","n","0","None","left","right","NA","None","2000","2702","1688","NA","2000","2","legacy","6","1024","2","48000","-16","experiment","4","even","8","371757","362567","2253","83257","369551","369553","368489","2255","81569","NA","373760","375760","370555","4959","373760","Sternberg Task","33","62680","58","yes","1024"
"55.9322033898","55.9322033898","1096.27118644","1096.27118644","black","experiment","legacy","legacy","legacy","0","uniform","0","undefined","0","right","58","58","0","0","58","58","58","0","0","0","58","58","58","0","58","10/23/22 20:15:33","The main experiment item","yes","SternbergTask.osexp","C:/Users/casme/OneDrive/Desktop/Fall 2022","no","mono","no","18","no","white","no","yes","768","legacy","46","11","C:/Users/casme/OneDrive/Desktop/Fall 2022/IC-subjectx-4.csv","legacy","2 8 9","Lentiform Loewenfeld","3.3.12","0","n","0","None","left","right","NA","None","2000","2702","1688","NA","2000","2","legacy","3","1024","2","48000","-16","experiment","4","even","6","379038","362567","2253","83257","376833","376834","375765","2255","81569","NA","381040","383040","377836","4959","381040","Sternberg Task","33","64680","59","yes","1024"
"55","55","1111.33333333","1111.33333333","black","experiment","legacy","legacy","legacy","0","uniform","0","undefined","0","left","59","59","0","0","59","59","59","0","0","0","59","59","59","0","59","10/23/22 20:15:33","The main experiment item","yes","SternbergTask.osexp","C:/Users/casme/OneDrive/Desktop/Fall 2022","no","mono","no","18","no","white","no","yes","768","legacy","47","11","C:/Users/casme/OneDrive/Desktop/Fall 2022/IC-subjectx-4.csv","legacy","3 4","Lentiform Loewenfeld","3.3.12","1","y","0","None","left","right","NA","None","2000","2702","1688","NA","2000","2","legacy","2","1024","2","48000","-16","experiment","4","even","3","386328","362567","2253","83257","384122","384124","383046","2255","81569","NA","388331","390331","385126","4959","388331","Sternberg Task","33","66680","60","yes","1024"
"55.737704918","55.737704918","1115.50819672","1115.50819672","black","experiment","legacy","legacy","legacy","0","uniform","1","undefined","1","left","60","60","0","0","60","60","60","0","0","0","60","60","60","0","60","10/23/22 20:15:33","The main experiment item","yes","SternbergTask.osexp","C:/Users/casme/OneDrive/Desktop/Fall 2022","no","mono","no","18","no","white","no","yes","768","legacy","48","11","C:/Users/casme/OneDrive/Desktop/Fall 2022/IC-subjectx-4.csv","legacy","9 3 1 2 5","Lentiform Loewenfeld","3.3.12","4","y","0","left","left","right","NA","left","1366","2702","1688","NA","1366","2","legacy","5","1024","2","48000","-16","experiment","4","even","2","393617","362567","2253","83257","391413","391414","390344","2255","81569","NA","395620","396987","392415","4959","395620","Sternberg Task","34","68046","61","yes","1024"
"54.8387096774","54.8387096774","1105.11290323","1105.11290323","black","experiment","legacy","legacy","legacy","0","uniform","0","undefined","0","left","61","61","0","0","61","61","61","0","0","0","61","61","61","0","61","10/23/22 20:15:33","The main experiment item","yes","SternbergTask.osexp","C:/Users/casme/OneDrive/Desktop/Fall 2022","no","mono","no","18","no","white","no","yes","768","legacy","49","11","C:/Users/casme/OneDrive/Desktop/Fall 2022/IC-subjectx-4.csv","legacy","4 6 2 5 1","Lentiform Loewenfeld","3.3.12","5","y","0","right","left","right","NA","right","471","2702","1688","NA","471","2","legacy","5","1024","2","48000","-16","experiment","4","even","1","400261","396993","2253","83257","398055","398057","390344","2255","81569","NA","402263","402735","399059","4959","402263","Sternberg Task","34","68517","62","yes","1024"
"55.5555555556","55.5555555556","1098.41269841","1098.41269841","black","experiment","legacy","legacy","legacy","0","uniform","1","undefined","1","left","62","62","0","0","62","62","62","0","0","0","62","62","62","0","62","10/23/22 20:15:33","The main experiment item","yes","SternbergTask.osexp","C:/Users/casme/OneDrive/Desktop/Fall 2022","no","mono","no","18","no","white","no","yes","768","legacy","50","11","C:/Users/casme/OneDrive/Desktop/Fall 2022/IC-subjectx-4.csv","legacy","9 8 4","Lentiform Loewenfeld","3.3.12","1","y","0","left","left","right","NA","left","683","2702","1688","NA","683","2","legacy","3","1024","2","48000","-16","experiment","4","even","9","406007","396993","2253","83257","403802","403804","402741","2255","81569","NA","408009","408692","404805","4959","408009","Sternberg Task","35","69200","63","yes","1024"
"54.6875","54.6875","1092.859375","1092.859375","black","experiment","legacy","legacy","legacy","0","uniform","0","undefined","0","right","63","63","0","0","63","63","63","0","0","0","63","63","63","0","63","10/23/22 20:15:33","The main experiment item","yes","SternbergTask.osexp","C:/Users/casme/OneDrive/Desktop/Fall 2022","no","mono","no","18","no","white","no","yes","768","legacy","51","11","C:/Users/casme/OneDrive/Desktop/Fall 2022/IC-subjectx-4.csv","legacy","7 1 5 6 3","Lentiform Loewenfeld","3.3.12","0","n","0","left","left","right","NA","left","743","2702","1688","NA","743","2","legacy","5","1024","2","48000","-16","experiment","4","even","8","411983","408698","2253","83257","409776","409777","402741","2255","81569","NA","413985","414729","410781","4959","413985","Sternberg Task","35","69943","64","yes","1024"
"55.3846153846","55.3846153846","1087.75384615","1087.75384615","black","experiment","legacy","legacy","legacy","0","uniform","1","undefined","1","left","64","64","0","0","64","64","64","0","0","0","64","64","64","0","64","10/23/22 20:15:33","The main experiment item","yes","SternbergTask.osexp","C:/Users/casme/OneDrive/Desktop/Fall 2022","no","mono","no","18","no","white","no","yes","768","legacy","52","11","C:/Users/casme/OneDrive/Desktop/Fall 2022/IC-subjectx-4.csv","legacy","2 6 1 7 4","Lentiform Loewenfeld","3.3.12","2","y","0","left","left","right","NA","left","761","2702","1688","NA","761","2","legacy","5","1024","2","48000","-16","experiment","4","even","6","418019","408698","2253","83257","415813","415814","414735","2255","81569","NA","420021","420783","416816","4959","420021","Sternberg Task","36","70704","65","yes","1024"
"56.0606060606","56.0606060606","1081.07575758","1081.07575758","black","experiment","legacy","legacy","legacy","0","uniform","1","undefined","1","left","65","65","0","0","65","65","65","0","0","0","65","65","65","0","65","10/23/22 20:15:33","The main experiment item","yes","SternbergTask.osexp","C:/Users/casme/OneDrive/Desktop/Fall 2022","no","mono","no","18","no","white","no","yes","768","legacy","53","11","C:/Users/casme/OneDrive/Desktop/Fall 2022/IC-subjectx-4.csv","legacy","6 7 9 3 1 2","Lentiform Loewenfeld","3.3.12","1","y","0","left","left","right","NA","left","647","2702","1688","NA","647","2","legacy","6","1024","2","48000","-16","experiment","4","even","6","424057","420788","2253","83257","421851","421853","414735","2255","81569","NA","426058","426705","422855","4959","426058","Sternberg Task","37","71351","66","yes","1024"
"56.7164179104","56.7164179104","1073.94029851","1073.94029851","black","experiment","legacy","legacy","legacy","0","uniform","1","undefined","1","right","66","66","0","0","66","66","66","0","0","0","66","66","66","0","66","10/23/22 20:15:33","The main experiment item","yes","SternbergTask.osexp","C:/Users/casme/OneDrive/Desktop/Fall 2022","no","mono","no","18","no","white","no","yes","768","legacy","54","11","C:/Users/casme/OneDrive/Desktop/Fall 2022/IC-subjectx-4.csv","legacy","2 8 6 3 1","Lentiform Loewenfeld","3.3.12","0","n","0","right","left","right","NA","right","603","2702","1688","NA","603","2","legacy","5","1024","2","48000","-16","experiment","4","even","7","429979","426711","2253","83257","427772","427775","414735","2255","81569","NA","431983","432586","428777","4959","431983","Sternberg Task","38","71954","67","yes","1024"
"57.3529411765","57.3529411765","1065.42647059","1065.42647059","black","experiment","legacy","legacy","legacy","0","uniform","1","undefined","1","left","67","67","0","0","67","67","67","0","0","0","67","67","67","0","67","10/23/22 20:15:33","The main experiment item","yes","SternbergTask.osexp","C:/Users/casme/OneDrive/Desktop/Fall 2022","no","mono","no","18","no","white","no","yes","768","legacy","55","11","C:/Users/casme/OneDrive/Desktop/Fall 2022/IC-subjectx-4.csv","legacy","7 1 3","Lentiform Loewenfeld","3.3.12","2","y","0","left","left","right","NA","left","495","2702","1688","NA","495","2","legacy","3","1024","2","48000","-16","experiment","4","even","1","435893","432592","2253","83257","433685","433688","414735","2255","81569","NA","437895","438392","434690","4959","437895","Sternberg Task","39","72449","68","yes","1024"
"56.5217391304","56.5217391304","1078.97101449","1078.97101449","black","experiment","legacy","legacy","legacy","0","uniform","0","undefined","0","right","68","68","0","0","68","68","68","0","0","0","68","68","68","0","68","10/23/22 20:15:33","The main experiment item","yes","SternbergTask.osexp","C:/Users/casme/OneDrive/Desktop/Fall 2022","no","mono","no","18","no","white","no","yes","768","legacy","56","11","C:/Users/casme/OneDrive/Desktop/Fall 2022/IC-subjectx-4.csv","legacy","7 6 4 8 1 2","Lentiform Loewenfeld","3.3.12","0","n","0","None","left","right","NA","None","2000","2702","1688","NA","2000","2","legacy","6","1024","2","48000","-16","experiment","4","even","9","441695","438398","2253","83257","439487","439491","414735","2255","81569","NA","443698","445699","440493","4959","443697","Sternberg Task","39","74449","69","yes","1024"
"57.1428571429","57.1428571429","1070.42857143","1070.42857143","black","experiment","legacy","legacy","legacy","0","uniform","1","undefined","1","left","69","69","0","0","69","69","69","0","0","0","69","69","69","0","69","10/23/22 20:15:33","The main experiment item","yes","SternbergTask.osexp","C:/Users/casme/OneDrive/Desktop/Fall 2022","no","mono","no","18","no","white","no","yes","768","legacy","57","11","C:/Users/casme/OneDrive/Desktop/Fall 2022/IC-subjectx-4.csv","legacy","4 1 5","Lentiform Loewenfeld","3.3.12","2","y","0","left","left","right","NA","left","481","2702","1688","NA","481","2","legacy","3","1024","2","48000","-16","experiment","4","even","1","449015","438398","2253","83257","446807","446811","445705","2255","81569","NA","451017","451498","447813","4959","451017","Sternberg Task","40","74930","70","yes","1024"
"57.7464788732","57.7464788732","1068.36619718","1068.36619718","black","experiment","legacy","legacy","legacy","0","uniform","1","undefined","1","right","70","70","0","0","70","70","70","0","0","0","70","70","70","0","70","10/23/22 20:15:33","The main experiment item","yes","SternbergTask.osexp","C:/Users/casme/OneDrive/Desktop/Fall 2022","no","mono","no","18","no","white","no","yes","768","legacy","58","11","C:/Users/casme/OneDrive/Desktop/Fall 2022/IC-subjectx-4.csv","legacy","1 6 4","Lentiform Loewenfeld","3.3.12","0","n","0","right","left","right","NA","right","924","2702","1688","NA","924","2","legacy","3","1024","2","48000","-16","experiment","4","even","7","454833","451505","2253","83257","452626","452629","445705","2255","81569","NA","456835","457760","453631","4959","456835","Sternberg Task","41","75854","71","yes","1024"
"58.3333333333","58.3333333333","1062.52777778","1062.52777778","black","experiment","legacy","legacy","legacy","0","uniform","1","undefined","1","right","71","71","0","0","71","71","71","0","0","0","71","71","71","0","71","10/23/22 20:15:33","The main experiment item","yes","SternbergTask.osexp","C:/Users/casme/OneDrive/Desktop/Fall 2022","no","mono","no","18","no","white","no","yes","768","legacy","59","11","C:/Users/casme/OneDrive/Desktop/Fall 2022/IC-subjectx-4.csv","legacy","1 4 3 6 5","Lentiform Loewenfeld","3.3.12","0","n","0","right","left","right","NA","right","648","2702","1688","NA","648","2","legacy","5","1024","2","48000","-16","experiment","4","even","8","461068","457767","2253","83257","458860","458864","445705","2255","81569","NA","463070","463718","459866","4959","463070","Sternberg Task","42","76502","72","yes","1024"
"57.5342465753","57.5342465753","1054.47945205","1054.47945205","black","experiment","legacy","legacy","legacy","0","uniform","0","undefined","0","left","72","72","0","0","72","72","72","0","0","0","72","72","72","0","72","10/23/22 20:15:33","The main experiment item","yes","SternbergTask.osexp","C:/Users/casme/OneDrive/Desktop/Fall 2022","no","mono","no","18","no","white","no","yes","768","legacy","60","11","C:/Users/casme/OneDrive/Desktop/Fall 2022/IC-subjectx-4.csv","legacy","3 5 7 1","Lentiform Loewenfeld","3.3.12","3","y","0","right","left","right","NA","right","475","2702","1688","NA","475","2","legacy","4","1024","2","48000","-16","experiment","4","even","7","467056","463725","2253","83257","464848","464851","445705","2255","81569","NA","469058","469534","465854","4959","469058","Sternberg Task","42","76977","73","yes","1024"
"56.7567567568","56.7567567568","1053.82432432","1053.82432432","black","experiment","legacy","legacy","legacy","0","uniform","0","undefined","0","left","73","73","0","0","73","73","73","0","0","0","73","73","73","0","73","10/23/22 20:15:33","The main experiment item","yes","SternbergTask.osexp","C:/Users/casme/OneDrive/Desktop/Fall 2022","no","mono","no","18","no","white","no","yes","768","legacy","61","11","C:/Users/casme/OneDrive/Desktop/Fall 2022/IC-subjectx-4.csv","legacy","9 3 8 2 1 4","Lentiform Loewenfeld","3.3.12","3","y","0","right","left","right","NA","right","1006","2702","1688","NA","1006","2","legacy","6","1024","2","48000","-16","experiment","4","even","8","472869","463725","2253","83257","470661","470664","469541","2255","81569","NA","474872","475880","471667","4959","474871","Sternberg Task","42","77983","74","yes","1024"
"57.3333333333","57.3333333333","1051.66666667","1051.66666667","black","experiment","legacy","legacy","legacy","0","uniform","1","undefined","1","left","74","74","0","0","74","74","74","0","0","0","74","74","74","0","74","10/23/22 20:15:33","The main experiment item","yes","SternbergTask.osexp","C:/Users/casme/OneDrive/Desktop/Fall 2022","no","mono","no","18","no","white","no","yes","768","legacy","62","11","C:/Users/casme/OneDrive/Desktop/Fall 2022/IC-subjectx-4.csv","legacy","9 6 2 4 1","Lentiform Loewenfeld","3.3.12","4","y","0","left","left","right","NA","left","892","2702","1688","NA","892","2","legacy","5","1024","2","48000","-16","experiment","4","even","4","479216","463725","2253","83257","477008","477011","475886","2255","81569","NA","481219","482112","478014","4959","481219","Sternberg Task","43","78875","75","yes","1024"
"57.8947368421","57.8947368421","1045.02631579","1045.02631579","black","experiment","legacy","legacy","legacy","0","uniform","1","undefined","1","right","75","75","0","0","75","75","75","0","0","0","75","75","75","0","75","10/23/22 20:15:33","The main experiment item","yes","SternbergTask.osexp","C:/Users/casme/OneDrive/Desktop/Fall 2022","no","mono","no","18","no","white","no","yes","768","legacy","63","11","C:/Users/casme/OneDrive/Desktop/Fall 2022/IC-subjectx-4.csv","legacy","8 9","Lentiform Loewenfeld","3.3.12","0","n","0","right","left","right","NA","right","547","2702","1688","NA","547","2","legacy","2","1024","2","48000","-16","experiment","4","even","5","485446","482118","2253","83257","483239","483242","475886","2255","81569","NA","487448","487996","484244","4959","487448","Sternberg Task","44","79422","76","yes","1024"
"58.4415584416","58.4415584416","1037.46753247","1037.46753247","black","experiment","legacy","legacy","legacy","0","uniform","1","undefined","1","left","76","76","0","0","76","76","76","0","0","0","76","76","76","0","76","10/23/22 20:15:33","The main experiment item","yes","SternbergTask.osexp","C:/Users/casme/OneDrive/Desktop/Fall 2022","no","mono","no","18","no","white","no","yes","768","legacy","64","11","C:/Users/casme/OneDrive/Desktop/Fall 2022/IC-subjectx-4.csv","legacy","4 3 2 5 8","Lentiform Loewenfeld","3.3.12","2","y","0","left","left","right","NA","left","463","2702","1688","NA","463","2","legacy","5","1024","2","48000","-16","experiment","4","even","3","491331","488002","2253","83257","489123","489126","475886","2255","81569","NA","493333","493797","490129","4959","493333","Sternberg Task","45","79885","77","yes","1024"
"57.6923076923","57.6923076923","1049.80769231","1049.80769231","black","experiment","legacy","legacy","legacy","0","uniform","0","undefined","0","right","77","77","0","0","77","77","77","0","0","0","77","77","77","0","77","10/23/22 20:15:33","The main experiment item","yes","SternbergTask.osexp","C:/Users/casme/OneDrive/Desktop/Fall 2022","no","mono","no","18","no","white","no","yes","768","legacy","65","11","C:/Users/casme/OneDrive/Desktop/Fall 2022/IC-subjectx-4.csv","legacy","9 7 4 5 8","Lentiform Loewenfeld","3.3.12","0","n","0","None","left","right","NA","None","2000","2702","1688","NA","2000","2","legacy","5","1024","2","48000","-16","experiment","4","even","6","497141","493805","2253","83257","494934","494937","475886","2255","81569","NA","499144","501144","495939","4959","499143","Sternberg Task","45","81885","78","yes","1024"
"58.2278481013","58.2278481013","1044.7721519","1044.7721519","black","experiment","legacy","legacy","legacy","0","uniform","1","undefined","1","right","78","78","0","0","78","78","78","0","0","0","78","78","78","0","78","10/23/22 20:15:33","The main experiment item","yes","SternbergTask.osexp","C:/Users/casme/OneDrive/Desktop/Fall 2022","no","mono","no","18","no","white","no","yes","768","legacy","66","11","C:/Users/casme/OneDrive/Desktop/Fall 2022/IC-subjectx-4.csv","legacy","1 7 5 2 9","Lentiform Loewenfeld","3.3.12","0","n","0","right","left","right","NA","right","652","2702","1688","NA","652","2","legacy","5","1024","2","48000","-16","experiment","4","even","3","504478","493805","2253","83257","502272","502274","501150","2255","81569","NA","506480","507134","503276","4959","506480","Sternberg Task","46","82537","79","yes","1024"
"58.75","58.75","1042.4875","1042.4875","black","experiment","legacy","legacy","legacy","0","uniform","1","undefined","1","left","79","79","0","0","79","79","79","0","0","0","79","79","79","0","79","10/23/22 20:15:33","The main experiment item","yes","SternbergTask.osexp","C:/Users/casme/OneDrive/Desktop/Fall 2022","no","mono","no","18","no","white","no","yes","768","legacy","67","11","C:/Users/casme/OneDrive/Desktop/Fall 2022/IC-subjectx-4.csv","legacy","4 6 5 8","Lentiform Loewenfeld","3.3.12","1","y","0","left","left","right","NA","left","862","2702","1688","NA","862","2","legacy","4","1024","2","48000","-16","experiment","4","even","4","510465","507140","2253","83257","508257","508260","501150","2255","81569","NA","512468","513332","509262","4959","512468","Sternberg Task","47","83399","80","yes","1024"
"59.2592592593","59.2592592593","1038.82716049","1038.82716049","black","experiment","legacy","legacy","legacy","0","uniform","1","undefined","1","right","80","80","0","0","80","80","80","0","0","0","80","80","80","0","80","10/23/22 20:15:33","The main experiment item","yes","SternbergTask.osexp","C:/Users/casme/OneDrive/Desktop/Fall 2022","no","mono","no","18","no","white","no","yes","768","legacy","68","11","C:/Users/casme/OneDrive/Desktop/Fall 2022/IC-subjectx-4.csv","legacy","3 4 9 6 7 8","Lentiform Loewenfeld","3.3.12","0","n","0","right","left","right","NA","right","746","2702","1688","NA","746","2","legacy","6","1024","2","48000","-16","experiment","4","even","2","516658","513338","2253","83257","514450","514453","501150","2255","81569","NA","518661","519408","515455","4959","518661","Sternberg Task","48","84145","81","yes","1024"
"58.5365853659","58.5365853659","1032.59756098","1032.59756098","black","experiment","legacy","legacy","legacy","0","uniform","0","undefined","0","right","81","81","0","0","81","81","81","0","0","0","81","81","81","0","81","10/23/22 20:15:33","The main experiment item","yes","SternbergTask.osexp","C:/Users/casme/OneDrive/Desktop/Fall 2022","no","mono","no","18","no","white","no","yes","768","legacy","69","11","C:/Users/casme/OneDrive/Desktop/Fall 2022/IC-subjectx-4.csv","legacy","9 5 3 2 8 6","Lentiform Loewenfeld","3.3.12","0","n","0","left","left","right","NA","left","528","2702","1688","NA","528","2","legacy","6","1024","2","48000","-16","experiment","4","even","7","522747","519415","2253","83257","520539","520542","501150","2255","81569","NA","524750","525279","521544","4959","524750","Sternberg Task","48","84673","82","yes","1024"
"59.0361445783","59.0361445783","1029.73493976","1029.73493976","black","experiment","legacy","legacy","legacy","0","uniform","1","undefined","1","right","82","82","0","0","82","82","82","0","0","0","82","82","82","0","82","10/23/22 20:15:33","The main experiment item","yes","SternbergTask.osexp","C:/Users/casme/OneDrive/Desktop/Fall 2022","no","mono","no","18","no","white","no","yes","768","legacy","70","11","C:/Users/casme/OneDrive/Desktop/Fall 2022/IC-subjectx-4.csv","legacy","6 2 9 3 8 4","Lentiform Loewenfeld","3.3.12","0","n","0","right","left","right","NA","right","795","2702","1688","NA","795","2","legacy","6","1024","2","48000","-16","experiment","4","even","1","528617","519415","2253","83257","526410","526412","525287","2255","81569","NA","530619","531415","527415","4959","530619","Sternberg Task","49","85468","83","yes","1024"
"59.5238095238","59.5238095238","1028.82142857","1028.82142857","black","experiment","legacy","legacy","legacy","0","uniform","1","undefined","1","left","83","83","0","0","83","83","83","0","0","0","83","83","83","0","83","10/23/22 20:15:33","The main experiment item","yes","SternbergTask.osexp","C:/Users/casme/OneDrive/Desktop/Fall 2022","no","mono","no","18","no","white","no","yes","768","legacy","71","11","C:/Users/casme/OneDrive/Desktop/Fall 2022/IC-subjectx-4.csv","legacy","8 1 6","Lentiform Loewenfeld","3.3.12","3","y","0","left","left","right","NA","left","953","2702","1688","NA","953","2","legacy","3","1024","2","48000","-16","experiment","4","even","6","534753","531422","2253","83257","532545","532548","525287","2255","81569","NA","536756","537710","533550","4959","536756","Sternberg Task","50","86421","84","yes","1024"
"58.8235294118","58.8235294118","1040.24705882","1040.24705882","black","experiment","legacy","legacy","legacy","0","uniform","0","undefined","0","left","84","84","0","0","84","84","84","0","0","0","84","84","84","0","84","10/23/22 20:15:33","The main experiment item","yes","SternbergTask.osexp","C:/Users/casme/OneDrive/Desktop/Fall 2022","no","mono","no","18","no","white","no","yes","768","legacy","72","11","C:/Users/casme/OneDrive/Desktop/Fall 2022/IC-subjectx-4.csv","legacy","6 9 3 1","Lentiform Loewenfeld","3.3.12","4","y","0","None","left","right","NA","None","2000","2702","1688","NA","2000","2","legacy","4","1024","2","48000","-16","experiment","4","even","1","541043","537718","2253","83257","538835","538838","525287","2255","81569","NA","543046","545047","539841","4959","543045","Sternberg Task","50","88421","85","yes","1024"
"59.3023255814","59.3023255814","1037.46511628","1037.46511628","black","experiment","legacy","legacy","legacy","0","uniform","1","undefined","1","left","85","85","0","0","85","85","85","0","0","0","85","85","85","0","85","10/23/22 20:15:33","The main experiment item","yes","SternbergTask.osexp","C:/Users/casme/OneDrive/Desktop/Fall 2022","no","mono","no","18","no","white","no","yes","768","legacy","73","11","C:/Users/casme/OneDrive/Desktop/Fall 2022/IC-subjectx-4.csv","legacy","9 5 3 8 4","Lentiform Loewenfeld","3.3.12","1","y","0","left","left","right","NA","left","801","2702","1688","NA","801","2","legacy","5","1024","2","48000","-16","experiment","4","even","9","548372","537718","2253","83257","546164","546166","545053","2255","81569","NA","550375","551178","547169","4959","550375","Sternberg Task","51","89222","86","yes","1024"
"59.7701149425","59.7701149425","1033.02298851","1033.02298851","black","experiment","legacy","legacy","legacy","0","uniform","1","undefined","1","left","86","86","0","0","86","86","86","0","0","0","86","86","86","0","86","10/23/22 20:15:33","The main experiment item","yes","SternbergTask.osexp","C:/Users/casme/OneDrive/Desktop/Fall 2022","no","mono","no","18","no","white","no","yes","768","legacy","74","11","C:/Users/casme/OneDrive/Desktop/Fall 2022/IC-subjectx-4.csv","legacy","3 9 7 6 4","Lentiform Loewenfeld","3.3.12","3","y","0","left","left","right","NA","left","651","2702","1688","NA","651","2","legacy","5","1024","2","48000","-16","experiment","4","even","7","554519","551185","2253","83257","552309","552313","545053","2255","81569","NA","556521","557173","553315","4959","556521","Sternberg Task","52","89873","87","yes","1024"
"59.0909090909","59.0909090909","1044.01136364","1044.01136364","black","experiment","legacy","legacy","legacy","0","uniform","0","undefined","0","right","87","87","0","0","87","87","87","0","0","0","87","87","87","0","87","10/23/22 20:15:33","The main experiment item","yes","SternbergTask.osexp","C:/Users/casme/OneDrive/Desktop/Fall 2022","no","mono","no","18","no","white","no","yes","768","legacy","75","11","C:/Users/casme/OneDrive/Desktop/Fall 2022/IC-subjectx-4.csv","legacy","1","Lentiform Loewenfeld","3.3.12","0","n","0","None","left","right","NA","None","2000","2702","1688","NA","2000","2","legacy","1","1024","2","48000","-16","experiment","4","even","7","560498","557180","2253","83257","558288","558293","545053","2255","81569","NA","562501","564501","559296","4959","562500","Sternberg Task","52","91873","88","yes","1024"
"59.5505617978","59.5505617978","1039.29213483","1039.29213483","black","experiment","legacy","legacy","legacy","0","uniform","1","undefined","1","right","88","88","0","0","88","88","88","0","0","0","88","88","88","0","88","10/23/22 20:15:33","The main experiment item","yes","SternbergTask.osexp","C:/Users/casme/OneDrive/Desktop/Fall 2022","no","mono","no","18","no","white","no","yes","768","legacy","76","11","C:/Users/casme/OneDrive/Desktop/Fall 2022/IC-subjectx-4.csv","legacy","3 9 1","Lentiform Loewenfeld","3.3.12","0","n","0","right","left","right","NA","right","624","2702","1688","NA","624","2","legacy","3","1024","2","48000","-16","experiment","4","even","7","567837","557180","2253","83257","565630","565633","564508","2255","81569","NA","569840","570466","566635","4959","569839","Sternberg Task","53","92497","89","yes","1024"
"60","60","1033.76666667","1033.76666667","black","experiment","legacy","legacy","legacy","0","uniform","1","undefined","1","right","89","89","0","0","89","89","89","0","0","0","89","89","89","0","89","10/23/22 20:15:33","The main experiment item","yes","SternbergTask.osexp","C:/Users/casme/OneDrive/Desktop/Fall 2022","no","mono","no","18","no","white","no","yes","768","legacy","77","11","C:/Users/casme/OneDrive/Desktop/Fall 2022/IC-subjectx-4.csv","legacy","7 4 2 8 1 9","Lentiform Loewenfeld","3.3.12","0","n","0","right","left","right","NA","right","542","2702","1688","NA","542","2","legacy","6","1024","2","48000","-16","experiment","4","even","5","573802","570472","2253","83257","571594","571597","564508","2255","81569","NA","575805","576349","572600","4959","575805","Sternberg Task","54","93039","90","yes","1024"
"60.4395604396","60.4395604396","1027.84615385","1027.84615385","black","experiment","legacy","legacy","legacy","0","uniform","1","undefined","1","left","90","90","0","0","90","90","90","0","0","0","90","90","90","0","90","10/23/22 20:15:33","The main experiment item","yes","SternbergTask.osexp","C:/Users/casme/OneDrive/Desktop/Fall 2022","no","mono","no","18","no","white","no","yes","768","legacy","78","11","C:/Users/casme/OneDrive/Desktop/Fall 2022/IC-subjectx-4.csv","legacy","9 5 8 1","Lentiform Loewenfeld","3.3.12","2","y","0","left","left","right","NA","left","495","2702","1688","NA","495","2","legacy","4","1024","2","48000","-16","experiment","4","even","5","579685","576356","2253","83257","577477","577480","564508","2255","81569","NA","581687","582184","578482","4959","581687","Sternberg Task","55","93534","91","yes","1024"
"60.8695652174","60.8695652174","1026.33695652","1026.33695652","black","experiment","legacy","legacy","legacy","0","uniform","1","undefined","1","left","91","91","0","0","91","91","91","0","0","0","91","91","91","0","91","10/23/22 20:15:33","The main experiment item","yes","SternbergTask.osexp","C:/Users/casme/OneDrive/Desktop/Fall 2022","no","mono","no","18","no","white","no","yes","768","legacy","79","11","C:/Users/casme/OneDrive/Desktop/Fall 2022/IC-subjectx-4.csv","legacy","3 4 9 6 2 9","Lentiform Loewenfeld","3.3.12","5","y","0","left","left","right","NA","left","889","2702","1688","NA","889","2","legacy","6","1024","2","48000","-16","experiment","4","even","2","585523","582191","2253","83257","583315","583318","564508","2255","81569","NA","587526","588417","584321","4959","587525","Sternberg Task","56","94423","92","yes","1024"
"61.2903225806","61.2903225806","1023.3655914","1023.3655914","black","experiment","legacy","legacy","legacy","0","uniform","1","undefined","1","left","92","92","0","0","92","92","92","0","0","0","92","92","92","0","92","10/23/22 20:15:33","The main experiment item","yes","SternbergTask.osexp","C:/Users/casme/OneDrive/Desktop/Fall 2022","no","mono","no","18","no","white","no","yes","768","legacy","80","11","C:/Users/casme/OneDrive/Desktop/Fall 2022/IC-subjectx-4.csv","legacy","7 2 3","Lentiform Loewenfeld","3.3.12","3","y","0","left","left","right","NA","left","750","2702","1688","NA","750","2","legacy","3","1024","2","48000","-16","experiment","4","even","3","591753","588423","2253","83257","589546","589549","564508","2255","81569","NA","593756","594508","590551","4959","593756","Sternberg Task","57","95173","93","yes","1024"
"61.7021276596","61.7021276596","1026.30851064","1026.30851064","black","experiment","legacy","legacy","legacy","0","uniform","1","undefined","1","left","93","93","0","0","93","93","93","0","0","0","93","93","93","0","93","10/23/22 20:15:33","The main experiment item","yes","SternbergTask.osexp","C:/Users/casme/OneDrive/Desktop/Fall 2022","no","mono","no","18","no","white","no","yes","768","legacy","81","11","C:/Users/casme/OneDrive/Desktop/Fall 2022/IC-subjectx-4.csv","legacy","8 9 5 7 1 6","Lentiform Loewenfeld","3.3.12","4","y","0","left","left","right","NA","left","1300","2702","1688","NA","1300","2","legacy","6","1024","2","48000","-16","experiment","4","even","7","597833","594515","2253","83257","595626","595628","564508","2255","81569","NA","599835","601136","596631","4959","599835","Sternberg Task","58","96473","94","yes","1024"
"62.1052631579","62.1052631579","1021.75789474","1021.75789474","black","experiment","legacy","legacy","legacy","0","uniform","1","undefined","1","right","94","94","0","0","94","94","94","0","0","0","94","94","94","0","94","10/23/22 20:15:33","The main experiment item","yes","SternbergTask.osexp","C:/Users/casme/OneDrive/Desktop/Fall 2022","no","mono","no","18","no","white","no","yes","768","legacy","82","11","C:/Users/casme/OneDrive/Desktop/Fall 2022/IC-subjectx-4.csv","legacy","2 6 4 3 9","Lentiform Loewenfeld","3.3.12","0","n","0","right","left","right","NA","right","594","2702","1688","NA","594","2","legacy","5","1024","2","48000","-16","experiment","4","even","1","604476","601144","2253","83257","602267","602271","564508","2255","81569","NA","606479","607075","603274","4959","606479","Sternberg Task","59","97067","95","yes","1024"
"62.5","62.5","1022.14583333","1022.14583333","black","experiment","legacy","legacy","legacy","0","uniform","1","undefined","1","left","95","95","0","0","95","95","95","0","0","0","95","95","95","0","95","10/23/22 20:15:33","The main experiment item","yes","SternbergTask.osexp","C:/Users/casme/OneDrive/Desktop/Fall 2022","no","mono","no","18","no","white","no","yes","768","legacy","83","11","C:/Users/casme/OneDrive/Desktop/Fall 2022/IC-subjectx-4.csv","legacy","7 8 4 6 9 5","Lentiform Loewenfeld","3.3.12","4","y","0","left","left","right","NA","left","1059","2702","1688","NA","1059","2","legacy","6","1024","2","48000","-16","experiment","4","even","6","610404","607082","2253","83257","608197","608200","564508","2255","81569","NA","612407","613469","609202","4959","612407","Sternberg Task","60","98126","96","yes","1024"
"62.8865979381","62.8865979381","1019.03092784","1019.03092784","black","experiment","legacy","legacy","legacy","0","uniform","1","undefined","1","right","96","96","0","0","96","96","96","0","0","0","96","96","96","0","96","10/23/22 20:15:33","The main experiment item","yes","SternbergTask.osexp","C:/Users/casme/OneDrive/Desktop/Fall 2022","no","mono","no","18","no","white","no","yes","768","legacy","84","11","C:/Users/casme/OneDrive/Desktop/Fall 2022/IC-subjectx-4.csv","legacy","2 3 8 5 6 7","Lentiform Loewenfeld","3.3.12","0","n","0","right","left","right","NA","right","720","2702","1688","NA","720","2","legacy","6","1024","2","48000","-16","experiment","4","even","1","616808","613477","2253","83257","614600","614603","564508","2255","81569","NA","618811","619532","615606","4959","618810","Sternberg Task","61","98846","97","yes","1024"
"63.2653061224","63.2653061224","1014.03061224","1014.03061224","black","experiment","legacy","legacy","legacy","0","uniform","1","undefined","1","left","97","97","0","0","97","97","97","0","0","0","97","97","97","0","97","10/23/22 20:15:33","The main experiment item","yes","SternbergTask.osexp","C:/Users/casme/OneDrive/Desktop/Fall 2022","no","mono","no","18","no","white","no","yes","768","legacy","85","11","C:/Users/casme/OneDrive/Desktop/Fall 2022/IC-subjectx-4.csv","legacy","6 7 8 5","Lentiform Loewenfeld","3.3.12","3","y","0","left","left","right","NA","left","529","2702","1688","NA","529","2","legacy","4","1024","2","48000","-16","experiment","4","even","8","622873","619539","2253","83257","620664","620668","564508","2255","81569","NA","624876","625407","621670","4959","624876","Sternberg Task","62","99375","98","yes","1024"
"63.6363636364","63.6363636364","1011.85858586","1011.85858586","black","experiment","legacy","legacy","legacy","0","uniform","1","undefined","1","left","98","98","0","0","98","98","98","0","0","0","98","98","98","0","98","10/23/22 20:15:33","The main experiment item","yes","SternbergTask.osexp","C:/Users/casme/OneDrive/Desktop/Fall 2022","no","mono","no","18","no","white","no","yes","768","legacy","86","11","C:/Users/casme/OneDrive/Desktop/Fall 2022/IC-subjectx-4.csv","legacy","4 1 8 7 5","Lentiform Loewenfeld","3.3.12","3","y","0","left","left","right","NA","left","799","2702","1688","NA","799","2","legacy","5","1024","2","48000","-16","experiment","4","even","8","628706","625413","2253","83257","626499","626502","564508","2255","81569","NA","630708","631507","627504","4959","630708","Sternberg Task","63","100174","99","yes","1024"
"64","64","1010.24","1010.24","black","experiment","legacy","legacy","legacy","0","uniform","1","undefined","1","right","99","99","0","0","99","99","99","0","0","0","99","99","99","0","99","10/23/22 20:15:33","The main experiment item","yes","SternbergTask.osexp","C:/Users/casme/OneDrive/Desktop/Fall 2022","no","mono","no","18","no","white","no","yes","768","legacy","87","11","C:/Users/casme/OneDrive/Desktop/Fall 2022/IC-subjectx-4.csv","legacy","4 1","Lentiform Loewenfeld","3.3.12","0","n","0","right","left","right","NA","right","850","2702","1688","NA","850","2","legacy","2","1024","2","48000","-16","experiment","4","even","6","634843","631514","2253","83257","632636","632639","564508","2255","81569","NA","636845","637695","633641","4959","636845","Sternberg Task","64","101024","100","yes","1024"
"64.3564356436","64.3564356436","1007.55445545","1007.55445545","black","experiment","legacy","legacy","legacy","0","uniform","1","undefined","1","right","100","100","0","0","100","100","100","0","0","0","100","100","100","0","100","10/23/22 20:15:33","The main experiment item","yes","SternbergTask.osexp","C:/Users/casme/OneDrive/Desktop/Fall 2022","no","mono","no","18","no","white","no","yes","768","legacy","88","11","C:/Users/casme/OneDrive/Desktop/Fall 2022/IC-subjectx-4.csv","legacy","8 6 3 4 7","Lentiform Loewenfeld","3.3.12","0","n","0","right","left","right","NA","right","739","2702","1688","NA","739","2","legacy","5","1024","2","48000","-16","experiment","4","even","1","641014","637703","2253","83257","638807","638810","564508","2255","81569","NA","643017","643757","639812","4959","643017","Sternberg Task","65","101763","101","yes","1024"
"63.7254901961","63.7254901961","1008.1372549","1008.1372549","black","experiment","legacy","legacy","legacy","0","uniform","0","undefined","0","left","101","101","0","0","101","101","101","0","0","0","101","101","101","0","101","10/23/22 20:15:33","The main experiment item","yes","SternbergTask.osexp","C:/Users/casme/OneDrive/Desktop/Fall 2022","no","mono","no","18","no","white","no","yes","768","legacy","89","11","C:/Users/casme/OneDrive/Desktop/Fall 2022/IC-subjectx-4.csv","legacy","7 8 6 3 1","Lentiform Loewenfeld","3.3.12","5","y","0","right","left","right","NA","right","1067","2702","1688","NA","1067","2","legacy","5","1024","2","48000","-16","experiment","4","even","1","647095","643763","2253","83257","644885","644890","564508","2255","81569","NA","649098","650166","645892","4959","649098","Sternberg Task","65","102830","102","yes","1024"
"63.1067961165","63.1067961165","1017.76699029","1017.76699029","black","experiment","legacy","legacy","legacy","0","uniform","0","undefined","0","right","102","102","0","0","102","102","102","0","0","0","102","102","102","0","102","10/23/22 20:15:33","The main experiment item","yes","SternbergTask.osexp","C:/Users/casme/OneDrive/Desktop/Fall 2022","no","mono","no","18","no","white","no","yes","768","legacy","90","11","C:/Users/casme/OneDrive/Desktop/Fall 2022/IC-subjectx-4.csv","legacy","5 9 2 3","Lentiform Loewenfeld","3.3.12","0","n","0","None","left","right","NA","None","2000","2702","1688","NA","2000","2","legacy","4","1024","2","48000","-16","experiment","4","even","8","653500","643763","2253","83257","651292","651296","650173","2255","81569","NA","655503","657504","652298","4959","655502","Sternberg Task","65","104830","103","yes","1024"
"62.5","62.5","1019.97115385","1019.97115385","black","experiment","legacy","legacy","legacy","0","uniform","0","undefined","0","right","103","103","0","0","103","103","103","0","0","0","103","103","103","0","103","10/23/22 20:15:33","The main experiment item","yes","SternbergTask.osexp","C:/Users/casme/OneDrive/Desktop/Fall 2022","no","mono","no","18","no","white","no","yes","768","legacy","91","11","C:/Users/casme/OneDrive/Desktop/Fall 2022/IC-subjectx-4.csv","legacy","9 8 2 7 4","Lentiform Loewenfeld","3.3.12","0","n","0","left","left","right","NA","left","1247","2702","1688","NA","1247","2","legacy","5","1024","2","48000","-16","experiment","4","even","5","660842","643763","2253","83257","658635","658637","657512","2255","81569","NA","662844","664092","659640","4959","662844","Sternberg Task","65","106077","104","yes","1024"
"62.8571428571","62.8571428571","1014.88571429","1014.88571429","black","experiment","legacy","legacy","legacy","0","uniform","1","undefined","1","left","104","104","0","0","104","104","104","0","0","0","104","104","104","0","104","10/23/22 20:15:33","The main experiment item","yes","SternbergTask.osexp","C:/Users/casme/OneDrive/Desktop/Fall 2022","no","mono","no","18","no","white","no","yes","768","legacy","92","11","C:/Users/casme/OneDrive/Desktop/Fall 2022/IC-subjectx-4.csv","legacy","6 2","Lentiform Loewenfeld","3.3.12","1","y","0","left","left","right","NA","left","486","2702","1688","NA","486","2","legacy","2","1024","2","48000","-16","experiment","4","even","6","667422","643763","2253","83257","665215","665218","664098","2255","81569","NA","669425","669912","666220","4959","669424","Sternberg Task","66","106563","105","yes","1024"
"63.2075471698","63.2075471698","1016.74528302","1016.74528302","black","experiment","legacy","legacy","legacy","0","uniform","1","undefined","1","left","105","105","0","0","105","105","105","0","0","0","105","105","105","0","105","10/23/22 20:15:33","The main experiment item","yes","SternbergTask.osexp","C:/Users/casme/OneDrive/Desktop/Fall 2022","no","mono","no","18","no","white","no","yes","768","legacy","93","11","C:/Users/casme/OneDrive/Desktop/Fall 2022/IC-subjectx-4.csv","legacy","6 9 7 4 5 1","Lentiform Loewenfeld","3.3.12","2","y","0","left","left","right","NA","left","1212","2702","1688","NA","1212","2","legacy","6","1024","2","48000","-16","experiment","4","even","9","673249","669919","2253","83257","671042","671045","664098","2255","81569","NA","675252","676466","672047","4959","675251","Sternberg Task","67","107775","106","yes","1024"
"63.5514018692","63.5514018692","1012.93457944","1012.93457944","black","experiment","legacy","legacy","legacy","0","uniform","1","undefined","1","right","106","106","0","0","106","106","106","0","0","0","106","106","106","0","106","10/23/22 20:15:33","The main experiment item","yes","SternbergTask.osexp","C:/Users/casme/OneDrive/Desktop/Fall 2022","no","mono","no","18","no","white","no","yes","768","legacy","94","11","C:/Users/casme/OneDrive/Desktop/Fall 2022/IC-subjectx-4.csv","legacy","6 9 5","Lentiform Loewenfeld","3.3.12","0","n","0","right","left","right","NA","right","609","2702","1688","NA","609","2","legacy","3","1024","2","48000","-16","experiment","4","even","8","679792","676472","2253","83257","677585","677588","664098","2255","81569","NA","681795","682406","678590","4959","681794","Sternberg Task","68","108384","107","yes","1024"
"63.8888888889","63.8888888889","1010.37037037","1010.37037037","black","experiment","legacy","legacy","legacy","0","uniform","1","undefined","1","right","107","107","0","0","107","107","107","0","0","0","107","107","107","0","107","10/23/22 20:15:33","The main experiment item","yes","SternbergTask.osexp","C:/Users/casme/OneDrive/Desktop/Fall 2022","no","mono","no","18","no","white","no","yes","768","legacy","95","11","C:/Users/casme/OneDrive/Desktop/Fall 2022/IC-subjectx-4.csv","legacy","8 5 4 2 9 6","Lentiform Loewenfeld","3.3.12","0","n","0","right","left","right","NA","right","736","2702","1688","NA","736","2","legacy","6","1024","2","48000","-16","experiment","4","even","3","685746","682413","2253","83257","683537","683541","664098","2255","81569","NA","687749","688486","684543","4959","687749","Sternberg Task","69","109120","108","yes","1024"
"64.2201834862","64.2201834862","1009.12844037","1009.12844037","black","experiment","legacy","legacy","legacy","0","uniform","1","undefined","1","right","108","108","0","0","108","108","108","0","0","0","108","108","108","0","108","10/23/22 20:15:33","The main experiment item","yes","SternbergTask.osexp","C:/Users/casme/OneDrive/Desktop/Fall 2022","no","mono","no","18","no","white","no","yes","768","legacy","96","11","C:/Users/casme/OneDrive/Desktop/Fall 2022/IC-subjectx-4.csv","legacy","7 1","Lentiform Loewenfeld","3.3.12","0","n","0","right","left","right","NA","right","875","2702","1688","NA","875","2","legacy","2","1024","2","48000","-16","experiment","4","even","8","691824","688493","2253","83257","689617","689620","664098","2255","81569","NA","693827","694703","690622","4959","693826","Sternberg Task","70","109995","109","yes","1024"
"63.6363636364","63.6363636364","1006.58181818","1006.58181818","black","experiment","legacy","legacy","legacy","0","uniform","0","undefined","0","left","109","109","0","0","109","109","109","0","0","0","109","109","109","0","109","10/23/22 20:15:33","The main experiment item","yes","SternbergTask.osexp","C:/Users/casme/OneDrive/Desktop/Fall 2022","no","mono","no","18","no","white","no","yes","768","legacy","97","11","C:/Users/casme/OneDrive/Desktop/Fall 2022/IC-subjectx-4.csv","legacy","8 5 1 3 9","Lentiform Loewenfeld","3.3.12","4","y","0","right","left","right","NA","right","729","2702","1688","NA","729","2","legacy","5","1024","2","48000","-16","experiment","4","even","3","698034","694710","2253","83257","695827","695830","664098","2255","81569","NA","700037","700768","696832","4959","700036","Sternberg Task","70","110724","110","yes","1024"
"63.0630630631","63.0630630631","1014.67567568","1014.67567568","black","experiment","legacy","legacy","legacy","0","uniform","0","undefined","0","left","110","110","0","0","110","110","110","0","0","0","110","110","110","0","110","10/23/22 20:15:33","The main experiment item","yes","SternbergTask.osexp","C:/Users/casme/OneDrive/Desktop/Fall 2022","no","mono","no","18","no","white","no","yes","768","legacy","98","11","C:/Users/casme/OneDrive/Desktop/Fall 2022/IC-subjectx-4.csv","legacy","7 6","Lentiform Loewenfeld","3.3.12","2","y","0","right","left","right","NA","right","1905","2702","1688","NA","1905","2","legacy","2","1024","2","48000","-16","experiment","4","even","6","704096","694710","2253","83257","701887","701890","700774","2255","81569","NA","706099","708006","702893","4959","706099","Sternberg Task","70","112629","111","yes","1024"
"63.3928571429","63.3928571429","1014.19642857","1014.19642857","black","experiment","legacy","legacy","legacy","0","uniform","1","undefined","1","right","111","111","0","0","111","111","111","0","0","0","111","111","111","0","111","10/23/22 20:15:33","The main experiment item","yes","SternbergTask.osexp","C:/Users/casme/OneDrive/Desktop/Fall 2022","no","mono","no","18","no","white","no","yes","768","legacy","99","11","C:/Users/casme/OneDrive/Desktop/Fall 2022/IC-subjectx-4.csv","legacy","1 4 9 2 5","Lentiform Loewenfeld","3.3.12","0","n","0","right","left","right","NA","right","961","2702","1688","NA","961","2","legacy","5","1024","2","48000","-16","experiment","4","even","7","711343","694710","2253","83257","709137","709139","708013","2255","81569","NA","713345","714307","710141","4959","713345","Sternberg Task","71","113590","112","yes","1024"
"63.7168141593","63.7168141593","1013.18584071","1013.18584071","black","experiment","legacy","legacy","legacy","0","uniform","1","undefined","1","left","112","112","0","0","112","112","112","0","0","0","112","112","112","0","112","10/23/22 20:15:33","The main experiment item","yes","SternbergTask.osexp","C:/Users/casme/OneDrive/Desktop/Fall 2022","no","mono","no","18","no","white","no","yes","768","legacy","100","11","C:/Users/casme/OneDrive/Desktop/Fall 2022/IC-subjectx-4.csv","legacy","9 4 2","Lentiform Loewenfeld","3.3.12","1","y","0","left","left","right","NA","left","900","2702","1688","NA","900","2","legacy","3","1024","2","48000","-16","experiment","4","even","9","717647","714314","2253","83257","715438","715442","708013","2255","81569","NA","719650","720552","716444","4959","719650","Sternberg Task","72","114490","113","yes","1024"
"63.1578947368","63.1578947368","1021.85087719","1021.85087719","black","experiment","legacy","legacy","legacy","0","uniform","0","undefined","0","right","113","113","0","0","113","113","113","0","0","0","113","113","113","0","113","10/23/22 20:15:33","The main experiment item","yes","SternbergTask.osexp","C:/Users/casme/OneDrive/Desktop/Fall 2022","no","mono","no","18","no","white","no","yes","768","legacy","101","11","C:/Users/casme/OneDrive/Desktop/Fall 2022/IC-subjectx-4.csv","legacy","6 3 1 7 9 8","Lentiform Loewenfeld","3.3.12","0","n","0","None","left","right","NA","None","2001","2702","1688","NA","2001","2","legacy","6","1024","2","48000","-16","experiment","4","even","4","723890","720559","2253","83257","721682","721685","708013","2255","81569","NA","725892","727894","722688","4959","725892","Sternberg Task","72","116491","114","yes","1024"
"63.4782608696","63.4782608696","1018.13913043","1018.13913043","black","experiment","legacy","legacy","legacy","0","uniform","1","undefined","1","right","114","114","0","0","114","114","114","0","0","0","114","114","114","0","114","10/23/22 20:15:33","The main experiment item","yes","SternbergTask.osexp","C:/Users/casme/OneDrive/Desktop/Fall 2022","no","mono","no","18","no","white","no","yes","768","legacy","102","11","C:/Users/casme/OneDrive/Desktop/Fall 2022/IC-subjectx-4.csv","legacy","6 8 4","Lentiform Loewenfeld","3.3.12","0","n","0","right","left","right","NA","right","595","2702","1688","NA","595","2","legacy","3","1024","2","48000","-16","experiment","4","even","1","731228","720559","2253","83257","729022","729024","727902","2255","81569","NA","733231","733828","730026","4959","733231","Sternberg Task","73","117086","115","yes","1024"
"63.7931034483","63.7931034483","1015.03448276","1015.03448276","black","experiment","legacy","legacy","legacy","0","uniform","1","undefined","1","left","115","115","0","0","115","115","115","0","0","0","115","115","115","0","115","10/23/22 20:15:33","The main experiment item","yes","SternbergTask.osexp","C:/Users/casme/OneDrive/Desktop/Fall 2022","no","mono","no","18","no","white","no","yes","768","legacy","103","11","C:/Users/casme/OneDrive/Desktop/Fall 2022/IC-subjectx-4.csv","legacy","2 4 6 9","Lentiform Loewenfeld","3.3.12","3","y","0","left","left","right","NA","left","658","2702","1688","NA","658","2","legacy","4","1024","2","48000","-16","experiment","4","even","6","737164","733835","2253","83257","734956","734960","727902","2255","81569","NA","739167","739826","735962","4959","739166","Sternberg Task","74","117744","116","yes","1024"
"64.1025641026","64.1025641026","1011.47008547","1011.47008547","black","experiment","legacy","legacy","legacy","0","uniform","1","undefined","1","right","116","116","0","0","116","116","116","0","0","0","116","116","116","0","116","10/23/22 20:15:33","The main experiment item","yes","SternbergTask.osexp","C:/Users/casme/OneDrive/Desktop/Fall 2022","no","mono","no","18","no","white","no","yes","768","legacy","104","11","C:/Users/casme/OneDrive/Desktop/Fall 2022/IC-subjectx-4.csv","legacy","6 9 4 5 3 2","Lentiform Loewenfeld","3.3.12","0","n","0","right","left","right","NA","right","598","2702","1688","NA","598","2","legacy","6","1024","2","48000","-16","experiment","4","even","8","743165","739832","2253","83257","740957","740960","727902","2255","81569","NA","745168","745768","741962","4959","745167","Sternberg Task","75","118342","117","yes","1024"
