"acc","accuracy","average_response_time","avg_rt","background","block","canvas_backend","clock_backend","color_backend","compensation","coordinates","correct","correct_instruction1","correct_keyboard_response","correct_response","count_ISI","count_Practice_loop","count_correctFeedback","count_expSequence","count_experiment","count_experiment_loop","count_fixation","count_incorrectFeedback","count_instruction1","count_instructions2","count_keyboard_response","count_logger","count_memorySet","count_probe","count_thankYou","datetime","description","disable_garbage_collection","experiment_file","experiment_path","font_bold","font_family","font_italic","font_size","font_underline","foreground","form_clicks","fullscreen","height","keyboard_backend","live_row","live_row_Practice_loop","logfile","mouse_backend","numberSet","opensesame_codename","opensesame_version","posInSet","present","repeat_cycle","response","response_instruction1","response_instructions2","response_keyboard_response","response_thankYou","response_time","response_time_instruction1","response_time_instructions2","response_time_keyboard_response","response_time_thankYou","round_decimals","sampler_backend","setSize","sound_buf_size","sound_channels","sound_freq","sound_sample_size","start","subject_nr","subject_parity","target","time_ISI","time_Practice_loop","time_correctFeedback","time_expSequence","time_experiment","time_experiment_loop","time_fixation","time_incorrectFeedback","time_instruction1","time_instructions2","time_keyboard_response","time_logger","time_memorySet","time_probe","time_thankYou","title","total_correct","total_response_time","total_responses","uniform_coordinates","width"
"0","0","2000","2000","black","practice","legacy","legacy","legacy","0","uniform","0","undefined","0","left","0","0","0","0","0","0","0","0","0","0","0","0","0","0","0","Wed Oct 19 15:14:49 2022","The main experiment item","yes","Sternbergtask.osexp","C:/Users/cici_/Downloads","no","mono","no","18","no","white","no","yes","768","legacy","0","0","C:/Users/cici_/OneDrive/Documents/R/28F-subject-3.csv","legacy","6","Lentiform Loewenfeld","3.3.12","1","y","0","None","right","NA","None","NA","2000","27107","NA","2000","NA","2","legacy","1","1024","2","48000","-16","experiment","3","odd","6","31809","29295","NA","29605","2183","NA","29607","NA","2187","NA","33810","35810","30608","33810","NA","Sternberg task","0","2000","1","yes","1024"
"0","0","1466","1466","black","practice","legacy","legacy","legacy","0","uniform","0","undefined","0","left","1","0","1","1","0","0","1","1","0","0","1","1","1","1","0","Wed Oct 19 15:14:49 2022","The main experiment item","yes","Sternbergtask.osexp","C:/Users/cici_/Downloads","no","mono","no","18","no","white","no","yes","768","legacy","1","1","C:/Users/cici_/OneDrive/Documents/R/28F-subject-3.csv","legacy","4 8","Lentiform Loewenfeld","3.3.12","1","y","0","right","right","NA","right","NA","932","27107","NA","932","NA","2","legacy","2","1024","2","48000","-16","experiment","3","odd","4","39127","29295","NA","36923","2183","NA","36925","35852","2187","NA","41128","42060","37926","41128","NA","Sternberg task","0","2932","2","yes","1024"
"33.333333333333336","33.333333333333336","1280.6666666666667","1280.6666666666667","black","practice","legacy","legacy","legacy","0","uniform","1","undefined","1","left","2","0","2","2","0","0","2","2","0","0","2","2","2","2","0","Wed Oct 19 15:14:49 2022","The main experiment item","yes","Sternbergtask.osexp","C:/Users/cici_/Downloads","no","mono","no","18","no","white","no","yes","768","legacy","2","2","C:/Users/cici_/OneDrive/Documents/R/28F-subject-3.csv","legacy","2 9 4","Lentiform Loewenfeld","3.3.12","3","y","0","left","right","NA","left","NA","910","27107","NA","910","NA","2","legacy","3","1024","2","48000","-16","experiment","3","odd","4","45334","29295","NA","43129","2183","NA","43131","42065","2187","NA","47335","48246","44132","47335","NA","Sternberg task","1","3842","3","yes","1024"
"50","50","1268","1268","black","practice","legacy","legacy","legacy","0","uniform","1","undefined","1","left","3","0","3","3","0","0","3","3","0","0","3","3","3","3","0","Wed Oct 19 15:14:49 2022","The main experiment item","yes","Sternbergtask.osexp","C:/Users/cici_/Downloads","no","mono","no","18","no","white","no","yes","768","legacy","3","3","C:/Users/cici_/OneDrive/Documents/R/28F-subject-3.csv","legacy","1 7 9 8 5","Lentiform Loewenfeld","3.3.12","4","y","0","left","right","NA","left","NA","1230","27107","NA","1230","NA","2","legacy","5","1024","2","48000","-16","experiment","3","odd","8","51528","29295","48262","49324","2183","NA","49326","42065","2187","NA","53529","54760","50327","53529","NA","Sternberg task","2","5072","4","yes","1024"
"60","60","1343.4","1343.4","black","practice","legacy","legacy","legacy","0","uniform","1","undefined","1","right","4","0","4","4","0","0","4","4","0","0","4","4","4","4","0","Wed Oct 19 15:14:49 2022","The main experiment item","yes","Sternbergtask.osexp","C:/Users/cici_/Downloads","no","mono","no","18","no","white","no","yes","768","legacy","4","4","C:/Users/cici_/OneDrive/Documents/R/28F-subject-3.csv","legacy","5","Lentiform Loewenfeld","3.3.12","0","n","0","right","right","NA","right","NA","1645","27107","NA","1645","NA","2","legacy","1","1024","2","48000","-16","experiment","3","odd","3","58041","29295","54775","55838","2183","NA","55839","42065","2187","NA","60042","61687","56840","60042","NA","Sternberg task","3","6717","5","yes","1024"
"66.66666666666667","66.66666666666667","1341.1666666666667","1341.1666666666667","black","practice","legacy","legacy","legacy","0","uniform","1","undefined","1","right","5","0","5","5","0","0","5","5","0","0","5","5","5","5","0","Wed Oct 19 15:14:49 2022","The main experiment item","yes","Sternbergtask.osexp","C:/Users/cici_/Downloads","no","mono","no","18","no","white","no","yes","768","legacy","5","5","C:/Users/cici_/OneDrive/Documents/R/28F-subject-3.csv","legacy","9 6 7 4 5","Lentiform Loewenfeld","3.3.12","0","n","0","right","right","NA","right","NA","1330","27107","NA","1330","NA","2","legacy","5","1024","2","48000","-16","experiment","3","odd","3","64957","29295","61692","62754","2183","NA","62755","42065","2187","NA","66958","68289","63756","66958","NA","Sternberg task","4","8047","6","yes","1024"
"71.42857142857143","71.42857142857143","1290","1290","black","practice","legacy","legacy","legacy","0","uniform","1","undefined","1","right","6","0","6","6","0","0","6","6","0","0","6","6","6","6","0","Wed Oct 19 15:14:49 2022","The main experiment item","yes","Sternbergtask.osexp","C:/Users/cici_/Downloads","no","mono","no","18","no","white","no","yes","768","legacy","6","6","C:/Users/cici_/OneDrive/Documents/R/28F-subject-3.csv","legacy","3 1 9 4","Lentiform Loewenfeld","3.3.12","0","n","0","right","right","NA","right","NA","983","27107","NA","983","NA","2","legacy","4","1024","2","48000","-16","experiment","3","odd","6","71566","29295","68293","69363","2183","NA","69364","42065","2187","NA","73567","74550","70365","73567","NA","Sternberg task","5","9030","7","yes","1024"
"75","75","1212.5","1212.5","black","practice","legacy","legacy","legacy","0","uniform","1","undefined","1","right","7","0","7","7","0","0","7","7","0","0","7","7","7","7","0","Wed Oct 19 15:14:49 2022","The main experiment item","yes","Sternbergtask.osexp","C:/Users/cici_/Downloads","no","mono","no","18","no","white","no","yes","768","legacy","7","7","C:/Users/cici_/OneDrive/Documents/R/28F-subject-3.csv","legacy","2 1","Lentiform Loewenfeld","3.3.12","0","n","0","right","right","NA","right","NA","670","27107","NA","670","NA","2","legacy","2","1024","2","48000","-16","experiment","3","odd","5","77832","29295","74565","75629","2183","NA","75630","42065","2187","NA","79833","80504","76631","79833","NA","Sternberg task","6","9700","8","yes","1024"
"77.77777777777777","77.77777777777777","1177.7777777777778","1177.7777777777778","black","practice","legacy","legacy","legacy","0","uniform","1","undefined","1","left","8","0","8","8","0","0","8","8","0","0","8","8","8","8","0","Wed Oct 19 15:14:49 2022","The main experiment item","yes","Sternbergtask.osexp","C:/Users/cici_/Downloads","no","mono","no","18","no","white","no","yes","768","legacy","8","8","C:/Users/cici_/OneDrive/Documents/R/28F-subject-3.csv","legacy","4 3 1 7 9 8","Lentiform Loewenfeld","3.3.12","1","y","0","left","right","NA","left","NA","900","27107","NA","900","NA","2","legacy","6","1024","2","48000","-16","experiment","3","odd","4","83783","29295","80519","81580","2183","NA","81581","42065","2187","NA","85784","86685","82582","85784","NA","Sternberg task","7","10600","9","yes","1024"
"80","80","1142.3","1142.3","black","practice","legacy","legacy","legacy","0","uniform","1","undefined","1","right","9","0","9","9","0","0","9","9","0","0","9","9","9","9","0","Wed Oct 19 15:14:49 2022","The main experiment item","yes","Sternbergtask.osexp","C:/Users/cici_/Downloads","no","mono","no","18","no","white","no","yes","768","legacy","9","9","C:/Users/cici_/OneDrive/Documents/R/28F-subject-3.csv","legacy","5 7 8 4 1 2","Lentiform Loewenfeld","3.3.12","0","n","0","right","right","NA","right","NA","823","27107","NA","823","NA","2","legacy","6","1024","2","48000","-16","experiment","3","odd","6","89954","29295","86689","87751","2183","NA","87752","42065","2187","NA","91955","92778","88753","91955","NA","Sternberg task","8","11423","10","yes","1024"
"81.81818181818181","81.81818181818181","1103.5454545454545","1103.5454545454545","black","practice","legacy","legacy","legacy","0","uniform","1","undefined","1","right","10","0","10","10","0","0","10","10","0","0","10","10","10","10","0","Wed Oct 19 15:14:49 2022","The main experiment item","yes","Sternbergtask.osexp","C:/Users/cici_/Downloads","no","mono","no","18","no","white","no","yes","768","legacy","10","10","C:/Users/cici_/OneDrive/Documents/R/28F-subject-3.csv","legacy","4 1 5","Lentiform Loewenfeld","3.3.12","0","n","0","right","right","NA","right","NA","716","27107","NA","716","NA","2","legacy","3","1024","2","48000","-16","experiment","3","odd","2","96059","29295","92793","93854","2183","NA","93856","42065","2187","NA","98060","98776","94856","98060","NA","Sternberg task","9","12139","11","yes","1024"
"75","75","1093.3333333333333","1093.3333333333333","black","practice","legacy","legacy","legacy","0","uniform","0","undefined","0","left","11","0","11","11","0","0","11","11","0","0","11","11","11","11","0","Wed Oct 19 15:14:49 2022","The main experiment item","yes","Sternbergtask.osexp","C:/Users/cici_/Downloads","no","mono","no","18","no","white","no","yes","768","legacy","11","11","C:/Users/cici_/OneDrive/Documents/R/28F-subject-3.csv","legacy","1 5 2 9","Lentiform Loewenfeld","3.3.12","2","y","0","right","right","NA","right","NA","981","27107","NA","981","NA","2","legacy","4","1024","2","48000","-16","experiment","3","odd","5","102057","29295","98791","99854","2183","NA","99855","42065","2187","NA","104058","105039","100856","104058","NA","Sternberg task","9","13120","12","yes","1024"
"76.92307692307692","76.92307692307692","1062.1538461538462","1062.1538461538462","black","experiment","legacy","legacy","legacy","0","uniform","1","undefined","1","left","12","0","12","12","0","0","12","12","0","0","12","12","12","12","0","Wed Oct 19 15:14:49 2022","The main experiment item","yes","Sternbergtask.osexp","C:/Users/cici_/Downloads","no","mono","no","18","no","white","no","yes","768","legacy","0","11","C:/Users/cici_/OneDrive/Documents/R/28F-subject-3.csv","legacy","4 3 2 5 8","Lentiform Loewenfeld","3.3.12","2","y","0","left","right","right","left","NA","688","27107","6096","688","NA","2","legacy","5","1024","2","48000","-16","experiment","3","odd","3","114429","29295","98791","112226","2183","112169","112227","105045","2187","106072","116430","117119","113228","116430","NA","Sternberg task","10","13808","13","yes","1024"
"78.57142857142857","78.57142857142857","1064.9285714285713","1064.9285714285713","black","experiment","legacy","legacy","legacy","0","uniform","1","undefined","1","left","13","0","13","13","0","0","13","13","0","0","13","13","13","13","0","Wed Oct 19 15:14:49 2022","The main experiment item","yes","Sternbergtask.osexp","C:/Users/cici_/Downloads","no","mono","no","18","no","white","no","yes","768","legacy","1","11","C:/Users/cici_/OneDrive/Documents/R/28F-subject-3.csv","legacy","3 9 7 6 4","Lentiform Loewenfeld","3.3.12","3","y","0","left","right","right","left","NA","1101","27107","6096","1101","NA","2","legacy","5","1024","2","48000","-16","experiment","3","odd","7","120393","29295","117124","118188","2183","112169","118190","105045","2187","106072","122394","123495","119191","122394","NA","Sternberg task","11","14909","14","yes","1024"
"80","80","1035.6","1035.6","black","experiment","legacy","legacy","legacy","0","uniform","1","undefined","1","right","14","0","14","14","0","0","14","14","0","0","14","14","14","14","0","Wed Oct 19 15:14:49 2022","The main experiment item","yes","Sternbergtask.osexp","C:/Users/cici_/Downloads","no","mono","no","18","no","white","no","yes","768","legacy","2","11","C:/Users/cici_/OneDrive/Documents/R/28F-subject-3.csv","legacy","2 7 5","Lentiform Loewenfeld","3.3.12","0","n","0","right","right","right","right","NA","625","27107","6096","625","NA","2","legacy","3","1024","2","48000","-16","experiment","3","odd","8","126776","29295","123510","124572","2183","112169","124574","105045","2187","106072","128777","129404","125575","128777","NA","Sternberg task","12","15534","15","yes","1024"
"81.25","81.25","1014.75","1014.75","black","experiment","legacy","legacy","legacy","0","uniform","1","undefined","1","right","15","0","15","15","0","0","15","15","0","0","15","15","15","15","0","Wed Oct 19 15:14:49 2022","The main experiment item","yes","Sternbergtask.osexp","C:/Users/cici_/Downloads","no","mono","no","18","no","white","no","yes","768","legacy","3","11","C:/Users/cici_/OneDrive/Documents/R/28F-subject-3.csv","legacy","8 6 3 4 7","Lentiform Loewenfeld","3.3.12","0","n","0","right","right","right","right","NA","702","27107","6096","702","NA","2","legacy","5","1024","2","48000","-16","experiment","3","odd","1","132677","29295","129410","130472","2183","112169","130475","105045","2187","106072","134678","135380","131476","134678","NA","Sternberg task","13","16236","16","yes","1024"
"82.3529411764706","82.3529411764706","992.9411764705883","992.9411764705883","black","experiment","legacy","legacy","legacy","0","uniform","1","undefined","1","right","16","0","16","16","0","0","16","16","0","0","16","16","16","16","0","Wed Oct 19 15:14:49 2022","The main experiment item","yes","Sternbergtask.osexp","C:/Users/cici_/Downloads","no","mono","no","18","no","white","no","yes","768","legacy","4","11","C:/Users/cici_/OneDrive/Documents/R/28F-subject-3.csv","legacy","3 4 2","Lentiform Loewenfeld","3.3.12","0","n","0","right","right","right","right","NA","644","27107","6096","644","NA","2","legacy","3","1024","2","48000","-16","experiment","3","odd","5","138667","29295","135395","136463","2183","112169","136465","105045","2187","106072","140668","141313","137466","140668","NA","Sternberg task","14","16880","17","yes","1024"
"83.33333333333333","83.33333333333333","992.3333333333334","992.3333333333334","black","experiment","legacy","legacy","legacy","0","uniform","1","undefined","1","left","17","0","17","17","0","0","17","17","0","0","17","17","17","17","0","Wed Oct 19 15:14:49 2022","The main experiment item","yes","Sternbergtask.osexp","C:/Users/cici_/Downloads","no","mono","no","18","no","white","no","yes","768","legacy","5","11","C:/Users/cici_/OneDrive/Documents/R/28F-subject-3.csv","legacy","2 8 5 1","Lentiform Loewenfeld","3.3.12","4","y","0","left","right","right","left","NA","982","27107","6096","982","NA","2","legacy","4","1024","2","48000","-16","experiment","3","odd","1","144594","29295","141328","142390","2183","112169","142392","105045","2187","106072","146595","147578","143393","146595","NA","Sternberg task","15","17862","18","yes","1024"
"78.94736842105263","78.94736842105263","1021.3684210526316","1021.3684210526316","black","experiment","legacy","legacy","legacy","0","uniform","0","undefined","0","right","18","0","18","18","0","0","18","18","0","0","18","18","18","18","0","Wed Oct 19 15:14:49 2022","The main experiment item","yes","Sternbergtask.osexp","C:/Users/cici_/Downloads","no","mono","no","18","no","white","no","yes","768","legacy","6","11","C:/Users/cici_/OneDrive/Documents/R/28F-subject-3.csv","legacy","3 4 9 6 7 8","Lentiform Loewenfeld","3.3.12","0","n","0","left","right","right","left","NA","1544","27107","6096","1544","NA","2","legacy","6","1024","2","48000","-16","experiment","3","odd","2","150860","29295","147593","148656","2183","112169","148658","105045","2187","106072","152861","154406","149659","152861","NA","Sternberg task","15","19406","19","yes","1024"
"80","80","1016.6","1016.6","black","experiment","legacy","legacy","legacy","0","uniform","1","undefined","1","left","19","0","19","19","0","0","19","19","0","0","19","19","19","19","0","Wed Oct 19 15:14:49 2022","The main experiment item","yes","Sternbergtask.osexp","C:/Users/cici_/Downloads","no","mono","no","18","no","white","no","yes","768","legacy","7","11","C:/Users/cici_/OneDrive/Documents/R/28F-subject-3.csv","legacy","8 5 4 7 3 1","Lentiform Loewenfeld","3.3.12","2","y","0","left","right","right","left","NA","926","27107","6096","926","NA","2","legacy","6","1024","2","48000","-16","experiment","3","odd","5","157686","29295","147593","155483","2183","112169","155484","154421","2187","106072","159687","160614","156485","159687","NA","Sternberg task","16","20332","20","yes","1024"
"80.95238095238095","80.95238095238095","1041.5714285714287","1041.5714285714287","black","experiment","legacy","legacy","legacy","0","uniform","1","undefined","1","right","20","0","20","20","0","0","20","20","0","0","20","20","20","20","0","Wed Oct 19 15:14:49 2022","The main experiment item","yes","Sternbergtask.osexp","C:/Users/cici_/Downloads","no","mono","no","18","no","white","no","yes","768","legacy","8","11","C:/Users/cici_/OneDrive/Documents/R/28F-subject-3.csv","legacy","6 9 4 5 3 2","Lentiform Loewenfeld","3.3.12","0","n","0","right","right","right","right","NA","1541","27107","6096","1541","NA","2","legacy","6","1024","2","48000","-16","experiment","3","odd","8","163892","29295","160627","161689","2183","112169","161690","154421","2187","106072","165893","167434","162691","165893","NA","Sternberg task","17","21873","21","yes","1024"
"81.81818181818181","81.81818181818181","1036.1818181818182","1036.1818181818182","black","experiment","legacy","legacy","legacy","0","uniform","1","undefined","1","right","21","0","21","21","0","0","21","21","0","0","21","21","21","21","0","Wed Oct 19 15:14:49 2022","The main experiment item","yes","Sternbergtask.osexp","C:/Users/cici_/Downloads","no","mono","no","18","no","white","no","yes","768","legacy","9","11","C:/Users/cici_/OneDrive/Documents/R/28F-subject-3.csv","legacy","3 9 8 1 6 4","Lentiform Loewenfeld","3.3.12","0","n","0","right","right","right","right","NA","923","27107","6096","923","NA","2","legacy","6","1024","2","48000","-16","experiment","3","odd","7","170715","29295","167449","168512","2183","112169","168513","154421","2187","106072","172716","173640","169514","172716","NA","Sternberg task","18","22796","22","yes","1024"
"78.26086956521739","78.26086956521739","1042.0869565217392","1042.0869565217392","black","experiment","legacy","legacy","legacy","0","uniform","0","undefined","0","right","22","0","22","22","0","0","22","22","0","0","22","22","22","22","0","Wed Oct 19 15:14:49 2022","The main experiment item","yes","Sternbergtask.osexp","C:/Users/cici_/Downloads","no","mono","no","18","no","white","no","yes","768","legacy","10","11","C:/Users/cici_/OneDrive/Documents/R/28F-subject-3.csv","legacy","1 4 3 6 5","Lentiform Loewenfeld","3.3.12","0","n","0","left","right","right","left","NA","1172","27107","6096","1172","NA","2","legacy","5","1024","2","48000","-16","experiment","3","odd","8","176925","29295","173655","174720","2183","112169","174722","154421","2187","106072","178926","180100","175723","178926","NA","Sternberg task","18","23968","23","yes","1024"
"79.16666666666667","79.16666666666667","1049.2916666666667","1049.2916666666667","black","experiment","legacy","legacy","legacy","0","uniform","1","undefined","1","left","23","0","23","23","0","0","23","23","0","0","23","23","23","23","0","Wed Oct 19 15:14:49 2022","The main experiment item","yes","Sternbergtask.osexp","C:/Users/cici_/Downloads","no","mono","no","18","no","white","no","yes","768","legacy","11","11","C:/Users/cici_/OneDrive/Documents/R/28F-subject-3.csv","legacy","5 2 9 6 1 7","Lentiform Loewenfeld","3.3.12","3","y","0","left","right","right","left","NA","1215","27107","6096","1215","NA","2","legacy","6","1024","2","48000","-16","experiment","3","odd","9","183381","29295","173655","181176","2183","112169","181179","180114","2187","106072","185382","186598","182180","185382","NA","Sternberg task","19","25183","24","yes","1024"
"80","80","1037.88","1037.88","black","experiment","legacy","legacy","legacy","0","uniform","1","undefined","1","left","24","0","24","24","0","0","24","24","0","0","24","24","24","24","0","Wed Oct 19 15:14:49 2022","The main experiment item","yes","Sternbergtask.osexp","C:/Users/cici_/Downloads","no","mono","no","18","no","white","no","yes","768","legacy","12","11","C:/Users/cici_/OneDrive/Documents/R/28F-subject-3.csv","legacy","9 5 3 8 4","Lentiform Loewenfeld","3.3.12","1","y","0","left","right","right","left","NA","764","27107","6096","764","NA","2","legacy","5","1024","2","48000","-16","experiment","3","odd","9","189880","29295","186614","187676","2183","112169","187677","180114","2187","106072","191881","192646","188678","191881","NA","Sternberg task","20","25947","25","yes","1024"
"80.76923076923077","80.76923076923077","1042.3846153846155","1042.3846153846155","black","experiment","legacy","legacy","legacy","0","uniform","1","undefined","1","left","25","0","25","25","0","0","25","25","0","0","25","25","25","25","0","Wed Oct 19 15:14:49 2022","The main experiment item","yes","Sternbergtask.osexp","C:/Users/cici_/Downloads","no","mono","no","18","no","white","no","yes","768","legacy","13","11","C:/Users/cici_/OneDrive/Documents/R/28F-subject-3.csv","legacy","7 8 6 3 1","Lentiform Loewenfeld","3.3.12","5","y","0","left","right","right","left","NA","1155","27107","6096","1155","NA","2","legacy","5","1024","2","48000","-16","experiment","3","odd","1","195928","29295","192660","193724","2183","112169","193726","180114","2187","106072","197929","199084","194727","197929","NA","Sternberg task","21","27102","26","yes","1024"
"81.48148148148148","81.48148148148148","1031.4074074074074","1031.4074074074074","black","experiment","legacy","legacy","legacy","0","uniform","1","undefined","1","left","26","0","26","26","0","0","26","26","0","0","26","26","26","26","0","Wed Oct 19 15:14:49 2022","The main experiment item","yes","Sternbergtask.osexp","C:/Users/cici_/Downloads","no","mono","no","18","no","white","no","yes","768","legacy","14","11","C:/Users/cici_/OneDrive/Documents/R/28F-subject-3.csv","legacy","3 4","Lentiform Loewenfeld","3.3.12","1","y","0","left","right","right","left","NA","746","27107","6096","746","NA","2","legacy","2","1024","2","48000","-16","experiment","3","odd","3","202368","29295","199099","200163","2183","112169","200166","180114","2187","106072","204370","205117","201167","204370","NA","Sternberg task","22","27848","27","yes","1024"
"82.14285714285714","82.14285714285714","1025.857142857143","1025.857142857143","black","experiment","legacy","legacy","legacy","0","uniform","1","undefined","1","right","27","0","27","27","0","0","27","27","0","0","27","27","27","27","0","Wed Oct 19 15:14:49 2022","The main experiment item","yes","Sternbergtask.osexp","C:/Users/cici_/Downloads","no","mono","no","18","no","white","no","yes","768","legacy","15","11","C:/Users/cici_/OneDrive/Documents/R/28F-subject-3.csv","legacy","1 6 4","Lentiform Loewenfeld","3.3.12","0","n","0","right","right","right","right","NA","876","27107","6096","876","NA","2","legacy","3","1024","2","48000","-16","experiment","3","odd","7","208399","29295","205132","206194","2183","112169","206195","180114","2187","106072","210400","211277","207197","210400","NA","Sternberg task","23","28724","28","yes","1024"
"82.75862068965517","82.75862068965517","1028.8275862068965","1028.8275862068965","black","experiment","legacy","legacy","legacy","0","uniform","1","undefined","1","left","28","0","28","28","0","0","28","28","0","0","28","28","28","28","0","Wed Oct 19 15:14:49 2022","The main experiment item","yes","Sternbergtask.osexp","C:/Users/cici_/Downloads","no","mono","no","18","no","white","no","yes","768","legacy","16","11","C:/Users/cici_/OneDrive/Documents/R/28F-subject-3.csv","legacy","7 2 3","Lentiform Loewenfeld","3.3.12","3","y","0","left","right","right","left","NA","1112","27107","6096","1112","NA","2","legacy","3","1024","2","48000","-16","experiment","3","odd","3","214548","29295","211282","212345","2183","112169","212346","180114","2187","106072","216549","217662","213347","216549","NA","Sternberg task","24","29836","29","yes","1024"
"83.33333333333333","83.33333333333333","1022.4666666666667","1022.4666666666667","black","experiment","legacy","legacy","legacy","0","uniform","1","undefined","1","left","29","0","29","29","0","0","29","29","0","0","29","29","29","29","0","Wed Oct 19 15:14:49 2022","The main experiment item","yes","Sternbergtask.osexp","C:/Users/cici_/Downloads","no","mono","no","18","no","white","no","yes","768","legacy","17","11","C:/Users/cici_/OneDrive/Documents/R/28F-subject-3.csv","legacy","8 3","Lentiform Loewenfeld","3.3.12","2","y","0","left","right","right","left","NA","838","27107","6096","838","NA","2","legacy","2","1024","2","48000","-16","experiment","3","odd","3","220944","29295","217676","218740","2183","112169","218742","180114","2187","106072","222945","223783","219743","222945","NA","Sternberg task","25","30674","30","yes","1024"
"83.87096774193549","83.87096774193549","1021.4516129032259","1021.4516129032259","black","experiment","legacy","legacy","legacy","0","uniform","1","undefined","1","right","30","0","30","30","0","0","30","30","0","0","30","30","30","30","0","Wed Oct 19 15:14:49 2022","The main experiment item","yes","Sternbergtask.osexp","C:/Users/cici_/Downloads","no","mono","no","18","no","white","no","yes","768","legacy","18","11","C:/Users/cici_/OneDrive/Documents/R/28F-subject-3.csv","legacy","4 1","Lentiform Loewenfeld","3.3.12","0","n","0","right","right","right","right","NA","991","27107","6096","991","NA","2","legacy","2","1024","2","48000","-16","experiment","3","odd","6","227055","29295","223788","224851","2183","112169","224853","180114","2187","106072","229056","230047","225854","229056","NA","Sternberg task","26","31665","31","yes","1024"
"84.375","84.375","1020.59375","1020.59375","black","experiment","legacy","legacy","legacy","0","uniform","1","undefined","1","left","31","0","31","31","0","0","31","31","0","0","31","31","31","31","0","Wed Oct 19 15:14:49 2022","The main experiment item","yes","Sternbergtask.osexp","C:/Users/cici_/Downloads","no","mono","no","18","no","white","no","yes","768","legacy","19","11","C:/Users/cici_/OneDrive/Documents/R/28F-subject-3.csv","legacy","5 7 8 2 3 8","Lentiform Loewenfeld","3.3.12","5","y","0","left","right","right","left","NA","994","27107","6096","994","NA","2","legacy","6","1024","2","48000","-16","experiment","3","odd","3","233329","29295","230062","231125","2183","112169","231127","180114","2187","106072","235330","236324","232128","235330","NA","Sternberg task","27","32659","32","yes","1024"
"84.84848484848484","84.84848484848484","1012.969696969697","1012.969696969697","black","experiment","legacy","legacy","legacy","0","uniform","1","undefined","1","left","32","0","32","32","0","0","32","32","0","0","32","32","32","32","0","Wed Oct 19 15:14:49 2022","The main experiment item","yes","Sternbergtask.osexp","C:/Users/cici_/Downloads","no","mono","no","18","no","white","no","yes","768","legacy","20","11","C:/Users/cici_/OneDrive/Documents/R/28F-subject-3.csv","legacy","6 7 9 3 1 2","Lentiform Loewenfeld","3.3.12","1","y","0","left","right","right","left","NA","769","27107","6096","769","NA","2","legacy","6","1024","2","48000","-16","experiment","3","odd","6","239604","29295","236339","237401","2183","112169","237402","180114","2187","106072","241605","242374","238403","241605","NA","Sternberg task","28","33428","33","yes","1024"
"85.29411764705883","85.29411764705883","1013.5294117647059","1013.5294117647059","black","experiment","legacy","legacy","legacy","0","uniform","1","undefined","1","right","33","0","33","33","0","0","33","33","0","0","33","33","33","33","0","Wed Oct 19 15:14:49 2022","The main experiment item","yes","Sternbergtask.osexp","C:/Users/cici_/Downloads","no","mono","no","18","no","white","no","yes","768","legacy","21","11","C:/Users/cici_/OneDrive/Documents/R/28F-subject-3.csv","legacy","6 9 5","Lentiform Loewenfeld","3.3.12","0","n","0","right","right","right","right","NA","1032","27107","6096","1032","NA","2","legacy","3","1024","2","48000","-16","experiment","3","odd","8","245646","29295","242379","243441","2183","112169","243443","180114","2187","106072","247647","248680","244444","247647","NA","Sternberg task","29","34460","34","yes","1024"
"85.71428571428571","85.71428571428571","1013.4285714285714","1013.4285714285714","black","experiment","legacy","legacy","legacy","0","uniform","1","undefined","1","left","34","0","34","34","0","0","34","34","0","0","34","34","34","34","0","Wed Oct 19 15:14:49 2022","The main experiment item","yes","Sternbergtask.osexp","C:/Users/cici_/Downloads","no","mono","no","18","no","white","no","yes","768","legacy","22","11","C:/Users/cici_/OneDrive/Documents/R/28F-subject-3.csv","legacy","6 8 9 3 4 9","Lentiform Loewenfeld","3.3.12","5","y","0","left","right","right","left","NA","1010","27107","6096","1010","NA","2","legacy","6","1024","2","48000","-16","experiment","3","odd","4","251954","29295","248685","249750","2183","112169","249752","180114","2187","106072","253955","254966","250753","253955","NA","Sternberg task","30","35470","35","yes","1024"
"86.11111111111111","86.11111111111111","1021.4722222222222","1021.4722222222222","black","experiment","legacy","legacy","legacy","0","uniform","1","undefined","1","right","35","0","35","35","0","0","35","35","0","0","35","35","35","35","0","Wed Oct 19 15:14:49 2022","The main experiment item","yes","Sternbergtask.osexp","C:/Users/cici_/Downloads","no","mono","no","18","no","white","no","yes","768","legacy","23","11","C:/Users/cici_/OneDrive/Documents/R/28F-subject-3.csv","legacy","8 4 3 9","Lentiform Loewenfeld","3.3.12","0","n","0","right","right","right","right","NA","1303","27107","6096","1303","NA","2","legacy","4","1024","2","48000","-16","experiment","3","odd","5","258247","29295","254980","256042","2183","112169","256044","180114","2187","106072","260248","261552","257045","260248","NA","Sternberg task","31","36773","36","yes","1024"
"83.78378378378379","83.78378378378379","1030.054054054054","1030.054054054054","black","experiment","legacy","legacy","legacy","0","uniform","0","undefined","0","left","36","0","36","36","0","0","36","36","0","0","36","36","36","36","0","Wed Oct 19 15:14:49 2022","The main experiment item","yes","Sternbergtask.osexp","C:/Users/cici_/Downloads","no","mono","no","18","no","white","no","yes","768","legacy","24","11","C:/Users/cici_/OneDrive/Documents/R/28F-subject-3.csv","legacy","9 3 1 2 5","Lentiform Loewenfeld","3.3.12","4","y","0","right","right","right","right","NA","1339","27107","6096","1339","NA","2","legacy","5","1024","2","48000","-16","experiment","3","odd","2","264834","29295","261568","262629","2183","112169","262632","180114","2187","106072","266835","268175","263633","266835","NA","Sternberg task","31","38112","37","yes","1024"
"84.21052631578948","84.21052631578948","1035.7631578947369","1035.7631578947369","black","experiment","legacy","legacy","legacy","0","uniform","1","undefined","1","right","37","0","37","37","0","0","37","37","0","0","37","37","37","37","0","Wed Oct 19 15:14:49 2022","The main experiment item","yes","Sternbergtask.osexp","C:/Users/cici_/Downloads","no","mono","no","18","no","white","no","yes","768","legacy","25","11","C:/Users/cici_/OneDrive/Documents/R/28F-subject-3.csv","legacy","1 5 3 2 8","Lentiform Loewenfeld","3.3.12","0","n","0","right","right","right","right","NA","1247","27107","6096","1247","NA","2","legacy","5","1024","2","48000","-16","experiment","3","odd","4","271455","29295","261568","269251","2183","112169","269253","268190","2187","106072","273456","274703","270254","273456","NA","Sternberg task","32","39359","38","yes","1024"
"84.61538461538461","84.61538461538461","1035.076923076923","1035.076923076923","black","experiment","legacy","legacy","legacy","0","uniform","1","undefined","1","right","38","0","38","38","0","0","38","38","0","0","38","38","38","38","0","Wed Oct 19 15:14:49 2022","The main experiment item","yes","Sternbergtask.osexp","C:/Users/cici_/Downloads","no","mono","no","18","no","white","no","yes","768","legacy","26","11","C:/Users/cici_/OneDrive/Documents/R/28F-subject-3.csv","legacy","8 2 1 4 5 9","Lentiform Loewenfeld","3.3.12","0","n","0","right","right","right","right","NA","1009","27107","6096","1009","NA","2","legacy","6","1024","2","48000","-16","experiment","3","odd","7","277977","29295","274708","275772","2183","112169","275774","268190","2187","106072","279978","280988","276775","279978","NA","Sternberg task","33","40368","39","yes","1024"
"85","85","1035.25","1035.25","black","experiment","legacy","legacy","legacy","0","uniform","1","undefined","1","right","39","0","39","39","0","0","39","39","0","0","39","39","39","39","0","Wed Oct 19 15:14:49 2022","The main experiment item","yes","Sternbergtask.osexp","C:/Users/cici_/Downloads","no","mono","no","18","no","white","no","yes","768","legacy","27","11","C:/Users/cici_/OneDrive/Documents/R/28F-subject-3.csv","legacy","2 8 9","Lentiform Loewenfeld","3.3.12","0","n","0","right","right","right","right","NA","1042","27107","6096","1042","NA","2","legacy","3","1024","2","48000","-16","experiment","3","odd","6","284263","29295","280993","282059","2183","112169","282061","268190","2187","106072","286264","287307","283062","286264","NA","Sternberg task","34","41410","40","yes","1024"
"82.92682926829268","82.92682926829268","1032.1707317073171","1032.1707317073171","black","experiment","legacy","legacy","legacy","0","uniform","0","undefined","0","right","40","0","40","40","0","0","40","40","0","0","40","40","40","40","0","Wed Oct 19 15:14:49 2022","The main experiment item","yes","Sternbergtask.osexp","C:/Users/cici_/Downloads","no","mono","no","18","no","white","no","yes","768","legacy","28","11","C:/Users/cici_/OneDrive/Documents/R/28F-subject-3.csv","legacy","7 8 6 1","Lentiform Loewenfeld","3.3.12","0","n","0","left","right","right","left","NA","909","27107","6096","909","NA","2","legacy","4","1024","2","48000","-16","experiment","3","odd","3","290587","29295","287322","288384","2183","112169","288385","268190","2187","106072","292587","293497","289386","292587","NA","Sternberg task","34","42319","41","yes","1024"
"83.33333333333333","83.33333333333333","1031.8333333333333","1031.8333333333333","black","experiment","legacy","legacy","legacy","0","uniform","1","undefined","1","left","41","0","41","41","0","0","41","41","0","0","41","41","41","41","0","Wed Oct 19 15:14:49 2022","The main experiment item","yes","Sternbergtask.osexp","C:/Users/cici_/Downloads","no","mono","no","18","no","white","no","yes","768","legacy","29","11","C:/Users/cici_/OneDrive/Documents/R/28F-subject-3.csv","legacy","8","Lentiform Loewenfeld","3.3.12","1","y","0","left","right","right","left","NA","1018","27107","6096","1018","NA","2","legacy","1","1024","2","48000","-16","experiment","3","odd","8","296767","29295","287322","294563","2183","112169","294565","293501","2187","106072","298768","299786","295566","298768","NA","Sternberg task","35","43337","42","yes","1024"
"83.72093023255815","83.72093023255815","1027.046511627907","1027.046511627907","black","experiment","legacy","legacy","legacy","0","uniform","1","undefined","1","right","42","0","42","42","0","0","42","42","0","0","42","42","42","42","0","Wed Oct 19 15:14:49 2022","The main experiment item","yes","Sternbergtask.osexp","C:/Users/cici_/Downloads","no","mono","no","18","no","white","no","yes","768","legacy","30","11","C:/Users/cici_/OneDrive/Documents/R/28F-subject-3.csv","legacy","9 5 3 2 8 6","Lentiform Loewenfeld","3.3.12","0","n","0","right","right","right","right","NA","826","27107","6096","826","NA","2","legacy","6","1024","2","48000","-16","experiment","3","odd","7","303067","29295","299800","300863","2183","112169","300865","293501","2187","106072","305068","305895","301866","305068","NA","Sternberg task","36","44163","43","yes","1024"
"84.0909090909091","84.0909090909091","1033.9772727272727","1033.9772727272727","black","experiment","legacy","legacy","legacy","0","uniform","1","undefined","1","right","43","0","43","43","0","0","43","43","0","0","43","43","43","43","0","Wed Oct 19 15:14:49 2022","The main experiment item","yes","Sternbergtask.osexp","C:/Users/cici_/Downloads","no","mono","no","18","no","white","no","yes","768","legacy","31","11","C:/Users/cici_/OneDrive/Documents/R/28F-subject-3.csv","legacy","4 2 7 6 1 3","Lentiform Loewenfeld","3.3.12","0","n","0","right","right","right","right","NA","1332","27107","6096","1332","NA","2","legacy","6","1024","2","48000","-16","experiment","3","odd","8","309175","29295","305910","306971","2183","112169","306973","293501","2187","106072","311176","312508","307974","311176","NA","Sternberg task","37","45495","44","yes","1024"
"84.44444444444444","84.44444444444444","1043.4666666666667","1043.4666666666667","black","experiment","legacy","legacy","legacy","0","uniform","1","undefined","1","left","44","0","44","44","0","0","44","44","0","0","44","44","44","44","0","Wed Oct 19 15:14:49 2022","The main experiment item","yes","Sternbergtask.osexp","C:/Users/cici_/Downloads","no","mono","no","18","no","white","no","yes","768","legacy","32","11","C:/Users/cici_/OneDrive/Documents/R/28F-subject-3.csv","legacy","9 4 2","Lentiform Loewenfeld","3.3.12","1","y","0","left","right","right","left","NA","1461","27107","6096","1461","NA","2","legacy","3","1024","2","48000","-16","experiment","3","odd","9","315780","29295","312512","313575","2183","112169","313578","293501","2187","106072","317781","319242","314579","317781","NA","Sternberg task","38","46956","45","yes","1024"
"84.78260869565217","84.78260869565217","1041.8695652173913","1041.8695652173913","black","experiment","legacy","legacy","legacy","0","uniform","1","undefined","1","left","45","0","45","45","0","0","45","45","0","0","45","45","45","45","0","Wed Oct 19 15:14:49 2022","The main experiment item","yes","Sternbergtask.osexp","C:/Users/cici_/Downloads","no","mono","no","18","no","white","no","yes","768","legacy","33","11","C:/Users/cici_/OneDrive/Documents/R/28F-subject-3.csv","legacy","5 7 3 6 2","Lentiform Loewenfeld","3.3.12","5","y","0","left","right","right","left","NA","970","27107","6096","970","NA","2","legacy","5","1024","2","48000","-16","experiment","3","odd","2","322512","29295","319247","320308","2183","112169","320310","293501","2187","106072","324513","325483","321311","324513","NA","Sternberg task","39","47926","46","yes","1024"
"85.1063829787234","85.1063829787234","1041.4468085106382","1041.4468085106382","black","experiment","legacy","legacy","legacy","0","uniform","1","undefined","1","right","46","0","46","46","0","0","46","46","0","0","46","46","46","46","0","Wed Oct 19 15:14:49 2022","The main experiment item","yes","Sternbergtask.osexp","C:/Users/cici_/Downloads","no","mono","no","18","no","white","no","yes","768","legacy","34","11","C:/Users/cici_/OneDrive/Documents/R/28F-subject-3.csv","legacy","2 8 7 9 5 3","Lentiform Loewenfeld","3.3.12","0","n","0","right","right","right","right","NA","1022","27107","6096","1022","NA","2","legacy","6","1024","2","48000","-16","experiment","3","odd","6","328766","29295","325497","326563","2183","112169","326564","293501","2187","106072","330767","331790","327565","330767","NA","Sternberg task","40","48948","47","yes","1024"
"85.41666666666667","85.41666666666667","1039.9583333333333","1039.9583333333333","black","experiment","legacy","legacy","legacy","0","uniform","1","undefined","1","left","47","0","47","47","0","0","47","47","0","0","47","47","47","47","0","Wed Oct 19 15:14:49 2022","The main experiment item","yes","Sternbergtask.osexp","C:/Users/cici_/Downloads","no","mono","no","18","no","white","no","yes","768","legacy","35","11","C:/Users/cici_/OneDrive/Documents/R/28F-subject-3.csv","legacy","8 9 5 6 7","Lentiform Loewenfeld","3.3.12","1","y","0","left","right","right","left","NA","970","27107","6096","970","NA","2","legacy","5","1024","2","48000","-16","experiment","3","odd","8","335072","29295","331805","332868","2183","112169","332870","293501","2187","106072","337073","338044","333871","337073","NA","Sternberg task","41","49918","48","yes","1024"
"85.71428571428571","85.71428571428571","1039.204081632653","1039.204081632653","black","experiment","legacy","legacy","legacy","0","uniform","1","undefined","1","right","48","0","48","48","0","0","48","48","0","0","48","48","48","48","0","Wed Oct 19 15:14:49 2022","The main experiment item","yes","Sternbergtask.osexp","C:/Users/cici_/Downloads","no","mono","no","18","no","white","no","yes","768","legacy","36","11","C:/Users/cici_/OneDrive/Documents/R/28F-subject-3.csv","legacy","4 2 6 9","Lentiform Loewenfeld","3.3.12","0","n","0","right","right","right","right","NA","1003","27107","6096","1003","NA","2","legacy","4","1024","2","48000","-16","experiment","3","odd","7","341324","29295","338059","339121","2183","112169","339122","293501","2187","106072","343325","344328","340123","343325","NA","Sternberg task","42","50921","49","yes","1024"
"86","86","1037.28","1037.28","black","experiment","legacy","legacy","legacy","0","uniform","1","undefined","1","left","49","0","49","49","0","0","49","49","0","0","49","49","49","49","0","Wed Oct 19 15:14:49 2022","The main experiment item","yes","Sternbergtask.osexp","C:/Users/cici_/Downloads","no","mono","no","18","no","white","no","yes","768","legacy","37","11","C:/Users/cici_/OneDrive/Documents/R/28F-subject-3.csv","legacy","3 4 9 6 2 9","Lentiform Loewenfeld","3.3.12","5","y","0","left","right","right","left","NA","943","27107","6096","943","NA","2","legacy","6","1024","2","48000","-16","experiment","3","odd","2","347609","29295","344344","345406","2183","112169","345407","293501","2187","106072","349612","350556","346408","349611","NA","Sternberg task","43","51864","50","yes","1024"
"86.27450980392157","86.27450980392157","1036.3333333333333","1036.3333333333333","black","experiment","legacy","legacy","legacy","0","uniform","1","undefined","1","left","50","0","50","50","0","0","50","50","0","0","50","50","50","50","0","Wed Oct 19 15:14:49 2022","The main experiment item","yes","Sternbergtask.osexp","C:/Users/cici_/Downloads","no","mono","no","18","no","white","no","yes","768","legacy","38","11","C:/Users/cici_/OneDrive/Documents/R/28F-subject-3.csv","legacy","3 9 6 2","Lentiform Loewenfeld","3.3.12","4","y","0","left","right","right","left","NA","989","27107","6096","989","NA","2","legacy","4","1024","2","48000","-16","experiment","3","odd","2","353838","29295","350571","351633","2183","112169","351635","293501","2187","106072","355839","356828","352637","355839","NA","Sternberg task","44","52853","51","yes","1024"
"86.53846153846153","86.53846153846153","1029.8076923076924","1029.8076923076924","black","experiment","legacy","legacy","legacy","0","uniform","1","undefined","1","left","51","0","51","51","0","0","51","51","0","0","51","51","51","51","0","Wed Oct 19 15:14:49 2022","The main experiment item","yes","Sternbergtask.osexp","C:/Users/cici_/Downloads","no","mono","no","18","no","white","no","yes","768","legacy","39","11","C:/Users/cici_/OneDrive/Documents/R/28F-subject-3.csv","legacy","9 8 4","Lentiform Loewenfeld","3.3.12","1","y","0","left","right","right","left","NA","697","27107","6096","697","NA","2","legacy","3","1024","2","48000","-16","experiment","3","odd","9","360103","29295","356838","357899","2183","112169","357901","293501","2187","106072","362104","362802","358902","362104","NA","Sternberg task","45","53550","52","yes","1024"
"86.79245283018868","86.79245283018868","1031.867924528302","1031.867924528302","black","experiment","legacy","legacy","legacy","0","uniform","1","undefined","1","right","52","0","52","52","0","0","52","52","0","0","52","52","52","52","0","Wed Oct 19 15:14:49 2022","The main experiment item","yes","Sternbergtask.osexp","C:/Users/cici_/Downloads","no","mono","no","18","no","white","no","yes","768","legacy","40","11","C:/Users/cici_/OneDrive/Documents/R/28F-subject-3.csv","legacy","5","Lentiform Loewenfeld","3.3.12","0","n","0","right","right","right","right","NA","1139","27107","6096","1139","NA","2","legacy","1","1024","2","48000","-16","experiment","3","odd","8","366085","29295","362816","363880","2183","112169","363882","293501","2187","106072","368086","369227","364883","368086","NA","Sternberg task","46","54689","53","yes","1024"
"87.03703703703704","87.03703703703704","1029.4444444444443","1029.4444444444443","black","experiment","legacy","legacy","legacy","0","uniform","1","undefined","1","left","53","0","53","53","0","0","53","53","0","0","53","53","53","53","0","Wed Oct 19 15:14:49 2022","The main experiment item","yes","Sternbergtask.osexp","C:/Users/cici_/Downloads","no","mono","no","18","no","white","no","yes","768","legacy","41","11","C:/Users/cici_/OneDrive/Documents/R/28F-subject-3.csv","legacy","6 7 8 5","Lentiform Loewenfeld","3.3.12","3","y","0","left","right","right","left","NA","901","27107","6096","901","NA","2","legacy","4","1024","2","48000","-16","experiment","3","odd","8","372498","29295","369233","370295","2183","112169","370296","293501","2187","106072","374500","375402","371297","374499","NA","Sternberg task","47","55590","54","yes","1024"
"87.27272727272727","87.27272727272727","1027.1636363636364","1027.1636363636364","black","experiment","legacy","legacy","legacy","0","uniform","1","undefined","1","right","54","0","54","54","0","0","54","54","0","0","54","54","54","54","0","Wed Oct 19 15:14:49 2022","The main experiment item","yes","Sternbergtask.osexp","C:/Users/cici_/Downloads","no","mono","no","18","no","white","no","yes","768","legacy","42","11","C:/Users/cici_/OneDrive/Documents/R/28F-subject-3.csv","legacy","9","Lentiform Loewenfeld","3.3.12","0","n","0","right","right","right","right","NA","904","27107","6096","904","NA","2","legacy","1","1024","2","48000","-16","experiment","3","odd","6","378672","29295","375407","376468","2183","112169","376470","293501","2187","106072","380673","381577","377471","380673","NA","Sternberg task","48","56494","55","yes","1024"
"87.5","87.5","1025.6964285714287","1025.6964285714287","black","experiment","legacy","legacy","legacy","0","uniform","1","undefined","1","left","55","0","55","55","0","0","55","55","0","0","55","55","55","55","0","Wed Oct 19 15:14:49 2022","The main experiment item","yes","Sternbergtask.osexp","C:/Users/cici_/Downloads","no","mono","no","18","no","white","no","yes","768","legacy","43","11","C:/Users/cici_/OneDrive/Documents/R/28F-subject-3.csv","legacy","2 4 6 9","Lentiform Loewenfeld","3.3.12","3","y","0","left","right","right","left","NA","945","27107","6096","945","NA","2","legacy","4","1024","2","48000","-16","experiment","3","odd","6","384856","29295","381591","382653","2183","112169","382655","293501","2187","106072","386857","387804","383656","386857","NA","Sternberg task","49","57439","56","yes","1024"
"87.71929824561404","87.71929824561404","1029.2456140350878","1029.2456140350878","black","experiment","legacy","legacy","legacy","0","uniform","1","undefined","1","right","56","0","56","56","0","0","56","56","0","0","56","56","56","56","0","Wed Oct 19 15:14:49 2022","The main experiment item","yes","Sternbergtask.osexp","C:/Users/cici_/Downloads","no","mono","no","18","no","white","no","yes","768","legacy","44","11","C:/Users/cici_/OneDrive/Documents/R/28F-subject-3.csv","legacy","9 8 2 7 4","Lentiform Loewenfeld","3.3.12","0","n","0","right","right","right","right","NA","1228","27107","6096","1228","NA","2","legacy","5","1024","2","48000","-16","experiment","3","odd","5","391075","29295","387809","388871","2183","112169","388873","293501","2187","106072","393076","394305","389874","393076","NA","Sternberg task","50","58667","57","yes","1024"
"87.93103448275862","87.93103448275862","1034.448275862069","1034.448275862069","black","experiment","legacy","legacy","legacy","0","uniform","1","undefined","1","right","57","0","57","57","0","0","57","57","0","0","57","57","57","57","0","Wed Oct 19 15:14:49 2022","The main experiment item","yes","Sternbergtask.osexp","C:/Users/cici_/Downloads","no","mono","no","18","no","white","no","yes","768","legacy","45","11","C:/Users/cici_/OneDrive/Documents/R/28F-subject-3.csv","legacy","5 9 2 3","Lentiform Loewenfeld","3.3.12","0","n","0","right","right","right","right","NA","1331","27107","6096","1331","NA","2","legacy","4","1024","2","48000","-16","experiment","3","odd","8","397590","29295","394320","395384","2183","112169","395387","293501","2187","106072","399591","400923","396388","399591","NA","Sternberg task","51","59998","58","yes","1024"
"88.13559322033899","88.13559322033899","1032.2372881355932","1032.2372881355932","black","experiment","legacy","legacy","legacy","0","uniform","1","undefined","1","left","58","0","58","58","0","0","58","58","0","0","58","58","58","58","0","Wed Oct 19 15:14:49 2022","The main experiment item","yes","Sternbergtask.osexp","C:/Users/cici_/Downloads","no","mono","no","18","no","white","no","yes","768","legacy","46","11","C:/Users/cici_/OneDrive/Documents/R/28F-subject-3.csv","legacy","8 5 1 3 9","Lentiform Loewenfeld","3.3.12","4","y","0","left","right","right","left","NA","904","27107","6096","904","NA","2","legacy","5","1024","2","48000","-16","experiment","3","odd","3","404194","29295","400929","401991","2183","112169","401992","293501","2187","106072","406195","407100","402993","406195","NA","Sternberg task","52","60902","59","yes","1024"
"88.33333333333333","88.33333333333333","1031.65","1031.65","black","experiment","legacy","legacy","legacy","0","uniform","1","undefined","1","left","59","0","59","59","0","0","59","59","0","0","59","59","59","59","0","Wed Oct 19 15:14:49 2022","The main experiment item","yes","Sternbergtask.osexp","C:/Users/cici_/Downloads","no","mono","no","18","no","white","no","yes","768","legacy","47","11","C:/Users/cici_/OneDrive/Documents/R/28F-subject-3.csv","legacy","3 2 1 4 7","Lentiform Loewenfeld","3.3.12","2","y","0","left","right","right","left","NA","997","27107","6096","997","NA","2","legacy","5","1024","2","48000","-16","experiment","3","odd","2","410383","29295","407116","408178","2183","112169","408181","293501","2187","106072","412384","413382","409182","412384","NA","Sternberg task","53","61899","60","yes","1024"
"88.52459016393442","88.52459016393442","1031.1311475409836","1031.1311475409836","black","experiment","legacy","legacy","legacy","0","uniform","1","undefined","1","right","60","0","60","60","0","0","60","60","0","0","60","60","60","60","0","Wed Oct 19 15:14:49 2022","The main experiment item","yes","Sternbergtask.osexp","C:/Users/cici_/Downloads","no","mono","no","18","no","white","no","yes","768","legacy","48","11","C:/Users/cici_/OneDrive/Documents/R/28F-subject-3.csv","legacy","2 3 8 5 6 7","Lentiform Loewenfeld","3.3.12","0","n","0","right","right","right","right","NA","1000","27107","6096","1000","NA","2","legacy","6","1024","2","48000","-16","experiment","3","odd","1","416662","29295","413396","414457","2183","112169","414460","293501","2187","106072","418663","419664","415461","418663","NA","Sternberg task","54","62899","61","yes","1024"
"88.70967741935483","88.70967741935483","1028.016129032258","1028.016129032258","black","experiment","legacy","legacy","legacy","0","uniform","1","undefined","1","left","61","0","61","61","0","0","61","61","0","0","61","61","61","61","0","Wed Oct 19 15:14:49 2022","The main experiment item","yes","Sternbergtask.osexp","C:/Users/cici_/Downloads","no","mono","no","18","no","white","no","yes","768","legacy","49","11","C:/Users/cici_/OneDrive/Documents/R/28F-subject-3.csv","legacy","4 1 8 7 5","Lentiform Loewenfeld","3.3.12","3","y","0","left","right","right","left","NA","838","27107","6096","838","NA","2","legacy","5","1024","2","48000","-16","experiment","3","odd","8","422945","29295","419679","420741","2183","112169","420743","293501","2187","106072","424946","425784","421744","424946","NA","Sternberg task","55","63737","62","yes","1024"
"87.3015873015873","87.3015873015873","1029.7936507936508","1029.7936507936508","black","experiment","legacy","legacy","legacy","0","uniform","0","undefined","0","left","62","0","62","62","0","0","62","62","0","0","62","62","62","62","0","Wed Oct 19 15:14:49 2022","The main experiment item","yes","Sternbergtask.osexp","C:/Users/cici_/Downloads","no","mono","no","18","no","white","no","yes","768","legacy","50","11","C:/Users/cici_/OneDrive/Documents/R/28F-subject-3.csv","legacy","6 9 7 4 5 1","Lentiform Loewenfeld","3.3.12","2","y","0","right","right","right","right","NA","1140","27107","6096","1140","NA","2","legacy","6","1024","2","48000","-16","experiment","3","odd","9","429065","29295","425799","426862","2183","112169","426863","293501","2187","106072","431066","432207","427864","431066","NA","Sternberg task","55","64877","63","yes","1024"
"85.9375","85.9375","1033.890625","1033.890625","black","experiment","legacy","legacy","legacy","0","uniform","0","undefined","0","left","63","0","63","63","0","0","63","63","0","0","63","63","63","63","0","Wed Oct 19 15:14:49 2022","The main experiment item","yes","Sternbergtask.osexp","C:/Users/cici_/Downloads","no","mono","no","18","no","white","no","yes","768","legacy","51","11","C:/Users/cici_/OneDrive/Documents/R/28F-subject-3.csv","legacy","8 9 5 7 1 6","Lentiform Loewenfeld","3.3.12","4","y","0","right","right","right","right","NA","1292","27107","6096","1292","NA","2","legacy","6","1024","2","48000","-16","experiment","3","odd","7","435489","29295","425799","433285","2183","112169","433286","432223","2187","106072","437504","438798","434288","437503","NA","Sternberg task","55","66169","64","yes","1024"
"86.15384615384616","86.15384615384616","1037.0153846153846","1037.0153846153846","black","experiment","legacy","legacy","legacy","0","uniform","1","undefined","1","right","64","0","64","64","0","0","64","64","0","0","64","64","64","64","0","Wed Oct 19 15:14:49 2022","The main experiment item","yes","Sternbergtask.osexp","C:/Users/cici_/Downloads","no","mono","no","18","no","white","no","yes","768","legacy","52","11","C:/Users/cici_/OneDrive/Documents/R/28F-subject-3.csv","legacy","1 7 5 2 9","Lentiform Loewenfeld","3.3.12","0","n","0","right","right","right","right","NA","1237","27107","6096","1237","NA","2","legacy","5","1024","2","48000","-16","experiment","3","odd","3","442145","29295","425799","439942","2183","112169","439943","438880","2187","106072","444146","445383","440944","444146","NA","Sternberg task","56","67406","65","yes","1024"
"86.36363636363636","86.36363636363636","1036.378787878788","1036.378787878788","black","experiment","legacy","legacy","legacy","0","uniform","1","undefined","1","left","65","0","65","65","0","0","65","65","0","0","65","65","65","65","0","Wed Oct 19 15:14:49 2022","The main experiment item","yes","Sternbergtask.osexp","C:/Users/cici_/Downloads","no","mono","no","18","no","white","no","yes","768","legacy","53","11","C:/Users/cici_/OneDrive/Documents/R/28F-subject-3.csv","legacy","7 4 2 6 3 5","Lentiform Loewenfeld","3.3.12","6","y","0","left","right","right","left","NA","995","27107","6096","995","NA","2","legacy","6","1024","2","48000","-16","experiment","3","odd","5","448657","29295","445388","446452","2183","112169","446454","438880","2187","106072","450658","451654","447455","450658","NA","Sternberg task","57","68401","66","yes","1024"
"86.56716417910448","86.56716417910448","1037.2238805970148","1037.2238805970148","black","experiment","legacy","legacy","legacy","0","uniform","1","undefined","1","right","66","0","66","66","0","0","66","66","0","0","66","66","66","66","0","Wed Oct 19 15:14:49 2022","The main experiment item","yes","Sternbergtask.osexp","C:/Users/cici_/Downloads","no","mono","no","18","no","white","no","yes","768","legacy","54","11","C:/Users/cici_/OneDrive/Documents/R/28F-subject-3.csv","legacy","1 7 5 2","Lentiform Loewenfeld","3.3.12","0","n","0","right","right","right","right","NA","1093","27107","6096","1093","NA","2","legacy","4","1024","2","48000","-16","experiment","3","odd","3","454935","29295","451669","452731","2183","112169","452733","438880","2187","106072","456936","458031","453734","456936","NA","Sternberg task","58","69494","67","yes","1024"
"86.76470588235294","86.76470588235294","1038.7205882352941","1038.7205882352941","black","experiment","legacy","legacy","legacy","0","uniform","1","undefined","1","right","67","0","67","67","0","0","67","67","0","0","67","67","67","67","0","Wed Oct 19 15:14:49 2022","The main experiment item","yes","Sternbergtask.osexp","C:/Users/cici_/Downloads","no","mono","no","18","no","white","no","yes","768","legacy","55","11","C:/Users/cici_/OneDrive/Documents/R/28F-subject-3.csv","legacy","7 4 2 8 1 9","Lentiform Loewenfeld","3.3.12","0","n","0","right","right","right","right","NA","1139","27107","6096","1139","NA","2","legacy","6","1024","2","48000","-16","experiment","3","odd","5","461303","29295","458035","459097","2183","112169","459100","438880","2187","106072","463304","464445","460101","463304","NA","Sternberg task","59","70633","68","yes","1024"
"86.95652173913044","86.95652173913044","1038.2028985507247","1038.2028985507247","black","experiment","legacy","legacy","legacy","0","uniform","1","undefined","1","right","68","0","68","68","0","0","68","68","0","0","68","68","68","68","0","Wed Oct 19 15:14:49 2022","The main experiment item","yes","Sternbergtask.osexp","C:/Users/cici_/Downloads","no","mono","no","18","no","white","no","yes","768","legacy","56","11","C:/Users/cici_/OneDrive/Documents/R/28F-subject-3.csv","legacy","4 8 1 2","Lentiform Loewenfeld","3.3.12","0","n","0","right","right","right","right","NA","1003","27107","6096","1003","NA","2","legacy","4","1024","2","48000","-16","experiment","3","odd","7","467714","29295","464449","465511","2183","112169","465512","438880","2187","106072","469715","470719","466513","469715","NA","Sternberg task","60","71636","69","yes","1024"
"87.14285714285714","87.14285714285714","1042.6571428571428","1042.6571428571428","black","experiment","legacy","legacy","legacy","0","uniform","1","undefined","1","right","69","0","69","69","0","0","69","69","0","0","69","69","69","69","0","Wed Oct 19 15:14:49 2022","The main experiment item","yes","Sternbergtask.osexp","C:/Users/cici_/Downloads","no","mono","no","18","no","white","no","yes","768","legacy","57","11","C:/Users/cici_/OneDrive/Documents/R/28F-subject-3.csv","legacy","5 3 2 6 9 8","Lentiform Loewenfeld","3.3.12","0","n","0","right","right","right","right","NA","1350","27107","6096","1350","NA","2","legacy","6","1024","2","48000","-16","experiment","3","odd","4","473999","29295","470734","471796","2183","112169","471797","438880","2187","106072","476000","477351","472798","476000","NA","Sternberg task","61","72986","70","yes","1024"
"87.32394366197182","87.32394366197182","1040.7042253521126","1040.7042253521126","black","experiment","legacy","legacy","legacy","0","uniform","1","undefined","1","left","70","0","70","70","0","0","70","70","0","0","70","70","70","70","0","Wed Oct 19 15:14:49 2022","The main experiment item","yes","Sternbergtask.osexp","C:/Users/cici_/Downloads","no","mono","no","18","no","white","no","yes","768","legacy","58","11","C:/Users/cici_/OneDrive/Documents/R/28F-subject-3.csv","legacy","7 1 8 5 6 2","Lentiform Loewenfeld","3.3.12","2","y","0","left","right","right","left","NA","904","27107","6096","904","NA","2","legacy","6","1024","2","48000","-16","experiment","3","odd","1","480630","29295","477365","478426","2183","112169","478428","438880","2187","106072","482631","483536","479429","482631","NA","Sternberg task","62","73890","71","yes","1024"
"87.5","87.5","1038.5833333333333","1038.5833333333333","black","experiment","legacy","legacy","legacy","0","uniform","1","undefined","1","right","71","0","71","71","0","0","71","71","0","0","71","71","71","71","0","Wed Oct 19 15:14:49 2022","The main experiment item","yes","Sternbergtask.osexp","C:/Users/cici_/Downloads","no","mono","no","18","no","white","no","yes","768","legacy","59","11","C:/Users/cici_/OneDrive/Documents/R/28F-subject-3.csv","legacy","7 3 2 8","Lentiform Loewenfeld","3.3.12","0","n","0","right","right","right","right","NA","888","27107","6096","888","NA","2","legacy","4","1024","2","48000","-16","experiment","3","odd","4","486817","29295","483551","484613","2183","112169","484615","438880","2187","106072","488818","489707","485616","488818","NA","Sternberg task","63","74778","72","yes","1024"
"87.67123287671232","87.67123287671232","1041.7671232876712","1041.7671232876712","black","experiment","legacy","legacy","legacy","0","uniform","1","undefined","1","right","72","0","72","72","0","0","72","72","0","0","72","72","72","72","0","Wed Oct 19 15:14:49 2022","The main experiment item","yes","Sternbergtask.osexp","C:/Users/cici_/Downloads","no","mono","no","18","no","white","no","yes","768","legacy","60","11","C:/Users/cici_/OneDrive/Documents/R/28F-subject-3.csv","legacy","1 7 8 3 9","Lentiform Loewenfeld","3.3.12","0","n","0","right","right","right","right","NA","1271","27107","6096","1271","NA","2","legacy","5","1024","2","48000","-16","experiment","3","odd","2","492989","29295","489721","490786","2183","112169","490787","438880","2187","106072","494990","496262","491788","494990","NA","Sternberg task","64","76049","73","yes","1024"
"87.83783783783784","87.83783783783784","1038.3918918918919","1038.3918918918919","black","experiment","legacy","legacy","legacy","0","uniform","1","undefined","1","left","73","0","73","73","0","0","73","73","0","0","73","73","73","73","0","Wed Oct 19 15:14:49 2022","The main experiment item","yes","Sternbergtask.osexp","C:/Users/cici_/Downloads","no","mono","no","18","no","white","no","yes","768","legacy","61","11","C:/Users/cici_/OneDrive/Documents/R/28F-subject-3.csv","legacy","6 2","Lentiform Loewenfeld","3.3.12","1","y","0","left","right","right","left","NA","792","27107","6096","792","NA","2","legacy","2","1024","2","48000","-16","experiment","3","odd","6","499539","29295","496275","497337","2183","112169","497338","438880","2187","106072","501540","502333","498338","501540","NA","Sternberg task","65","76841","74","yes","1024"
"88","88","1044.08","1044.08","black","experiment","legacy","legacy","legacy","0","uniform","1","undefined","1","right","74","0","74","74","0","0","74","74","0","0","74","74","74","74","0","Wed Oct 19 15:14:49 2022","The main experiment item","yes","Sternbergtask.osexp","C:/Users/cici_/Downloads","no","mono","no","18","no","white","no","yes","768","legacy","62","11","C:/Users/cici_/OneDrive/Documents/R/28F-subject-3.csv","legacy","6 8","Lentiform Loewenfeld","3.3.12","0","n","0","right","right","right","right","NA","1465","27107","6096","1465","NA","2","legacy","2","1024","2","48000","-16","experiment","3","odd","9","505612","29295","502347","503409","2183","112169","503410","438880","2187","106072","507613","509079","504411","507613","NA","Sternberg task","66","78306","75","yes","1024"
"88.15789473684211","88.15789473684211","1039","1039","black","experiment","legacy","legacy","legacy","0","uniform","1","undefined","1","left","75","0","75","75","0","0","75","75","0","0","75","75","75","75","0","Wed Oct 19 15:14:49 2022","The main experiment item","yes","Sternbergtask.osexp","C:/Users/cici_/Downloads","no","mono","no","18","no","white","no","yes","768","legacy","63","11","C:/Users/cici_/OneDrive/Documents/R/28F-subject-3.csv","legacy","9 1 7 2","Lentiform Loewenfeld","3.3.12","2","y","0","left","right","right","left","NA","658","27107","6096","658","NA","2","legacy","4","1024","2","48000","-16","experiment","3","odd","1","512362","29295","509098","510160","2183","112169","510161","438880","2187","106072","514363","515022","511162","514363","NA","Sternberg task","67","78964","76","yes","1024"
"88.31168831168831","88.31168831168831","1036.8311688311687","1036.8311688311687","black","experiment","legacy","legacy","legacy","0","uniform","1","undefined","1","right","76","0","76","76","0","0","76","76","0","0","76","76","76","76","0","Wed Oct 19 15:14:49 2022","The main experiment item","yes","Sternbergtask.osexp","C:/Users/cici_/Downloads","no","mono","no","18","no","white","no","yes","768","legacy","64","11","C:/Users/cici_/OneDrive/Documents/R/28F-subject-3.csv","legacy","2 8 6 3 1","Lentiform Loewenfeld","3.3.12","0","n","0","right","right","right","right","NA","872","27107","6096","872","NA","2","legacy","5","1024","2","48000","-16","experiment","3","odd","7","518303","29295","515036","516099","2183","112169","516101","438880","2187","106072","520303","521176","517102","520303","NA","Sternberg task","68","79836","77","yes","1024"
"88.46153846153847","88.46153846153847","1034.2051282051282","1034.2051282051282","black","experiment","legacy","legacy","legacy","0","uniform","1","undefined","1","left","77","0","77","77","0","0","77","77","0","0","77","77","77","77","0","Wed Oct 19 15:14:49 2022","The main experiment item","yes","Sternbergtask.osexp","C:/Users/cici_/Downloads","no","mono","no","18","no","white","no","yes","768","legacy","65","11","C:/Users/cici_/OneDrive/Documents/R/28F-subject-3.csv","legacy","4 9 7 8 5 3","Lentiform Loewenfeld","3.3.12","4","y","0","left","right","right","left","NA","832","27107","6096","832","NA","2","legacy","6","1024","2","48000","-16","experiment","3","odd","8","524458","29295","521191","522254","2183","112169","522256","438880","2187","106072","526459","527292","523257","526459","NA","Sternberg task","69","80668","78","yes","1024"
"88.60759493670886","88.60759493670886","1030.1772151898733","1030.1772151898733","black","experiment","legacy","legacy","legacy","0","uniform","1","undefined","1","left","78","0","78","78","0","0","78","78","0","0","78","78","78","78","0","Wed Oct 19 15:14:49 2022","The main experiment item","yes","Sternbergtask.osexp","C:/Users/cici_/Downloads","no","mono","no","18","no","white","no","yes","768","legacy","66","11","C:/Users/cici_/OneDrive/Documents/R/28F-subject-3.csv","legacy","4 6 2 5 1","Lentiform Loewenfeld","3.3.12","5","y","0","left","right","right","left","NA","716","27107","6096","716","NA","2","legacy","5","1024","2","48000","-16","experiment","3","odd","1","530574","29295","527306","528370","2183","112169","528372","438880","2187","106072","532575","533293","529373","532575","NA","Sternberg task","70","81384","79","yes","1024"
"88.75","88.75","1027.95","1027.95","black","experiment","legacy","legacy","legacy","0","uniform","1","undefined","1","right","79","0","79","79","0","0","79","79","0","0","79","79","79","79","0","Wed Oct 19 15:14:49 2022","The main experiment item","yes","Sternbergtask.osexp","C:/Users/cici_/Downloads","no","mono","no","18","no","white","no","yes","768","legacy","67","11","C:/Users/cici_/OneDrive/Documents/R/28F-subject-3.csv","legacy","7 6 4 8 1 2","Lentiform Loewenfeld","3.3.12","0","n","0","right","right","right","right","NA","852","27107","6096","852","NA","2","legacy","6","1024","2","48000","-16","experiment","3","odd","9","536563","29295","533298","534360","2183","112169","534361","438880","2187","106072","538564","539417","535362","538564","NA","Sternberg task","71","82236","80","yes","1024"
"88.88888888888889","88.88888888888889","1026.5061728395062","1026.5061728395062","black","experiment","legacy","legacy","legacy","0","uniform","1","undefined","1","right","80","0","80","80","0","0","80","80","0","0","80","80","80","80","0","Wed Oct 19 15:14:49 2022","The main experiment item","yes","Sternbergtask.osexp","C:/Users/cici_/Downloads","no","mono","no","18","no","white","no","yes","768","legacy","68","11","C:/Users/cici_/OneDrive/Documents/R/28F-subject-3.csv","legacy","7 1 8 4 9 3","Lentiform Loewenfeld","3.3.12","0","n","0","right","right","right","right","NA","911","27107","6096","911","NA","2","legacy","6","1024","2","48000","-16","experiment","3","odd","6","542698","29295","539432","540494","2183","112169","540496","438880","2187","106072","544699","545612","541497","544699","NA","Sternberg task","72","83147","81","yes","1024"
"87.8048780487805","87.8048780487805","1024.2317073170732","1024.2317073170732","black","experiment","legacy","legacy","legacy","0","uniform","0","undefined","0","left","81","0","81","81","0","0","81","81","0","0","81","81","81","81","0","Wed Oct 19 15:14:49 2022","The main experiment item","yes","Sternbergtask.osexp","C:/Users/cici_/Downloads","no","mono","no","18","no","white","no","yes","768","legacy","69","11","C:/Users/cici_/OneDrive/Documents/R/28F-subject-3.csv","legacy","8 9 6 1","Lentiform Loewenfeld","3.3.12","2","y","0","right","right","right","right","NA","840","27107","6096","840","NA","2","legacy","4","1024","2","48000","-16","experiment","3","odd","9","548893","29295","545626","546689","2183","112169","546691","438880","2187","106072","550896","551736","547692","550894","NA","Sternberg task","72","83987","82","yes","1024"
"87.95180722891567","87.95180722891567","1023.3132530120482","1023.3132530120482","black","experiment","legacy","legacy","legacy","0","uniform","1","undefined","1","right","82","0","82","82","0","0","82","82","0","0","82","82","82","82","0","Wed Oct 19 15:14:49 2022","The main experiment item","yes","Sternbergtask.osexp","C:/Users/cici_/Downloads","no","mono","no","18","no","white","no","yes","768","legacy","70","11","C:/Users/cici_/OneDrive/Documents/R/28F-subject-3.csv","legacy","8 4 3 5","Lentiform Loewenfeld","3.3.12","0","n","0","right","right","right","right","NA","948","27107","6096","948","NA","2","legacy","4","1024","2","48000","-16","experiment","3","odd","6","555016","29295","545626","552812","2183","112169","552814","551750","2187","106072","557017","557966","553815","557017","NA","Sternberg task","73","84935","83","yes","1024"
"88.0952380952381","88.0952380952381","1019.5","1019.5","black","experiment","legacy","legacy","legacy","0","uniform","1","undefined","1","left","83","0","83","83","0","0","83","83","0","0","83","83","83","83","0","Wed Oct 19 15:14:49 2022","The main experiment item","yes","Sternbergtask.osexp","C:/Users/cici_/Downloads","no","mono","no","18","no","white","no","yes","768","legacy","71","11","C:/Users/cici_/OneDrive/Documents/R/28F-subject-3.csv","legacy","2 4 8 5 1 3","Lentiform Loewenfeld","3.3.12","1","y","0","left","right","right","left","NA","703","27107","6096","703","NA","2","legacy","6","1024","2","48000","-16","experiment","3","odd","2","561246","29295","557981","559043","2183","112169","559044","551750","2187","106072","563247","563950","560045","563247","NA","Sternberg task","74","85638","84","yes","1024"
"88.23529411764706","88.23529411764706","1020.4117647058823","1020.4117647058823","black","experiment","legacy","legacy","legacy","0","uniform","1","undefined","1","right","84","0","84","84","0","0","84","84","0","0","84","84","84","84","0","Wed Oct 19 15:14:49 2022","The main experiment item","yes","Sternbergtask.osexp","C:/Users/cici_/Downloads","no","mono","no","18","no","white","no","yes","768","legacy","72","11","C:/Users/cici_/OneDrive/Documents/R/28F-subject-3.csv","legacy","6 9 4 5 2","Lentiform Loewenfeld","3.3.12","0","n","0","right","right","right","right","NA","1097","27107","6096","1097","NA","2","legacy","5","1024","2","48000","-16","experiment","3","odd","1","567233","29295","563965","565030","2183","112169","565031","551750","2187","106072","569234","570333","566032","569234","NA","Sternberg task","75","86735","85","yes","1024"
"88.37209302325581","88.37209302325581","1020.8604651162791","1020.8604651162791","black","experiment","legacy","legacy","legacy","0","uniform","1","undefined","1","left","85","0","85","85","0","0","85","85","0","0","85","85","85","85","0","Wed Oct 19 15:14:49 2022","The main experiment item","yes","Sternbergtask.osexp","C:/Users/cici_/Downloads","no","mono","no","18","no","white","no","yes","768","legacy","73","11","C:/Users/cici_/OneDrive/Documents/R/28F-subject-3.csv","legacy","9 6 2 4 1","Lentiform Loewenfeld","3.3.12","4","y","0","left","right","right","left","NA","1059","27107","6096","1059","NA","2","legacy","5","1024","2","48000","-16","experiment","3","odd","4","573613","29295","570348","571410","2183","112169","571411","551750","2187","106072","575613","576673","572412","575613","NA","Sternberg task","76","87794","86","yes","1024"
"88.50574712643679","88.50574712643679","1017.2298850574713","1017.2298850574713","black","experiment","legacy","legacy","legacy","0","uniform","1","undefined","1","left","86","0","86","86","0","0","86","86","0","0","86","86","86","86","0","Wed Oct 19 15:14:49 2022","The main experiment item","yes","Sternbergtask.osexp","C:/Users/cici_/Downloads","no","mono","no","18","no","white","no","yes","768","legacy","74","11","C:/Users/cici_/OneDrive/Documents/R/28F-subject-3.csv","legacy","2 5 4 8 7","Lentiform Loewenfeld","3.3.12","3","y","0","left","right","right","left","NA","705","27107","6096","705","NA","2","legacy","5","1024","2","48000","-16","experiment","3","odd","4","579944","29295","576678","577741","2183","112169","577742","551750","2187","106072","581945","582651","578743","581945","NA","Sternberg task","77","88499","87","yes","1024"
"87.5","87.5","1018.4318181818181","1018.4318181818181","black","experiment","legacy","legacy","legacy","0","uniform","0","undefined","0","left","87","0","87","87","0","0","87","87","0","0","87","87","87","87","0","Wed Oct 19 15:14:49 2022","The main experiment item","yes","Sternbergtask.osexp","C:/Users/cici_/Downloads","no","mono","no","18","no","white","no","yes","768","legacy","75","11","C:/Users/cici_/OneDrive/Documents/R/28F-subject-3.csv","legacy","3 5 9 6 2 4","Lentiform Loewenfeld","3.3.12","1","y","0","right","right","right","right","NA","1123","27107","6096","1123","NA","2","legacy","6","1024","2","48000","-16","experiment","3","odd","3","585936","29295","582666","583732","2183","112169","583734","551750","2187","106072","587937","589061","584735","587937","NA","Sternberg task","77","89622","88","yes","1024"
"87.64044943820225","87.64044943820225","1014.8876404494382","1014.8876404494382","black","experiment","legacy","legacy","legacy","0","uniform","1","undefined","1","left","88","0","88","88","0","0","88","88","0","0","88","88","88","88","0","Wed Oct 19 15:14:49 2022","The main experiment item","yes","Sternbergtask.osexp","C:/Users/cici_/Downloads","no","mono","no","18","no","white","no","yes","768","legacy","76","11","C:/Users/cici_/OneDrive/Documents/R/28F-subject-3.csv","legacy","7 8 4 6 9 5","Lentiform Loewenfeld","3.3.12","4","y","0","left","right","right","left","NA","703","27107","6096","703","NA","2","legacy","6","1024","2","48000","-16","experiment","3","odd","6","592341","29295","582666","590137","2183","112169","590139","589075","2187","106072","594342","595046","591140","594342","NA","Sternberg task","78","90325","89","yes","1024"
"87.77777777777777","87.77777777777777","1015.7555555555556","1015.7555555555556","black","experiment","legacy","legacy","legacy","0","uniform","1","undefined","1","right","89","0","89","89","0","0","89","89","0","0","89","89","89","89","0","Wed Oct 19 15:14:49 2022","The main experiment item","yes","Sternbergtask.osexp","C:/Users/cici_/Downloads","no","mono","no","18","no","white","no","yes","768","legacy","77","11","C:/Users/cici_/OneDrive/Documents/R/28F-subject-3.csv","legacy","6 9 7 3 8 2","Lentiform Loewenfeld","3.3.12","0","n","0","right","right","right","right","NA","1093","27107","6096","1093","NA","2","legacy","6","1024","2","48000","-16","experiment","3","odd","5","598327","29295","595061","596124","2183","112169","596125","589075","2187","106072","600328","601422","597126","600328","NA","Sternberg task","79","91418","90","yes","1024"
"87.91208791208791","87.91208791208791","1018","1018","black","experiment","legacy","legacy","legacy","0","uniform","1","undefined","1","right","90","0","90","90","0","0","90","90","0","0","90","90","90","90","0","Wed Oct 19 15:14:49 2022","The main experiment item","yes","Sternbergtask.osexp","C:/Users/cici_/Downloads","no","mono","no","18","no","white","no","yes","768","legacy","78","11","C:/Users/cici_/OneDrive/Documents/R/28F-subject-3.csv","legacy","6 3 1 7 9 8","Lentiform Loewenfeld","3.3.12","0","n","0","right","right","right","right","NA","1220","27107","6096","1220","NA","2","legacy","6","1024","2","48000","-16","experiment","3","odd","4","604694","29295","601428","602491","2183","112169","602492","589075","2187","106072","606695","607916","603493","606695","NA","Sternberg task","80","92638","91","yes","1024"
"88.04347826086956","88.04347826086956","1015.695652173913","1015.695652173913","black","experiment","legacy","legacy","legacy","0","uniform","1","undefined","1","left","91","0","91","91","0","0","91","91","0","0","91","91","91","91","0","Wed Oct 19 15:14:49 2022","The main experiment item","yes","Sternbergtask.osexp","C:/Users/cici_/Downloads","no","mono","no","18","no","white","no","yes","768","legacy","79","11","C:/Users/cici_/OneDrive/Documents/R/28F-subject-3.csv","legacy","8 1 6","Lentiform Loewenfeld","3.3.12","3","y","0","left","right","right","left","NA","806","27107","6096","806","NA","2","legacy","3","1024","2","48000","-16","experiment","3","odd","6","611200","29295","607932","608995","2183","112169","608997","589075","2187","106072","613201","614008","609998","613201","NA","Sternberg task","81","93444","92","yes","1024"
"88.17204301075269","88.17204301075269","1013.1612903225806","1013.1612903225806","black","experiment","legacy","legacy","legacy","0","uniform","1","undefined","1","left","92","0","92","92","0","0","92","92","0","0","92","92","92","92","0","Wed Oct 19 15:14:49 2022","The main experiment item","yes","Sternbergtask.osexp","C:/Users/cici_/Downloads","no","mono","no","18","no","white","no","yes","768","legacy","80","11","C:/Users/cici_/OneDrive/Documents/R/28F-subject-3.csv","legacy","2 6 1 7 4","Lentiform Loewenfeld","3.3.12","2","y","0","left","right","right","left","NA","780","27107","6096","780","NA","2","legacy","5","1024","2","48000","-16","experiment","3","odd","6","617289","29295","614023","615085","2183","112169","615086","589075","2187","106072","619290","620071","616088","619290","NA","Sternberg task","82","94224","93","yes","1024"
"88.29787234042553","88.29787234042553","1012.063829787234","1012.063829787234","black","experiment","legacy","legacy","legacy","0","uniform","1","undefined","1","right","93","0","93","93","0","0","93","93","0","0","93","93","93","93","0","Wed Oct 19 15:14:49 2022","The main experiment item","yes","Sternbergtask.osexp","C:/Users/cici_/Downloads","no","mono","no","18","no","white","no","yes","768","legacy","81","11","C:/Users/cici_/OneDrive/Documents/R/28F-subject-3.csv","legacy","8 5 4 2 9 6","Lentiform Loewenfeld","3.3.12","0","n","0","right","right","right","right","NA","910","27107","6096","910","NA","2","legacy","6","1024","2","48000","-16","experiment","3","odd","3","623352","29295","620086","621147","2183","112169","621150","589075","2187","106072","625353","626264","622151","625353","NA","Sternberg task","83","95134","94","yes","1024"
"88.42105263157895","88.42105263157895","1011.7578947368421","1011.7578947368421","black","experiment","legacy","legacy","legacy","0","uniform","1","undefined","1","right","94","0","94","94","0","0","94","94","0","0","94","94","94","94","0","Wed Oct 19 15:14:49 2022","The main experiment item","yes","Sternbergtask.osexp","C:/Users/cici_/Downloads","no","mono","no","18","no","white","no","yes","768","legacy","82","11","C:/Users/cici_/OneDrive/Documents/R/28F-subject-3.csv","legacy","7 9","Lentiform Loewenfeld","3.3.12","0","n","0","right","right","right","right","NA","983","27107","6096","983","NA","2","legacy","2","1024","2","48000","-16","experiment","3","odd","1","629546","29295","626281","627343","2183","112169","627344","589075","2187","106072","631547","632530","628345","631547","NA","Sternberg task","84","96117","95","yes","1024"
"88.54166666666667","88.54166666666667","1009.46875","1009.46875","black","experiment","legacy","legacy","legacy","0","uniform","1","undefined","1","left","95","0","95","95","0","0","95","95","0","0","95","95","95","95","0","Wed Oct 19 15:14:49 2022","The main experiment item","yes","Sternbergtask.osexp","C:/Users/cici_/Downloads","no","mono","no","18","no","white","no","yes","768","legacy","83","11","C:/Users/cici_/OneDrive/Documents/R/28F-subject-3.csv","legacy","3 5 4 7","Lentiform Loewenfeld","3.3.12","1","y","0","left","right","right","left","NA","792","27107","6096","792","NA","2","legacy","4","1024","2","48000","-16","experiment","3","odd","3","635811","29295","632545","633606","2183","112169","633609","589075","2187","106072","637811","638605","634610","637811","NA","Sternberg task","85","96909","96","yes","1024"
"88.65979381443299","88.65979381443299","1010.5876288659794","1010.5876288659794","black","experiment","legacy","legacy","legacy","0","uniform","1","undefined","1","left","96","0","96","96","0","0","96","96","0","0","96","96","96","96","0","Wed Oct 19 15:14:49 2022","The main experiment item","yes","Sternbergtask.osexp","C:/Users/cici_/Downloads","no","mono","no","18","no","white","no","yes","768","legacy","84","11","C:/Users/cici_/OneDrive/Documents/R/28F-subject-3.csv","legacy","3 5 7 1","Lentiform Loewenfeld","3.3.12","3","y","0","left","right","right","left","NA","1118","27107","6096","1118","NA","2","legacy","4","1024","2","48000","-16","experiment","3","odd","7","641886","29295","638619","639681","2183","112169","639684","589075","2187","106072","643887","645006","640685","643887","NA","Sternberg task","86","98027","97","yes","1024"
"88.77551020408163","88.77551020408163","1010","1010","black","experiment","legacy","legacy","legacy","0","uniform","1","undefined","1","right","97","0","97","97","0","0","97","97","0","0","97","97","97","97","0","Wed Oct 19 15:14:49 2022","The main experiment item","yes","Sternbergtask.osexp","C:/Users/cici_/Downloads","no","mono","no","18","no","white","no","yes","768","legacy","85","11","C:/Users/cici_/OneDrive/Documents/R/28F-subject-3.csv","legacy","7 9 1 6","Lentiform Loewenfeld","3.3.12","0","n","0","right","right","right","right","NA","953","27107","6096","953","NA","2","legacy","4","1024","2","48000","-16","experiment","3","odd","4","648287","29295","645020","646082","2183","112169","646084","589075","2187","106072","650288","651242","647085","650288","NA","Sternberg task","87","98980","98","yes","1024"
"88.88888888888889","88.88888888888889","1011.040404040404","1011.040404040404","black","experiment","legacy","legacy","legacy","0","uniform","1","undefined","1","right","98","0","98","98","0","0","98","98","0","0","98","98","98","98","0","Wed Oct 19 15:14:49 2022","The main experiment item","yes","Sternbergtask.osexp","C:/Users/cici_/Downloads","no","mono","no","18","no","white","no","yes","768","legacy","86","11","C:/Users/cici_/OneDrive/Documents/R/28F-subject-3.csv","legacy","9 7 4 5 8","Lentiform Loewenfeld","3.3.12","0","n","0","right","right","right","right","NA","1113","27107","6096","1113","NA","2","legacy","5","1024","2","48000","-16","experiment","3","odd","6","654522","29295","651256","652318","2183","112169","652320","589075","2187","106072","656523","657638","653321","656523","NA","Sternberg task","88","100093","99","yes","1024"
"89","89","1009.31","1009.31","black","experiment","legacy","legacy","legacy","0","uniform","1","undefined","1","left","99","0","99","99","0","0","99","99","0","0","99","99","99","99","0","Wed Oct 19 15:14:49 2022","The main experiment item","yes","Sternbergtask.osexp","C:/Users/cici_/Downloads","no","mono","no","18","no","white","no","yes","768","legacy","87","11","C:/Users/cici_/OneDrive/Documents/R/28F-subject-3.csv","legacy","6 9 3 1","Lentiform Loewenfeld","3.3.12","4","y","0","left","right","right","left","NA","838","27107","6096","838","NA","2","legacy","4","1024","2","48000","-16","experiment","3","odd","1","660925","29295","657653","658721","2183","112169","658723","589075","2187","106072","662926","663765","659724","662926","NA","Sternberg task","89","100931","100","yes","1024"
"89.10891089108911","89.10891089108911","1013.2673267326733","1013.2673267326733","black","experiment","legacy","legacy","legacy","0","uniform","1","undefined","1","right","100","0","100","100","0","0","100","100","0","0","100","100","100","100","0","Wed Oct 19 15:14:49 2022","The main experiment item","yes","Sternbergtask.osexp","C:/Users/cici_/Downloads","no","mono","no","18","no","white","no","yes","768","legacy","88","11","C:/Users/cici_/OneDrive/Documents/R/28F-subject-3.csv","legacy","2 8 9 4 1","Lentiform Loewenfeld","3.3.12","0","n","0","right","right","right","right","NA","1409","27107","6096","1409","NA","2","legacy","5","1024","2","48000","-16","experiment","3","odd","5","667047","29295","663779","664843","2183","112169","664845","589075","2187","106072","669048","670458","665846","669048","NA","Sternberg task","90","102340","101","yes","1024"
"89.2156862745098","89.2156862745098","1017","1017","black","experiment","legacy","legacy","legacy","0","uniform","1","undefined","1","right","101","0","101","101","0","0","101","101","0","0","101","101","101","101","0","Wed Oct 19 15:14:49 2022","The main experiment item","yes","Sternbergtask.osexp","C:/Users/cici_/Downloads","no","mono","no","18","no","white","no","yes","768","legacy","89","11","C:/Users/cici_/OneDrive/Documents/R/28F-subject-3.csv","legacy","1","Lentiform Loewenfeld","3.3.12","0","n","0","right","right","right","right","NA","1394","27107","6096","1394","NA","2","legacy","1","1024","2","48000","-16","experiment","3","odd","7","673739","29295","670472","671534","2183","112169","671537","589075","2187","106072","675740","677136","672538","675740","NA","Sternberg task","91","103734","102","yes","1024"
"89.32038834951456","89.32038834951456","1020.9417475728155","1020.9417475728155","black","experiment","legacy","legacy","legacy","0","uniform","1","undefined","1","left","102","0","102","102","0","0","102","102","0","0","102","102","102","102","0","Wed Oct 19 15:14:49 2022","The main experiment item","yes","Sternbergtask.osexp","C:/Users/cici_/Downloads","no","mono","no","18","no","white","no","yes","768","legacy","90","11","C:/Users/cici_/OneDrive/Documents/R/28F-subject-3.csv","legacy","4 1 5","Lentiform Loewenfeld","3.3.12","2","y","0","left","right","right","left","NA","1423","27107","6096","1423","NA","2","legacy","3","1024","2","48000","-16","experiment","3","odd","1","680415","29295","677150","678212","2183","112169","678213","589075","2187","106072","682416","683839","679214","682416","NA","Sternberg task","92","105157","103","yes","1024"
"89.42307692307692","89.42307692307692","1020.7115384615385","1020.7115384615385","black","experiment","legacy","legacy","legacy","0","uniform","1","undefined","1","left","103","0","103","103","0","0","103","103","0","0","103","103","103","103","0","Wed Oct 19 15:14:49 2022","The main experiment item","yes","Sternbergtask.osexp","C:/Users/cici_/Downloads","no","mono","no","18","no","white","no","yes","768","legacy","91","11","C:/Users/cici_/OneDrive/Documents/R/28F-subject-3.csv","legacy","9 5 8 1","Lentiform Loewenfeld","3.3.12","2","y","0","left","right","right","left","NA","997","27107","6096","997","NA","2","legacy","4","1024","2","48000","-16","experiment","3","odd","5","687120","29295","683853","684917","2183","112169","684918","589075","2187","106072","689121","690119","685919","689121","NA","Sternberg task","93","106154","104","yes","1024"
"89.52380952380952","89.52380952380952","1018.0285714285715","1018.0285714285715","black","experiment","legacy","legacy","legacy","0","uniform","1","undefined","1","left","104","0","104","104","0","0","104","104","0","0","104","104","104","104","0","Wed Oct 19 15:14:49 2022","The main experiment item","yes","Sternbergtask.osexp","C:/Users/cici_/Downloads","no","mono","no","18","no","white","no","yes","768","legacy","92","11","C:/Users/cici_/OneDrive/Documents/R/28F-subject-3.csv","legacy","2 3","Lentiform Loewenfeld","3.3.12","1","y","0","left","right","right","left","NA","739","27107","6096","739","NA","2","legacy","2","1024","2","48000","-16","experiment","3","odd","2","693391","29295","690124","691187","2183","112169","691189","589075","2187","106072","695392","696133","692190","695392","NA","Sternberg task","94","106893","105","yes","1024"
"89.62264150943396","89.62264150943396","1016.5283018867924","1016.5283018867924","black","experiment","legacy","legacy","legacy","0","uniform","1","undefined","1","left","105","0","105","105","0","0","105","105","0","0","105","105","105","105","0","Wed Oct 19 15:14:49 2022","The main experiment item","yes","Sternbergtask.osexp","C:/Users/cici_/Downloads","no","mono","no","18","no","white","no","yes","768","legacy","93","11","C:/Users/cici_/OneDrive/Documents/R/28F-subject-3.csv","legacy","4 7 6 8 2 3","Lentiform Loewenfeld","3.3.12","6","y","0","left","right","right","left","NA","859","27107","6096","859","NA","2","legacy","6","1024","2","48000","-16","experiment","3","odd","3","699415","29295","696148","697210","2183","112169","697212","589075","2187","106072","701416","702277","698214","701416","NA","Sternberg task","95","107752","106","yes","1024"
"89.7196261682243","89.7196261682243","1016.2242990654206","1016.2242990654206","black","experiment","legacy","legacy","legacy","0","uniform","1","undefined","1","left","106","0","106","106","0","0","106","106","0","0","106","106","106","106","0","Wed Oct 19 15:14:49 2022","The main experiment item","yes","Sternbergtask.osexp","C:/Users/cici_/Downloads","no","mono","no","18","no","white","no","yes","768","legacy","94","11","C:/Users/cici_/OneDrive/Documents/R/28F-subject-3.csv","legacy","8 5 3 7 4 6","Lentiform Loewenfeld","3.3.12","6","y","0","left","right","right","left","NA","984","27107","6096","984","NA","2","legacy","6","1024","2","48000","-16","experiment","3","odd","6","705549","29295","702282","703345","2183","112169","703347","589075","2187","106072","707550","708535","704348","707550","NA","Sternberg task","96","108736","107","yes","1024"
"89.81481481481481","89.81481481481481","1014.8333333333334","1014.8333333333334","black","experiment","legacy","legacy","legacy","0","uniform","1","undefined","1","left","107","0","107","107","0","0","107","107","0","0","107","107","107","107","0","Wed Oct 19 15:14:49 2022","The main experiment item","yes","Sternbergtask.osexp","C:/Users/cici_/Downloads","no","mono","no","18","no","white","no","yes","768","legacy","95","11","C:/Users/cici_/OneDrive/Documents/R/28F-subject-3.csv","legacy","7 1 3","Lentiform Loewenfeld","3.3.12","2","y","0","left","right","right","left","NA","866","27107","6096","866","NA","2","legacy","3","1024","2","48000","-16","experiment","3","odd","1","711816","29295","708550","709612","2183","112169","709614","589075","2187","106072","713817","714684","710615","713817","NA","Sternberg task","97","109602","108","yes","1024"
"89.90825688073394","89.90825688073394","1013.2935779816514","1013.2935779816514","black","experiment","legacy","legacy","legacy","0","uniform","1","undefined","1","left","108","0","108","108","0","0","108","108","0","0","108","108","108","108","0","Wed Oct 19 15:14:49 2022","The main experiment item","yes","Sternbergtask.osexp","C:/Users/cici_/Downloads","no","mono","no","18","no","white","no","yes","768","legacy","96","11","C:/Users/cici_/OneDrive/Documents/R/28F-subject-3.csv","legacy","5 2 6","Lentiform Loewenfeld","3.3.12","2","y","0","left","right","right","left","NA","847","27107","6096","847","NA","2","legacy","3","1024","2","48000","-16","experiment","3","odd","2","717966","29295","714699","715762","2183","112169","715764","589075","2187","106072","719967","720815","716765","719967","NA","Sternberg task","98","110449","109","yes","1024"
"90","90","1011.3454545454546","1011.3454545454546","black","experiment","legacy","legacy","legacy","0","uniform","1","undefined","1","left","109","0","109","109","0","0","109","109","0","0","109","109","109","109","0","Wed Oct 19 15:14:49 2022","The main experiment item","yes","Sternbergtask.osexp","C:/Users/cici_/Downloads","no","mono","no","18","no","white","no","yes","768","legacy","97","11","C:/Users/cici_/OneDrive/Documents/R/28F-subject-3.csv","legacy","7","Lentiform Loewenfeld","3.3.12","1","y","0","left","right","right","left","NA","799","27107","6096","799","NA","2","legacy","1","1024","2","48000","-16","experiment","3","odd","7","724085","29295","720819","721881","2183","112169","721883","589075","2187","106072","726086","726887","722884","726086","NA","Sternberg task","99","111248","110","yes","1024"
"90.09009009009009","90.09009009009009","1009","1009","black","experiment","legacy","legacy","legacy","0","uniform","1","undefined","1","right","110","0","110","110","0","0","110","110","0","0","110","110","110","110","0","Wed Oct 19 15:14:49 2022","The main experiment item","yes","Sternbergtask.osexp","C:/Users/cici_/Downloads","no","mono","no","18","no","white","no","yes","768","legacy","98","11","C:/Users/cici_/OneDrive/Documents/R/28F-subject-3.csv","legacy","8 5 7 3 6","Lentiform Loewenfeld","3.3.12","0","n","0","right","right","right","right","NA","751","27107","6096","751","NA","2","legacy","5","1024","2","48000","-16","experiment","3","odd","9","730157","29295","726891","727953","2183","112169","727955","589075","2187","106072","732158","732910","728956","732158","NA","Sternberg task","100","111999","111","yes","1024"
"90.17857142857143","90.17857142857143","1006.3571428571429","1006.3571428571429","black","experiment","legacy","legacy","legacy","0","uniform","1","undefined","1","left","111","0","111","111","0","0","111","111","0","0","111","111","111","111","0","Wed Oct 19 15:14:49 2022","The main experiment item","yes","Sternbergtask.osexp","C:/Users/cici_/Downloads","no","mono","no","18","no","white","no","yes","768","legacy","99","11","C:/Users/cici_/OneDrive/Documents/R/28F-subject-3.csv","legacy","4 6 5 8","Lentiform Loewenfeld","3.3.12","1","y","0","left","right","right","left","NA","713","27107","6096","713","NA","2","legacy","4","1024","2","48000","-16","experiment","3","odd","4","736190","29295","732925","733987","2183","112169","733988","589075","2187","106072","738191","738905","734989","738191","NA","Sternberg task","101","112712","112","yes","1024"
"90.26548672566372","90.26548672566372","1006.9380530973451","1006.9380530973451","black","experiment","legacy","legacy","legacy","0","uniform","1","undefined","1","right","112","0","112","112","0","0","112","112","0","0","112","112","112","112","0","Wed Oct 19 15:14:49 2022","The main experiment item","yes","Sternbergtask.osexp","C:/Users/cici_/Downloads","no","mono","no","18","no","white","no","yes","768","legacy","100","11","C:/Users/cici_/OneDrive/Documents/R/28F-subject-3.csv","legacy","8 9","Lentiform Loewenfeld","3.3.12","0","n","0","right","right","right","right","NA","1072","27107","6096","1072","NA","2","legacy","2","1024","2","48000","-16","experiment","3","odd","5","742190","29295","738919","739986","2183","112169","739988","589075","2187","106072","744191","745264","740989","744191","NA","Sternberg task","102","113784","113","yes","1024"
"89.47368421052632","89.47368421052632","1015.6491228070175","1015.6491228070175","black","experiment","legacy","legacy","legacy","0","uniform","0","undefined","0","left","113","0","113","113","0","0","113","113","0","0","113","113","113","113","0","Wed Oct 19 15:14:49 2022","The main experiment item","yes","Sternbergtask.osexp","C:/Users/cici_/Downloads","no","mono","no","18","no","white","no","yes","768","legacy","101","11","C:/Users/cici_/OneDrive/Documents/R/28F-subject-3.csv","legacy","7 6","Lentiform Loewenfeld","3.3.12","2","y","0","None","right","right","None","NA","2000","27107","6096","2000","NA","2","legacy","2","1024","2","48000","-16","experiment","3","odd","6","748546","29295","745279","746341","2183","112169","746343","589075","2187","106072","750547","752547","747344","750547","NA","Sternberg task","102","115784","114","yes","1024"
"89.56521739130434","89.56521739130434","1016.9043478260869","1016.9043478260869","black","experiment","legacy","legacy","legacy","0","uniform","1","undefined","1","right","114","0","114","114","0","0","114","114","0","0","114","114","114","114","0","Wed Oct 19 15:14:49 2022","The main experiment item","yes","Sternbergtask.osexp","C:/Users/cici_/Downloads","no","mono","no","18","no","white","no","yes","768","legacy","102","11","C:/Users/cici_/OneDrive/Documents/R/28F-subject-3.csv","legacy","1 3 2 6 9","Lentiform Loewenfeld","3.3.12","0","n","0","right","right","right","right","NA","1160","27107","6096","1160","NA","2","legacy","5","1024","2","48000","-16","experiment","3","odd","5","755831","29295","745279","753626","2183","112169","753628","752563","2187","106072","757832","758993","754629","757832","NA","Sternberg task","103","116944","115","yes","1024"
"89.65517241379311","89.65517241379311","1017.8620689655172","1017.8620689655172","black","experiment","legacy","legacy","legacy","0","uniform","1","undefined","1","left","115","0","115","115","0","0","115","115","0","0","115","115","115","115","0","Wed Oct 19 15:14:49 2022","The main experiment item","yes","Sternbergtask.osexp","C:/Users/cici_/Downloads","no","mono","no","18","no","white","no","yes","768","legacy","103","11","C:/Users/cici_/OneDrive/Documents/R/28F-subject-3.csv","legacy","9 1 6 7 8","Lentiform Loewenfeld","3.3.12","1","y","0","left","right","right","left","NA","1128","27107","6096","1128","NA","2","legacy","5","1024","2","48000","-16","experiment","3","odd","9","762273","29295","759007","760069","2183","112169","760071","752563","2187","106072","764274","765403","761072","764274","NA","Sternberg task","104","118072","116","yes","1024"
"88.88888888888889","88.88888888888889","1026.2564102564102","1026.2564102564102","black","experiment","legacy","legacy","legacy","0","uniform","0","undefined","0","right","116","0","116","116","0","0","116","116","0","0","116","116","116","116","0","Wed Oct 19 15:14:49 2022","The main experiment item","yes","Sternbergtask.osexp","C:/Users/cici_/Downloads","no","mono","no","18","no","white","no","yes","768","legacy","104","11","C:/Users/cici_/OneDrive/Documents/R/28F-subject-3.csv","legacy","7 1 5 6 3","Lentiform Loewenfeld","3.3.12","0","n","0","None","right","right","None","NA","2000","27107","6096","2000","NA","2","legacy","5","1024","2","48000","-16","experiment","3","odd","8","768685","29295","765418","766481","2183","112169","766483","752563","2187","106072","770686","772686","767484","770686","NA","Sternberg task","104","120072","117","yes","1024"
