"acc","accuracy","average_response_time","avg_rt","background","block","canvas_backend","clock_backend","color_backend","compensation","coordinates","correct","correct_instruction1","correct_keyboard_response","correct_response","count_ISI","count_correctFeedback","count_expSequence","count_experiment","count_experimentLoop","count_fixation","count_incorrectFeedback","count_instruction1","count_instructions2","count_keyboard_response","count_logger","count_memorySet","count_practiceLoop","count_probe","count_thankYou","datetime","description","disable_garbage_collection","experiment_file","experiment_path","font_bold","font_family","font_italic","font_size","font_underline","foreground","form_clicks","fullscreen","height","keyboard_backend","live_row","live_row_practiceLoop","logfile","mouse_backend","numberSet","opensesame_codename","opensesame_version","posInSet","present","repeat_cycle","response","response_instruction1","response_instructions2","response_keyboard_response","response_thankYou","response_time","response_time_instruction1","response_time_instructions2","response_time_keyboard_response","response_time_thankYou","round_decimals","sampler_backend","setSize","sound_buf_size","sound_channels","sound_freq","sound_sample_size","start","subject_nr","subject_parity","target","time_ISI","time_correctFeedback","time_expSequence","time_experiment","time_experimentLoop","time_fixation","time_incorrectFeedback","time_instruction1","time_instructions2","time_keyboard_response","time_logger","time_memorySet","time_practiceLoop","time_probe","time_thankYou","title","total_correct","total_response_time","total_responses","uniform_coordinates","width"
"100","100","1182","1182","black","practice","legacy","legacy","legacy","0","uniform","1","undefined","1","left","0","0","0","0","0","0","0","0","0","0","0","0","0","0","0","Sat Oct 22 17:54:39 2022","The main experiment item","yes","Sternbergtask.osexp","/Users/katherinehays/Desktop/PSYC 5316 - R and OpenSesame/Lab 3","no","mono","no","18","no","white","no","no","768","legacy","0","0","/Users/katherinehays/Desktop/PSYC 5316 - R and OpenSesame/Lab 3/KH-subject-4.csv","legacy","1 5 2 9","Lentiform Loewenfeld","3.3.12","2","y","0","left","right","NA","left","NA","1182","14677","NA","1182","NA","2","legacy","4","1024","2","48000","-16","experiment","4","even","5","19019","NA","16796","1865","NA","16802","NA","1990","NA","21029","22211","17812","16721","21029","NA","Sternberg task","1","1182","1","yes","1024"
"100","100","1068","1068","black","practice","legacy","legacy","legacy","0","uniform","1","undefined","1","left","1","1","1","0","0","1","1","0","0","1","1","1","0","1","0","Sat Oct 22 17:54:39 2022","The main experiment item","yes","Sternbergtask.osexp","/Users/katherinehays/Desktop/PSYC 5316 - R and OpenSesame/Lab 3","no","mono","no","18","no","white","no","no","768","legacy","1","1","/Users/katherinehays/Desktop/PSYC 5316 - R and OpenSesame/Lab 3/KH-subject-4.csv","legacy","6","Lentiform Loewenfeld","3.3.12","1","y","0","left","right","NA","left","NA","954","14677","NA","954","NA","2","legacy","1","1024","2","48000","-16","experiment","4","even","6","25580","22232","23352","1865","NA","23355","NA","1990","NA","27591","28556","24367","16721","27590","NA","Sternberg task","2","2136","2","yes","1024"
"100","100","1053.3333333333333","1053.3333333333333","black","practice","legacy","legacy","legacy","0","uniform","1","undefined","1","right","2","2","2","0","0","2","2","0","0","2","2","2","0","2","0","Sat Oct 22 17:54:39 2022","The main experiment item","yes","Sternbergtask.osexp","/Users/katherinehays/Desktop/PSYC 5316 - R and OpenSesame/Lab 3","no","mono","no","18","no","white","no","no","768","legacy","2","2","/Users/katherinehays/Desktop/PSYC 5316 - R and OpenSesame/Lab 3/KH-subject-4.csv","legacy","5 7 8 4 1 2","Lentiform Loewenfeld","3.3.12","0","n","0","right","right","NA","right","NA","1024","14677","NA","1024","NA","2","legacy","6","1024","2","48000","-16","experiment","4","even","6","31892","28564","29663","1865","NA","29669","NA","1990","NA","33902","34926","30679","16721","33902","NA","Sternberg task","3","3160","3","yes","1024"
"100","100","1110.25","1110.25","black","practice","legacy","legacy","legacy","0","uniform","1","undefined","1","left","3","3","3","0","0","3","3","0","0","3","3","3","0","3","0","Sat Oct 22 17:54:39 2022","The main experiment item","yes","Sternbergtask.osexp","/Users/katherinehays/Desktop/PSYC 5316 - R and OpenSesame/Lab 3","no","mono","no","18","no","white","no","no","768","legacy","3","3","/Users/katherinehays/Desktop/PSYC 5316 - R and OpenSesame/Lab 3/KH-subject-4.csv","legacy","2 9 4","Lentiform Loewenfeld","3.3.12","3","y","0","left","right","NA","left","NA","1281","14677","NA","1281","NA","2","legacy","3","1024","2","48000","-16","experiment","4","even","4","38233","34931","36009","1865","NA","36013","NA","1990","NA","40238","41520","37020","16721","40238","NA","Sternberg task","4","4441","4","yes","1024"
"100","100","1088.6","1088.6","black","practice","legacy","legacy","legacy","0","uniform","1","undefined","1","left","4","4","4","0","0","4","4","0","0","4","4","4","0","4","0","Sat Oct 22 17:54:39 2022","The main experiment item","yes","Sternbergtask.osexp","/Users/katherinehays/Desktop/PSYC 5316 - R and OpenSesame/Lab 3","no","mono","no","18","no","white","no","no","768","legacy","4","4","/Users/katherinehays/Desktop/PSYC 5316 - R and OpenSesame/Lab 3/KH-subject-4.csv","legacy","4 3 1 7 9 8","Lentiform Loewenfeld","3.3.12","1","y","0","left","right","NA","left","NA","1002","14677","NA","1002","NA","2","legacy","6","1024","2","48000","-16","experiment","4","even","4","44837","41525","42610","1865","NA","42614","NA","1990","NA","46845","47847","43624","16721","46845","NA","Sternberg task","5","5443","5","yes","1024"
"100","100","1105.5","1105.5","black","practice","legacy","legacy","legacy","0","uniform","1","undefined","1","right","5","5","5","0","0","5","5","0","0","5","5","5","0","5","0","Sat Oct 22 17:54:39 2022","The main experiment item","yes","Sternbergtask.osexp","/Users/katherinehays/Desktop/PSYC 5316 - R and OpenSesame/Lab 3","no","mono","no","18","no","white","no","no","768","legacy","5","5","/Users/katherinehays/Desktop/PSYC 5316 - R and OpenSesame/Lab 3/KH-subject-4.csv","legacy","4 1 5","Lentiform Loewenfeld","3.3.12","0","n","0","right","right","NA","right","NA","1190","14677","NA","1190","NA","2","legacy","3","1024","2","48000","-16","experiment","4","even","2","51134","47851","48916","1865","NA","48920","NA","1990","NA","53140","54330","49924","16721","53140","NA","Sternberg task","6","6633","6","yes","1024"
"100","100","1127.2857142857142","1127.2857142857142","black","practice","legacy","legacy","legacy","0","uniform","1","undefined","1","right","6","6","6","0","0","6","6","0","0","6","6","6","0","6","0","Sat Oct 22 17:54:39 2022","The main experiment item","yes","Sternbergtask.osexp","/Users/katherinehays/Desktop/PSYC 5316 - R and OpenSesame/Lab 3","no","mono","no","18","no","white","no","no","768","legacy","6","6","/Users/katherinehays/Desktop/PSYC 5316 - R and OpenSesame/Lab 3/KH-subject-4.csv","legacy","9 6 7 4 5","Lentiform Loewenfeld","3.3.12","0","n","0","right","right","NA","right","NA","1258","14677","NA","1258","NA","2","legacy","5","1024","2","48000","-16","experiment","4","even","3","57641","54335","55411","1865","NA","55415","NA","1990","NA","59649","60907","56425","16721","59649","NA","Sternberg task","7","7891","7","yes","1024"
"100","100","1066.75","1066.75","black","practice","legacy","legacy","legacy","0","uniform","1","undefined","1","right","7","7","7","0","0","7","7","0","0","7","7","7","0","7","0","Sat Oct 22 17:54:39 2022","The main experiment item","yes","Sternbergtask.osexp","/Users/katherinehays/Desktop/PSYC 5316 - R and OpenSesame/Lab 3","no","mono","no","18","no","white","no","no","768","legacy","7","7","/Users/katherinehays/Desktop/PSYC 5316 - R and OpenSesame/Lab 3/KH-subject-4.csv","legacy","2 1","Lentiform Loewenfeld","3.3.12","0","n","0","right","right","NA","right","NA","643","14677","NA","643","NA","2","legacy","2","1024","2","48000","-16","experiment","4","even","5","64180","60912","61967","1865","NA","61971","NA","1990","NA","66188","66831","62974","16721","66188","NA","Sternberg task","8","8534","8","yes","1024"
"88.88888888888889","88.88888888888889","1054","1054","black","practice","legacy","legacy","legacy","0","uniform","0","undefined","0","left","8","8","8","0","0","8","8","0","0","8","8","8","0","8","0","Sat Oct 22 17:54:39 2022","The main experiment item","yes","Sternbergtask.osexp","/Users/katherinehays/Desktop/PSYC 5316 - R and OpenSesame/Lab 3","no","mono","no","18","no","white","no","no","768","legacy","8","8","/Users/katherinehays/Desktop/PSYC 5316 - R and OpenSesame/Lab 3/KH-subject-4.csv","legacy","4 8","Lentiform Loewenfeld","3.3.12","1","y","0","right","right","NA","right","NA","952","14677","NA","952","NA","2","legacy","2","1024","2","48000","-16","experiment","4","even","4","70157","66839","67931","1865","NA","67935","NA","1990","NA","72167","73119","68949","16721","72167","NA","Sternberg task","8","9486","9","yes","1024"
"90","90","1052.8","1052.8","black","practice","legacy","legacy","legacy","0","uniform","1","undefined","1","right","9","9","9","0","0","9","9","0","0","9","9","9","0","9","0","Sat Oct 22 17:54:39 2022","The main experiment item","yes","Sternbergtask.osexp","/Users/katherinehays/Desktop/PSYC 5316 - R and OpenSesame/Lab 3","no","mono","no","18","no","white","no","no","768","legacy","9","9","/Users/katherinehays/Desktop/PSYC 5316 - R and OpenSesame/Lab 3/KH-subject-4.csv","legacy","3 1 9 4","Lentiform Loewenfeld","3.3.12","0","n","0","right","right","NA","right","NA","1042","14677","NA","1042","NA","2","legacy","4","1024","2","48000","-16","experiment","4","even","6","76386","66839","74176","1865","NA","74179","73124","1990","NA","78395","79438","75182","16721","78395","NA","Sternberg task","9","10528","10","yes","1024"
"90.9090909090909","90.9090909090909","1053.2727272727273","1053.2727272727273","black","practice","legacy","legacy","legacy","0","uniform","1","undefined","1","right","10","10","10","0","0","10","10","0","0","10","10","10","0","10","0","Sat Oct 22 17:54:39 2022","The main experiment item","yes","Sternbergtask.osexp","/Users/katherinehays/Desktop/PSYC 5316 - R and OpenSesame/Lab 3","no","mono","no","18","no","white","no","no","768","legacy","10","10","/Users/katherinehays/Desktop/PSYC 5316 - R and OpenSesame/Lab 3/KH-subject-4.csv","legacy","5","Lentiform Loewenfeld","3.3.12","0","n","0","right","right","NA","right","NA","1058","14677","NA","1058","NA","2","legacy","1","1024","2","48000","-16","experiment","4","even","3","82754","79442","80520","1865","NA","80523","73124","1990","NA","84757","85815","81535","16721","84757","NA","Sternberg task","10","11586","11","yes","1024"
"91.66666666666667","91.66666666666667","1054.1666666666667","1054.1666666666667","black","practice","legacy","legacy","legacy","0","uniform","1","undefined","1","left","11","11","11","0","0","11","11","0","0","11","11","11","0","11","0","Sat Oct 22 17:54:39 2022","The main experiment item","yes","Sternbergtask.osexp","/Users/katherinehays/Desktop/PSYC 5316 - R and OpenSesame/Lab 3","no","mono","no","18","no","white","no","no","768","legacy","11","11","/Users/katherinehays/Desktop/PSYC 5316 - R and OpenSesame/Lab 3/KH-subject-4.csv","legacy","1 7 9 8 5","Lentiform Loewenfeld","3.3.12","4","y","0","left","right","NA","left","NA","1064","14677","NA","1064","NA","2","legacy","5","1024","2","48000","-16","experiment","4","even","8","89129","85822","86904","1865","NA","86910","73124","1990","NA","91138","92202","87920","16721","91138","NA","Sternberg task","11","12650","12","yes","1024"
"92.3076923076923","92.3076923076923","1092.7692307692307","1092.7692307692307","black","experiment","legacy","legacy","legacy","0","uniform","1","undefined","1","left","12","12","12","0","0","12","12","0","0","12","12","12","0","12","0","Sat Oct 22 17:54:39 2022","The main experiment item","yes","Sternbergtask.osexp","/Users/katherinehays/Desktop/PSYC 5316 - R and OpenSesame/Lab 3","no","mono","no","18","no","white","no","no","768","legacy","0","11","/Users/katherinehays/Desktop/PSYC 5316 - R and OpenSesame/Lab 3/KH-subject-4.csv","legacy","3 5 9 6 2 4","Lentiform Loewenfeld","3.3.12","1","y","0","left","right","left","left","NA","1556","14677","4268","1556","NA","2","legacy","6","1024","2","48000","-16","experiment","4","even","3","99807","92207","97589","1865","97535","97593","73124","1990","93266","101817","103373","98603","16721","101816","NA","Sternberg task","12","14206","13","yes","1024"
"92.85714285714286","92.85714285714286","1076.7857142857142","1076.7857142857142","black","experiment","legacy","legacy","legacy","0","uniform","1","undefined","1","right","13","13","13","0","0","13","13","0","0","13","13","13","0","13","0","Sat Oct 22 17:54:39 2022","The main experiment item","yes","Sternbergtask.osexp","/Users/katherinehays/Desktop/PSYC 5316 - R and OpenSesame/Lab 3","no","mono","no","18","no","white","no","no","768","legacy","1","11","/Users/katherinehays/Desktop/PSYC 5316 - R and OpenSesame/Lab 3/KH-subject-4.csv","legacy","9 5 3 2 8 6","Lentiform Loewenfeld","3.3.12","0","n","0","right","right","left","right","NA","869","14677","4268","869","NA","2","legacy","6","1024","2","48000","-16","experiment","4","even","7","106700","103378","104467","1865","97535","104470","73124","1990","93266","108710","109580","105488","16721","108710","NA","Sternberg task","13","15075","14","yes","1024"
"93.33333333333333","93.33333333333333","1055.2666666666667","1055.2666666666667","black","experiment","legacy","legacy","legacy","0","uniform","1","undefined","1","left","14","14","14","0","0","14","14","0","0","14","14","14","0","14","0","Sat Oct 22 17:54:39 2022","The main experiment item","yes","Sternbergtask.osexp","/Users/katherinehays/Desktop/PSYC 5316 - R and OpenSesame/Lab 3","no","mono","no","18","no","white","no","no","768","legacy","2","11","/Users/katherinehays/Desktop/PSYC 5316 - R and OpenSesame/Lab 3/KH-subject-4.csv","legacy","7 1 3","Lentiform Loewenfeld","3.3.12","2","y","0","left","right","left","left","NA","754","14677","4268","754","NA","2","legacy","3","1024","2","48000","-16","experiment","4","even","1","112904","109588","110675","1865","97535","110680","73124","1990","93266","114914","115668","111691","16721","114914","NA","Sternberg task","14","15829","15","yes","1024"
"93.75","93.75","1062.25","1062.25","black","experiment","legacy","legacy","legacy","0","uniform","1","undefined","1","right","15","15","15","0","0","15","15","0","0","15","15","15","0","15","0","Sat Oct 22 17:54:39 2022","The main experiment item","yes","Sternbergtask.osexp","/Users/katherinehays/Desktop/PSYC 5316 - R and OpenSesame/Lab 3","no","mono","no","18","no","white","no","no","768","legacy","3","11","/Users/katherinehays/Desktop/PSYC 5316 - R and OpenSesame/Lab 3/KH-subject-4.csv","legacy","4 2 6 9","Lentiform Loewenfeld","3.3.12","0","n","0","right","right","left","right","NA","1167","14677","4268","1167","NA","2","legacy","4","1024","2","48000","-16","experiment","4","even","7","119000","115676","116768","1865","97535","116773","73124","1990","93266","121010","122178","117784","16721","121009","NA","Sternberg task","15","16996","16","yes","1024"
"94.11764705882354","94.11764705882354","1049.764705882353","1049.764705882353","black","experiment","legacy","legacy","legacy","0","uniform","1","undefined","1","left","16","16","16","0","0","16","16","0","0","16","16","16","0","16","0","Sat Oct 22 17:54:39 2022","The main experiment item","yes","Sternbergtask.osexp","/Users/katherinehays/Desktop/PSYC 5316 - R and OpenSesame/Lab 3","no","mono","no","18","no","white","no","no","768","legacy","4","11","/Users/katherinehays/Desktop/PSYC 5316 - R and OpenSesame/Lab 3/KH-subject-4.csv","legacy","8 1 6","Lentiform Loewenfeld","3.3.12","3","y","0","left","right","left","left","NA","850","14677","4268","850","NA","2","legacy","3","1024","2","48000","-16","experiment","4","even","6","125495","122182","123261","1865","97535","123265","73124","1990","93266","127499","128350","124277","16721","127499","NA","Sternberg task","16","17846","17","yes","1024"
"94.44444444444444","94.44444444444444","1043.5","1043.5","black","experiment","legacy","legacy","legacy","0","uniform","1","undefined","1","left","17","17","17","0","0","17","17","0","0","17","17","17","0","17","0","Sat Oct 22 17:54:39 2022","The main experiment item","yes","Sternbergtask.osexp","/Users/katherinehays/Desktop/PSYC 5316 - R and OpenSesame/Lab 3","no","mono","no","18","no","white","no","no","768","legacy","5","11","/Users/katherinehays/Desktop/PSYC 5316 - R and OpenSesame/Lab 3/KH-subject-4.csv","legacy","8 7 3","Lentiform Loewenfeld","3.3.12","1","y","0","left","right","left","left","NA","937","14677","4268","937","NA","2","legacy","3","1024","2","48000","-16","experiment","4","even","8","131662","128354","129432","1865","97535","129436","73124","1990","93266","133672","134612","130446","16721","133672","NA","Sternberg task","17","18783","18","yes","1024"
"94.73684210526316","94.73684210526316","1049.3157894736842","1049.3157894736842","black","experiment","legacy","legacy","legacy","0","uniform","1","undefined","1","right","18","18","18","0","0","18","18","0","0","18","18","18","0","18","0","Sat Oct 22 17:54:39 2022","The main experiment item","yes","Sternbergtask.osexp","/Users/katherinehays/Desktop/PSYC 5316 - R and OpenSesame/Lab 3","no","mono","no","18","no","white","no","no","768","legacy","6","11","/Users/katherinehays/Desktop/PSYC 5316 - R and OpenSesame/Lab 3/KH-subject-4.csv","legacy","1 6 4 3 9 7","Lentiform Loewenfeld","3.3.12","0","n","0","right","right","left","right","NA","1154","14677","4268","1154","NA","2","legacy","6","1024","2","48000","-16","experiment","4","even","8","137918","134619","135696","1865","97535","135701","73124","1990","93266","139927","141082","136712","16721","139927","NA","Sternberg task","18","19937","19","yes","1024"
"95","95","1042.85","1042.85","black","experiment","legacy","legacy","legacy","0","uniform","1","undefined","1","right","19","19","19","0","0","19","19","0","0","19","19","19","0","19","0","Sat Oct 22 17:54:39 2022","The main experiment item","yes","Sternbergtask.osexp","/Users/katherinehays/Desktop/PSYC 5316 - R and OpenSesame/Lab 3","no","mono","no","18","no","white","no","no","768","legacy","7","11","/Users/katherinehays/Desktop/PSYC 5316 - R and OpenSesame/Lab 3/KH-subject-4.csv","legacy","2 8 7 9 5 3","Lentiform Loewenfeld","3.3.12","0","n","0","right","right","left","right","NA","920","14677","4268","920","NA","2","legacy","6","1024","2","48000","-16","experiment","4","even","6","144395","141086","142162","1865","97535","142166","73124","1990","93266","146405","147325","143179","16721","146405","NA","Sternberg task","19","20857","20","yes","1024"
"95.23809523809524","95.23809523809524","1036.142857142857","1036.142857142857","black","experiment","legacy","legacy","legacy","0","uniform","1","undefined","1","right","20","20","20","0","0","20","20","0","0","20","20","20","0","20","0","Sat Oct 22 17:54:39 2022","The main experiment item","yes","Sternbergtask.osexp","/Users/katherinehays/Desktop/PSYC 5316 - R and OpenSesame/Lab 3","no","mono","no","18","no","white","no","no","768","legacy","8","11","/Users/katherinehays/Desktop/PSYC 5316 - R and OpenSesame/Lab 3/KH-subject-4.csv","legacy","2 6 4 3 9","Lentiform Loewenfeld","3.3.12","0","n","0","right","right","left","right","NA","902","14677","4268","902","NA","2","legacy","5","1024","2","48000","-16","experiment","4","even","1","150654","147334","148427","1865","97535","148432","73124","1990","93266","152664","153566","149443","16721","152663","NA","Sternberg task","20","21759","21","yes","1024"
"95.45454545454545","95.45454545454545","1037.409090909091","1037.409090909091","black","experiment","legacy","legacy","legacy","0","uniform","1","undefined","1","left","21","21","21","0","0","21","21","0","0","21","21","21","0","21","0","Sat Oct 22 17:54:39 2022","The main experiment item","yes","Sternbergtask.osexp","/Users/katherinehays/Desktop/PSYC 5316 - R and OpenSesame/Lab 3","no","mono","no","18","no","white","no","no","768","legacy","9","11","/Users/katherinehays/Desktop/PSYC 5316 - R and OpenSesame/Lab 3/KH-subject-4.csv","legacy","6 5","Lentiform Loewenfeld","3.3.12","2","y","0","left","right","left","left","NA","1064","14677","4268","1064","NA","2","legacy","2","1024","2","48000","-16","experiment","4","even","5","156840","153570","154629","1865","97535","154633","73124","1990","93266","158853","159918","155637","16721","158853","NA","Sternberg task","21","22823","22","yes","1024"
"95.65217391304348","95.65217391304348","1019.3478260869565","1019.3478260869565","black","experiment","legacy","legacy","legacy","0","uniform","1","undefined","1","right","22","22","22","0","0","22","22","0","0","22","22","22","0","22","0","Sat Oct 22 17:54:39 2022","The main experiment item","yes","Sternbergtask.osexp","/Users/katherinehays/Desktop/PSYC 5316 - R and OpenSesame/Lab 3","no","mono","no","18","no","white","no","no","768","legacy","10","11","/Users/katherinehays/Desktop/PSYC 5316 - R and OpenSesame/Lab 3/KH-subject-4.csv","legacy","1","Lentiform Loewenfeld","3.3.12","0","n","0","right","right","left","right","NA","622","14677","4268","622","NA","2","legacy","1","1024","2","48000","-16","experiment","4","even","7","163226","159922","160999","1865","97535","161003","73124","1990","93266","165231","165854","162014","16721","165231","NA","Sternberg task","22","23445","23","yes","1024"
"95.83333333333333","95.83333333333333","1014.1666666666666","1014.1666666666666","black","experiment","legacy","legacy","legacy","0","uniform","1","undefined","1","left","23","23","23","0","0","23","23","0","0","23","23","23","0","23","0","Sat Oct 22 17:54:39 2022","The main experiment item","yes","Sternbergtask.osexp","/Users/katherinehays/Desktop/PSYC 5316 - R and OpenSesame/Lab 3","no","mono","no","18","no","white","no","no","768","legacy","11","11","/Users/katherinehays/Desktop/PSYC 5316 - R and OpenSesame/Lab 3/KH-subject-4.csv","legacy","1 4 9 3 2 5","Lentiform Loewenfeld","3.3.12","3","y","0","left","right","left","left","NA","895","14677","4268","895","NA","2","legacy","6","1024","2","48000","-16","experiment","4","even","9","169151","165858","166924","1865","97535","166928","73124","1990","93266","171161","172056","167938","16721","171160","NA","Sternberg task","23","24340","24","yes","1024"
"96","96","1044.2","1044.2","black","experiment","legacy","legacy","legacy","0","uniform","1","undefined","1","left","24","24","24","0","0","24","24","0","0","24","24","24","0","24","0","Sat Oct 22 17:54:39 2022","The main experiment item","yes","Sternbergtask.osexp","/Users/katherinehays/Desktop/PSYC 5316 - R and OpenSesame/Lab 3","no","mono","no","18","no","white","no","no","768","legacy","12","11","/Users/katherinehays/Desktop/PSYC 5316 - R and OpenSesame/Lab 3/KH-subject-4.csv","legacy","6 8 9 3 4 9","Lentiform Loewenfeld","3.3.12","5","y","0","left","right","left","left","NA","1765","14677","4268","1765","NA","2","legacy","6","1024","2","48000","-16","experiment","4","even","4","175382","172066","173156","1865","97535","173161","73124","1990","93266","177391","179157","174172","16721","177391","NA","Sternberg task","24","26105","25","yes","1024"
"96.15384615384616","96.15384615384616","1041.2692307692307","1041.2692307692307","black","experiment","legacy","legacy","legacy","0","uniform","1","undefined","1","left","25","25","25","0","0","25","25","0","0","25","25","25","0","25","0","Sat Oct 22 17:54:39 2022","The main experiment item","yes","Sternbergtask.osexp","/Users/katherinehays/Desktop/PSYC 5316 - R and OpenSesame/Lab 3","no","mono","no","18","no","white","no","no","768","legacy","13","11","/Users/katherinehays/Desktop/PSYC 5316 - R and OpenSesame/Lab 3/KH-subject-4.csv","legacy","4 6 5 8","Lentiform Loewenfeld","3.3.12","1","y","0","left","right","left","left","NA","968","14677","4268","968","NA","2","legacy","4","1024","2","48000","-16","experiment","4","even","4","182468","179161","180242","1865","97535","180245","73124","1990","93266","184478","185446","181256","16721","184478","NA","Sternberg task","25","27073","26","yes","1024"
"96.29629629629629","96.29629629629629","1035.148148148148","1035.148148148148","black","experiment","legacy","legacy","legacy","0","uniform","1","undefined","1","left","26","26","26","0","0","26","26","0","0","26","26","26","0","26","0","Sat Oct 22 17:54:39 2022","The main experiment item","yes","Sternbergtask.osexp","/Users/katherinehays/Desktop/PSYC 5316 - R and OpenSesame/Lab 3","no","mono","no","18","no","white","no","no","768","legacy","14","11","/Users/katherinehays/Desktop/PSYC 5316 - R and OpenSesame/Lab 3/KH-subject-4.csv","legacy","4 1 5","Lentiform Loewenfeld","3.3.12","2","y","0","left","right","left","left","NA","876","14677","4268","876","NA","2","legacy","3","1024","2","48000","-16","experiment","4","even","1","188721","185450","186509","1865","97535","186512","73124","1990","93266","190733","191610","187515","16721","190733","NA","Sternberg task","26","27949","27","yes","1024"
"96.42857142857143","96.42857142857143","1031.892857142857","1031.892857142857","black","experiment","legacy","legacy","legacy","0","uniform","1","undefined","1","right","27","27","27","0","0","27","27","0","0","27","27","27","0","27","0","Sat Oct 22 17:54:39 2022","The main experiment item","yes","Sternbergtask.osexp","/Users/katherinehays/Desktop/PSYC 5316 - R and OpenSesame/Lab 3","no","mono","no","18","no","white","no","no","768","legacy","15","11","/Users/katherinehays/Desktop/PSYC 5316 - R and OpenSesame/Lab 3/KH-subject-4.csv","legacy","6 2 9 3 8 4","Lentiform Loewenfeld","3.3.12","0","n","0","right","right","left","right","NA","944","14677","4268","944","NA","2","legacy","6","1024","2","48000","-16","experiment","4","even","1","194910","191614","192686","1865","97535","192690","73124","1990","93266","196914","197859","193698","16721","196914","NA","Sternberg task","27","28893","28","yes","1024"
"96.55172413793103","96.55172413793103","1021.3793103448276","1021.3793103448276","black","experiment","legacy","legacy","legacy","0","uniform","1","undefined","1","left","28","28","28","0","0","28","28","0","0","28","28","28","0","28","0","Sat Oct 22 17:54:39 2022","The main experiment item","yes","Sternbergtask.osexp","/Users/katherinehays/Desktop/PSYC 5316 - R and OpenSesame/Lab 3","no","mono","no","18","no","white","no","no","768","legacy","16","11","/Users/katherinehays/Desktop/PSYC 5316 - R and OpenSesame/Lab 3/KH-subject-4.csv","legacy","2 4 8 5 1 3","Lentiform Loewenfeld","3.3.12","1","y","0","left","right","left","left","NA","727","14677","4268","727","NA","2","legacy","6","1024","2","48000","-16","experiment","4","even","2","201168","197863","198941","1865","97535","198945","73124","1990","93266","203177","203904","199955","16721","203176","NA","Sternberg task","28","29620","29","yes","1024"
"96.66666666666667","96.66666666666667","1021.1333333333333","1021.1333333333333","black","experiment","legacy","legacy","legacy","0","uniform","1","undefined","1","right","29","29","29","0","0","29","29","0","0","29","29","29","0","29","0","Sat Oct 22 17:54:39 2022","The main experiment item","yes","Sternbergtask.osexp","/Users/katherinehays/Desktop/PSYC 5316 - R and OpenSesame/Lab 3","no","mono","no","18","no","white","no","no","768","legacy","17","11","/Users/katherinehays/Desktop/PSYC 5316 - R and OpenSesame/Lab 3/KH-subject-4.csv","legacy","6 3 1 7 9 8","Lentiform Loewenfeld","3.3.12","0","n","0","right","right","left","right","NA","1014","14677","4268","1014","NA","2","legacy","6","1024","2","48000","-16","experiment","4","even","4","207226","203911","205001","1865","97535","205006","73124","1990","93266","209235","210249","206017","16721","209235","NA","Sternberg task","29","30634","30","yes","1024"
"96.7741935483871","96.7741935483871","1018.9032258064516","1018.9032258064516","black","experiment","legacy","legacy","legacy","0","uniform","1","undefined","1","left","30","30","30","0","0","30","30","0","0","30","30","30","0","30","0","Sat Oct 22 17:54:39 2022","The main experiment item","yes","Sternbergtask.osexp","/Users/katherinehays/Desktop/PSYC 5316 - R and OpenSesame/Lab 3","no","mono","no","18","no","white","no","no","768","legacy","18","11","/Users/katherinehays/Desktop/PSYC 5316 - R and OpenSesame/Lab 3/KH-subject-4.csv","legacy","2 3","Lentiform Loewenfeld","3.3.12","1","y","0","left","right","left","left","NA","952","14677","4268","952","NA","2","legacy","2","1024","2","48000","-16","experiment","4","even","2","213561","210254","211335","1865","97535","211339","73124","1990","93266","215565","216517","212349","16721","215565","NA","Sternberg task","30","31586","31","yes","1024"
"96.875","96.875","1018.15625","1018.15625","black","experiment","legacy","legacy","legacy","0","uniform","1","undefined","1","left","31","31","31","0","0","31","31","0","0","31","31","31","0","31","0","Sat Oct 22 17:54:39 2022","The main experiment item","yes","Sternbergtask.osexp","/Users/katherinehays/Desktop/PSYC 5316 - R and OpenSesame/Lab 3","no","mono","no","18","no","white","no","no","768","legacy","19","11","/Users/katherinehays/Desktop/PSYC 5316 - R and OpenSesame/Lab 3/KH-subject-4.csv","legacy","8 9 6 1","Lentiform Loewenfeld","3.3.12","2","y","0","left","right","left","left","NA","995","14677","4268","995","NA","2","legacy","4","1024","2","48000","-16","experiment","4","even","9","219826","216523","217597","1865","97535","217601","73124","1990","93266","221834","222830","218611","16721","221834","NA","Sternberg task","31","32581","32","yes","1024"
"96.96969696969697","96.96969696969697","1017.3636363636364","1017.3636363636364","black","experiment","legacy","legacy","legacy","0","uniform","1","undefined","1","right","32","32","32","0","0","32","32","0","0","32","32","32","0","32","0","Sat Oct 22 17:54:39 2022","The main experiment item","yes","Sternbergtask.osexp","/Users/katherinehays/Desktop/PSYC 5316 - R and OpenSesame/Lab 3","no","mono","no","18","no","white","no","no","768","legacy","20","11","/Users/katherinehays/Desktop/PSYC 5316 - R and OpenSesame/Lab 3/KH-subject-4.csv","legacy","1 4 9 3","Lentiform Loewenfeld","3.3.12","0","n","0","right","right","left","right","NA","992","14677","4268","992","NA","2","legacy","4","1024","2","48000","-16","experiment","4","even","5","226106","222834","223893","1865","97535","223896","73124","1990","93266","228118","229111","224900","16721","228118","NA","Sternberg task","32","33573","33","yes","1024"
"97.05882352941177","97.05882352941177","1014.2941176470588","1014.2941176470588","black","experiment","legacy","legacy","legacy","0","uniform","1","undefined","1","left","33","33","33","0","0","33","33","0","0","33","33","33","0","33","0","Sat Oct 22 17:54:39 2022","The main experiment item","yes","Sternbergtask.osexp","/Users/katherinehays/Desktop/PSYC 5316 - R and OpenSesame/Lab 3","no","mono","no","18","no","white","no","no","768","legacy","21","11","/Users/katherinehays/Desktop/PSYC 5316 - R and OpenSesame/Lab 3/KH-subject-4.csv","legacy","8 5 4 7 3 1","Lentiform Loewenfeld","3.3.12","2","y","0","left","right","left","left","NA","913","14677","4268","913","NA","2","legacy","6","1024","2","48000","-16","experiment","4","even","5","232429","229115","230198","1865","97535","230202","73124","1990","93266","234437","235350","231212","16721","234437","NA","Sternberg task","33","34486","34","yes","1024"
"97.14285714285714","97.14285714285714","1009.4857142857143","1009.4857142857143","black","experiment","legacy","legacy","legacy","0","uniform","1","undefined","1","right","34","34","34","0","0","34","34","0","0","34","34","34","0","34","0","Sat Oct 22 17:54:39 2022","The main experiment item","yes","Sternbergtask.osexp","/Users/katherinehays/Desktop/PSYC 5316 - R and OpenSesame/Lab 3","no","mono","no","18","no","white","no","no","768","legacy","22","11","/Users/katherinehays/Desktop/PSYC 5316 - R and OpenSesame/Lab 3/KH-subject-4.csv","legacy","8 9","Lentiform Loewenfeld","3.3.12","0","n","0","right","right","left","right","NA","846","14677","4268","846","NA","2","legacy","2","1024","2","48000","-16","experiment","4","even","5","238663","235357","236438","1865","97535","236444","73124","1990","93266","240672","241518","237454","16721","240672","NA","Sternberg task","34","35332","35","yes","1024"
"97.22222222222223","97.22222222222223","1001.8055555555555","1001.8055555555555","black","experiment","legacy","legacy","legacy","0","uniform","1","undefined","1","right","35","35","35","0","0","35","35","0","0","35","35","35","0","35","0","Sat Oct 22 17:54:39 2022","The main experiment item","yes","Sternbergtask.osexp","/Users/katherinehays/Desktop/PSYC 5316 - R and OpenSesame/Lab 3","no","mono","no","18","no","white","no","no","768","legacy","23","11","/Users/katherinehays/Desktop/PSYC 5316 - R and OpenSesame/Lab 3/KH-subject-4.csv","legacy","6 7 5 9","Lentiform Loewenfeld","3.3.12","0","n","0","right","right","left","right","NA","733","14677","4268","733","NA","2","legacy","4","1024","2","48000","-16","experiment","4","even","2","244816","241524","242596","1865","97535","242601","73124","1990","93266","246825","247559","243612","16721","246825","NA","Sternberg task","35","36065","36","yes","1024"
"97.29729729729729","97.29729729729729","996.5945945945946","996.5945945945946","black","experiment","legacy","legacy","legacy","0","uniform","1","undefined","1","right","36","36","36","0","0","36","36","0","0","36","36","36","0","36","0","Sat Oct 22 17:54:39 2022","The main experiment item","yes","Sternbergtask.osexp","/Users/katherinehays/Desktop/PSYC 5316 - R and OpenSesame/Lab 3","no","mono","no","18","no","white","no","no","768","legacy","24","11","/Users/katherinehays/Desktop/PSYC 5316 - R and OpenSesame/Lab 3/KH-subject-4.csv","legacy","5 9 2 3","Lentiform Loewenfeld","3.3.12","0","n","0","right","right","left","right","NA","809","14677","4268","809","NA","2","legacy","4","1024","2","48000","-16","experiment","4","even","8","250863","247570","248636","1865","97535","248644","73124","1990","93266","252872","253682","249654","16721","252872","NA","Sternberg task","36","36874","37","yes","1024"
"97.36842105263158","97.36842105263158","991.5","991.5","black","experiment","legacy","legacy","legacy","0","uniform","1","undefined","1","left","37","37","37","0","0","37","37","0","0","37","37","37","0","37","0","Sat Oct 22 17:54:39 2022","The main experiment item","yes","Sternbergtask.osexp","/Users/katherinehays/Desktop/PSYC 5316 - R and OpenSesame/Lab 3","no","mono","no","18","no","white","no","no","768","legacy","25","11","/Users/katherinehays/Desktop/PSYC 5316 - R and OpenSesame/Lab 3/KH-subject-4.csv","legacy","2 5 4 8 7","Lentiform Loewenfeld","3.3.12","3","y","0","left","right","left","left","NA","803","14677","4268","803","NA","2","legacy","5","1024","2","48000","-16","experiment","4","even","4","256978","253688","254749","1865","97535","254755","73124","1990","93266","258986","259789","255772","16721","258986","NA","Sternberg task","37","37677","38","yes","1024"
"97.43589743589743","97.43589743589743","989.5897435897435","989.5897435897435","black","experiment","legacy","legacy","legacy","0","uniform","1","undefined","1","right","38","38","38","0","0","38","38","0","0","38","38","38","0","38","0","Sat Oct 22 17:54:39 2022","The main experiment item","yes","Sternbergtask.osexp","/Users/katherinehays/Desktop/PSYC 5316 - R and OpenSesame/Lab 3","no","mono","no","18","no","white","no","no","768","legacy","26","11","/Users/katherinehays/Desktop/PSYC 5316 - R and OpenSesame/Lab 3/KH-subject-4.csv","legacy","9 7 4 5 8","Lentiform Loewenfeld","3.3.12","0","n","0","right","right","left","right","NA","917","14677","4268","917","NA","2","legacy","5","1024","2","48000","-16","experiment","4","even","6","263056","259793","260843","1865","97535","260847","73124","1990","93266","265066","265984","261852","16721","265066","NA","Sternberg task","38","38594","39","yes","1024"
"97.5","97.5","986.35","986.35","black","experiment","legacy","legacy","legacy","0","uniform","1","undefined","1","right","39","39","39","0","0","39","39","0","0","39","39","39","0","39","0","Sat Oct 22 17:54:39 2022","The main experiment item","yes","Sternbergtask.osexp","/Users/katherinehays/Desktop/PSYC 5316 - R and OpenSesame/Lab 3","no","mono","no","18","no","white","no","no","768","legacy","27","11","/Users/katherinehays/Desktop/PSYC 5316 - R and OpenSesame/Lab 3/KH-subject-4.csv","legacy","6 8","Lentiform Loewenfeld","3.3.12","0","n","0","right","right","left","right","NA","860","14677","4268","860","NA","2","legacy","2","1024","2","48000","-16","experiment","4","even","9","269283","265988","267059","1865","97535","267063","73124","1990","93266","271287","272148","268070","16721","271287","NA","Sternberg task","39","39454","40","yes","1024"
"97.5609756097561","97.5609756097561","982.0975609756098","982.0975609756098","black","experiment","legacy","legacy","legacy","0","uniform","1","undefined","1","right","40","40","40","0","0","40","40","0","0","40","40","40","0","40","0","Sat Oct 22 17:54:39 2022","The main experiment item","yes","Sternbergtask.osexp","/Users/katherinehays/Desktop/PSYC 5316 - R and OpenSesame/Lab 3","no","mono","no","18","no","white","no","no","768","legacy","28","11","/Users/katherinehays/Desktop/PSYC 5316 - R and OpenSesame/Lab 3/KH-subject-4.csv","legacy","1 4 9 2 5","Lentiform Loewenfeld","3.3.12","0","n","0","right","right","left","right","NA","812","14677","4268","812","NA","2","legacy","5","1024","2","48000","-16","experiment","4","even","7","275454","272152","273226","1865","97535","273229","73124","1990","93266","277461","278274","274240","16721","277461","NA","Sternberg task","40","40266","41","yes","1024"
"97.61904761904762","97.61904761904762","977.0714285714286","977.0714285714286","black","experiment","legacy","legacy","legacy","0","uniform","1","undefined","1","left","41","41","41","0","0","41","41","0","0","41","41","41","0","41","0","Sat Oct 22 17:54:39 2022","The main experiment item","yes","Sternbergtask.osexp","/Users/katherinehays/Desktop/PSYC 5316 - R and OpenSesame/Lab 3","no","mono","no","18","no","white","no","no","768","legacy","29","11","/Users/katherinehays/Desktop/PSYC 5316 - R and OpenSesame/Lab 3/KH-subject-4.csv","legacy","5 7 3 6 2","Lentiform Loewenfeld","3.3.12","5","y","0","left","right","left","left","NA","771","14677","4268","771","NA","2","legacy","5","1024","2","48000","-16","experiment","4","even","2","281602","278280","279373","1865","97535","279378","73124","1990","93266","283610","284382","280389","16721","283610","NA","Sternberg task","41","41037","42","yes","1024"
"95.34883720930233","95.34883720930233","977.1162790697674","977.1162790697674","black","experiment","legacy","legacy","legacy","0","uniform","0","undefined","0","left","42","42","42","0","0","42","42","0","0","42","42","42","0","42","0","Sat Oct 22 17:54:39 2022","The main experiment item","yes","Sternbergtask.osexp","/Users/katherinehays/Desktop/PSYC 5316 - R and OpenSesame/Lab 3","no","mono","no","18","no","white","no","no","768","legacy","30","11","/Users/katherinehays/Desktop/PSYC 5316 - R and OpenSesame/Lab 3/KH-subject-4.csv","legacy","9 5 3 8 4","Lentiform Loewenfeld","3.3.12","1","y","0","right","right","left","right","NA","979","14677","4268","979","NA","2","legacy","5","1024","2","48000","-16","experiment","4","even","9","287678","284388","285457","1865","97535","285461","73124","1990","93266","289688","290668","286472","16721","289687","NA","Sternberg task","41","42016","43","yes","1024"
"95.45454545454545","95.45454545454545","974.8636363636364","974.8636363636364","black","experiment","legacy","legacy","legacy","0","uniform","1","undefined","1","left","43","43","43","0","0","43","43","0","0","43","43","43","0","43","0","Sat Oct 22 17:54:39 2022","The main experiment item","yes","Sternbergtask.osexp","/Users/katherinehays/Desktop/PSYC 5316 - R and OpenSesame/Lab 3","no","mono","no","18","no","white","no","no","768","legacy","31","11","/Users/katherinehays/Desktop/PSYC 5316 - R and OpenSesame/Lab 3/KH-subject-4.csv","legacy","4 3 2 5 8","Lentiform Loewenfeld","3.3.12","2","y","0","left","right","left","left","NA","878","14677","4268","878","NA","2","legacy","5","1024","2","48000","-16","experiment","4","even","3","293948","284388","291734","1865","97535","291737","290672","1990","93266","295958","296837","292741","16721","295958","NA","Sternberg task","42","42894","44","yes","1024"
"95.55555555555556","95.55555555555556","976.8888888888889","976.8888888888889","black","experiment","legacy","legacy","legacy","0","uniform","1","undefined","1","right","44","44","44","0","0","44","44","0","0","44","44","44","0","44","0","Sat Oct 22 17:54:39 2022","The main experiment item","yes","Sternbergtask.osexp","/Users/katherinehays/Desktop/PSYC 5316 - R and OpenSesame/Lab 3","no","mono","no","18","no","white","no","no","768","legacy","32","11","/Users/katherinehays/Desktop/PSYC 5316 - R and OpenSesame/Lab 3/KH-subject-4.csv","legacy","3 4 9 6 7 8","Lentiform Loewenfeld","3.3.12","0","n","0","right","right","left","right","NA","1066","14677","4268","1066","NA","2","legacy","6","1024","2","48000","-16","experiment","4","even","2","300148","296841","297919","1865","97535","297923","290672","1990","93266","302153","303220","298935","16721","302153","NA","Sternberg task","43","43960","45","yes","1024"
"95.65217391304348","95.65217391304348","985.304347826087","985.304347826087","black","experiment","legacy","legacy","legacy","0","uniform","1","undefined","1","left","45","45","45","0","0","45","45","0","0","45","45","45","0","45","0","Sat Oct 22 17:54:39 2022","The main experiment item","yes","Sternbergtask.osexp","/Users/katherinehays/Desktop/PSYC 5316 - R and OpenSesame/Lab 3","no","mono","no","18","no","white","no","no","768","legacy","33","11","/Users/katherinehays/Desktop/PSYC 5316 - R and OpenSesame/Lab 3/KH-subject-4.csv","legacy","7 4 2 6 3 5","Lentiform Loewenfeld","3.3.12","6","y","0","left","right","left","left","NA","1364","14677","4268","1364","NA","2","legacy","6","1024","2","48000","-16","experiment","4","even","5","306527","303226","304300","1865","97535","304305","290672","1990","93266","308537","309902","305315","16721","308536","NA","Sternberg task","44","45324","46","yes","1024"
"95.74468085106383","95.74468085106383","991.063829787234","991.063829787234","black","experiment","legacy","legacy","legacy","0","uniform","1","undefined","1","left","46","46","46","0","0","46","46","0","0","46","46","46","0","46","0","Sat Oct 22 17:54:39 2022","The main experiment item","yes","Sternbergtask.osexp","/Users/katherinehays/Desktop/PSYC 5316 - R and OpenSesame/Lab 3","no","mono","no","18","no","white","no","no","768","legacy","34","11","/Users/katherinehays/Desktop/PSYC 5316 - R and OpenSesame/Lab 3/KH-subject-4.csv","legacy","9 6 2 4 1","Lentiform Loewenfeld","3.3.12","4","y","0","left","right","left","left","NA","1256","14677","4268","1256","NA","2","legacy","5","1024","2","48000","-16","experiment","4","even","4","313216","309906","310989","1865","97535","310993","290672","1990","93266","315230","316487","312004","16721","315230","NA","Sternberg task","45","46580","47","yes","1024"
"95.83333333333333","95.83333333333333","996.9583333333334","996.9583333333334","black","experiment","legacy","legacy","legacy","0","uniform","1","undefined","1","left","47","47","47","0","0","47","47","0","0","47","47","47","0","47","0","Sat Oct 22 17:54:39 2022","The main experiment item","yes","Sternbergtask.osexp","/Users/katherinehays/Desktop/PSYC 5316 - R and OpenSesame/Lab 3","no","mono","no","18","no","white","no","no","768","legacy","35","11","/Users/katherinehays/Desktop/PSYC 5316 - R and OpenSesame/Lab 3/KH-subject-4.csv","legacy","7 1 8 5 6 2","Lentiform Loewenfeld","3.3.12","2","y","0","left","right","left","left","NA","1274","14677","4268","1274","NA","2","legacy","6","1024","2","48000","-16","experiment","4","even","1","319809","316493","317580","1865","97535","317585","290672","1990","93266","321816","323091","318597","16721","321816","NA","Sternberg task","46","47854","48","yes","1024"
"95.91836734693878","95.91836734693878","992.6938775510204","992.6938775510204","black","experiment","legacy","legacy","legacy","0","uniform","1","undefined","1","right","48","48","48","0","0","48","48","0","0","48","48","48","0","48","0","Sat Oct 22 17:54:39 2022","The main experiment item","yes","Sternbergtask.osexp","/Users/katherinehays/Desktop/PSYC 5316 - R and OpenSesame/Lab 3","no","mono","no","18","no","white","no","no","768","legacy","36","11","/Users/katherinehays/Desktop/PSYC 5316 - R and OpenSesame/Lab 3/KH-subject-4.csv","legacy","7 4 2 8 1 9","Lentiform Loewenfeld","3.3.12","0","n","0","right","right","left","right","NA","788","14677","4268","788","NA","2","legacy","6","1024","2","48000","-16","experiment","4","even","5","326413","323095","324182","1865","97535","324186","290672","1990","93266","328421","329210","325200","16721","328421","NA","Sternberg task","47","48642","49","yes","1024"
"96","96","998.42","998.42","black","experiment","legacy","legacy","legacy","0","uniform","1","undefined","1","right","49","49","49","0","0","49","49","0","0","49","49","49","0","49","0","Sat Oct 22 17:54:39 2022","The main experiment item","yes","Sternbergtask.osexp","/Users/katherinehays/Desktop/PSYC 5316 - R and OpenSesame/Lab 3","no","mono","no","18","no","white","no","no","768","legacy","37","11","/Users/katherinehays/Desktop/PSYC 5316 - R and OpenSesame/Lab 3/KH-subject-4.csv","legacy","2 5 1 4","Lentiform Loewenfeld","3.3.12","0","n","0","right","right","left","right","NA","1279","14677","4268","1279","NA","2","legacy","4","1024","2","48000","-16","experiment","4","even","6","332523","329216","330290","1865","97535","330296","290672","1990","93266","334533","335813","331307","16721","334533","NA","Sternberg task","48","49921","50","yes","1024"
"96.07843137254902","96.07843137254902","1000.7450980392157","1000.7450980392157","black","experiment","legacy","legacy","legacy","0","uniform","1","undefined","1","right","50","50","50","0","0","50","50","0","0","50","50","50","0","50","0","Sat Oct 22 17:54:39 2022","The main experiment item","yes","Sternbergtask.osexp","/Users/katherinehays/Desktop/PSYC 5316 - R and OpenSesame/Lab 3","no","mono","no","18","no","white","no","no","768","legacy","38","11","/Users/katherinehays/Desktop/PSYC 5316 - R and OpenSesame/Lab 3/KH-subject-4.csv","legacy","8 5 4 2 9 6","Lentiform Loewenfeld","3.3.12","0","n","0","right","right","left","right","NA","1117","14677","4268","1117","NA","2","legacy","6","1024","2","48000","-16","experiment","4","even","3","339125","335818","336898","1865","97535","336902","290672","1990","93266","341136","342254","337912","16721","341136","NA","Sternberg task","49","51038","51","yes","1024"
"96.15384615384616","96.15384615384616","1006.75","1006.75","black","experiment","legacy","legacy","legacy","0","uniform","1","undefined","1","right","51","51","51","0","0","51","51","0","0","51","51","51","0","51","0","Sat Oct 22 17:54:39 2022","The main experiment item","yes","Sternbergtask.osexp","/Users/katherinehays/Desktop/PSYC 5316 - R and OpenSesame/Lab 3","no","mono","no","18","no","white","no","no","768","legacy","39","11","/Users/katherinehays/Desktop/PSYC 5316 - R and OpenSesame/Lab 3/KH-subject-4.csv","legacy","7 6 4 8 1 2","Lentiform Loewenfeld","3.3.12","0","n","0","right","right","left","right","NA","1313","14677","4268","1313","NA","2","legacy","6","1024","2","48000","-16","experiment","4","even","9","345572","342259","343348","1865","97535","343353","290672","1990","93266","347581","348895","344364","16721","347580","NA","Sternberg task","50","52351","52","yes","1024"
"96.22641509433963","96.22641509433963","1003.4716981132076","1003.4716981132076","black","experiment","legacy","legacy","legacy","0","uniform","1","undefined","1","right","52","52","52","0","0","52","52","0","0","52","52","52","0","52","0","Sat Oct 22 17:54:39 2022","The main experiment item","yes","Sternbergtask.osexp","/Users/katherinehays/Desktop/PSYC 5316 - R and OpenSesame/Lab 3","no","mono","no","18","no","white","no","no","768","legacy","40","11","/Users/katherinehays/Desktop/PSYC 5316 - R and OpenSesame/Lab 3/KH-subject-4.csv","legacy","7 1","Lentiform Loewenfeld","3.3.12","0","n","0","right","right","left","right","NA","833","14677","4268","833","NA","2","legacy","2","1024","2","48000","-16","experiment","4","even","8","352217","348899","349984","1865","97535","349988","290672","1990","93266","354227","355061","351005","16721","354227","NA","Sternberg task","51","53184","53","yes","1024"
"96.29629629629629","96.29629629629629","998.6851851851852","998.6851851851852","black","experiment","legacy","legacy","legacy","0","uniform","1","undefined","1","left","53","53","53","0","0","53","53","0","0","53","53","53","0","53","0","Sat Oct 22 17:54:39 2022","The main experiment item","yes","Sternbergtask.osexp","/Users/katherinehays/Desktop/PSYC 5316 - R and OpenSesame/Lab 3","no","mono","no","18","no","white","no","no","768","legacy","41","11","/Users/katherinehays/Desktop/PSYC 5316 - R and OpenSesame/Lab 3/KH-subject-4.csv","legacy","8 9 5 6 7","Lentiform Loewenfeld","3.3.12","1","y","0","left","right","left","left","NA","745","14677","4268","745","NA","2","legacy","5","1024","2","48000","-16","experiment","4","even","8","358382","355073","356156","1865","97535","356162","290672","1990","93266","360391","361136","357172","16721","360391","NA","Sternberg task","52","53929","54","yes","1024"
"96.36363636363636","96.36363636363636","995.3090909090909","995.3090909090909","black","experiment","legacy","legacy","legacy","0","uniform","1","undefined","1","right","54","54","54","0","0","54","54","0","0","54","54","54","0","54","0","Sat Oct 22 17:54:39 2022","The main experiment item","yes","Sternbergtask.osexp","/Users/katherinehays/Desktop/PSYC 5316 - R and OpenSesame/Lab 3","no","mono","no","18","no","white","no","no","768","legacy","42","11","/Users/katherinehays/Desktop/PSYC 5316 - R and OpenSesame/Lab 3/KH-subject-4.csv","legacy","2 8 6 3 1","Lentiform Loewenfeld","3.3.12","0","n","0","right","right","left","right","NA","813","14677","4268","813","NA","2","legacy","5","1024","2","48000","-16","experiment","4","even","7","364444","361142","362218","1865","97535","362224","290672","1990","93266","366454","367268","363235","16721","366453","NA","Sternberg task","53","54742","55","yes","1024"
"96.42857142857143","96.42857142857143","996.1071428571429","996.1071428571429","black","experiment","legacy","legacy","legacy","0","uniform","1","undefined","1","right","55","55","55","0","0","55","55","0","0","55","55","55","0","55","0","Sat Oct 22 17:54:39 2022","The main experiment item","yes","Sternbergtask.osexp","/Users/katherinehays/Desktop/PSYC 5316 - R and OpenSesame/Lab 3","no","mono","no","18","no","white","no","no","768","legacy","43","11","/Users/katherinehays/Desktop/PSYC 5316 - R and OpenSesame/Lab 3/KH-subject-4.csv","legacy","9","Lentiform Loewenfeld","3.3.12","0","n","0","right","right","left","right","NA","1040","14677","4268","1040","NA","2","legacy","1","1024","2","48000","-16","experiment","4","even","6","370570","367273","368346","1865","97535","368350","290672","1990","93266","372578","373618","369363","16721","372577","NA","Sternberg task","54","55782","56","yes","1024"
"96.49122807017544","96.49122807017544","1000.4035087719299","1000.4035087719299","black","experiment","legacy","legacy","legacy","0","uniform","1","undefined","1","left","56","56","56","0","0","56","56","0","0","56","56","56","0","56","0","Sat Oct 22 17:54:39 2022","The main experiment item","yes","Sternbergtask.osexp","/Users/katherinehays/Desktop/PSYC 5316 - R and OpenSesame/Lab 3","no","mono","no","18","no","white","no","no","768","legacy","44","11","/Users/katherinehays/Desktop/PSYC 5316 - R and OpenSesame/Lab 3/KH-subject-4.csv","legacy","6 2","Lentiform Loewenfeld","3.3.12","1","y","0","left","right","left","left","NA","1241","14677","4268","1241","NA","2","legacy","2","1024","2","48000","-16","experiment","4","even","6","376919","373623","374697","1865","97535","374701","290672","1990","93266","378927","380169","375707","16721","378927","NA","Sternberg task","55","57023","57","yes","1024"
"96.55172413793103","96.55172413793103","1001.5689655172414","1001.5689655172414","black","experiment","legacy","legacy","legacy","0","uniform","1","undefined","1","right","57","57","57","0","0","57","57","0","0","57","57","57","0","57","0","Sat Oct 22 17:54:39 2022","The main experiment item","yes","Sternbergtask.osexp","/Users/katherinehays/Desktop/PSYC 5316 - R and OpenSesame/Lab 3","no","mono","no","18","no","white","no","no","768","legacy","45","11","/Users/katherinehays/Desktop/PSYC 5316 - R and OpenSesame/Lab 3/KH-subject-4.csv","legacy","1 4 3 6 5","Lentiform Loewenfeld","3.3.12","0","n","0","right","right","left","right","NA","1068","14677","4268","1068","NA","2","legacy","5","1024","2","48000","-16","experiment","4","even","8","383492","380180","381258","1865","97535","381264","290672","1990","93266","385502","386571","382276","16721","385501","NA","Sternberg task","56","58091","58","yes","1024"
"96.61016949152543","96.61016949152543","1003.6271186440678","1003.6271186440678","black","experiment","legacy","legacy","legacy","0","uniform","1","undefined","1","right","58","58","58","0","0","58","58","0","0","58","58","58","0","58","0","Sat Oct 22 17:54:39 2022","The main experiment item","yes","Sternbergtask.osexp","/Users/katherinehays/Desktop/PSYC 5316 - R and OpenSesame/Lab 3","no","mono","no","18","no","white","no","no","768","legacy","46","11","/Users/katherinehays/Desktop/PSYC 5316 - R and OpenSesame/Lab 3/KH-subject-4.csv","legacy","7 3 2 8","Lentiform Loewenfeld","3.3.12","0","n","0","right","right","left","right","NA","1123","14677","4268","1123","NA","2","legacy","4","1024","2","48000","-16","experiment","4","even","4","389886","386575","387659","1865","97535","387663","290672","1990","93266","391890","393014","388673","16721","391889","NA","Sternberg task","57","59214","59","yes","1024"
"96.66666666666667","96.66666666666667","1003.2333333333333","1003.2333333333333","black","experiment","legacy","legacy","legacy","0","uniform","1","undefined","1","right","59","59","59","0","0","59","59","0","0","59","59","59","0","59","0","Sat Oct 22 17:54:39 2022","The main experiment item","yes","Sternbergtask.osexp","/Users/katherinehays/Desktop/PSYC 5316 - R and OpenSesame/Lab 3","no","mono","no","18","no","white","no","no","768","legacy","47","11","/Users/katherinehays/Desktop/PSYC 5316 - R and OpenSesame/Lab 3/KH-subject-4.csv","legacy","2 3 8 5 6 7","Lentiform Loewenfeld","3.3.12","0","n","0","right","right","left","right","NA","980","14677","4268","980","NA","2","legacy","6","1024","2","48000","-16","experiment","4","even","1","396343","393025","394116","1865","97535","394121","290672","1990","93266","398352","399333","395132","16721","398352","NA","Sternberg task","58","60194","60","yes","1024"
"96.72131147540983","96.72131147540983","1004.327868852459","1004.327868852459","black","experiment","legacy","legacy","legacy","0","uniform","1","undefined","1","right","60","60","60","0","0","60","60","0","0","60","60","60","0","60","0","Sat Oct 22 17:54:39 2022","The main experiment item","yes","Sternbergtask.osexp","/Users/katherinehays/Desktop/PSYC 5316 - R and OpenSesame/Lab 3","no","mono","no","18","no","white","no","no","768","legacy","48","11","/Users/katherinehays/Desktop/PSYC 5316 - R and OpenSesame/Lab 3/KH-subject-4.csv","legacy","7 9 1 6","Lentiform Loewenfeld","3.3.12","0","n","0","right","right","left","right","NA","1070","14677","4268","1070","NA","2","legacy","4","1024","2","48000","-16","experiment","4","even","4","402612","399337","400398","1865","97535","400401","290672","1990","93266","404623","405694","401405","16721","404623","NA","Sternberg task","59","61264","61","yes","1024"
"96.7741935483871","96.7741935483871","1001.5","1001.5","black","experiment","legacy","legacy","legacy","0","uniform","1","undefined","1","left","61","61","61","0","0","61","61","0","0","61","61","61","0","61","0","Sat Oct 22 17:54:39 2022","The main experiment item","yes","Sternbergtask.osexp","/Users/katherinehays/Desktop/PSYC 5316 - R and OpenSesame/Lab 3","no","mono","no","18","no","white","no","no","768","legacy","49","11","/Users/katherinehays/Desktop/PSYC 5316 - R and OpenSesame/Lab 3/KH-subject-4.csv","legacy","6 7 9 3 1 2","Lentiform Loewenfeld","3.3.12","1","y","0","left","right","left","left","NA","829","14677","4268","829","NA","2","legacy","6","1024","2","48000","-16","experiment","4","even","6","408990","405698","406763","1865","97535","406766","290672","1990","93266","410999","411828","407777","16721","410999","NA","Sternberg task","60","62093","62","yes","1024"
"96.82539682539682","96.82539682539682","997.952380952381","997.952380952381","black","experiment","legacy","legacy","legacy","0","uniform","1","undefined","1","left","62","62","62","0","0","62","62","0","0","62","62","62","0","62","0","Sat Oct 22 17:54:39 2022","The main experiment item","yes","Sternbergtask.osexp","/Users/katherinehays/Desktop/PSYC 5316 - R and OpenSesame/Lab 3","no","mono","no","18","no","white","no","no","768","legacy","50","11","/Users/katherinehays/Desktop/PSYC 5316 - R and OpenSesame/Lab 3/KH-subject-4.csv","legacy","7","Lentiform Loewenfeld","3.3.12","1","y","0","left","right","left","left","NA","778","14677","4268","778","NA","2","legacy","1","1024","2","48000","-16","experiment","4","even","7","415154","411836","412916","1865","97535","412921","290672","1990","93266","417165","417943","413931","16721","417164","NA","Sternberg task","61","62871","63","yes","1024"
"96.875","96.875","993.359375","993.359375","black","experiment","legacy","legacy","legacy","0","uniform","1","undefined","1","right","63","63","63","0","0","63","63","0","0","63","63","63","0","63","0","Sat Oct 22 17:54:39 2022","The main experiment item","yes","Sternbergtask.osexp","/Users/katherinehays/Desktop/PSYC 5316 - R and OpenSesame/Lab 3","no","mono","no","18","no","white","no","no","768","legacy","51","11","/Users/katherinehays/Desktop/PSYC 5316 - R and OpenSesame/Lab 3/KH-subject-4.csv","legacy","1 8 7","Lentiform Loewenfeld","3.3.12","0","n","0","right","right","left","right","NA","704","14677","4268","704","NA","2","legacy","3","1024","2","48000","-16","experiment","4","even","4","421247","417948","419023","1865","97535","419028","290672","1990","93266","423255","423960","420041","16721","423255","NA","Sternberg task","62","63575","64","yes","1024"
"96.92307692307692","96.92307692307692","992.0153846153846","992.0153846153846","black","experiment","legacy","legacy","legacy","0","uniform","1","undefined","1","right","64","64","64","0","0","64","64","0","0","64","64","64","0","64","0","Sat Oct 22 17:54:39 2022","The main experiment item","yes","Sternbergtask.osexp","/Users/katherinehays/Desktop/PSYC 5316 - R and OpenSesame/Lab 3","no","mono","no","18","no","white","no","no","768","legacy","52","11","/Users/katherinehays/Desktop/PSYC 5316 - R and OpenSesame/Lab 3/KH-subject-4.csv","legacy","6 9 7 3 8 2","Lentiform Loewenfeld","3.3.12","0","n","0","right","right","left","right","NA","906","14677","4268","906","NA","2","legacy","6","1024","2","48000","-16","experiment","4","even","5","427280","423965","425053","1865","97535","425058","290672","1990","93266","429290","430197","426069","16721","429290","NA","Sternberg task","63","64481","65","yes","1024"
"96.96969696969697","96.96969696969697","992.4242424242424","992.4242424242424","black","experiment","legacy","legacy","legacy","0","uniform","1","undefined","1","right","65","65","65","0","0","65","65","0","0","65","65","65","0","65","0","Sat Oct 22 17:54:39 2022","The main experiment item","yes","Sternbergtask.osexp","/Users/katherinehays/Desktop/PSYC 5316 - R and OpenSesame/Lab 3","no","mono","no","18","no","white","no","no","768","legacy","53","11","/Users/katherinehays/Desktop/PSYC 5316 - R and OpenSesame/Lab 3/KH-subject-4.csv","legacy","4 8 1 2","Lentiform Loewenfeld","3.3.12","0","n","0","right","right","left","right","NA","1019","14677","4268","1019","NA","2","legacy","4","1024","2","48000","-16","experiment","4","even","7","433465","430201","431254","1865","97535","431258","290672","1990","93266","435475","436495","432261","16721","435475","NA","Sternberg task","64","65500","66","yes","1024"
"97.01492537313433","97.01492537313433","997.1940298507462","997.1940298507462","black","experiment","legacy","legacy","legacy","0","uniform","1","undefined","1","left","66","66","66","0","0","66","66","0","0","66","66","66","0","66","0","Sat Oct 22 17:54:39 2022","The main experiment item","yes","Sternbergtask.osexp","/Users/katherinehays/Desktop/PSYC 5316 - R and OpenSesame/Lab 3","no","mono","no","18","no","white","no","no","768","legacy","54","11","/Users/katherinehays/Desktop/PSYC 5316 - R and OpenSesame/Lab 3/KH-subject-4.csv","legacy","9 3 8 2 1 4","Lentiform Loewenfeld","3.3.12","3","y","0","left","right","left","left","NA","1312","14677","4268","1312","NA","2","legacy","6","1024","2","48000","-16","experiment","4","even","8","439806","436499","437577","1865","97535","437581","290672","1990","93266","441812","443125","438592","16721","441812","NA","Sternberg task","65","66812","67","yes","1024"
"97.05882352941177","97.05882352941177","996.3382352941177","996.3382352941177","black","experiment","legacy","legacy","legacy","0","uniform","1","undefined","1","left","67","67","67","0","0","67","67","0","0","67","67","67","0","67","0","Sat Oct 22 17:54:39 2022","The main experiment item","yes","Sternbergtask.osexp","/Users/katherinehays/Desktop/PSYC 5316 - R and OpenSesame/Lab 3","no","mono","no","18","no","white","no","no","768","legacy","55","11","/Users/katherinehays/Desktop/PSYC 5316 - R and OpenSesame/Lab 3/KH-subject-4.csv","legacy","2 6 1 7 4","Lentiform Loewenfeld","3.3.12","2","y","0","left","right","left","left","NA","939","14677","4268","939","NA","2","legacy","5","1024","2","48000","-16","experiment","4","even","6","446443","443132","444214","1865","97535","444219","290672","1990","93266","448452","449392","445230","16721","448452","NA","Sternberg task","66","67751","68","yes","1024"
"97.10144927536231","97.10144927536231","994.1739130434783","994.1739130434783","black","experiment","legacy","legacy","legacy","0","uniform","1","undefined","1","right","68","68","68","0","0","68","68","0","0","68","68","68","0","68","0","Sat Oct 22 17:54:39 2022","The main experiment item","yes","Sternbergtask.osexp","/Users/katherinehays/Desktop/PSYC 5316 - R and OpenSesame/Lab 3","no","mono","no","18","no","white","no","no","768","legacy","56","11","/Users/katherinehays/Desktop/PSYC 5316 - R and OpenSesame/Lab 3/KH-subject-4.csv","legacy","1 7 8 3 9","Lentiform Loewenfeld","3.3.12","0","n","0","right","right","left","right","NA","847","14677","4268","847","NA","2","legacy","5","1024","2","48000","-16","experiment","4","even","2","452664","449396","450452","1865","97535","450455","290672","1990","93266","454675","455523","451459","16721","454675","NA","Sternberg task","67","68598","69","yes","1024"
"97.14285714285714","97.14285714285714","989.6","989.6","black","experiment","legacy","legacy","legacy","0","uniform","1","undefined","1","left","69","69","69","0","0","69","69","0","0","69","69","69","0","69","0","Sat Oct 22 17:54:39 2022","The main experiment item","yes","Sternbergtask.osexp","/Users/katherinehays/Desktop/PSYC 5316 - R and OpenSesame/Lab 3","no","mono","no","18","no","white","no","no","768","legacy","57","11","/Users/katherinehays/Desktop/PSYC 5316 - R and OpenSesame/Lab 3/KH-subject-4.csv","legacy","3 5 4 7","Lentiform Loewenfeld","3.3.12","1","y","0","left","right","left","left","NA","674","14677","4268","674","NA","2","legacy","4","1024","2","48000","-16","experiment","4","even","3","458808","455527","456590","1865","97535","456594","290672","1990","93266","460814","461489","457599","16721","460814","NA","Sternberg task","68","69272","70","yes","1024"
"97.1830985915493","97.1830985915493","990.6901408450705","990.6901408450705","black","experiment","legacy","legacy","legacy","0","uniform","1","undefined","1","left","70","70","70","0","0","70","70","0","0","70","70","70","0","70","0","Sat Oct 22 17:54:39 2022","The main experiment item","yes","Sternbergtask.osexp","/Users/katherinehays/Desktop/PSYC 5316 - R and OpenSesame/Lab 3","no","mono","no","18","no","white","no","no","768","legacy","58","11","/Users/katherinehays/Desktop/PSYC 5316 - R and OpenSesame/Lab 3/KH-subject-4.csv","legacy","6 7 8 5","Lentiform Loewenfeld","3.3.12","3","y","0","left","right","left","left","NA","1067","14677","4268","1067","NA","2","legacy","4","1024","2","48000","-16","experiment","4","even","8","464755","461493","462543","1865","97535","462546","290672","1990","93266","466764","467832","463550","16721","466764","NA","Sternberg task","69","70339","71","yes","1024"
"97.22222222222223","97.22222222222223","987.3888888888889","987.3888888888889","black","experiment","legacy","legacy","legacy","0","uniform","1","undefined","1","right","71","71","71","0","0","71","71","0","0","71","71","71","0","71","0","Sat Oct 22 17:54:39 2022","The main experiment item","yes","Sternbergtask.osexp","/Users/katherinehays/Desktop/PSYC 5316 - R and OpenSesame/Lab 3","no","mono","no","18","no","white","no","no","768","legacy","59","11","/Users/katherinehays/Desktop/PSYC 5316 - R and OpenSesame/Lab 3/KH-subject-4.csv","legacy","3 9 1","Lentiform Loewenfeld","3.3.12","0","n","0","right","right","left","right","NA","753","14677","4268","753","NA","2","legacy","3","1024","2","48000","-16","experiment","4","even","7","471130","467836","468903","1865","97535","468907","290672","1990","93266","473136","473889","469917","16721","473136","NA","Sternberg task","70","71092","72","yes","1024"
"97.26027397260275","97.26027397260275","985.5753424657535","985.5753424657535","black","experiment","legacy","legacy","legacy","0","uniform","1","undefined","1","left","72","72","72","0","0","72","72","0","0","72","72","72","0","72","0","Sat Oct 22 17:54:39 2022","The main experiment item","yes","Sternbergtask.osexp","/Users/katherinehays/Desktop/PSYC 5316 - R and OpenSesame/Lab 3","no","mono","no","18","no","white","no","no","768","legacy","60","11","/Users/katherinehays/Desktop/PSYC 5316 - R and OpenSesame/Lab 3/KH-subject-4.csv","legacy","5 2 6","Lentiform Loewenfeld","3.3.12","2","y","0","left","right","left","left","NA","855","14677","4268","855","NA","2","legacy","3","1024","2","48000","-16","experiment","4","even","2","477197","473894","474970","1865","97535","474974","290672","1990","93266","479205","480060","475984","16721","479205","NA","Sternberg task","71","71947","73","yes","1024"
"97.29729729729729","97.29729729729729","982.2432432432432","982.2432432432432","black","experiment","legacy","legacy","legacy","0","uniform","1","undefined","1","right","73","73","73","0","0","73","73","0","0","73","73","73","0","73","0","Sat Oct 22 17:54:39 2022","The main experiment item","yes","Sternbergtask.osexp","/Users/katherinehays/Desktop/PSYC 5316 - R and OpenSesame/Lab 3","no","mono","no","18","no","white","no","no","768","legacy","61","11","/Users/katherinehays/Desktop/PSYC 5316 - R and OpenSesame/Lab 3/KH-subject-4.csv","legacy","8 4 3 9","Lentiform Loewenfeld","3.3.12","0","n","0","right","right","left","right","NA","739","14677","4268","739","NA","2","legacy","4","1024","2","48000","-16","experiment","4","even","5","483391","480068","481161","1865","97535","481166","290672","1990","93266","485400","486140","482179","16721","485400","NA","Sternberg task","72","72686","74","yes","1024"
"97.33333333333333","97.33333333333333","980.44","980.44","black","experiment","legacy","legacy","legacy","0","uniform","1","undefined","1","right","74","74","74","0","0","74","74","0","0","74","74","74","0","74","0","Sat Oct 22 17:54:39 2022","The main experiment item","yes","Sternbergtask.osexp","/Users/katherinehays/Desktop/PSYC 5316 - R and OpenSesame/Lab 3","no","mono","no","18","no","white","no","no","768","legacy","62","11","/Users/katherinehays/Desktop/PSYC 5316 - R and OpenSesame/Lab 3/KH-subject-4.csv","legacy","2 8 9 4 1","Lentiform Loewenfeld","3.3.12","0","n","0","right","right","left","right","NA","847","14677","4268","847","NA","2","legacy","5","1024","2","48000","-16","experiment","4","even","5","489465","486147","487236","1865","97535","487240","290672","1990","93266","491479","492327","488252","16721","491479","NA","Sternberg task","73","73533","75","yes","1024"
"97.36842105263158","97.36842105263158","977.5921052631579","977.5921052631579","black","experiment","legacy","legacy","legacy","0","uniform","1","undefined","1","left","75","75","75","0","0","75","75","0","0","75","75","75","0","75","0","Sat Oct 22 17:54:39 2022","The main experiment item","yes","Sternbergtask.osexp","/Users/katherinehays/Desktop/PSYC 5316 - R and OpenSesame/Lab 3","no","mono","no","18","no","white","no","no","768","legacy","63","11","/Users/katherinehays/Desktop/PSYC 5316 - R and OpenSesame/Lab 3/KH-subject-4.csv","legacy","9 1 6 7 8","Lentiform Loewenfeld","3.3.12","1","y","0","left","right","left","left","NA","764","14677","4268","764","NA","2","legacy","5","1024","2","48000","-16","experiment","4","even","9","495604","492331","493392","1865","97535","493395","290672","1990","93266","497613","498378","494401","16721","497613","NA","Sternberg task","74","74297","76","yes","1024"
"97.40259740259741","97.40259740259741","980.3766233766233","980.3766233766233","black","experiment","legacy","legacy","legacy","0","uniform","1","undefined","1","left","76","76","76","0","0","76","76","0","0","76","76","76","0","76","0","Sat Oct 22 17:54:39 2022","The main experiment item","yes","Sternbergtask.osexp","/Users/katherinehays/Desktop/PSYC 5316 - R and OpenSesame/Lab 3","no","mono","no","18","no","white","no","no","768","legacy","64","11","/Users/katherinehays/Desktop/PSYC 5316 - R and OpenSesame/Lab 3/KH-subject-4.csv","legacy","8 9 5 7 1 6","Lentiform Loewenfeld","3.3.12","4","y","0","left","right","left","left","NA","1192","14677","4268","1192","NA","2","legacy","6","1024","2","48000","-16","experiment","4","even","7","501643","498382","499432","1865","97535","499435","290672","1990","93266","503654","504847","500438","16721","503654","NA","Sternberg task","75","75489","77","yes","1024"
"97.43589743589743","97.43589743589743","978.474358974359","978.474358974359","black","experiment","legacy","legacy","legacy","0","uniform","1","undefined","1","left","77","77","77","0","0","77","77","0","0","77","77","77","0","77","0","Sat Oct 22 17:54:39 2022","The main experiment item","yes","Sternbergtask.osexp","/Users/katherinehays/Desktop/PSYC 5316 - R and OpenSesame/Lab 3","no","mono","no","18","no","white","no","no","768","legacy","65","11","/Users/katherinehays/Desktop/PSYC 5316 - R and OpenSesame/Lab 3/KH-subject-4.csv","legacy","6 1 2","Lentiform Loewenfeld","3.3.12","3","y","0","left","right","left","left","NA","832","14677","4268","832","NA","2","legacy","3","1024","2","48000","-16","experiment","4","even","2","508152","504852","505923","1865","97535","505926","290672","1990","93266","510160","510993","506937","16721","510160","NA","Sternberg task","76","76321","78","yes","1024"
"97.46835443037975","97.46835443037975","976.0379746835443","976.0379746835443","black","experiment","legacy","legacy","legacy","0","uniform","1","undefined","1","right","78","78","78","0","0","78","78","0","0","78","78","78","0","78","0","Sat Oct 22 17:54:39 2022","The main experiment item","yes","Sternbergtask.osexp","/Users/katherinehays/Desktop/PSYC 5316 - R and OpenSesame/Lab 3","no","mono","no","18","no","white","no","no","768","legacy","66","11","/Users/katherinehays/Desktop/PSYC 5316 - R and OpenSesame/Lab 3/KH-subject-4.csv","legacy","4 2 7 6 1 3","Lentiform Loewenfeld","3.3.12","0","n","0","right","right","left","right","NA","786","14677","4268","786","NA","2","legacy","6","1024","2","48000","-16","experiment","4","even","8","514317","510999","512092","1865","97535","512096","290672","1990","93266","516326","517113","513107","16721","516326","NA","Sternberg task","77","77107","79","yes","1024"
"97.5","97.5","972.6","972.6","black","experiment","legacy","legacy","legacy","0","uniform","1","undefined","1","left","79","79","79","0","0","79","79","0","0","79","79","79","0","79","0","Sat Oct 22 17:54:39 2022","The main experiment item","yes","Sternbergtask.osexp","/Users/katherinehays/Desktop/PSYC 5316 - R and OpenSesame/Lab 3","no","mono","no","18","no","white","no","no","768","legacy","67","11","/Users/katherinehays/Desktop/PSYC 5316 - R and OpenSesame/Lab 3/KH-subject-4.csv","legacy","8","Lentiform Loewenfeld","3.3.12","1","y","0","left","right","left","left","NA","701","14677","4268","701","NA","2","legacy","1","1024","2","48000","-16","experiment","4","even","8","520417","517122","518191","1865","97535","518197","290672","1990","93266","522425","523126","519211","16721","522424","NA","Sternberg task","78","77808","80","yes","1024"
"97.53086419753086","97.53086419753086","970.5308641975308","970.5308641975308","black","experiment","legacy","legacy","legacy","0","uniform","1","undefined","1","right","80","80","80","0","0","80","80","0","0","80","80","80","0","80","0","Sat Oct 22 17:54:39 2022","The main experiment item","yes","Sternbergtask.osexp","/Users/katherinehays/Desktop/PSYC 5316 - R and OpenSesame/Lab 3","no","mono","no","18","no","white","no","no","768","legacy","68","11","/Users/katherinehays/Desktop/PSYC 5316 - R and OpenSesame/Lab 3/KH-subject-4.csv","legacy","7 9","Lentiform Loewenfeld","3.3.12","0","n","0","right","right","left","right","NA","805","14677","4268","805","NA","2","legacy","2","1024","2","48000","-16","experiment","4","even","1","526426","523138","524205","1865","97535","524210","290672","1990","93266","528435","529241","525220","16721","528435","NA","Sternberg task","79","78613","81","yes","1024"
"97.5609756097561","97.5609756097561","972.1463414634146","972.1463414634146","black","experiment","legacy","legacy","legacy","0","uniform","1","undefined","1","right","81","81","81","0","0","81","81","0","0","81","81","81","0","81","0","Sat Oct 22 17:54:39 2022","The main experiment item","yes","Sternbergtask.osexp","/Users/katherinehays/Desktop/PSYC 5316 - R and OpenSesame/Lab 3","no","mono","no","18","no","white","no","no","768","legacy","69","11","/Users/katherinehays/Desktop/PSYC 5316 - R and OpenSesame/Lab 3/KH-subject-4.csv","legacy","1 5 3 2 8","Lentiform Loewenfeld","3.3.12","0","n","0","right","right","left","right","NA","1103","14677","4268","1103","NA","2","legacy","5","1024","2","48000","-16","experiment","4","even","4","532507","529244","530296","1865","97535","530300","290672","1990","93266","534515","535619","531304","16721","534515","NA","Sternberg task","80","79716","82","yes","1024"
"97.59036144578313","97.59036144578313","968.4578313253012","968.4578313253012","black","experiment","legacy","legacy","legacy","0","uniform","1","undefined","1","left","82","82","82","0","0","82","82","0","0","82","82","82","0","82","0","Sat Oct 22 17:54:39 2022","The main experiment item","yes","Sternbergtask.osexp","/Users/katherinehays/Desktop/PSYC 5316 - R and OpenSesame/Lab 3","no","mono","no","18","no","white","no","no","768","legacy","70","11","/Users/katherinehays/Desktop/PSYC 5316 - R and OpenSesame/Lab 3/KH-subject-4.csv","legacy","3 4","Lentiform Loewenfeld","3.3.12","1","y","0","left","right","left","left","NA","666","14677","4268","666","NA","2","legacy","2","1024","2","48000","-16","experiment","4","even","3","538937","535624","536709","1865","97535","536713","290672","1990","93266","540943","541610","537723","16721","540943","NA","Sternberg task","81","80382","83","yes","1024"
"97.61904761904762","97.61904761904762","972.452380952381","972.452380952381","black","experiment","legacy","legacy","legacy","0","uniform","1","undefined","1","left","83","83","83","0","0","83","83","0","0","83","83","83","0","83","0","Sat Oct 22 17:54:39 2022","The main experiment item","yes","Sternbergtask.osexp","/Users/katherinehays/Desktop/PSYC 5316 - R and OpenSesame/Lab 3","no","mono","no","18","no","white","no","no","768","legacy","71","11","/Users/katherinehays/Desktop/PSYC 5316 - R and OpenSesame/Lab 3/KH-subject-4.csv","legacy","7 8 6 3 1","Lentiform Loewenfeld","3.3.12","5","y","0","left","right","left","left","NA","1304","14677","4268","1304","NA","2","legacy","5","1024","2","48000","-16","experiment","4","even","1","544924","541614","542691","1865","97535","542695","290672","1990","93266","546933","548238","543711","16721","546933","NA","Sternberg task","82","81686","84","yes","1024"
"97.6470588235294","97.6470588235294","971.4588235294118","971.4588235294118","black","experiment","legacy","legacy","legacy","0","uniform","1","undefined","1","left","84","84","84","0","0","84","84","0","0","84","84","84","0","84","0","Sat Oct 22 17:54:39 2022","The main experiment item","yes","Sternbergtask.osexp","/Users/katherinehays/Desktop/PSYC 5316 - R and OpenSesame/Lab 3","no","mono","no","18","no","white","no","no","768","legacy","72","11","/Users/katherinehays/Desktop/PSYC 5316 - R and OpenSesame/Lab 3/KH-subject-4.csv","legacy","4 1 8 7 5","Lentiform Loewenfeld","3.3.12","3","y","0","left","right","left","left","NA","888","14677","4268","888","NA","2","legacy","5","1024","2","48000","-16","experiment","4","even","8","551541","548242","549318","1865","97535","549322","290672","1990","93266","553544","554433","550329","16721","553544","NA","Sternberg task","83","82574","85","yes","1024"
"97.67441860465117","97.67441860465117","970.8953488372093","970.8953488372093","black","experiment","legacy","legacy","legacy","0","uniform","1","undefined","1","right","85","85","85","0","0","85","85","0","0","85","85","85","0","85","0","Sat Oct 22 17:54:39 2022","The main experiment item","yes","Sternbergtask.osexp","/Users/katherinehays/Desktop/PSYC 5316 - R and OpenSesame/Lab 3","no","mono","no","18","no","white","no","no","768","legacy","73","11","/Users/katherinehays/Desktop/PSYC 5316 - R and OpenSesame/Lab 3/KH-subject-4.csv","legacy","5 7 3","Lentiform Loewenfeld","3.3.12","0","n","0","right","right","left","right","NA","923","14677","4268","923","NA","2","legacy","3","1024","2","48000","-16","experiment","4","even","9","557733","554437","555506","1865","97535","555510","290672","1990","93266","559743","560667","556521","16721","559743","NA","Sternberg task","84","83497","86","yes","1024"
"97.70114942528735","97.70114942528735","968.2873563218391","968.2873563218391","black","experiment","legacy","legacy","legacy","0","uniform","1","undefined","1","left","86","86","86","0","0","86","86","0","0","86","86","86","0","86","0","Sat Oct 22 17:54:39 2022","The main experiment item","yes","Sternbergtask.osexp","/Users/katherinehays/Desktop/PSYC 5316 - R and OpenSesame/Lab 3","no","mono","no","18","no","white","no","no","768","legacy","74","11","/Users/katherinehays/Desktop/PSYC 5316 - R and OpenSesame/Lab 3/KH-subject-4.csv","legacy","2 8 5 1","Lentiform Loewenfeld","3.3.12","4","y","0","left","right","left","left","NA","744","14677","4268","744","NA","2","legacy","4","1024","2","48000","-16","experiment","4","even","1","563988","560674","561764","1865","97535","561769","290672","1990","93266","565998","566743","562780","16721","565997","NA","Sternberg task","85","84241","87","yes","1024"
"97.72727272727273","97.72727272727273","965.9090909090909","965.9090909090909","black","experiment","legacy","legacy","legacy","0","uniform","1","undefined","1","right","87","87","87","0","0","87","87","0","0","87","87","87","0","87","0","Sat Oct 22 17:54:39 2022","The main experiment item","yes","Sternbergtask.osexp","/Users/katherinehays/Desktop/PSYC 5316 - R and OpenSesame/Lab 3","no","mono","no","18","no","white","no","no","768","legacy","75","11","/Users/katherinehays/Desktop/PSYC 5316 - R and OpenSesame/Lab 3/KH-subject-4.csv","legacy","5","Lentiform Loewenfeld","3.3.12","0","n","0","right","right","left","right","NA","759","14677","4268","759","NA","2","legacy","1","1024","2","48000","-16","experiment","4","even","8","570051","566754","567828","1865","97535","567833","290672","1990","93266","572060","572820","568843","16721","572060","NA","Sternberg task","86","85000","88","yes","1024"
"97.75280898876404","97.75280898876404","969.8314606741573","969.8314606741573","black","experiment","legacy","legacy","legacy","0","uniform","1","undefined","1","right","88","88","88","0","0","88","88","0","0","88","88","88","0","88","0","Sat Oct 22 17:54:39 2022","The main experiment item","yes","Sternbergtask.osexp","/Users/katherinehays/Desktop/PSYC 5316 - R and OpenSesame/Lab 3","no","mono","no","18","no","white","no","no","768","legacy","76","11","/Users/katherinehays/Desktop/PSYC 5316 - R and OpenSesame/Lab 3/KH-subject-4.csv","legacy","9 8 2 7 4","Lentiform Loewenfeld","3.3.12","0","n","0","right","right","left","right","NA","1315","14677","4268","1315","NA","2","legacy","5","1024","2","48000","-16","experiment","4","even","5","576115","572827","573893","1865","97535","573899","290672","1990","93266","578124","579440","574909","16721","578124","NA","Sternberg task","87","86315","89","yes","1024"
"97.77777777777777","97.77777777777777","968.1666666666666","968.1666666666666","black","experiment","legacy","legacy","legacy","0","uniform","1","undefined","1","left","89","89","89","0","0","89","89","0","0","89","89","89","0","89","0","Sat Oct 22 17:54:39 2022","The main experiment item","yes","Sternbergtask.osexp","/Users/katherinehays/Desktop/PSYC 5316 - R and OpenSesame/Lab 3","no","mono","no","18","no","white","no","no","768","legacy","77","11","/Users/katherinehays/Desktop/PSYC 5316 - R and OpenSesame/Lab 3/KH-subject-4.csv","legacy","9 8 4","Lentiform Loewenfeld","3.3.12","1","y","0","left","right","left","left","NA","820","14677","4268","820","NA","2","legacy","3","1024","2","48000","-16","experiment","4","even","9","582757","579445","580531","1865","97535","580535","290672","1990","93266","584767","585587","581545","16721","584767","NA","Sternberg task","88","87135","90","yes","1024"
"97.8021978021978","97.8021978021978","978.2197802197802","978.2197802197802","black","experiment","legacy","legacy","legacy","0","uniform","1","undefined","1","left","90","90","90","0","0","90","90","0","0","90","90","90","0","90","0","Sat Oct 22 17:54:39 2022","The main experiment item","yes","Sternbergtask.osexp","/Users/katherinehays/Desktop/PSYC 5316 - R and OpenSesame/Lab 3","no","mono","no","18","no","white","no","no","768","legacy","78","11","/Users/katherinehays/Desktop/PSYC 5316 - R and OpenSesame/Lab 3/KH-subject-4.csv","legacy","5 2 9 6 1 7","Lentiform Loewenfeld","3.3.12","3","y","0","left","right","left","left","NA","1883","14677","4268","1883","NA","2","legacy","6","1024","2","48000","-16","experiment","4","even","9","588904","585593","586669","1865","97535","586674","290672","1990","93266","590913","592797","587690","16721","590913","NA","Sternberg task","89","89018","91","yes","1024"
"97.82608695652173","97.82608695652173","981.2391304347826","981.2391304347826","black","experiment","legacy","legacy","legacy","0","uniform","1","undefined","1","right","91","91","91","0","0","91","91","0","0","91","91","91","0","91","0","Sat Oct 22 17:54:39 2022","The main experiment item","yes","Sternbergtask.osexp","/Users/katherinehays/Desktop/PSYC 5316 - R and OpenSesame/Lab 3","no","mono","no","18","no","white","no","no","768","legacy","79","11","/Users/katherinehays/Desktop/PSYC 5316 - R and OpenSesame/Lab 3/KH-subject-4.csv","legacy","1 3 2 6 9","Lentiform Loewenfeld","3.3.12","0","n","0","right","right","left","right","NA","1256","14677","4268","1256","NA","2","legacy","5","1024","2","48000","-16","experiment","4","even","5","596126","592802","593895","1865","97535","593899","290672","1990","93266","598135","599392","594912","16721","598135","NA","Sternberg task","90","90274","92","yes","1024"
"97.84946236559139","97.84946236559139","978.0645161290323","978.0645161290323","black","experiment","legacy","legacy","legacy","0","uniform","1","undefined","1","left","92","92","92","0","0","92","92","0","0","92","92","92","0","92","0","Sat Oct 22 17:54:39 2022","The main experiment item","yes","Sternbergtask.osexp","/Users/katherinehays/Desktop/PSYC 5316 - R and OpenSesame/Lab 3","no","mono","no","18","no","white","no","no","768","legacy","80","11","/Users/katherinehays/Desktop/PSYC 5316 - R and OpenSesame/Lab 3/KH-subject-4.csv","legacy","4","Lentiform Loewenfeld","3.3.12","1","y","0","left","right","left","left","NA","686","14677","4268","686","NA","2","legacy","1","1024","2","48000","-16","experiment","4","even","4","602708","599396","600481","1865","97535","600485","290672","1990","93266","604717","605404","601495","16721","604717","NA","Sternberg task","91","90960","93","yes","1024"
"97.87234042553192","97.87234042553192","978.4148936170212","978.4148936170212","black","experiment","legacy","legacy","legacy","0","uniform","1","undefined","1","left","93","93","93","0","0","93","93","0","0","93","93","93","0","93","0","Sat Oct 22 17:54:39 2022","The main experiment item","yes","Sternbergtask.osexp","/Users/katherinehays/Desktop/PSYC 5316 - R and OpenSesame/Lab 3","no","mono","no","18","no","white","no","no","768","legacy","81","11","/Users/katherinehays/Desktop/PSYC 5316 - R and OpenSesame/Lab 3/KH-subject-4.csv","legacy","7 2 3","Lentiform Loewenfeld","3.3.12","3","y","0","left","right","left","left","NA","1011","14677","4268","1011","NA","2","legacy","3","1024","2","48000","-16","experiment","4","even","3","608715","605408","606488","1865","97535","606492","290672","1990","93266","610726","611739","607503","16721","610726","NA","Sternberg task","92","91971","94","yes","1024"
"97.89473684210526","97.89473684210526","976.2105263157895","976.2105263157895","black","experiment","legacy","legacy","legacy","0","uniform","1","undefined","1","left","94","94","94","0","0","94","94","0","0","94","94","94","0","94","0","Sat Oct 22 17:54:39 2022","The main experiment item","yes","Sternbergtask.osexp","/Users/katherinehays/Desktop/PSYC 5316 - R and OpenSesame/Lab 3","no","mono","no","18","no","white","no","no","768","legacy","82","11","/Users/katherinehays/Desktop/PSYC 5316 - R and OpenSesame/Lab 3/KH-subject-4.csv","legacy","6 9 3 1","Lentiform Loewenfeld","3.3.12","4","y","0","left","right","left","left","NA","769","14677","4268","769","NA","2","legacy","4","1024","2","48000","-16","experiment","4","even","1","615075","611755","612855","1865","97535","612859","290672","1990","93266","617083","617853","613869","16721","617082","NA","Sternberg task","93","92740","95","yes","1024"
"96.875","96.875","986.875","986.875","black","experiment","legacy","legacy","legacy","0","uniform","0","undefined","0","left","95","95","95","0","0","95","95","0","0","95","95","95","0","95","0","Sat Oct 22 17:54:39 2022","The main experiment item","yes","Sternbergtask.osexp","/Users/katherinehays/Desktop/PSYC 5316 - R and OpenSesame/Lab 3","no","mono","no","18","no","white","no","no","768","legacy","83","11","/Users/katherinehays/Desktop/PSYC 5316 - R and OpenSesame/Lab 3/KH-subject-4.csv","legacy","2 3 7 4","Lentiform Loewenfeld","3.3.12","1","y","0","None","right","left","None","NA","2000","14677","4268","2000","NA","2","legacy","4","1024","2","48000","-16","experiment","4","even","2","621168","617864","618946","1865","97535","618950","290672","1990","93266","623175","625175","619960","16721","623175","NA","Sternberg task","93","94740","96","yes","1024"
"96.90721649484536","96.90721649484536","987.1030927835052","987.1030927835052","black","experiment","legacy","legacy","legacy","0","uniform","1","undefined","1","right","96","96","96","0","0","96","96","0","0","96","96","96","0","96","0","Sat Oct 22 17:54:39 2022","The main experiment item","yes","Sternbergtask.osexp","/Users/katherinehays/Desktop/PSYC 5316 - R and OpenSesame/Lab 3","no","mono","no","18","no","white","no","no","768","legacy","84","11","/Users/katherinehays/Desktop/PSYC 5316 - R and OpenSesame/Lab 3/KH-subject-4.csv","legacy","2 8 9","Lentiform Loewenfeld","3.3.12","0","n","0","right","right","left","right","NA","1009","14677","4268","1009","NA","2","legacy","3","1024","2","48000","-16","experiment","4","even","6","628500","617864","626269","1865","97535","626275","625180","1990","93266","630510","631520","627286","16721","630510","NA","Sternberg task","94","95749","97","yes","1024"
"96.93877551020408","96.93877551020408","987.734693877551","987.734693877551","black","experiment","legacy","legacy","legacy","0","uniform","1","undefined","1","right","97","97","97","0","0","97","97","0","0","97","97","97","0","97","0","Sat Oct 22 17:54:39 2022","The main experiment item","yes","Sternbergtask.osexp","/Users/katherinehays/Desktop/PSYC 5316 - R and OpenSesame/Lab 3","no","mono","no","18","no","white","no","no","768","legacy","85","11","/Users/katherinehays/Desktop/PSYC 5316 - R and OpenSesame/Lab 3/KH-subject-4.csv","legacy","3 4 2","Lentiform Loewenfeld","3.3.12","0","n","0","right","right","left","right","NA","1049","14677","4268","1049","NA","2","legacy","3","1024","2","48000","-16","experiment","4","even","5","634810","631524","632592","1865","97535","632596","625180","1990","93266","636815","637865","633601","16721","636815","NA","Sternberg task","95","96798","98","yes","1024"
"96.96969696969697","96.96969696969697","991.3939393939394","991.3939393939394","black","experiment","legacy","legacy","legacy","0","uniform","1","undefined","1","left","98","98","98","0","0","98","98","0","0","98","98","98","0","98","0","Sat Oct 22 17:54:39 2022","The main experiment item","yes","Sternbergtask.osexp","/Users/katherinehays/Desktop/PSYC 5316 - R and OpenSesame/Lab 3","no","mono","no","18","no","white","no","no","768","legacy","86","11","/Users/katherinehays/Desktop/PSYC 5316 - R and OpenSesame/Lab 3/KH-subject-4.csv","legacy","3 2 1 4 7","Lentiform Loewenfeld","3.3.12","2","y","0","left","right","left","left","NA","1350","14677","4268","1350","NA","2","legacy","5","1024","2","48000","-16","experiment","4","even","2","641182","637869","638954","1865","97535","638958","625180","1990","93266","643191","644543","639969","16721","643191","NA","Sternberg task","96","98148","99","yes","1024"
"97","97","996.5","996.5","black","experiment","legacy","legacy","legacy","0","uniform","1","undefined","1","right","99","99","99","0","0","99","99","0","0","99","99","99","0","99","0","Sat Oct 22 17:54:39 2022","The main experiment item","yes","Sternbergtask.osexp","/Users/katherinehays/Desktop/PSYC 5316 - R and OpenSesame/Lab 3","no","mono","no","18","no","white","no","no","768","legacy","87","11","/Users/katherinehays/Desktop/PSYC 5316 - R and OpenSesame/Lab 3/KH-subject-4.csv","legacy","5 3 8 7 2 4","Lentiform Loewenfeld","3.3.12","0","n","0","right","right","left","right","NA","1502","14677","4268","1502","NA","2","legacy","6","1024","2","48000","-16","experiment","4","even","9","647842","644550","645621","1865","97535","645626","625180","1990","93266","649850","651353","646636","16721","649850","NA","Sternberg task","97","99650","100","yes","1024"
"97.02970297029702","97.02970297029702","998.6633663366337","998.6633663366337","black","experiment","legacy","legacy","legacy","0","uniform","1","undefined","1","right","100","100","100","0","0","100","100","0","0","100","100","100","0","100","0","Sat Oct 22 17:54:39 2022","The main experiment item","yes","Sternbergtask.osexp","/Users/katherinehays/Desktop/PSYC 5316 - R and OpenSesame/Lab 3","no","mono","no","18","no","white","no","no","768","legacy","88","11","/Users/katherinehays/Desktop/PSYC 5316 - R and OpenSesame/Lab 3/KH-subject-4.csv","legacy","6 9 4 5 2","Lentiform Loewenfeld","3.3.12","0","n","0","right","right","left","right","NA","1215","14677","4268","1215","NA","2","legacy","5","1024","2","48000","-16","experiment","4","even","1","654677","651357","652446","1865","97535","652450","625180","1990","93266","656686","657902","653460","16721","656686","NA","Sternberg task","98","100865","101","yes","1024"
"97.05882352941177","97.05882352941177","1001.6666666666666","1001.6666666666666","black","experiment","legacy","legacy","legacy","0","uniform","1","undefined","1","right","101","101","101","0","0","101","101","0","0","101","101","101","0","101","0","Sat Oct 22 17:54:39 2022","The main experiment item","yes","Sternbergtask.osexp","/Users/katherinehays/Desktop/PSYC 5316 - R and OpenSesame/Lab 3","no","mono","no","18","no","white","no","no","768","legacy","89","11","/Users/katherinehays/Desktop/PSYC 5316 - R and OpenSesame/Lab 3/KH-subject-4.csv","legacy","8 4 3 5","Lentiform Loewenfeld","3.3.12","0","n","0","right","right","left","right","NA","1305","14677","4268","1305","NA","2","legacy","4","1024","2","48000","-16","experiment","4","even","6","661168","657906","658955","1865","97535","658959","625180","1990","93266","663182","664488","659965","16721","663182","NA","Sternberg task","99","102170","102","yes","1024"
"97.0873786407767","97.0873786407767","1004.8155339805825","1004.8155339805825","black","experiment","legacy","legacy","legacy","0","uniform","1","undefined","1","left","102","102","102","0","0","102","102","0","0","102","102","102","0","102","0","Sat Oct 22 17:54:39 2022","The main experiment item","yes","Sternbergtask.osexp","/Users/katherinehays/Desktop/PSYC 5316 - R and OpenSesame/Lab 3","no","mono","no","18","no","white","no","no","768","legacy","90","11","/Users/katherinehays/Desktop/PSYC 5316 - R and OpenSesame/Lab 3/KH-subject-4.csv","legacy","4 7 6 8 2 3","Lentiform Loewenfeld","3.3.12","6","y","0","left","right","left","left","NA","1326","14677","4268","1326","NA","2","legacy","6","1024","2","48000","-16","experiment","4","even","3","667801","664492","665573","1865","97535","665577","625180","1990","93266","669810","671137","666588","16721","669810","NA","Sternberg task","100","103496","103","yes","1024"
"97.11538461538461","97.11538461538461","1012.2980769230769","1012.2980769230769","black","experiment","legacy","legacy","legacy","0","uniform","1","undefined","1","left","103","103","103","0","0","103","103","0","0","103","103","103","0","103","0","Sat Oct 22 17:54:39 2022","The main experiment item","yes","Sternbergtask.osexp","/Users/katherinehays/Desktop/PSYC 5316 - R and OpenSesame/Lab 3","no","mono","no","18","no","white","no","no","768","legacy","91","11","/Users/katherinehays/Desktop/PSYC 5316 - R and OpenSesame/Lab 3/KH-subject-4.csv","legacy","3 5 7 1","Lentiform Loewenfeld","3.3.12","3","y","0","left","right","left","left","NA","1783","14677","4268","1783","NA","2","legacy","4","1024","2","48000","-16","experiment","4","even","7","674407","671141","672197","1865","97535","672200","625180","1990","93266","676415","678198","673204","16721","676415","NA","Sternberg task","101","105279","104","yes","1024"
"97.14285714285714","97.14285714285714","1012.5428571428571","1012.5428571428571","black","experiment","legacy","legacy","legacy","0","uniform","1","undefined","1","right","104","104","104","0","0","104","104","0","0","104","104","104","0","104","0","Sat Oct 22 17:54:39 2022","The main experiment item","yes","Sternbergtask.osexp","/Users/katherinehays/Desktop/PSYC 5316 - R and OpenSesame/Lab 3","no","mono","no","18","no","white","no","no","768","legacy","92","11","/Users/katherinehays/Desktop/PSYC 5316 - R and OpenSesame/Lab 3/KH-subject-4.csv","legacy","7 1 5 6 3","Lentiform Loewenfeld","3.3.12","0","n","0","right","right","left","right","NA","1038","14677","4268","1038","NA","2","legacy","5","1024","2","48000","-16","experiment","4","even","8","681528","678205","679295","1865","97535","679300","625180","1990","93266","683538","684577","680312","16721","683537","NA","Sternberg task","102","106317","105","yes","1024"
"97.16981132075472","97.16981132075472","1012.2547169811321","1012.2547169811321","black","experiment","legacy","legacy","legacy","0","uniform","1","undefined","1","right","105","105","105","0","0","105","105","0","0","105","105","105","0","105","0","Sat Oct 22 17:54:39 2022","The main experiment item","yes","Sternbergtask.osexp","/Users/katherinehays/Desktop/PSYC 5316 - R and OpenSesame/Lab 3","no","mono","no","18","no","white","no","no","768","legacy","93","11","/Users/katherinehays/Desktop/PSYC 5316 - R and OpenSesame/Lab 3/KH-subject-4.csv","legacy","7 1 8 4 9 3","Lentiform Loewenfeld","3.3.12","0","n","0","right","right","left","right","NA","982","14677","4268","982","NA","2","legacy","6","1024","2","48000","-16","experiment","4","even","6","687874","684581","685654","1865","97535","685657","625180","1990","93266","689880","690863","686663","16721","689879","NA","Sternberg task","103","107299","106","yes","1024"
"97.19626168224299","97.19626168224299","1017.9906542056075","1017.9906542056075","black","experiment","legacy","legacy","legacy","0","uniform","1","undefined","1","left","106","106","106","0","0","106","106","0","0","106","106","106","0","106","0","Sat Oct 22 17:54:39 2022","The main experiment item","yes","Sternbergtask.osexp","/Users/katherinehays/Desktop/PSYC 5316 - R and OpenSesame/Lab 3","no","mono","no","18","no","white","no","no","768","legacy","94","11","/Users/katherinehays/Desktop/PSYC 5316 - R and OpenSesame/Lab 3/KH-subject-4.csv","legacy","5 7 8 2 3 8","Lentiform Loewenfeld","3.3.12","5","y","0","left","right","left","left","NA","1626","14677","4268","1626","NA","2","legacy","6","1024","2","48000","-16","experiment","4","even","3","694161","690867","691931","1865","97535","691934","625180","1990","93266","696170","697797","692948","16721","696170","NA","Sternberg task","104","108925","107","yes","1024"
"97.22222222222223","97.22222222222223","1019.1944444444445","1019.1944444444445","black","experiment","legacy","legacy","legacy","0","uniform","1","undefined","1","left","107","107","107","0","0","107","107","0","0","107","107","107","0","107","0","Sat Oct 22 17:54:39 2022","The main experiment item","yes","Sternbergtask.osexp","/Users/katherinehays/Desktop/PSYC 5316 - R and OpenSesame/Lab 3","no","mono","no","18","no","white","no","no","768","legacy","95","11","/Users/katherinehays/Desktop/PSYC 5316 - R and OpenSesame/Lab 3/KH-subject-4.csv","legacy","9 5 8 1","Lentiform Loewenfeld","3.3.12","2","y","0","left","right","left","left","NA","1148","14677","4268","1148","NA","2","legacy","4","1024","2","48000","-16","experiment","4","even","5","701109","697802","698883","1865","97535","698887","625180","1990","93266","703113","704262","699897","16721","703113","NA","Sternberg task","105","110073","108","yes","1024"
"97.24770642201835","97.24770642201835","1016.4862385321101","1016.4862385321101","black","experiment","legacy","legacy","legacy","0","uniform","1","undefined","1","left","108","108","108","0","0","108","108","0","0","108","108","108","0","108","0","Sat Oct 22 17:54:39 2022","The main experiment item","yes","Sternbergtask.osexp","/Users/katherinehays/Desktop/PSYC 5316 - R and OpenSesame/Lab 3","no","mono","no","18","no","white","no","no","768","legacy","96","11","/Users/katherinehays/Desktop/PSYC 5316 - R and OpenSesame/Lab 3/KH-subject-4.csv","legacy","8 5 3 7 4 6","Lentiform Loewenfeld","3.3.12","6","y","0","left","right","left","left","NA","724","14677","4268","724","NA","2","legacy","6","1024","2","48000","-16","experiment","4","even","6","707585","704268","705359","1865","97535","705364","625180","1990","93266","709594","710319","706374","16721","709594","NA","Sternberg task","106","110797","109","yes","1024"
