"acc","accuracy","average_response_time","avg_rt","background","block","canvas_backend","clock_backend","color_backend","compensation","coordinates","correct","correct_instruction1","correct_keyboard_response","correct_response","count_ISI","count_correctFeedback","count_expSequence","count_experiment","count_experimentLoop","count_fixation","count_incorrectFeedback","count_instruction1","count_instructions2","count_keyboard_response","count_logger","count_memorySet","count_practiceLoop","count_probe","count_thankYou","datetime","description","disable_garbage_collection","experiment_file","experiment_path","font_bold","font_family","font_italic","font_size","font_underline","foreground","form_clicks","fullscreen","height","keyboard_backend","live_row","live_row_practiceLoop","logfile","mouse_backend","numberSet","opensesame_codename","opensesame_version","posInSet","present","repeat_cycle","response","response_instruction1","response_instructions2","response_keyboard_response","response_thankYou","response_time","response_time_instruction1","response_time_instructions2","response_time_keyboard_response","response_time_thankYou","round_decimals","sampler_backend","setSize","sound_buf_size","sound_channels","sound_freq","sound_sample_size","start","subject_nr","subject_parity","target","time_ISI","time_correctFeedback","time_expSequence","time_experiment","time_experimentLoop","time_fixation","time_incorrectFeedback","time_instruction1","time_instructions2","time_keyboard_response","time_logger","time_memorySet","time_practiceLoop","time_probe","time_thankYou","title","total_correct","total_response_time","total_responses","uniform_coordinates","width"
"0","0","956","956","black","practice","legacy","legacy","legacy","0","uniform","0","undefined","0","right","0","0","0","0","0","0","0","0","0","0","0","0","0","0","0","Sun Oct 16 18:27:26 2022","The main experiment item","yes","Sternbergtask.osexp","/Users/katherinehays/Desktop","no","mono","no","18","no","white","no","yes","768","legacy","0","0","/Users/katherinehays/Desktop/KH-subject-1.csv","legacy","9 6 7 4 5","Lentiform Loewenfeld","3.3.12","0","n","0","left","right","NA","left","NA","956","18851","NA","956","NA","2","legacy","5","1024","2","48000","-16","experiment","1","odd","3","23911","NA","21675","2551","NA","21681","NA","2633","NA","25924","26881","22695","21562","25924","NA","Sternberg task","0","956","1","yes","1024"
"0","0","779.5","779.5","black","practice","legacy","legacy","legacy","0","uniform","0","undefined","0","left","1","1","1","0","0","1","1","0","0","1","1","1","0","1","0","Sun Oct 16 18:27:26 2022","The main experiment item","yes","Sternbergtask.osexp","/Users/katherinehays/Desktop","no","mono","no","18","no","white","no","yes","768","legacy","1","1","/Users/katherinehays/Desktop/KH-subject-1.csv","legacy","2 9 4","Lentiform Loewenfeld","3.3.12","3","y","0","right","right","NA","right","NA","603","18851","NA","603","NA","2","legacy","3","1024","2","48000","-16","experiment","1","odd","4","30228","NA","27986","2551","NA","27991","26903","2633","NA","32238","32842","29006","21562","32237","NA","Sternberg task","0","1559","2","yes","1024"
"0","0","718.6666666666666","718.6666666666666","black","practice","legacy","legacy","legacy","0","uniform","0","undefined","0","right","2","2","2","0","0","2","2","0","0","2","2","2","0","2","0","Sun Oct 16 18:27:26 2022","The main experiment item","yes","Sternbergtask.osexp","/Users/katherinehays/Desktop","no","mono","no","18","no","white","no","yes","768","legacy","2","2","/Users/katherinehays/Desktop/KH-subject-1.csv","legacy","3 1 9 4","Lentiform Loewenfeld","3.3.12","0","n","0","left","right","NA","left","NA","597","18851","NA","597","NA","2","legacy","4","1024","2","48000","-16","experiment","1","odd","6","36158","NA","33918","2551","NA","33926","32847","2633","NA","38170","38768","34942","21562","38170","NA","Sternberg task","0","2156","3","yes","1024"
"25","25","891.25","891.25","black","practice","legacy","legacy","legacy","0","uniform","1","undefined","1","right","3","3","3","0","0","3","3","0","0","3","3","3","0","3","0","Sun Oct 16 18:27:26 2022","The main experiment item","yes","Sternbergtask.osexp","/Users/katherinehays/Desktop","no","mono","no","18","no","white","no","yes","768","legacy","3","3","/Users/katherinehays/Desktop/KH-subject-1.csv","legacy","4 1 5","Lentiform Loewenfeld","3.3.12","0","n","0","right","right","NA","right","NA","1409","18851","NA","1409","NA","2","legacy","3","1024","2","48000","-16","experiment","1","odd","2","42071","NA","39834","2551","NA","39841","38773","2633","NA","44086","45496","40854","21562","44085","NA","Sternberg task","1","3565","4","yes","1024"
"20","20","1113","1113","black","practice","legacy","legacy","legacy","0","uniform","0","undefined","0","right","4","4","4","0","0","4","4","0","0","4","4","4","0","4","0","Sun Oct 16 18:27:26 2022","The main experiment item","yes","Sternbergtask.osexp","/Users/katherinehays/Desktop","no","mono","no","18","no","white","no","yes","768","legacy","4","4","/Users/katherinehays/Desktop/KH-subject-1.csv","legacy","5","Lentiform Loewenfeld","3.3.12","0","n","0","None","right","NA","None","NA","2000","18851","NA","2000","NA","2","legacy","1","1024","2","48000","-16","experiment","1","odd","3","48802","45501","46561","2551","NA","46566","38773","2633","NA","50816","52816","47582","21562","50816","NA","Sternberg task","1","5565","5","yes","1024"
"33.333333333333336","33.333333333333336","1045.5","1045.5","black","practice","legacy","legacy","legacy","0","uniform","1","undefined","1","left","5","5","5","0","0","5","5","0","0","5","5","5","0","5","0","Sun Oct 16 18:27:26 2022","The main experiment item","yes","Sternbergtask.osexp","/Users/katherinehays/Desktop","no","mono","no","18","no","white","no","yes","768","legacy","5","5","/Users/katherinehays/Desktop/KH-subject-1.csv","legacy","4 8","Lentiform Loewenfeld","3.3.12","1","y","0","left","right","NA","left","NA","708","18851","NA","708","NA","2","legacy","2","1024","2","48000","-16","experiment","1","odd","4","56118","45501","53883","2551","NA","53888","52821","2633","NA","58129","58837","54903","21562","58129","NA","Sternberg task","2","6273","6","yes","1024"
"42.857142857142854","42.857142857142854","1064.857142857143","1064.857142857143","black","practice","legacy","legacy","legacy","0","uniform","1","undefined","1","left","6","6","6","0","0","6","6","0","0","6","6","6","0","6","0","Sun Oct 16 18:27:26 2022","The main experiment item","yes","Sternbergtask.osexp","/Users/katherinehays/Desktop","no","mono","no","18","no","white","no","yes","768","legacy","6","6","/Users/katherinehays/Desktop/KH-subject-1.csv","legacy","1 5 2 9","Lentiform Loewenfeld","3.3.12","2","y","0","left","right","NA","left","NA","1181","18851","NA","1181","NA","2","legacy","4","1024","2","48000","-16","experiment","1","odd","5","62139","58842","59899","2551","NA","59904","52821","2633","NA","64150","65340","60917","21562","64150","NA","Sternberg task","3","7454","7","yes","1024"
"50","50","1031.75","1031.75","black","practice","legacy","legacy","legacy","0","uniform","1","undefined","1","right","7","7","7","0","0","7","7","0","0","7","7","7","0","7","0","Sun Oct 16 18:27:26 2022","The main experiment item","yes","Sternbergtask.osexp","/Users/katherinehays/Desktop","no","mono","no","18","no","white","no","yes","768","legacy","7","7","/Users/katherinehays/Desktop/KH-subject-1.csv","legacy","2 1","Lentiform Loewenfeld","3.3.12","0","n","0","right","right","NA","right","NA","800","18851","NA","800","NA","2","legacy","2","1024","2","48000","-16","experiment","1","odd","5","68633","65344","66399","2551","NA","66404","52821","2633","NA","70645","71446","67418","21562","70645","NA","Sternberg task","4","8254","8","yes","1024"
"55.55555555555556","55.55555555555556","1026.4444444444443","1026.4444444444443","black","practice","legacy","legacy","legacy","0","uniform","1","undefined","1","left","8","8","8","0","0","8","8","0","0","8","8","8","0","8","0","Sun Oct 16 18:27:26 2022","The main experiment item","yes","Sternbergtask.osexp","/Users/katherinehays/Desktop","no","mono","no","18","no","white","no","yes","768","legacy","8","8","/Users/katherinehays/Desktop/KH-subject-1.csv","legacy","1 7 9 8 5","Lentiform Loewenfeld","3.3.12","4","y","0","left","right","NA","left","NA","984","18851","NA","984","NA","2","legacy","5","1024","2","48000","-16","experiment","1","odd","8","74742","71451","72507","2551","NA","72513","52821","2633","NA","76752","77736","73525","21562","76752","NA","Sternberg task","5","9238","9","yes","1024"
"60","60","991.2","991.2","black","practice","legacy","legacy","legacy","0","uniform","1","undefined","1","left","9","9","9","0","0","9","9","0","0","9","9","9","0","9","0","Sun Oct 16 18:27:26 2022","The main experiment item","yes","Sternbergtask.osexp","/Users/katherinehays/Desktop","no","mono","no","18","no","white","no","yes","768","legacy","9","9","/Users/katherinehays/Desktop/KH-subject-1.csv","legacy","6","Lentiform Loewenfeld","3.3.12","1","y","0","left","right","NA","left","NA","674","18851","NA","674","NA","2","legacy","1","1024","2","48000","-16","experiment","1","odd","6","81043","77741","78805","2551","NA","78811","52821","2633","NA","83054","83729","79827","21562","83054","NA","Sternberg task","6","9912","10","yes","1024"
"63.63636363636363","63.63636363636363","981.6363636363636","981.6363636363636","black","practice","legacy","legacy","legacy","0","uniform","1","undefined","1","right","10","10","10","0","0","10","10","0","0","10","10","10","0","10","0","Sun Oct 16 18:27:26 2022","The main experiment item","yes","Sternbergtask.osexp","/Users/katherinehays/Desktop","no","mono","no","18","no","white","no","yes","768","legacy","10","10","/Users/katherinehays/Desktop/KH-subject-1.csv","legacy","5 7 8 4 1 2","Lentiform Loewenfeld","3.3.12","0","n","0","right","right","NA","right","NA","886","18851","NA","886","NA","2","legacy","6","1024","2","48000","-16","experiment","1","odd","6","87028","83734","84796","2551","NA","84801","52821","2633","NA","89041","89928","85813","21562","89041","NA","Sternberg task","7","10798","11","yes","1024"
"66.66666666666667","66.66666666666667","954.3333333333334","954.3333333333334","black","practice","legacy","legacy","legacy","0","uniform","1","undefined","1","left","11","11","11","0","0","11","11","0","0","11","11","11","0","11","0","Sun Oct 16 18:27:26 2022","The main experiment item","yes","Sternbergtask.osexp","/Users/katherinehays/Desktop","no","mono","no","18","no","white","no","yes","768","legacy","11","11","/Users/katherinehays/Desktop/KH-subject-1.csv","legacy","4 3 1 7 9 8","Lentiform Loewenfeld","3.3.12","1","y","0","left","right","NA","left","NA","654","18851","NA","654","NA","2","legacy","6","1024","2","48000","-16","experiment","1","odd","4","93228","89933","90995","2551","NA","91001","52821","2633","NA","95240","95895","92014","21562","95240","NA","Sternberg task","8","11452","12","yes","1024"
"69.23076923076923","69.23076923076923","950.3076923076923","950.3076923076923","black","experiment","legacy","legacy","legacy","0","uniform","1","undefined","1","right","12","12","12","0","0","12","12","0","0","12","12","12","0","12","0","Sun Oct 16 18:27:26 2022","The main experiment item","yes","Sternbergtask.osexp","/Users/katherinehays/Desktop","no","mono","no","18","no","white","no","yes","768","legacy","0","11","/Users/katherinehays/Desktop/KH-subject-1.csv","legacy","1 4 9 2 5","Lentiform Loewenfeld","3.3.12","0","n","0","right","right","left","right","NA","902","18851","4664","902","NA","2","legacy","5","1024","2","48000","-16","experiment","1","odd","7","103870","95900","101637","2551","101605","101641","52821","2633","96940","105882","106785","102655","21562","105882","NA","Sternberg task","9","12354","13","yes","1024"
"71.42857142857143","71.42857142857143","950.7142857142857","950.7142857142857","black","experiment","legacy","legacy","legacy","0","uniform","1","undefined","1","left","13","13","13","0","0","13","13","0","0","13","13","13","0","13","0","Sun Oct 16 18:27:26 2022","The main experiment item","yes","Sternbergtask.osexp","/Users/katherinehays/Desktop","no","mono","no","18","no","white","no","yes","768","legacy","1","11","/Users/katherinehays/Desktop/KH-subject-1.csv","legacy","8 9 5 7 1 6","Lentiform Loewenfeld","3.3.12","4","y","0","left","right","left","left","NA","956","18851","4664","956","NA","2","legacy","6","1024","2","48000","-16","experiment","1","odd","7","110086","106790","107847","2551","101605","107852","52821","2633","96940","112097","113054","108871","21562","112097","NA","Sternberg task","10","13310","14","yes","1024"
"73.33333333333333","73.33333333333333","968.8666666666667","968.8666666666667","black","experiment","legacy","legacy","legacy","0","uniform","1","undefined","1","left","14","14","14","0","0","14","14","0","0","14","14","14","0","14","0","Sun Oct 16 18:27:26 2022","The main experiment item","yes","Sternbergtask.osexp","/Users/katherinehays/Desktop","no","mono","no","18","no","white","no","yes","768","legacy","2","11","/Users/katherinehays/Desktop/KH-subject-1.csv","legacy","3 2 1 4 7","Lentiform Loewenfeld","3.3.12","2","y","0","left","right","left","left","NA","1223","18851","4664","1223","NA","2","legacy","5","1024","2","48000","-16","experiment","1","odd","2","116351","113060","114113","2551","101605","114119","52821","2633","96940","118363","119586","115135","21562","118363","NA","Sternberg task","11","14533","15","yes","1024"
"75","75","973.125","973.125","black","experiment","legacy","legacy","legacy","0","uniform","1","undefined","1","left","15","15","15","0","0","15","15","0","0","15","15","15","0","15","0","Sun Oct 16 18:27:26 2022","The main experiment item","yes","Sternbergtask.osexp","/Users/katherinehays/Desktop","no","mono","no","18","no","white","no","yes","768","legacy","3","11","/Users/katherinehays/Desktop/KH-subject-1.csv","legacy","4 6 2 5 1","Lentiform Loewenfeld","3.3.12","5","y","0","left","right","left","left","NA","1037","18851","4664","1037","NA","2","legacy","5","1024","2","48000","-16","experiment","1","odd","1","122889","119592","120652","2551","101605","120658","52821","2633","96940","124906","125943","121671","21562","124906","NA","Sternberg task","12","15570","16","yes","1024"
"76.47058823529412","76.47058823529412","963.8235294117648","963.8235294117648","black","experiment","legacy","legacy","legacy","0","uniform","1","undefined","1","left","16","16","16","0","0","16","16","0","0","16","16","16","0","16","0","Sun Oct 16 18:27:26 2022","The main experiment item","yes","Sternbergtask.osexp","/Users/katherinehays/Desktop","no","mono","no","18","no","white","no","yes","768","legacy","4","11","/Users/katherinehays/Desktop/KH-subject-1.csv","legacy","6 5","Lentiform Loewenfeld","3.3.12","2","y","0","left","right","left","left","NA","815","18851","4664","815","NA","2","legacy","2","1024","2","48000","-16","experiment","1","odd","5","129243","125948","127009","2551","101605","127015","52821","2633","96940","131256","132072","128028","21562","131255","NA","Sternberg task","13","16385","17","yes","1024"
"77.77777777777777","77.77777777777777","958.3888888888889","958.3888888888889","black","experiment","legacy","legacy","legacy","0","uniform","1","undefined","1","left","17","17","17","0","0","17","17","0","0","17","17","17","0","17","0","Sun Oct 16 18:27:26 2022","The main experiment item","yes","Sternbergtask.osexp","/Users/katherinehays/Desktop","no","mono","no","18","no","white","no","yes","768","legacy","5","11","/Users/katherinehays/Desktop/KH-subject-1.csv","legacy","9 1 6 7 8","Lentiform Loewenfeld","3.3.12","1","y","0","left","right","left","left","NA","866","18851","4664","866","NA","2","legacy","5","1024","2","48000","-16","experiment","1","odd","9","135368","132076","133136","2551","101605","133142","52821","2633","96940","137380","138246","134153","21562","137380","NA","Sternberg task","14","17251","18","yes","1024"
"78.94736842105263","78.94736842105263","955.6315789473684","955.6315789473684","black","experiment","legacy","legacy","legacy","0","uniform","1","undefined","1","right","18","18","18","0","0","18","18","0","0","18","18","18","0","18","0","Sun Oct 16 18:27:26 2022","The main experiment item","yes","Sternbergtask.osexp","/Users/katherinehays/Desktop","no","mono","no","18","no","white","no","yes","768","legacy","6","11","/Users/katherinehays/Desktop/KH-subject-1.csv","legacy","8 4 3 5","Lentiform Loewenfeld","3.3.12","0","n","0","right","right","left","right","NA","906","18851","4664","906","NA","2","legacy","4","1024","2","48000","-16","experiment","1","odd","6","141540","138252","139305","2551","101605","139310","52821","2633","96940","143551","144457","140325","21562","143551","NA","Sternberg task","15","18157","19","yes","1024"
"80","80","955.35","955.35","black","experiment","legacy","legacy","legacy","0","uniform","1","undefined","1","left","19","19","19","0","0","19","19","0","0","19","19","19","0","19","0","Sun Oct 16 18:27:26 2022","The main experiment item","yes","Sternbergtask.osexp","/Users/katherinehays/Desktop","no","mono","no","18","no","white","no","yes","768","legacy","7","11","/Users/katherinehays/Desktop/KH-subject-1.csv","legacy","3 5 7 1","Lentiform Loewenfeld","3.3.12","3","y","0","left","right","left","left","NA","950","18851","4664","950","NA","2","legacy","4","1024","2","48000","-16","experiment","1","odd","7","147763","144463","145523","2551","101605","145529","52821","2633","96940","149774","150725","146548","21562","149774","NA","Sternberg task","16","19107","20","yes","1024"
"80.95238095238095","80.95238095238095","940.4761904761905","940.4761904761905","black","experiment","legacy","legacy","legacy","0","uniform","1","undefined","1","right","20","20","20","0","0","20","20","0","0","20","20","20","0","20","0","Sun Oct 16 18:27:26 2022","The main experiment item","yes","Sternbergtask.osexp","/Users/katherinehays/Desktop","no","mono","no","18","no","white","no","yes","768","legacy","8","11","/Users/katherinehays/Desktop/KH-subject-1.csv","legacy","2 5 1 4","Lentiform Loewenfeld","3.3.12","0","n","0","right","right","left","right","NA","643","18851","4664","643","NA","2","legacy","4","1024","2","48000","-16","experiment","1","odd","6","154022","150730","151788","2551","101605","151793","52821","2633","96940","156030","156674","152806","21562","156030","NA","Sternberg task","17","19750","21","yes","1024"
"81.81818181818181","81.81818181818181","924.2727272727273","924.2727272727273","black","experiment","legacy","legacy","legacy","0","uniform","1","undefined","1","left","21","21","21","0","0","21","21","0","0","21","21","21","0","21","0","Sun Oct 16 18:27:26 2022","The main experiment item","yes","Sternbergtask.osexp","/Users/katherinehays/Desktop","no","mono","no","18","no","white","no","yes","768","legacy","9","11","/Users/katherinehays/Desktop/KH-subject-1.csv","legacy","4","Lentiform Loewenfeld","3.3.12","1","y","0","left","right","left","left","NA","584","18851","4664","584","NA","2","legacy","1","1024","2","48000","-16","experiment","1","odd","4","159974","156679","157740","2551","101605","157746","52821","2633","96940","161985","162570","158759","21562","161985","NA","Sternberg task","18","20334","22","yes","1024"
"82.6086956521739","82.6086956521739","920.8695652173913","920.8695652173913","black","experiment","legacy","legacy","legacy","0","uniform","1","undefined","1","right","22","22","22","0","0","22","22","0","0","22","22","22","0","22","0","Sun Oct 16 18:27:26 2022","The main experiment item","yes","Sternbergtask.osexp","/Users/katherinehays/Desktop","no","mono","no","18","no","white","no","yes","768","legacy","10","11","/Users/katherinehays/Desktop/KH-subject-1.csv","legacy","8 9","Lentiform Loewenfeld","3.3.12","0","n","0","right","right","left","right","NA","846","18851","4664","846","NA","2","legacy","2","1024","2","48000","-16","experiment","1","odd","5","165873","162575","163639","2551","101605","163645","52821","2633","96940","167884","168731","164658","21562","167884","NA","Sternberg task","19","21180","23","yes","1024"
"79.16666666666667","79.16666666666667","903.1666666666666","903.1666666666666","black","experiment","legacy","legacy","legacy","0","uniform","0","undefined","0","left","23","23","23","0","0","23","23","0","0","23","23","23","0","23","0","Sun Oct 16 18:27:26 2022","The main experiment item","yes","Sternbergtask.osexp","/Users/katherinehays/Desktop","no","mono","no","18","no","white","no","yes","768","legacy","11","11","/Users/katherinehays/Desktop/KH-subject-1.csv","legacy","8","Lentiform Loewenfeld","3.3.12","1","y","0","right","right","left","right","NA","496","18851","4664","496","NA","2","legacy","1","1024","2","48000","-16","experiment","1","odd","8","172032","168735","169796","2551","101605","169802","52821","2633","96940","174045","174541","170817","21562","174045","NA","Sternberg task","19","21676","24","yes","1024"
"80","80","925.24","925.24","black","experiment","legacy","legacy","legacy","0","uniform","1","undefined","1","left","24","24","24","0","0","24","24","0","0","24","24","24","0","24","0","Sun Oct 16 18:27:26 2022","The main experiment item","yes","Sternbergtask.osexp","/Users/katherinehays/Desktop","no","mono","no","18","no","white","no","yes","768","legacy","12","11","/Users/katherinehays/Desktop/KH-subject-1.csv","legacy","3 4 9 6 2 9","Lentiform Loewenfeld","3.3.12","5","y","0","left","right","left","left","NA","1455","18851","4664","1455","NA","2","legacy","6","1024","2","48000","-16","experiment","1","odd","2","177843","168735","175608","2551","101605","175614","174547","2633","96940","179855","181311","176627","21562","179855","NA","Sternberg task","20","23131","25","yes","1024"
"80.76923076923077","80.76923076923077","910.4615384615385","910.4615384615385","black","experiment","legacy","legacy","legacy","0","uniform","1","undefined","1","left","25","25","25","0","0","25","25","0","0","25","25","25","0","25","0","Sun Oct 16 18:27:26 2022","The main experiment item","yes","Sternbergtask.osexp","/Users/katherinehays/Desktop","no","mono","no","18","no","white","no","yes","768","legacy","13","11","/Users/katherinehays/Desktop/KH-subject-1.csv","legacy","5 2 6","Lentiform Loewenfeld","3.3.12","2","y","0","left","right","left","left","NA","541","18851","4664","541","NA","2","legacy","3","1024","2","48000","-16","experiment","1","odd","2","184617","181316","182383","2551","101605","182389","174547","2633","96940","186628","187169","183402","21562","186628","NA","Sternberg task","21","23672","26","yes","1024"
"81.48148148148148","81.48148148148148","899.0370370370371","899.0370370370371","black","experiment","legacy","legacy","legacy","0","uniform","1","undefined","1","left","26","26","26","0","0","26","26","0","0","26","26","26","0","26","0","Sun Oct 16 18:27:26 2022","The main experiment item","yes","Sternbergtask.osexp","/Users/katherinehays/Desktop","no","mono","no","18","no","white","no","yes","768","legacy","14","11","/Users/katherinehays/Desktop/KH-subject-1.csv","legacy","9 1 7 2","Lentiform Loewenfeld","3.3.12","2","y","0","left","right","left","left","NA","602","18851","4664","602","NA","2","legacy","4","1024","2","48000","-16","experiment","1","odd","1","190464","187174","188231","2551","101605","188236","174547","2633","96940","192477","193080","189249","21562","192477","NA","Sternberg task","22","24274","27","yes","1024"
"82.14285714285714","82.14285714285714","887.1785714285714","887.1785714285714","black","experiment","legacy","legacy","legacy","0","uniform","1","undefined","1","right","27","27","27","0","0","27","27","0","0","27","27","27","0","27","0","Sun Oct 16 18:27:26 2022","The main experiment item","yes","Sternbergtask.osexp","/Users/katherinehays/Desktop","no","mono","no","18","no","white","no","yes","768","legacy","15","11","/Users/katherinehays/Desktop/KH-subject-1.csv","legacy","5 2","Lentiform Loewenfeld","3.3.12","0","n","0","right","right","left","right","NA","567","18851","4664","567","NA","2","legacy","2","1024","2","48000","-16","experiment","1","odd","7","196384","193085","194145","2551","101605","194151","174547","2633","96940","198394","198962","195168","21562","198394","NA","Sternberg task","23","24841","28","yes","1024"
"82.75862068965517","82.75862068965517","897.9655172413793","897.9655172413793","black","experiment","legacy","legacy","legacy","0","uniform","1","undefined","1","left","28","28","28","0","0","28","28","0","0","28","28","28","0","28","0","Sun Oct 16 18:27:26 2022","The main experiment item","yes","Sternbergtask.osexp","/Users/katherinehays/Desktop","no","mono","no","18","no","white","no","yes","768","legacy","16","11","/Users/katherinehays/Desktop/KH-subject-1.csv","legacy","4 9 7 8 5 3","Lentiform Loewenfeld","3.3.12","4","y","0","left","right","left","left","NA","1200","18851","4664","1200","NA","2","legacy","6","1024","2","48000","-16","experiment","1","odd","8","202258","198967","200017","2551","101605","200022","174547","2633","96940","204269","205470","201036","21562","204269","NA","Sternberg task","24","26041","29","yes","1024"
"83.33333333333333","83.33333333333333","905.7333333333333","905.7333333333333","black","experiment","legacy","legacy","legacy","0","uniform","1","undefined","1","left","29","29","29","0","0","29","29","0","0","29","29","29","0","29","0","Sun Oct 16 18:27:26 2022","The main experiment item","yes","Sternbergtask.osexp","/Users/katherinehays/Desktop","no","mono","no","18","no","white","no","yes","768","legacy","17","11","/Users/katherinehays/Desktop/KH-subject-1.csv","legacy","7 2 3","Lentiform Loewenfeld","3.3.12","3","y","0","left","right","left","left","NA","1131","18851","4664","1131","NA","2","legacy","3","1024","2","48000","-16","experiment","1","odd","3","208774","205475","206539","2551","101605","206544","174547","2633","96940","210781","211913","207557","21562","210781","NA","Sternberg task","25","27172","30","yes","1024"
"83.87096774193549","83.87096774193549","894.3870967741935","894.3870967741935","black","experiment","legacy","legacy","legacy","0","uniform","1","undefined","1","left","30","30","30","0","0","30","30","0","0","30","30","30","0","30","0","Sun Oct 16 18:27:26 2022","The main experiment item","yes","Sternbergtask.osexp","/Users/katherinehays/Desktop","no","mono","no","18","no","white","no","yes","768","legacy","18","11","/Users/katherinehays/Desktop/KH-subject-1.csv","legacy","2 3 7 4","Lentiform Loewenfeld","3.3.12","1","y","0","left","right","left","left","NA","554","18851","4664","554","NA","2","legacy","4","1024","2","48000","-16","experiment","1","odd","2","215215","211918","212979","2551","101605","212985","174547","2633","96940","217227","217781","213999","21562","217227","NA","Sternberg task","26","27726","31","yes","1024"
"81.25","81.25","909.9375","909.9375","black","experiment","legacy","legacy","legacy","0","uniform","0","undefined","0","right","31","31","31","0","0","31","31","0","0","31","31","31","0","31","0","Sun Oct 16 18:27:26 2022","The main experiment item","yes","Sternbergtask.osexp","/Users/katherinehays/Desktop","no","mono","no","18","no","white","no","yes","768","legacy","19","11","/Users/katherinehays/Desktop/KH-subject-1.csv","legacy","3 9 8 1 6 4","Lentiform Loewenfeld","3.3.12","0","n","0","left","right","left","left","NA","1392","18851","4664","1392","NA","2","legacy","6","1024","2","48000","-16","experiment","1","odd","7","221088","217786","218850","2551","101605","218856","174547","2633","96940","223101","224494","219872","21562","223100","NA","Sternberg task","26","29118","32","yes","1024"
"81.81818181818181","81.81818181818181","919.060606060606","919.060606060606","black","experiment","legacy","legacy","legacy","0","uniform","1","undefined","1","left","32","32","32","0","0","32","32","0","0","32","32","32","0","32","0","Sun Oct 16 18:27:26 2022","The main experiment item","yes","Sternbergtask.osexp","/Users/katherinehays/Desktop","no","mono","no","18","no","white","no","yes","768","legacy","20","11","/Users/katherinehays/Desktop/KH-subject-1.csv","legacy","7 1 8 5 6 2","Lentiform Loewenfeld","3.3.12","2","y","0","left","right","left","left","NA","1211","18851","4664","1211","NA","2","legacy","6","1024","2","48000","-16","experiment","1","odd","1","227793","217786","225559","2551","101605","225565","224499","2633","96940","229805","231017","226578","21562","229804","NA","Sternberg task","27","30329","33","yes","1024"
"82.3529411764706","82.3529411764706","914.0294117647059","914.0294117647059","black","experiment","legacy","legacy","legacy","0","uniform","1","undefined","1","right","33","33","33","0","0","33","33","0","0","33","33","33","0","33","0","Sun Oct 16 18:27:26 2022","The main experiment item","yes","Sternbergtask.osexp","/Users/katherinehays/Desktop","no","mono","no","18","no","white","no","yes","768","legacy","21","11","/Users/katherinehays/Desktop/KH-subject-1.csv","legacy","2 8 9 4 1","Lentiform Loewenfeld","3.3.12","0","n","0","right","right","left","right","NA","748","18851","4664","748","NA","2","legacy","5","1024","2","48000","-16","experiment","1","odd","5","234320","231022","232083","2551","101605","232089","224499","2633","96940","236334","237083","233105","21562","236333","NA","Sternberg task","28","31077","34","yes","1024"
"80","80","910.5428571428571","910.5428571428571","black","experiment","legacy","legacy","legacy","0","uniform","0","undefined","0","right","34","34","34","0","0","34","34","0","0","34","34","34","0","34","0","Sun Oct 16 18:27:26 2022","The main experiment item","yes","Sternbergtask.osexp","/Users/katherinehays/Desktop","no","mono","no","18","no","white","no","yes","768","legacy","22","11","/Users/katherinehays/Desktop/KH-subject-1.csv","legacy","7 1","Lentiform Loewenfeld","3.3.12","0","n","0","left","right","left","left","NA","792","18851","4664","792","NA","2","legacy","2","1024","2","48000","-16","experiment","1","odd","8","240384","237089","238149","2551","101605","238155","224499","2633","96940","242395","243187","239168","21562","242395","NA","Sternberg task","28","31869","35","yes","1024"
"80.55555555555556","80.55555555555556","905.3333333333334","905.3333333333334","black","experiment","legacy","legacy","legacy","0","uniform","1","undefined","1","left","35","35","35","0","0","35","35","0","0","35","35","35","0","35","0","Sun Oct 16 18:27:26 2022","The main experiment item","yes","Sternbergtask.osexp","/Users/katherinehays/Desktop","no","mono","no","18","no","white","no","yes","768","legacy","23","11","/Users/katherinehays/Desktop/KH-subject-1.csv","legacy","2 5 4 8 7","Lentiform Loewenfeld","3.3.12","3","y","0","left","right","left","left","NA","723","18851","4664","723","NA","2","legacy","5","1024","2","48000","-16","experiment","1","odd","4","246495","237089","244252","2551","101605","244258","243192","2633","96940","248510","249235","245270","21562","248509","NA","Sternberg task","29","32592","36","yes","1024"
"78.37837837837837","78.37837837837837","898.8108108108108","898.8108108108108","black","experiment","legacy","legacy","legacy","0","uniform","0","undefined","0","right","36","36","36","0","0","36","36","0","0","36","36","36","0","36","0","Sun Oct 16 18:27:26 2022","The main experiment item","yes","Sternbergtask.osexp","/Users/katherinehays/Desktop","no","mono","no","18","no","white","no","yes","768","legacy","24","11","/Users/katherinehays/Desktop/KH-subject-1.csv","legacy","8 5 4 2 9 6","Lentiform Loewenfeld","3.3.12","0","n","0","left","right","left","left","NA","664","18851","4664","664","NA","2","legacy","6","1024","2","48000","-16","experiment","1","odd","3","252576","249241","250341","2551","101605","250346","243192","2633","96940","254586","255251","251359","21562","254585","NA","Sternberg task","29","33256","37","yes","1024"
"78.94736842105263","78.94736842105263","892.5","892.5","black","experiment","legacy","legacy","legacy","0","uniform","1","undefined","1","right","37","37","37","0","0","37","37","0","0","37","37","37","0","37","0","Sun Oct 16 18:27:26 2022","The main experiment item","yes","Sternbergtask.osexp","/Users/katherinehays/Desktop","no","mono","no","18","no","white","no","yes","768","legacy","25","11","/Users/katherinehays/Desktop/KH-subject-1.csv","legacy","4 8 1 2","Lentiform Loewenfeld","3.3.12","0","n","0","right","right","left","right","NA","659","18851","4664","659","NA","2","legacy","4","1024","2","48000","-16","experiment","1","odd","7","258561","249241","256324","2551","101605","256329","255256","2633","96940","260574","261234","257345","21562","260574","NA","Sternberg task","30","33915","38","yes","1024"
"76.92307692307692","76.92307692307692","889.5128205128206","889.5128205128206","black","experiment","legacy","legacy","legacy","0","uniform","0","undefined","0","right","38","38","38","0","0","38","38","0","0","38","38","38","0","38","0","Sun Oct 16 18:27:26 2022","The main experiment item","yes","Sternbergtask.osexp","/Users/katherinehays/Desktop","no","mono","no","18","no","white","no","yes","768","legacy","26","11","/Users/katherinehays/Desktop/KH-subject-1.csv","legacy","8 6 3 4 7","Lentiform Loewenfeld","3.3.12","0","n","0","left","right","left","left","NA","776","18851","4664","776","NA","2","legacy","5","1024","2","48000","-16","experiment","1","odd","1","264535","261239","262300","2551","101605","262306","255256","2633","96940","266545","267322","263319","21562","266545","NA","Sternberg task","30","34691","39","yes","1024"
"77.5","77.5","897.075","897.075","black","experiment","legacy","legacy","legacy","0","uniform","1","undefined","1","right","39","39","39","0","0","39","39","0","0","39","39","39","0","39","0","Sun Oct 16 18:27:26 2022","The main experiment item","yes","Sternbergtask.osexp","/Users/katherinehays/Desktop","no","mono","no","18","no","white","no","yes","768","legacy","27","11","/Users/katherinehays/Desktop/KH-subject-1.csv","legacy","7 9 1 6","Lentiform Loewenfeld","3.3.12","0","n","0","right","right","left","right","NA","1192","18851","4664","1192","NA","2","legacy","4","1024","2","48000","-16","experiment","1","odd","4","270627","261239","268391","2551","101605","268397","267327","2633","96940","272639","273832","269411","21562","272638","NA","Sternberg task","31","35883","40","yes","1024"
"78.04878048780488","78.04878048780488","892.9024390243902","892.9024390243902","black","experiment","legacy","legacy","legacy","0","uniform","1","undefined","1","left","40","40","40","0","0","40","40","0","0","40","40","40","0","40","0","Sun Oct 16 18:27:26 2022","The main experiment item","yes","Sternbergtask.osexp","/Users/katherinehays/Desktop","no","mono","no","18","no","white","no","yes","768","legacy","28","11","/Users/katherinehays/Desktop/KH-subject-1.csv","legacy","4 1 5","Lentiform Loewenfeld","3.3.12","2","y","0","left","right","left","left","NA","726","18851","4664","726","NA","2","legacy","3","1024","2","48000","-16","experiment","1","odd","1","277131","273837","274896","2551","101605","274902","267327","2633","96940","279140","279866","275915","21562","279140","NA","Sternberg task","32","36609","41","yes","1024"
"78.57142857142857","78.57142857142857","885.3809523809524","885.3809523809524","black","experiment","legacy","legacy","legacy","0","uniform","1","undefined","1","left","41","41","41","0","0","41","41","0","0","41","41","41","0","41","0","Sun Oct 16 18:27:26 2022","The main experiment item","yes","Sternbergtask.osexp","/Users/katherinehays/Desktop","no","mono","no","18","no","white","no","yes","768","legacy","29","11","/Users/katherinehays/Desktop/KH-subject-1.csv","legacy","8 3","Lentiform Loewenfeld","3.3.12","2","y","0","left","right","left","left","NA","577","18851","4664","577","NA","2","legacy","2","1024","2","48000","-16","experiment","1","odd","3","283169","279871","280936","2551","101605","280941","267327","2633","96940","285181","285759","281954","21562","285180","NA","Sternberg task","33","37186","42","yes","1024"
"79.06976744186046","79.06976744186046","878.4651162790698","878.4651162790698","black","experiment","legacy","legacy","legacy","0","uniform","1","undefined","1","left","42","42","42","0","0","42","42","0","0","42","42","42","0","42","0","Sun Oct 16 18:27:26 2022","The main experiment item","yes","Sternbergtask.osexp","/Users/katherinehays/Desktop","no","mono","no","18","no","white","no","yes","768","legacy","30","11","/Users/katherinehays/Desktop/KH-subject-1.csv","legacy","9 4 2","Lentiform Loewenfeld","3.3.12","1","y","0","left","right","left","left","NA","588","18851","4664","588","NA","2","legacy","3","1024","2","48000","-16","experiment","1","odd","9","289053","285764","286819","2551","101605","286825","267327","2633","96940","291065","291654","287838","21562","291064","NA","Sternberg task","34","37774","43","yes","1024"
"79.54545454545455","79.54545454545455","877.5","877.5","black","experiment","legacy","legacy","legacy","0","uniform","1","undefined","1","right","43","43","43","0","0","43","43","0","0","43","43","43","0","43","0","Sun Oct 16 18:27:26 2022","The main experiment item","yes","Sternbergtask.osexp","/Users/katherinehays/Desktop","no","mono","no","18","no","white","no","yes","768","legacy","31","11","/Users/katherinehays/Desktop/KH-subject-1.csv","legacy","1 6 4 3 9 7","Lentiform Loewenfeld","3.3.12","0","n","0","right","right","left","right","NA","836","18851","4664","836","NA","2","legacy","6","1024","2","48000","-16","experiment","1","odd","8","294957","291659","292721","2551","101605","292726","267327","2633","96940","296973","297809","293740","21562","296973","NA","Sternberg task","35","38610","44","yes","1024"
"77.77777777777777","77.77777777777777","872.6222222222223","872.6222222222223","black","experiment","legacy","legacy","legacy","0","uniform","0","undefined","0","right","44","44","44","0","0","44","44","0","0","44","44","44","0","44","0","Sun Oct 16 18:27:26 2022","The main experiment item","yes","Sternbergtask.osexp","/Users/katherinehays/Desktop","no","mono","no","18","no","white","no","yes","768","legacy","32","11","/Users/katherinehays/Desktop/KH-subject-1.csv","legacy","4 1","Lentiform Loewenfeld","3.3.12","0","n","0","left","right","left","left","NA","658","18851","4664","658","NA","2","legacy","2","1024","2","48000","-16","experiment","1","odd","6","301111","297814","298873","2551","101605","298878","267327","2633","96940","303123","303782","299894","21562","303122","NA","Sternberg task","35","39268","45","yes","1024"
"78.26086956521739","78.26086956521739","875.7391304347826","875.7391304347826","black","experiment","legacy","legacy","legacy","0","uniform","1","undefined","1","left","45","45","45","0","0","45","45","0","0","45","45","45","0","45","0","Sun Oct 16 18:27:26 2022","The main experiment item","yes","Sternbergtask.osexp","/Users/katherinehays/Desktop","no","mono","no","18","no","white","no","yes","768","legacy","33","11","/Users/katherinehays/Desktop/KH-subject-1.csv","legacy","7 8 4 6 9 5","Lentiform Loewenfeld","3.3.12","4","y","0","left","right","left","left","NA","1016","18851","4664","1016","NA","2","legacy","6","1024","2","48000","-16","experiment","1","odd","6","307087","297814","304852","2551","101605","304857","303787","2633","96940","309102","310119","305871","21562","309102","NA","Sternberg task","36","40284","46","yes","1024"
"78.72340425531915","78.72340425531915","880.8297872340426","880.8297872340426","black","experiment","legacy","legacy","legacy","0","uniform","1","undefined","1","right","46","46","46","0","0","46","46","0","0","46","46","46","0","46","0","Sun Oct 16 18:27:26 2022","The main experiment item","yes","Sternbergtask.osexp","/Users/katherinehays/Desktop","no","mono","no","18","no","white","no","yes","768","legacy","34","11","/Users/katherinehays/Desktop/KH-subject-1.csv","legacy","2 8 7 9 5 3","Lentiform Loewenfeld","3.3.12","0","n","0","right","right","left","right","NA","1115","18851","4664","1115","NA","2","legacy","6","1024","2","48000","-16","experiment","1","odd","6","313419","310124","311185","2551","101605","311191","303787","2633","96940","315432","316548","312204","21562","315432","NA","Sternberg task","37","41399","47","yes","1024"
"79.16666666666667","79.16666666666667","888.0416666666666","888.0416666666666","black","experiment","legacy","legacy","legacy","0","uniform","1","undefined","1","left","47","47","47","0","0","47","47","0","0","47","47","47","0","47","0","Sun Oct 16 18:27:26 2022","The main experiment item","yes","Sternbergtask.osexp","/Users/katherinehays/Desktop","no","mono","no","18","no","white","no","yes","768","legacy","35","11","/Users/katherinehays/Desktop/KH-subject-1.csv","legacy","2 4 8 5 1 3","Lentiform Loewenfeld","3.3.12","1","y","0","left","right","left","left","NA","1227","18851","4664","1227","NA","2","legacy","6","1024","2","48000","-16","experiment","1","odd","2","319852","316553","317611","2551","101605","317616","303787","2633","96940","321865","323093","318635","21562","321865","NA","Sternberg task","38","42626","48","yes","1024"
"77.55102040816327","77.55102040816327","887.5918367346939","887.5918367346939","black","experiment","legacy","legacy","legacy","0","uniform","0","undefined","0","right","48","48","48","0","0","48","48","0","0","48","48","48","0","48","0","Sun Oct 16 18:27:26 2022","The main experiment item","yes","Sternbergtask.osexp","/Users/katherinehays/Desktop","no","mono","no","18","no","white","no","yes","768","legacy","36","11","/Users/katherinehays/Desktop/KH-subject-1.csv","legacy","3 4 9 6 7 8","Lentiform Loewenfeld","3.3.12","0","n","0","left","right","left","left","NA","866","18851","4664","866","NA","2","legacy","6","1024","2","48000","-16","experiment","1","odd","2","326395","323098","324160","2551","101605","324165","303787","2633","96940","328407","329274","325177","21562","328407","NA","Sternberg task","38","43492","49","yes","1024"
"78","78","884.32","884.32","black","experiment","legacy","legacy","legacy","0","uniform","1","undefined","1","right","49","49","49","0","0","49","49","0","0","49","49","49","0","49","0","Sun Oct 16 18:27:26 2022","The main experiment item","yes","Sternbergtask.osexp","/Users/katherinehays/Desktop","no","mono","no","18","no","white","no","yes","768","legacy","37","11","/Users/katherinehays/Desktop/KH-subject-1.csv","legacy","6 9 4 5 3 2","Lentiform Loewenfeld","3.3.12","0","n","0","right","right","left","right","NA","724","18851","4664","724","NA","2","legacy","6","1024","2","48000","-16","experiment","1","odd","8","332570","323098","330336","2551","101605","330341","329279","2633","96940","334582","335307","331353","21562","334582","NA","Sternberg task","39","44216","50","yes","1024"
"78.43137254901961","78.43137254901961","885.8235294117648","885.8235294117648","black","experiment","legacy","legacy","legacy","0","uniform","1","undefined","1","right","50","50","50","0","0","50","50","0","0","50","50","50","0","50","0","Sun Oct 16 18:27:26 2022","The main experiment item","yes","Sternbergtask.osexp","/Users/katherinehays/Desktop","no","mono","no","18","no","white","no","yes","768","legacy","38","11","/Users/katherinehays/Desktop/KH-subject-1.csv","legacy","1 7 5 2","Lentiform Loewenfeld","3.3.12","0","n","0","right","right","left","right","NA","961","18851","4664","961","NA","2","legacy","4","1024","2","48000","-16","experiment","1","odd","3","338605","335312","336372","2551","101605","336378","329279","2633","96940","340618","341580","337390","21562","340617","NA","Sternberg task","40","45177","51","yes","1024"
"76.92307692307692","76.92307692307692","881.5961538461538","881.5961538461538","black","experiment","legacy","legacy","legacy","0","uniform","0","undefined","0","right","51","51","51","0","0","51","51","0","0","51","51","51","0","51","0","Sun Oct 16 18:27:26 2022","The main experiment item","yes","Sternbergtask.osexp","/Users/katherinehays/Desktop","no","mono","no","18","no","white","no","yes","768","legacy","39","11","/Users/katherinehays/Desktop/KH-subject-1.csv","legacy","5 3 2 6 9 8","Lentiform Loewenfeld","3.3.12","0","n","0","left","right","left","left","NA","666","18851","4664","666","NA","2","legacy","6","1024","2","48000","-16","experiment","1","odd","4","344885","341585","342644","2551","101605","342649","329279","2633","96940","346896","347563","343663","21562","346896","NA","Sternberg task","40","45843","52","yes","1024"
"77.35849056603773","77.35849056603773","878.433962264151","878.433962264151","black","experiment","legacy","legacy","legacy","0","uniform","1","undefined","1","right","52","52","52","0","0","52","52","0","0","52","52","52","0","52","0","Sun Oct 16 18:27:26 2022","The main experiment item","yes","Sternbergtask.osexp","/Users/katherinehays/Desktop","no","mono","no","18","no","white","no","yes","768","legacy","40","11","/Users/katherinehays/Desktop/KH-subject-1.csv","legacy","7 9","Lentiform Loewenfeld","3.3.12","0","n","0","right","right","left","right","NA","714","18851","4664","714","NA","2","legacy","2","1024","2","48000","-16","experiment","1","odd","1","350868","341585","348631","2551","101605","348636","347568","2633","96940","352879","353594","349650","21562","352879","NA","Sternberg task","41","46557","53","yes","1024"
"77.77777777777777","77.77777777777777","875.7962962962963","875.7962962962963","black","experiment","legacy","legacy","legacy","0","uniform","1","undefined","1","left","53","53","53","0","0","53","53","0","0","53","53","53","0","53","0","Sun Oct 16 18:27:26 2022","The main experiment item","yes","Sternbergtask.osexp","/Users/katherinehays/Desktop","no","mono","no","18","no","white","no","yes","768","legacy","41","11","/Users/katherinehays/Desktop/KH-subject-1.csv","legacy","8 9 6 1","Lentiform Loewenfeld","3.3.12","2","y","0","left","right","left","left","NA","736","18851","4664","736","NA","2","legacy","4","1024","2","48000","-16","experiment","1","odd","9","356896","353599","354661","2551","101605","354667","347568","2633","96940","358906","359643","355679","21562","358906","NA","Sternberg task","42","47293","54","yes","1024"
"76.36363636363636","76.36363636363636","878.2","878.2","black","experiment","legacy","legacy","legacy","0","uniform","0","undefined","0","right","54","54","54","0","0","54","54","0","0","54","54","54","0","54","0","Sun Oct 16 18:27:26 2022","The main experiment item","yes","Sternbergtask.osexp","/Users/katherinehays/Desktop","no","mono","no","18","no","white","no","yes","768","legacy","42","11","/Users/katherinehays/Desktop/KH-subject-1.csv","legacy","1 8 7","Lentiform Loewenfeld","3.3.12","0","n","0","left","right","left","left","NA","1008","18851","4664","1008","NA","2","legacy","3","1024","2","48000","-16","experiment","1","odd","4","362941","359648","360707","2551","101605","360712","347568","2633","96940","364953","365961","361726","21562","364953","NA","Sternberg task","42","48301","55","yes","1024"
"76.78571428571429","76.78571428571429","885.0357142857143","885.0357142857143","black","experiment","legacy","legacy","legacy","0","uniform","1","undefined","1","left","55","55","55","0","0","55","55","0","0","55","55","55","0","55","0","Sun Oct 16 18:27:26 2022","The main experiment item","yes","Sternbergtask.osexp","/Users/katherinehays/Desktop","no","mono","no","18","no","white","no","yes","768","legacy","43","11","/Users/katherinehays/Desktop/KH-subject-1.csv","legacy","5 7 3 6 2","Lentiform Loewenfeld","3.3.12","5","y","0","left","right","left","left","NA","1261","18851","4664","1261","NA","2","legacy","5","1024","2","48000","-16","experiment","1","odd","2","369261","359648","367026","2551","101605","367032","365966","2633","96940","371273","372535","368045","21562","371273","NA","Sternberg task","43","49562","56","yes","1024"
"77.19298245614036","77.19298245614036","881.0175438596491","881.0175438596491","black","experiment","legacy","legacy","legacy","0","uniform","1","undefined","1","right","56","56","56","0","0","56","56","0","0","56","56","56","0","56","0","Sun Oct 16 18:27:26 2022","The main experiment item","yes","Sternbergtask.osexp","/Users/katherinehays/Desktop","no","mono","no","18","no","white","no","yes","768","legacy","44","11","/Users/katherinehays/Desktop/KH-subject-1.csv","legacy","6 8 4","Lentiform Loewenfeld","3.3.12","0","n","0","right","right","left","right","NA","656","18851","4664","656","NA","2","legacy","3","1024","2","48000","-16","experiment","1","odd","1","375825","372540","373592","2551","101605","373597","365966","2633","96940","377837","378494","374609","21562","377836","NA","Sternberg task","44","50218","57","yes","1024"
"77.58620689655173","77.58620689655173","890.4137931034483","890.4137931034483","black","experiment","legacy","legacy","legacy","0","uniform","1","undefined","1","right","57","57","57","0","0","57","57","0","0","57","57","57","0","57","0","Sun Oct 16 18:27:26 2022","The main experiment item","yes","Sternbergtask.osexp","/Users/katherinehays/Desktop","no","mono","no","18","no","white","no","yes","768","legacy","45","11","/Users/katherinehays/Desktop/KH-subject-1.csv","legacy","1 4 3 6 5","Lentiform Loewenfeld","3.3.12","0","n","0","right","right","left","right","NA","1426","18851","4664","1426","NA","2","legacy","5","1024","2","48000","-16","experiment","1","odd","8","381794","378499","379558","2551","101605","379564","365966","2633","96940","383805","385232","380577","21562","383805","NA","Sternberg task","45","51644","58","yes","1024"
"77.96610169491525","77.96610169491525","885.7457627118644","885.7457627118644","black","experiment","legacy","legacy","legacy","0","uniform","1","undefined","1","left","58","58","58","0","0","58","58","0","0","58","58","58","0","58","0","Sun Oct 16 18:27:26 2022","The main experiment item","yes","Sternbergtask.osexp","/Users/katherinehays/Desktop","no","mono","no","18","no","white","no","yes","768","legacy","46","11","/Users/katherinehays/Desktop/KH-subject-1.csv","legacy","6 9 7 4 5 1","Lentiform Loewenfeld","3.3.12","2","y","0","left","right","left","left","NA","615","18851","4664","615","NA","2","legacy","6","1024","2","48000","-16","experiment","1","odd","9","388532","385237","386299","2551","101605","386304","365966","2633","96940","390543","391158","387317","21562","390543","NA","Sternberg task","46","52259","59","yes","1024"
"76.66666666666667","76.66666666666667","888.8666666666667","888.8666666666667","black","experiment","legacy","legacy","legacy","0","uniform","0","undefined","0","right","59","59","59","0","0","59","59","0","0","59","59","59","0","59","0","Sun Oct 16 18:27:26 2022","The main experiment item","yes","Sternbergtask.osexp","/Users/katherinehays/Desktop","no","mono","no","18","no","white","no","yes","768","legacy","47","11","/Users/katherinehays/Desktop/KH-subject-1.csv","legacy","7 1 8 4 9 3","Lentiform Loewenfeld","3.3.12","0","n","0","left","right","left","left","NA","1073","18851","4664","1073","NA","2","legacy","6","1024","2","48000","-16","experiment","1","odd","6","394450","391163","392217","2551","101605","392222","365966","2633","96940","396462","397536","393234","21562","396461","NA","Sternberg task","46","53332","60","yes","1024"
"77.04918032786885","77.04918032786885","893.1967213114754","893.1967213114754","black","experiment","legacy","legacy","legacy","0","uniform","1","undefined","1","right","60","60","60","0","0","60","60","0","0","60","60","60","0","60","0","Sun Oct 16 18:27:26 2022","The main experiment item","yes","Sternbergtask.osexp","/Users/katherinehays/Desktop","no","mono","no","18","no","white","no","yes","768","legacy","48","11","/Users/katherinehays/Desktop/KH-subject-1.csv","legacy","7 4 2 8 1 9","Lentiform Loewenfeld","3.3.12","0","n","0","right","right","left","right","NA","1153","18851","4664","1153","NA","2","legacy","6","1024","2","48000","-16","experiment","1","odd","5","400829","391163","398596","2551","101605","398602","397541","2633","96940","402842","403996","399614","21562","402842","NA","Sternberg task","47","54485","61","yes","1024"
"77.41935483870968","77.41935483870968","896.9032258064516","896.9032258064516","black","experiment","legacy","legacy","legacy","0","uniform","1","undefined","1","right","61","61","61","0","0","61","61","0","0","61","61","61","0","61","0","Sun Oct 16 18:27:26 2022","The main experiment item","yes","Sternbergtask.osexp","/Users/katherinehays/Desktop","no","mono","no","18","no","white","no","yes","768","legacy","49","11","/Users/katherinehays/Desktop/KH-subject-1.csv","legacy","4 2 7 6 1 3","Lentiform Loewenfeld","3.3.12","0","n","0","right","right","left","right","NA","1123","18851","4664","1123","NA","2","legacy","6","1024","2","48000","-16","experiment","1","odd","8","407300","404001","405065","2551","101605","405071","397541","2633","96940","409312","410435","406084","21562","409312","NA","Sternberg task","48","55608","62","yes","1024"
"77.77777777777777","77.77777777777777","894.4761904761905","894.4761904761905","black","experiment","legacy","legacy","legacy","0","uniform","1","undefined","1","left","62","62","62","0","0","62","62","0","0","62","62","62","0","62","0","Sun Oct 16 18:27:26 2022","The main experiment item","yes","Sternbergtask.osexp","/Users/katherinehays/Desktop","no","mono","no","18","no","white","no","yes","768","legacy","50","11","/Users/katherinehays/Desktop/KH-subject-1.csv","legacy","6 2","Lentiform Loewenfeld","3.3.12","1","y","0","left","right","left","left","NA","744","18851","4664","744","NA","2","legacy","2","1024","2","48000","-16","experiment","1","odd","6","413730","410440","411493","2551","101605","411498","397541","2633","96940","415742","416487","412511","21562","415742","NA","Sternberg task","49","56352","63","yes","1024"
"78.125","78.125","905.03125","905.03125","black","experiment","legacy","legacy","legacy","0","uniform","1","undefined","1","right","63","63","63","0","0","63","63","0","0","63","63","63","0","63","0","Sun Oct 16 18:27:26 2022","The main experiment item","yes","Sternbergtask.osexp","/Users/katherinehays/Desktop","no","mono","no","18","no","white","no","yes","768","legacy","51","11","/Users/katherinehays/Desktop/KH-subject-1.csv","legacy","1","Lentiform Loewenfeld","3.3.12","0","n","0","right","right","left","right","NA","1570","18851","4664","1570","NA","2","legacy","1","1024","2","48000","-16","experiment","1","odd","7","419790","416492","417551","2551","101605","417557","397541","2633","96940","421803","423374","418574","21562","421803","NA","Sternberg task","50","57922","64","yes","1024"
"78.46153846153847","78.46153846153847","906.8923076923077","906.8923076923077","black","experiment","legacy","legacy","legacy","0","uniform","1","undefined","1","right","64","64","64","0","0","64","64","0","0","64","64","64","0","64","0","Sun Oct 16 18:27:26 2022","The main experiment item","yes","Sternbergtask.osexp","/Users/katherinehays/Desktop","no","mono","no","18","no","white","no","yes","768","legacy","52","11","/Users/katherinehays/Desktop/KH-subject-1.csv","legacy","5","Lentiform Loewenfeld","3.3.12","0","n","0","right","right","left","right","NA","1026","18851","4664","1026","NA","2","legacy","1","1024","2","48000","-16","experiment","1","odd","8","426666","423379","424433","2551","101605","424438","397541","2633","96940","428677","429703","425451","21562","428677","NA","Sternberg task","51","58948","65","yes","1024"
"78.78787878787878","78.78787878787878","907.4090909090909","907.4090909090909","black","experiment","legacy","legacy","legacy","0","uniform","1","undefined","1","right","65","65","65","0","0","65","65","0","0","65","65","65","0","65","0","Sun Oct 16 18:27:26 2022","The main experiment item","yes","Sternbergtask.osexp","/Users/katherinehays/Desktop","no","mono","no","18","no","white","no","yes","768","legacy","53","11","/Users/katherinehays/Desktop/KH-subject-1.csv","legacy","2 8 9","Lentiform Loewenfeld","3.3.12","0","n","0","right","right","left","right","NA","941","18851","4664","941","NA","2","legacy","3","1024","2","48000","-16","experiment","1","odd","6","433004","429708","430768","2551","101605","430774","397541","2633","96940","435016","435957","431788","21562","435016","NA","Sternberg task","52","59889","66","yes","1024"
"79.1044776119403","79.1044776119403","910.7014925373135","910.7014925373135","black","experiment","legacy","legacy","legacy","0","uniform","1","undefined","1","left","66","66","66","0","0","66","66","0","0","66","66","66","0","66","0","Sun Oct 16 18:27:26 2022","The main experiment item","yes","Sternbergtask.osexp","/Users/katherinehays/Desktop","no","mono","no","18","no","white","no","yes","768","legacy","54","11","/Users/katherinehays/Desktop/KH-subject-1.csv","legacy","7 8 6 3 1","Lentiform Loewenfeld","3.3.12","5","y","0","left","right","left","left","NA","1128","18851","4664","1128","NA","2","legacy","5","1024","2","48000","-16","experiment","1","odd","1","439248","435962","437014","2551","101605","437019","397541","2633","96940","441260","442389","438033","21562","441260","NA","Sternberg task","53","61017","67","yes","1024"
"79.41176470588235","79.41176470588235","915.8382352941177","915.8382352941177","black","experiment","legacy","legacy","legacy","0","uniform","1","undefined","1","left","67","67","67","0","0","67","67","0","0","67","67","67","0","67","0","Sun Oct 16 18:27:26 2022","The main experiment item","yes","Sternbergtask.osexp","/Users/katherinehays/Desktop","no","mono","no","18","no","white","no","yes","768","legacy","55","11","/Users/katherinehays/Desktop/KH-subject-1.csv","legacy","5 2 9 6 1 7","Lentiform Loewenfeld","3.3.12","3","y","0","left","right","left","left","NA","1260","18851","4664","1260","NA","2","legacy","6","1024","2","48000","-16","experiment","1","odd","9","445688","442394","443455","2551","101605","443461","397541","2633","96940","447700","448961","444473","21562","447699","NA","Sternberg task","54","62277","68","yes","1024"
"79.71014492753623","79.71014492753623","913.8260869565217","913.8260869565217","black","experiment","legacy","legacy","legacy","0","uniform","1","undefined","1","left","68","68","68","0","0","68","68","0","0","68","68","68","0","68","0","Sun Oct 16 18:27:26 2022","The main experiment item","yes","Sternbergtask.osexp","/Users/katherinehays/Desktop","no","mono","no","18","no","white","no","yes","768","legacy","56","11","/Users/katherinehays/Desktop/KH-subject-1.csv","legacy","6 7 9 3 1 2","Lentiform Loewenfeld","3.3.12","1","y","0","left","right","left","left","NA","777","18851","4664","777","NA","2","legacy","6","1024","2","48000","-16","experiment","1","odd","6","452264","448966","450030","2551","101605","450035","397541","2633","96940","454275","455053","451049","21562","454274","NA","Sternberg task","55","63054","69","yes","1024"
"80","80","918.9571428571429","918.9571428571429","black","experiment","legacy","legacy","legacy","0","uniform","1","undefined","1","right","69","69","69","0","0","69","69","0","0","69","69","69","0","69","0","Sun Oct 16 18:27:26 2022","The main experiment item","yes","Sternbergtask.osexp","/Users/katherinehays/Desktop","no","mono","no","18","no","white","no","yes","768","legacy","57","11","/Users/katherinehays/Desktop/KH-subject-1.csv","legacy","1 5 3 2 8","Lentiform Loewenfeld","3.3.12","0","n","0","right","right","left","right","NA","1273","18851","4664","1273","NA","2","legacy","5","1024","2","48000","-16","experiment","1","odd","4","458340","455058","456104","2551","101605","456111","397541","2633","96940","460351","461624","457124","21562","460351","NA","Sternberg task","56","64327","70","yes","1024"
"80.28169014084507","80.28169014084507","931.4929577464789","931.4929577464789","black","experiment","legacy","legacy","legacy","0","uniform","1","undefined","1","right","70","70","70","0","0","70","70","0","0","70","70","70","0","70","0","Sun Oct 16 18:27:26 2022","The main experiment item","yes","Sternbergtask.osexp","/Users/katherinehays/Desktop","no","mono","no","18","no","white","no","yes","768","legacy","58","11","/Users/katherinehays/Desktop/KH-subject-1.csv","legacy","5 3 8 7 2 4","Lentiform Loewenfeld","3.3.12","0","n","0","right","right","left","right","NA","1809","18851","4664","1809","NA","2","legacy","6","1024","2","48000","-16","experiment","1","odd","9","464929","461630","462695","2551","101605","462701","397541","2633","96940","466940","468750","463714","21562","466940","NA","Sternberg task","57","66136","71","yes","1024"
"80.55555555555556","80.55555555555556","928.4027777777778","928.4027777777778","black","experiment","legacy","legacy","legacy","0","uniform","1","undefined","1","right","71","71","71","0","0","71","71","0","0","71","71","71","0","71","0","Sun Oct 16 18:27:26 2022","The main experiment item","yes","Sternbergtask.osexp","/Users/katherinehays/Desktop","no","mono","no","18","no","white","no","yes","768","legacy","59","11","/Users/katherinehays/Desktop/KH-subject-1.csv","legacy","5 7 3","Lentiform Loewenfeld","3.3.12","0","n","0","right","right","left","right","NA","709","18851","4664","709","NA","2","legacy","3","1024","2","48000","-16","experiment","1","odd","9","472054","468754","469819","2551","101605","469825","397541","2633","96940","474065","474775","470837","21562","474065","NA","Sternberg task","58","66845","72","yes","1024"
"80.82191780821918","80.82191780821918","926.1780821917808","926.1780821917808","black","experiment","legacy","legacy","legacy","0","uniform","1","undefined","1","right","72","72","72","0","0","72","72","0","0","72","72","72","0","72","0","Sun Oct 16 18:27:26 2022","The main experiment item","yes","Sternbergtask.osexp","/Users/katherinehays/Desktop","no","mono","no","18","no","white","no","yes","768","legacy","60","11","/Users/katherinehays/Desktop/KH-subject-1.csv","legacy","2 8 6 3 1","Lentiform Loewenfeld","3.3.12","0","n","0","right","right","left","right","NA","766","18851","4664","766","NA","2","legacy","5","1024","2","48000","-16","experiment","1","odd","7","478073","474780","475840","2551","101605","475846","397541","2633","96940","480090","480857","476858","21562","480090","NA","Sternberg task","59","67611","73","yes","1024"
"81.08108108108108","81.08108108108108","927.3783783783783","927.3783783783783","black","experiment","legacy","legacy","legacy","0","uniform","1","undefined","1","right","73","73","73","0","0","73","73","0","0","73","73","73","0","73","0","Sun Oct 16 18:27:26 2022","The main experiment item","yes","Sternbergtask.osexp","/Users/katherinehays/Desktop","no","mono","no","18","no","white","no","yes","768","legacy","61","11","/Users/katherinehays/Desktop/KH-subject-1.csv","legacy","1 7 5 2 9","Lentiform Loewenfeld","3.3.12","0","n","0","right","right","left","right","NA","1015","18851","4664","1015","NA","2","legacy","5","1024","2","48000","-16","experiment","1","odd","3","484162","480862","481927","2551","101605","481933","397541","2633","96940","486171","487187","482946","21562","486171","NA","Sternberg task","60","68626","74","yes","1024"
"81.33333333333333","81.33333333333333","927.5866666666667","927.5866666666667","black","experiment","legacy","legacy","legacy","0","uniform","1","undefined","1","right","74","74","74","0","0","74","74","0","0","74","74","74","0","74","0","Sun Oct 16 18:27:26 2022","The main experiment item","yes","Sternbergtask.osexp","/Users/katherinehays/Desktop","no","mono","no","18","no","white","no","yes","768","legacy","62","11","/Users/katherinehays/Desktop/KH-subject-1.csv","legacy","7 6 4 8 1 2","Lentiform Loewenfeld","3.3.12","0","n","0","right","right","left","right","NA","943","18851","4664","943","NA","2","legacy","6","1024","2","48000","-16","experiment","1","odd","9","490489","487192","488254","2551","101605","488260","397541","2633","96940","492499","493443","489274","21562","492499","NA","Sternberg task","61","69569","75","yes","1024"
"81.57894736842105","81.57894736842105","927.828947368421","927.828947368421","black","experiment","legacy","legacy","legacy","0","uniform","1","undefined","1","left","75","75","75","0","0","75","75","0","0","75","75","75","0","75","0","Sun Oct 16 18:27:26 2022","The main experiment item","yes","Sternbergtask.osexp","/Users/katherinehays/Desktop","no","mono","no","18","no","white","no","yes","768","legacy","63","11","/Users/katherinehays/Desktop/KH-subject-1.csv","legacy","7","Lentiform Loewenfeld","3.3.12","1","y","0","left","right","left","left","NA","946","18851","4664","946","NA","2","legacy","1","1024","2","48000","-16","experiment","1","odd","7","496745","493448","494509","2551","101605","494515","397541","2633","96940","498756","499703","495530","21562","498756","NA","Sternberg task","62","70515","76","yes","1024"
"81.81818181818181","81.81818181818181","930.4155844155844","930.4155844155844","black","experiment","legacy","legacy","legacy","0","uniform","1","undefined","1","right","76","76","76","0","0","76","76","0","0","76","76","76","0","76","0","Sun Oct 16 18:27:26 2022","The main experiment item","yes","Sternbergtask.osexp","/Users/katherinehays/Desktop","no","mono","no","18","no","white","no","yes","768","legacy","64","11","/Users/katherinehays/Desktop/KH-subject-1.csv","legacy","1 3 2 6 9","Lentiform Loewenfeld","3.3.12","0","n","0","right","right","left","right","NA","1127","18851","4664","1127","NA","2","legacy","5","1024","2","48000","-16","experiment","1","odd","5","503000","499708","500764","2551","101605","500769","397541","2633","96940","505011","506139","501784","21562","505011","NA","Sternberg task","63","71642","77","yes","1024"
"82.05128205128206","82.05128205128206","930.7307692307693","930.7307692307693","black","experiment","legacy","legacy","legacy","0","uniform","1","undefined","1","left","77","77","77","0","0","77","77","0","0","77","77","77","0","77","0","Sun Oct 16 18:27:26 2022","The main experiment item","yes","Sternbergtask.osexp","/Users/katherinehays/Desktop","no","mono","no","18","no","white","no","yes","768","legacy","65","11","/Users/katherinehays/Desktop/KH-subject-1.csv","legacy","6 8 9 3 4 9","Lentiform Loewenfeld","3.3.12","5","y","0","left","right","left","left","NA","955","18851","4664","955","NA","2","legacy","6","1024","2","48000","-16","experiment","1","odd","4","509433","506144","507198","2551","101605","507203","397541","2633","96940","511447","512403","508218","21562","511446","NA","Sternberg task","64","72597","78","yes","1024"
"82.27848101265823","82.27848101265823","928.7088607594936","928.7088607594936","black","experiment","legacy","legacy","legacy","0","uniform","1","undefined","1","left","78","78","78","0","0","78","78","0","0","78","78","78","0","78","0","Sun Oct 16 18:27:26 2022","The main experiment item","yes","Sternbergtask.osexp","/Users/katherinehays/Desktop","no","mono","no","18","no","white","no","yes","768","legacy","66","11","/Users/katherinehays/Desktop/KH-subject-1.csv","legacy","7 1 3","Lentiform Loewenfeld","3.3.12","2","y","0","left","right","left","left","NA","771","18851","4664","771","NA","2","legacy","3","1024","2","48000","-16","experiment","1","odd","1","515702","512408","513469","2551","101605","513474","397541","2633","96940","517715","518487","514487","21562","517714","NA","Sternberg task","65","73368","79","yes","1024"
"82.5","82.5","928.7875","928.7875","black","experiment","legacy","legacy","legacy","0","uniform","1","undefined","1","left","79","79","79","0","0","79","79","0","0","79","79","79","0","79","0","Sun Oct 16 18:27:26 2022","The main experiment item","yes","Sternbergtask.osexp","/Users/katherinehays/Desktop","no","mono","no","18","no","white","no","yes","768","legacy","67","11","/Users/katherinehays/Desktop/KH-subject-1.csv","legacy","4 6 5 8","Lentiform Loewenfeld","3.3.12","1","y","0","left","right","left","left","NA","935","18851","4664","935","NA","2","legacy","4","1024","2","48000","-16","experiment","1","odd","4","521785","518492","519551","2551","101605","519557","397541","2633","96940","523797","524733","520570","21562","523797","NA","Sternberg task","66","74303","80","yes","1024"
"82.71604938271605","82.71604938271605","924.5679012345679","924.5679012345679","black","experiment","legacy","legacy","legacy","0","uniform","1","undefined","1","left","80","80","80","0","0","80","80","0","0","80","80","80","0","80","0","Sun Oct 16 18:27:26 2022","The main experiment item","yes","Sternbergtask.osexp","/Users/katherinehays/Desktop","no","mono","no","18","no","white","no","yes","768","legacy","68","11","/Users/katherinehays/Desktop/KH-subject-1.csv","legacy","9 8 4","Lentiform Loewenfeld","3.3.12","1","y","0","left","right","left","left","NA","587","18851","4664","587","NA","2","legacy","3","1024","2","48000","-16","experiment","1","odd","9","528030","524738","525796","2551","101605","525802","397541","2633","96940","530043","530631","526815","21562","530043","NA","Sternberg task","67","74890","81","yes","1024"
"81.70731707317073","81.70731707317073","925.8536585365854","925.8536585365854","black","experiment","legacy","legacy","legacy","0","uniform","0","undefined","0","left","81","81","81","0","0","81","81","0","0","81","81","81","0","81","0","Sun Oct 16 18:27:26 2022","The main experiment item","yes","Sternbergtask.osexp","/Users/katherinehays/Desktop","no","mono","no","18","no","white","no","yes","768","legacy","69","11","/Users/katherinehays/Desktop/KH-subject-1.csv","legacy","9 3 8 2 1 4","Lentiform Loewenfeld","3.3.12","3","y","0","right","right","left","right","NA","1030","18851","4664","1030","NA","2","legacy","6","1024","2","48000","-16","experiment","1","odd","8","533936","530636","531702","2551","101605","531708","397541","2633","96940","535946","536977","532720","21562","535946","NA","Sternberg task","67","75920","82","yes","1024"
"80.72289156626506","80.72289156626506","923.566265060241","923.566265060241","black","experiment","legacy","legacy","legacy","0","uniform","0","undefined","0","right","82","82","82","0","0","82","82","0","0","82","82","82","0","82","0","Sun Oct 16 18:27:26 2022","The main experiment item","yes","Sternbergtask.osexp","/Users/katherinehays/Desktop","no","mono","no","18","no","white","no","yes","768","legacy","70","11","/Users/katherinehays/Desktop/KH-subject-1.csv","legacy","6 3 1 7 9 8","Lentiform Loewenfeld","3.3.12","0","n","0","left","right","left","left","NA","736","18851","4664","736","NA","2","legacy","6","1024","2","48000","-16","experiment","1","odd","4","540276","530636","538043","2551","101605","538048","536982","2633","96940","542287","543024","539060","21562","542287","NA","Sternberg task","67","76656","83","yes","1024"
"80.95238095238095","80.95238095238095","924.2380952380952","924.2380952380952","black","experiment","legacy","legacy","legacy","0","uniform","1","undefined","1","right","83","83","83","0","0","83","83","0","0","83","83","83","0","83","0","Sun Oct 16 18:27:26 2022","The main experiment item","yes","Sternbergtask.osexp","/Users/katherinehays/Desktop","no","mono","no","18","no","white","no","yes","768","legacy","71","11","/Users/katherinehays/Desktop/KH-subject-1.csv","legacy","9 7 4 5 8","Lentiform Loewenfeld","3.3.12","0","n","0","right","right","left","right","NA","980","18851","4664","980","NA","2","legacy","5","1024","2","48000","-16","experiment","1","odd","6","546324","530636","544090","2551","101605","544096","543029","2633","96940","548335","549316","545109","21562","548335","NA","Sternberg task","68","77636","84","yes","1024"
"81.17647058823529","81.17647058823529","926.9411764705883","926.9411764705883","black","experiment","legacy","legacy","legacy","0","uniform","1","undefined","1","right","84","84","84","0","0","84","84","0","0","84","84","84","0","84","0","Sun Oct 16 18:27:26 2022","The main experiment item","yes","Sternbergtask.osexp","/Users/katherinehays/Desktop","no","mono","no","18","no","white","no","yes","768","legacy","72","11","/Users/katherinehays/Desktop/KH-subject-1.csv","legacy","7 3 2 8","Lentiform Loewenfeld","3.3.12","0","n","0","right","right","left","right","NA","1154","18851","4664","1154","NA","2","legacy","4","1024","2","48000","-16","experiment","1","odd","4","552619","549322","550384","2551","101605","550390","543029","2633","96940","554631","555786","551403","21562","554630","NA","Sternberg task","69","78790","85","yes","1024"
"81.3953488372093","81.3953488372093","927.4186046511628","927.4186046511628","black","experiment","legacy","legacy","legacy","0","uniform","1","undefined","1","right","85","85","85","0","0","85","85","0","0","85","85","85","0","85","0","Sun Oct 16 18:27:26 2022","The main experiment item","yes","Sternbergtask.osexp","/Users/katherinehays/Desktop","no","mono","no","18","no","white","no","yes","768","legacy","73","11","/Users/katherinehays/Desktop/KH-subject-1.csv","legacy","4 2 6 9","Lentiform Loewenfeld","3.3.12","0","n","0","right","right","left","right","NA","968","18851","4664","968","NA","2","legacy","4","1024","2","48000","-16","experiment","1","odd","7","559087","555791","556851","2551","101605","556857","543029","2633","96940","561096","562065","557872","21562","561096","NA","Sternberg task","70","79758","86","yes","1024"
"80.45977011494253","80.45977011494253","927.2413793103449","927.2413793103449","black","experiment","legacy","legacy","legacy","0","uniform","0","undefined","0","right","86","86","86","0","0","86","86","0","0","86","86","86","0","86","0","Sun Oct 16 18:27:26 2022","The main experiment item","yes","Sternbergtask.osexp","/Users/katherinehays/Desktop","no","mono","no","18","no","white","no","yes","768","legacy","74","11","/Users/katherinehays/Desktop/KH-subject-1.csv","legacy","6 7 5 9","Lentiform Loewenfeld","3.3.12","0","n","0","left","right","left","left","NA","912","18851","4664","912","NA","2","legacy","4","1024","2","48000","-16","experiment","1","odd","2","565366","562070","563132","2551","101605","563138","543029","2633","96940","567378","568291","564151","21562","567377","NA","Sternberg task","70","80670","87","yes","1024"
"80.68181818181819","80.68181818181819","928.2159090909091","928.2159090909091","black","experiment","legacy","legacy","legacy","0","uniform","1","undefined","1","left","87","87","87","0","0","87","87","0","0","87","87","87","0","87","0","Sun Oct 16 18:27:26 2022","The main experiment item","yes","Sternbergtask.osexp","/Users/katherinehays/Desktop","no","mono","no","18","no","white","no","yes","768","legacy","75","11","/Users/katherinehays/Desktop/KH-subject-1.csv","legacy","2 4 6 9","Lentiform Loewenfeld","3.3.12","3","y","0","left","right","left","left","NA","1013","18851","4664","1013","NA","2","legacy","4","1024","2","48000","-16","experiment","1","odd","6","571593","562070","569357","2551","101605","569363","568296","2633","96940","573605","574619","570377","21562","573605","NA","Sternberg task","71","81683","88","yes","1024"
"80.89887640449439","80.89887640449439","926.5056179775281","926.5056179775281","black","experiment","legacy","legacy","legacy","0","uniform","1","undefined","1","left","88","88","88","0","0","88","88","0","0","88","88","88","0","88","0","Sun Oct 16 18:27:26 2022","The main experiment item","yes","Sternbergtask.osexp","/Users/katherinehays/Desktop","no","mono","no","18","no","white","no","yes","768","legacy","76","11","/Users/katherinehays/Desktop/KH-subject-1.csv","legacy","8 7 3","Lentiform Loewenfeld","3.3.12","1","y","0","left","right","left","left","NA","776","18851","4664","776","NA","2","legacy","3","1024","2","48000","-16","experiment","1","odd","8","577924","574624","575687","2551","101605","575692","568296","2633","96940","579935","580712","576704","21562","579935","NA","Sternberg task","72","82459","89","yes","1024"
"81.11111111111111","81.11111111111111","925.7888888888889","925.7888888888889","black","experiment","legacy","legacy","legacy","0","uniform","1","undefined","1","right","89","89","89","0","0","89","89","0","0","89","89","89","0","89","0","Sun Oct 16 18:27:26 2022","The main experiment item","yes","Sternbergtask.osexp","/Users/katherinehays/Desktop","no","mono","no","18","no","white","no","yes","768","legacy","77","11","/Users/katherinehays/Desktop/KH-subject-1.csv","legacy","1 4 9 3","Lentiform Loewenfeld","3.3.12","0","n","0","right","right","left","right","NA","862","18851","4664","862","NA","2","legacy","4","1024","2","48000","-16","experiment","1","odd","5","584017","580717","581783","2551","101605","581789","568296","2633","96940","586028","586891","582802","21562","586028","NA","Sternberg task","73","83321","90","yes","1024"
"81.31868131868131","81.31868131868131","929.4175824175824","929.4175824175824","black","experiment","legacy","legacy","legacy","0","uniform","1","undefined","1","left","90","90","90","0","0","90","90","0","0","90","90","90","0","90","0","Sun Oct 16 18:27:26 2022","The main experiment item","yes","Sternbergtask.osexp","/Users/katherinehays/Desktop","no","mono","no","18","no","white","no","yes","768","legacy","78","11","/Users/katherinehays/Desktop/KH-subject-1.csv","legacy","2 8 5 1","Lentiform Loewenfeld","3.3.12","4","y","0","left","right","left","left","NA","1256","18851","4664","1256","NA","2","legacy","4","1024","2","48000","-16","experiment","1","odd","1","590193","586896","587956","2551","101605","587962","568296","2633","96940","592206","593463","588976","21562","592206","NA","Sternberg task","74","84577","91","yes","1024"
"81.52173913043478","81.52173913043478","928.9565217391304","928.9565217391304","black","experiment","legacy","legacy","legacy","0","uniform","1","undefined","1","left","91","91","91","0","0","91","91","0","0","91","91","91","0","91","0","Sun Oct 16 18:27:26 2022","The main experiment item","yes","Sternbergtask.osexp","/Users/katherinehays/Desktop","no","mono","no","18","no","white","no","yes","768","legacy","79","11","/Users/katherinehays/Desktop/KH-subject-1.csv","legacy","3 9 7 6 4","Lentiform Loewenfeld","3.3.12","3","y","0","left","right","left","left","NA","887","18851","4664","887","NA","2","legacy","5","1024","2","48000","-16","experiment","1","odd","7","596757","593468","594525","2551","101605","594530","568296","2633","96940","598769","599657","595542","21562","598769","NA","Sternberg task","75","85464","92","yes","1024"
"81.72043010752688","81.72043010752688","927.1397849462365","927.1397849462365","black","experiment","legacy","legacy","legacy","0","uniform","1","undefined","1","left","92","92","92","0","0","92","92","0","0","92","92","92","0","92","0","Sun Oct 16 18:27:26 2022","The main experiment item","yes","Sternbergtask.osexp","/Users/katherinehays/Desktop","no","mono","no","18","no","white","no","yes","768","legacy","80","11","/Users/katherinehays/Desktop/KH-subject-1.csv","legacy","7 6","Lentiform Loewenfeld","3.3.12","2","y","0","left","right","left","left","NA","760","18851","4664","760","NA","2","legacy","2","1024","2","48000","-16","experiment","1","odd","6","602958","599662","600723","2551","101605","600729","568296","2633","96940","604968","605729","601741","21562","604968","NA","Sternberg task","76","86224","93","yes","1024"
"81.91489361702128","81.91489361702128","924.7446808510638","924.7446808510638","black","experiment","legacy","legacy","legacy","0","uniform","1","undefined","1","left","93","93","93","0","0","93","93","0","0","93","93","93","0","93","0","Sun Oct 16 18:27:26 2022","The main experiment item","yes","Sternbergtask.osexp","/Users/katherinehays/Desktop","no","mono","no","18","no","white","no","yes","768","legacy","81","11","/Users/katherinehays/Desktop/KH-subject-1.csv","legacy","9 5 8 1","Lentiform Loewenfeld","3.3.12","2","y","0","left","right","left","left","NA","702","18851","4664","702","NA","2","legacy","4","1024","2","48000","-16","experiment","1","odd","5","609031","605734","606795","2551","101605","606801","568296","2633","96940","611042","611745","607815","21562","611042","NA","Sternberg task","77","86926","94","yes","1024"
"82.10526315789474","82.10526315789474","926.4842105263158","926.4842105263158","black","experiment","legacy","legacy","legacy","0","uniform","1","undefined","1","left","94","94","94","0","0","94","94","0","0","94","94","94","0","94","0","Sun Oct 16 18:27:26 2022","The main experiment item","yes","Sternbergtask.osexp","/Users/katherinehays/Desktop","no","mono","no","18","no","white","no","yes","768","legacy","82","11","/Users/katherinehays/Desktop/KH-subject-1.csv","legacy","2 6 1 7 4","Lentiform Loewenfeld","3.3.12","2","y","0","left","right","left","left","NA","1090","18851","4664","1090","NA","2","legacy","5","1024","2","48000","-16","experiment","1","odd","6","615045","611750","612811","2551","101605","612817","568296","2633","96940","617057","618148","613830","21562","617057","NA","Sternberg task","78","88016","95","yes","1024"
"82.29166666666667","82.29166666666667","926.5104166666666","926.5104166666666","black","experiment","legacy","legacy","legacy","0","uniform","1","undefined","1","left","95","95","95","0","0","95","95","0","0","95","95","95","0","95","0","Sun Oct 16 18:27:26 2022","The main experiment item","yes","Sternbergtask.osexp","/Users/katherinehays/Desktop","no","mono","no","18","no","white","no","yes","768","legacy","83","11","/Users/katherinehays/Desktop/KH-subject-1.csv","legacy","8 1 6","Lentiform Loewenfeld","3.3.12","3","y","0","left","right","left","left","NA","929","18851","4664","929","NA","2","legacy","3","1024","2","48000","-16","experiment","1","odd","6","621440","618153","619208","2551","101605","619213","568296","2633","96940","623451","624381","620226","21562","623451","NA","Sternberg task","79","88945","96","yes","1024"
"81.44329896907216","81.44329896907216","923.6907216494845","923.6907216494845","black","experiment","legacy","legacy","legacy","0","uniform","0","undefined","0","left","96","96","96","0","0","96","96","0","0","96","96","96","0","96","0","Sun Oct 16 18:27:26 2022","The main experiment item","yes","Sternbergtask.osexp","/Users/katherinehays/Desktop","no","mono","no","18","no","white","no","yes","768","legacy","84","11","/Users/katherinehays/Desktop/KH-subject-1.csv","legacy","4 3 2 5 8","Lentiform Loewenfeld","3.3.12","2","y","0","right","right","left","right","NA","653","18851","4664","653","NA","2","legacy","5","1024","2","48000","-16","experiment","1","odd","3","627681","624386","625445","2551","101605","625450","568296","2633","96940","629692","630346","626464","21562","629692","NA","Sternberg task","79","89598","97","yes","1024"
"80.61224489795919","80.61224489795919","934.6836734693877","934.6836734693877","black","experiment","legacy","legacy","legacy","0","uniform","0","undefined","0","right","97","97","97","0","0","97","97","0","0","97","97","97","0","97","0","Sun Oct 16 18:27:26 2022","The main experiment item","yes","Sternbergtask.osexp","/Users/katherinehays/Desktop","no","mono","no","18","no","white","no","yes","768","legacy","85","11","/Users/katherinehays/Desktop/KH-subject-1.csv","legacy","9","Lentiform Loewenfeld","3.3.12","0","n","0","None","right","left","None","NA","2001","18851","4664","2001","NA","2","legacy","1","1024","2","48000","-16","experiment","1","odd","6","633648","624386","631416","2551","101605","631421","630351","2633","96940","635659","637660","632433","21562","635659","NA","Sternberg task","79","91599","98","yes","1024"
"80.8080808080808","80.8080808080808","934.8080808080808","934.8080808080808","black","experiment","legacy","legacy","legacy","0","uniform","1","undefined","1","right","98","98","98","0","0","98","98","0","0","98","98","98","0","98","0","Sun Oct 16 18:27:26 2022","The main experiment item","yes","Sternbergtask.osexp","/Users/katherinehays/Desktop","no","mono","no","18","no","white","no","yes","768","legacy","86","11","/Users/katherinehays/Desktop/KH-subject-1.csv","legacy","2 7 5","Lentiform Loewenfeld","3.3.12","0","n","0","right","right","left","right","NA","947","18851","4664","947","NA","2","legacy","3","1024","2","48000","-16","experiment","1","odd","8","640950","624386","638718","2551","101605","638723","637665","2633","96940","642961","643909","639735","21562","642961","NA","Sternberg task","80","92546","99","yes","1024"
"80","80","934.88","934.88","black","experiment","legacy","legacy","legacy","0","uniform","0","undefined","0","right","99","99","99","0","0","99","99","0","0","99","99","99","0","99","0","Sun Oct 16 18:27:26 2022","The main experiment item","yes","Sternbergtask.osexp","/Users/katherinehays/Desktop","no","mono","no","18","no","white","no","yes","768","legacy","87","11","/Users/katherinehays/Desktop/KH-subject-1.csv","legacy","2 6 4 3 9","Lentiform Loewenfeld","3.3.12","0","n","0","left","right","left","left","NA","942","18851","4664","942","NA","2","legacy","5","1024","2","48000","-16","experiment","1","odd","1","647213","643913","644978","2551","101605","644984","637665","2633","96940","649225","650168","645997","21562","649225","NA","Sternberg task","80","93488","100","yes","1024"
"80.1980198019802","80.1980198019802","935.7623762376238","935.7623762376238","black","experiment","legacy","legacy","legacy","0","uniform","1","undefined","1","right","100","100","100","0","0","100","100","0","0","100","100","100","0","100","0","Sun Oct 16 18:27:26 2022","The main experiment item","yes","Sternbergtask.osexp","/Users/katherinehays/Desktop","no","mono","no","18","no","white","no","yes","768","legacy","88","11","/Users/katherinehays/Desktop/KH-subject-1.csv","legacy","3 4 2","Lentiform Loewenfeld","3.3.12","0","n","0","right","right","left","right","NA","1024","18851","4664","1024","NA","2","legacy","3","1024","2","48000","-16","experiment","1","odd","5","653467","643913","651233","2551","101605","651239","650173","2633","96940","655483","656508","652251","21562","655483","NA","Sternberg task","81","94512","101","yes","1024"
"80.3921568627451","80.3921568627451","938.8823529411765","938.8823529411765","black","experiment","legacy","legacy","legacy","0","uniform","1","undefined","1","left","101","101","101","0","0","101","101","0","0","101","101","101","0","101","0","Sun Oct 16 18:27:26 2022","The main experiment item","yes","Sternbergtask.osexp","/Users/katherinehays/Desktop","no","mono","no","18","no","white","no","yes","768","legacy","89","11","/Users/katherinehays/Desktop/KH-subject-1.csv","legacy","4 1 8 7 5","Lentiform Loewenfeld","3.3.12","3","y","0","left","right","left","left","NA","1254","18851","4664","1254","NA","2","legacy","5","1024","2","48000","-16","experiment","1","odd","8","659811","656513","657576","2551","101605","657581","650173","2633","96940","661823","663078","658593","21562","661822","NA","Sternberg task","82","95766","102","yes","1024"
"80.58252427184466","80.58252427184466","938.8543689320388","938.8543689320388","black","experiment","legacy","legacy","legacy","0","uniform","1","undefined","1","right","102","102","102","0","0","102","102","0","0","102","102","102","0","102","0","Sun Oct 16 18:27:26 2022","The main experiment item","yes","Sternbergtask.osexp","/Users/katherinehays/Desktop","no","mono","no","18","no","white","no","yes","768","legacy","90","11","/Users/katherinehays/Desktop/KH-subject-1.csv","legacy","9 8 2 7 4","Lentiform Loewenfeld","3.3.12","0","n","0","right","right","left","right","NA","936","18851","4664","936","NA","2","legacy","5","1024","2","48000","-16","experiment","1","odd","5","666375","663082","664142","2551","101605","664148","650173","2633","96940","668388","669325","665160","21562","668388","NA","Sternberg task","83","96702","103","yes","1024"
"80.76923076923077","80.76923076923077","940.8461538461538","940.8461538461538","black","experiment","legacy","legacy","legacy","0","uniform","1","undefined","1","left","103","103","103","0","0","103","103","0","0","103","103","103","0","103","0","Sun Oct 16 18:27:26 2022","The main experiment item","yes","Sternbergtask.osexp","/Users/katherinehays/Desktop","no","mono","no","18","no","white","no","yes","768","legacy","91","11","/Users/katherinehays/Desktop/KH-subject-1.csv","legacy","1 4 9 3 2 5","Lentiform Loewenfeld","3.3.12","3","y","0","left","right","left","left","NA","1146","18851","4664","1146","NA","2","legacy","6","1024","2","48000","-16","experiment","1","odd","9","672623","669330","670388","2551","101605","670393","650173","2633","96940","674635","675782","671406","21562","674635","NA","Sternberg task","84","97848","104","yes","1024"
"80.95238095238095","80.95238095238095","939.0761904761905","939.0761904761905","black","experiment","legacy","legacy","legacy","0","uniform","1","undefined","1","right","104","104","104","0","0","104","104","0","0","104","104","104","0","104","0","Sun Oct 16 18:27:26 2022","The main experiment item","yes","Sternbergtask.osexp","/Users/katherinehays/Desktop","no","mono","no","18","no","white","no","yes","768","legacy","92","11","/Users/katherinehays/Desktop/KH-subject-1.csv","legacy","6 9 4 5 2","Lentiform Loewenfeld","3.3.12","0","n","0","right","right","left","right","NA","755","18851","4664","755","NA","2","legacy","5","1024","2","48000","-16","experiment","1","odd","1","679084","675787","676848","2551","101605","676854","650173","2633","96940","681097","681853","677869","21562","681097","NA","Sternberg task","85","98603","105","yes","1024"
"81.13207547169812","81.13207547169812","937.7830188679245","937.7830188679245","black","experiment","legacy","legacy","legacy","0","uniform","1","undefined","1","left","105","105","105","0","0","105","105","0","0","105","105","105","0","105","0","Sun Oct 16 18:27:26 2022","The main experiment item","yes","Sternbergtask.osexp","/Users/katherinehays/Desktop","no","mono","no","18","no","white","no","yes","768","legacy","93","11","/Users/katherinehays/Desktop/KH-subject-1.csv","legacy","3 9 6 2","Lentiform Loewenfeld","3.3.12","4","y","0","left","right","left","left","NA","802","18851","4664","802","NA","2","legacy","4","1024","2","48000","-16","experiment","1","odd","2","685153","681858","682919","2551","101605","682925","650173","2633","96940","687165","687968","683938","21562","687165","NA","Sternberg task","86","99405","106","yes","1024"
"81.30841121495327","81.30841121495327","938.411214953271","938.411214953271","black","experiment","legacy","legacy","legacy","0","uniform","1","undefined","1","left","106","106","106","0","0","106","106","0","0","106","106","106","0","106","0","Sun Oct 16 18:27:26 2022","The main experiment item","yes","Sternbergtask.osexp","/Users/katherinehays/Desktop","no","mono","no","18","no","white","no","yes","768","legacy","94","11","/Users/katherinehays/Desktop/KH-subject-1.csv","legacy","6 9 3 1","Lentiform Loewenfeld","3.3.12","4","y","0","left","right","left","left","NA","1005","18851","4664","1005","NA","2","legacy","4","1024","2","48000","-16","experiment","1","odd","1","691265","687973","689031","2551","101605","689037","650173","2633","96940","693276","694282","690050","21562","693276","NA","Sternberg task","87","100410","107","yes","1024"
"80.55555555555556","80.55555555555556","939.8518518518518","939.8518518518518","black","experiment","legacy","legacy","legacy","0","uniform","0","undefined","0","right","107","107","107","0","0","107","107","0","0","107","107","107","0","107","0","Sun Oct 16 18:27:26 2022","The main experiment item","yes","Sternbergtask.osexp","/Users/katherinehays/Desktop","no","mono","no","18","no","white","no","yes","768","legacy","95","11","/Users/katherinehays/Desktop/KH-subject-1.csv","legacy","8 5 7 3 6","Lentiform Loewenfeld","3.3.12","0","n","0","left","right","left","left","NA","1094","18851","4664","1094","NA","2","legacy","5","1024","2","48000","-16","experiment","1","odd","9","697580","694287","695345","2551","101605","695350","650173","2633","96940","699593","700688","696363","21562","699593","NA","Sternberg task","87","101504","108","yes","1024"
"80.73394495412845","80.73394495412845","939.4128440366973","939.4128440366973","black","experiment","legacy","legacy","legacy","0","uniform","1","undefined","1","left","108","108","108","0","0","108","108","0","0","108","108","108","0","108","0","Sun Oct 16 18:27:26 2022","The main experiment item","yes","Sternbergtask.osexp","/Users/katherinehays/Desktop","no","mono","no","18","no","white","no","yes","768","legacy","96","11","/Users/katherinehays/Desktop/KH-subject-1.csv","legacy","5 7 8 2 3 8","Lentiform Loewenfeld","3.3.12","5","y","0","left","right","left","left","NA","892","18851","4664","892","NA","2","legacy","6","1024","2","48000","-16","experiment","1","odd","3","703987","694287","701753","2551","101605","701759","700694","2633","96940","705999","706892","702772","21562","705999","NA","Sternberg task","88","102396","109","yes","1024"
"80.9090909090909","80.9090909090909","940.209090909091","940.209090909091","black","experiment","legacy","legacy","legacy","0","uniform","1","undefined","1","right","109","109","109","0","0","109","109","0","0","109","109","109","0","109","0","Sun Oct 16 18:27:26 2022","The main experiment item","yes","Sternbergtask.osexp","/Users/katherinehays/Desktop","no","mono","no","18","no","white","no","yes","768","legacy","97","11","/Users/katherinehays/Desktop/KH-subject-1.csv","legacy","7 1 5 6 3","Lentiform Loewenfeld","3.3.12","0","n","0","right","right","left","right","NA","1027","18851","4664","1027","NA","2","legacy","5","1024","2","48000","-16","experiment","1","odd","8","710195","706897","707956","2551","101605","707962","700694","2633","96940","712207","713235","708979","21562","712206","NA","Sternberg task","89","103423","110","yes","1024"
"80.18018018018019","80.18018018018019","937.9549549549549","937.9549549549549","black","experiment","legacy","legacy","legacy","0","uniform","0","undefined","0","right","110","110","110","0","0","110","110","0","0","110","110","110","0","110","0","Sun Oct 16 18:27:26 2022","The main experiment item","yes","Sternbergtask.osexp","/Users/katherinehays/Desktop","no","mono","no","18","no","white","no","yes","768","legacy","98","11","/Users/katherinehays/Desktop/KH-subject-1.csv","legacy","9 5 3 2 8 6","Lentiform Loewenfeld","3.3.12","0","n","0","left","right","left","left","NA","690","18851","4664","690","NA","2","legacy","6","1024","2","48000","-16","experiment","1","odd","7","716537","713240","714301","2551","101605","714307","700694","2633","96940","718549","719240","715322","21562","718548","NA","Sternberg task","89","104113","111","yes","1024"
"80.35714285714286","80.35714285714286","936.9196428571429","936.9196428571429","black","experiment","legacy","legacy","legacy","0","uniform","1","undefined","1","left","111","111","111","0","0","111","111","0","0","111","111","111","0","111","0","Sun Oct 16 18:27:26 2022","The main experiment item","yes","Sternbergtask.osexp","/Users/katherinehays/Desktop","no","mono","no","18","no","white","no","yes","768","legacy","99","11","/Users/katherinehays/Desktop/KH-subject-1.csv","legacy","4 7 6 8 2 3","Lentiform Loewenfeld","3.3.12","6","y","0","left","right","left","left","NA","822","18851","4664","822","NA","2","legacy","6","1024","2","48000","-16","experiment","1","odd","3","722544","713240","720310","2551","101605","720316","719245","2633","96940","724555","725378","721329","21562","724555","NA","Sternberg task","90","104935","112","yes","1024"
"80.53097345132744","80.53097345132744","934.8761061946902","934.8761061946902","black","experiment","legacy","legacy","legacy","0","uniform","1","undefined","1","left","112","112","112","0","0","112","112","0","0","112","112","112","0","112","0","Sun Oct 16 18:27:26 2022","The main experiment item","yes","Sternbergtask.osexp","/Users/katherinehays/Desktop","no","mono","no","18","no","white","no","yes","768","legacy","100","11","/Users/katherinehays/Desktop/KH-subject-1.csv","legacy","3 4","Lentiform Loewenfeld","3.3.12","1","y","0","left","right","left","left","NA","706","18851","4664","706","NA","2","legacy","2","1024","2","48000","-16","experiment","1","odd","3","728680","725383","726446","2551","101605","726452","719245","2633","96940","730693","731400","727465","21562","730693","NA","Sternberg task","91","105641","113","yes","1024"
"80.70175438596492","80.70175438596492","938.8333333333334","938.8333333333334","black","experiment","legacy","legacy","legacy","0","uniform","1","undefined","1","right","113","113","113","0","0","113","113","0","0","113","113","113","0","113","0","Sun Oct 16 18:27:26 2022","The main experiment item","yes","Sternbergtask.osexp","/Users/katherinehays/Desktop","no","mono","no","18","no","white","no","yes","768","legacy","101","11","/Users/katherinehays/Desktop/KH-subject-1.csv","legacy","5 9 2 3","Lentiform Loewenfeld","3.3.12","0","n","0","right","right","left","right","NA","1386","18851","4664","1386","NA","2","legacy","4","1024","2","48000","-16","experiment","1","odd","8","734705","731405","732469","2551","101605","732475","719245","2633","96940","736718","738105","733490","21562","736717","NA","Sternberg task","92","107027","114","yes","1024"
"80.8695652173913","80.8695652173913","937.6347826086957","937.6347826086957","black","experiment","legacy","legacy","legacy","0","uniform","1","undefined","1","left","114","114","114","0","0","114","114","0","0","114","114","114","0","114","0","Sun Oct 16 18:27:26 2022","The main experiment item","yes","Sternbergtask.osexp","/Users/katherinehays/Desktop","no","mono","no","18","no","white","no","yes","768","legacy","102","11","/Users/katherinehays/Desktop/KH-subject-1.csv","legacy","8 5 3 7 4 6","Lentiform Loewenfeld","3.3.12","6","y","0","left","right","left","left","NA","801","18851","4664","801","NA","2","legacy","6","1024","2","48000","-16","experiment","1","odd","6","741399","738110","739166","2551","101605","739171","719245","2633","96940","743411","744213","740184","21562","743411","NA","Sternberg task","93","107828","115","yes","1024"
"80.17241379310344","80.17241379310344","939.0086206896551","939.0086206896551","black","experiment","legacy","legacy","legacy","0","uniform","0","undefined","0","right","115","115","115","0","0","115","115","0","0","115","115","115","0","115","0","Sun Oct 16 18:27:26 2022","The main experiment item","yes","Sternbergtask.osexp","/Users/katherinehays/Desktop","no","mono","no","18","no","white","no","yes","768","legacy","103","11","/Users/katherinehays/Desktop/KH-subject-1.csv","legacy","1 6 4","Lentiform Loewenfeld","3.3.12","0","n","0","left","right","left","left","NA","1097","18851","4664","1097","NA","2","legacy","3","1024","2","48000","-16","experiment","1","odd","7","747510","744218","745277","2551","101605","745283","719245","2633","96940","749522","750620","746295","21562","749522","NA","Sternberg task","93","108925","116","yes","1024"
"80.34188034188034","80.34188034188034","937.3418803418804","937.3418803418804","black","experiment","legacy","legacy","legacy","0","uniform","1","undefined","1","left","116","116","116","0","0","116","116","0","0","116","116","116","0","116","0","Sun Oct 16 18:27:26 2022","The main experiment item","yes","Sternbergtask.osexp","/Users/katherinehays/Desktop","no","mono","no","18","no","white","no","yes","768","legacy","104","11","/Users/katherinehays/Desktop/KH-subject-1.csv","legacy","9 3 1 2 5","Lentiform Loewenfeld","3.3.12","4","y","0","left","right","left","left","NA","744","18851","4664","744","NA","2","legacy","5","1024","2","48000","-16","experiment","1","odd","2","753907","744218","751674","2551","101605","751679","750625","2633","96940","755921","756666","752692","21562","755920","NA","Sternberg task","94","109669","117","yes","1024"
"80.50847457627118","80.50847457627118","936.1864406779661","936.1864406779661","black","experiment","legacy","legacy","legacy","0","uniform","1","undefined","1","left","117","117","117","0","0","117","117","0","0","117","117","117","0","117","0","Sun Oct 16 18:27:26 2022","The main experiment item","yes","Sternbergtask.osexp","/Users/katherinehays/Desktop","no","mono","no","18","no","white","no","yes","768","legacy","105","11","/Users/katherinehays/Desktop/KH-subject-1.csv","legacy","6 7 8 5","Lentiform Loewenfeld","3.3.12","3","y","0","left","right","left","left","NA","801","18851","4664","801","NA","2","legacy","4","1024","2","48000","-16","experiment","1","odd","8","759966","756671","757731","2551","101605","757738","750625","2633","96940","761981","762783","758751","21562","761980","NA","Sternberg task","95","110470","118","yes","1024"
