"acc","accuracy","average_response_time","avg_rt","background","block","canvas_backend","clock_backend","color_backend","compensation","coordinates","correct","correct_instruction1","correct_keyboard_response_1","correct_response","count_ISI_1","count_PracticeLoop","count_correctFeedback_1","count_expSequence_1","count_experiment","count_experimentLoop","count_fixation_1","count_incorrectFeedback_1","count_instruction1","count_instruction2","count_keyboard_response_1","count_logger_1","count_memorySet_1","count_probe_1","count_thankYou","datetime","description","disable_garbage_collection","experiment_file","experiment_path","font_bold","font_family","font_italic","font_size","font_underline","foreground","form_clicks","fullscreen","height","keyboard_backend","live_row","live_row_PracticeLoop","logfile","mouse_backend","numberSet","opensesame_codename","opensesame_version","posInSet","present","psychopy_waitblanking","repeat_cycle","response","response_instruction1","response_instruction2","response_keyboard_response_1","response_thankYou","response_time","response_time_instruction1","response_time_instruction2","response_time_keyboard_response_1","response_time_thankYou","round_decimals","sampler_backend","setSize","sound_buf_size","sound_channels","sound_freq","sound_sample_size","start","subject_nr","subject_parity","target","time_ISI_1","time_PracticeLoop","time_correctFeedback_1","time_expSequence_1","time_experiment","time_experimentLoop","time_fixation_1","time_incorrectFeedback_1","time_instruction1","time_instruction2","time_keyboard_response_1","time_logger_1","time_memorySet_1","time_probe_1","time_thankYou","title","total_correct","total_response_time","total_responses","uniform_coordinates","width"
"100","100","1028","1028","black","practice","legacy","legacy","legacy","0","uniform","1","undefined","1","right","0","0","0","0","0","0","0","0","0","0","0","0","0","0","0","Sun Oct 16 13:54:25 2022","The main experiment item","yes","SternbergTask.osexp","C:/Users/lil_p/OneDrive/Documents/School/Advanced Quantitative Analysis/Lab 3.1","no","mono","no","18","no","white","no","yes","768","legacy","0","0","C:/Users/lil_p/OneDrive/Documents/School/Advanced Quantitative Analysis/Lab 3.1/cp-subject-3.csv","legacy","3 1 9 4","Lentiform Loewenfeld","3.3.12","0","n","yes","0","right","left","NA","right","NA","1028","42734","NA","1028","NA","2","legacy","4","1024","2","48000","-16","experiment","3","odd","6","49679","46519","NA","47474","3777","NA","47477","NA","3783","NA","51680","52709","48478","51680","NA","Sternberg Task","1","1028","1","yes","1024"
"50","50","1514","1514","black","practice","legacy","legacy","legacy","0","uniform","0","undefined","0","right","1","0","1","1","0","0","1","1","0","0","1","1","1","1","0","Sun Oct 16 13:54:25 2022","The main experiment item","yes","SternbergTask.osexp","C:/Users/lil_p/OneDrive/Documents/School/Advanced Quantitative Analysis/Lab 3.1","no","mono","no","18","no","white","no","yes","768","legacy","1","1","C:/Users/lil_p/OneDrive/Documents/School/Advanced Quantitative Analysis/Lab 3.1/cp-subject-3.csv","legacy","5","Lentiform Loewenfeld","3.3.12","0","n","yes","0","None","left","NA","None","NA","2000","42734","NA","2000","NA","2","legacy","1","1024","2","48000","-16","experiment","3","odd","3","56105","46519","52782","53900","3777","NA","53903","NA","3783","NA","58106","60106","54904","58106","NA","Sternberg Task","1","3028","2","yes","1024"
"66.66666666666667","66.66666666666667","1328.3333333333333","1328.3333333333333","black","practice","legacy","legacy","legacy","0","uniform","1","undefined","1","left","2","0","2","2","0","0","2","2","0","0","2","2","2","2","0","Sun Oct 16 13:54:25 2022","The main experiment item","yes","SternbergTask.osexp","C:/Users/lil_p/OneDrive/Documents/School/Advanced Quantitative Analysis/Lab 3.1","no","mono","no","18","no","white","no","yes","768","legacy","2","2","C:/Users/lil_p/OneDrive/Documents/School/Advanced Quantitative Analysis/Lab 3.1/cp-subject-3.csv","legacy","4 8","Lentiform Loewenfeld","3.3.12","1","y","yes","0","left","left","NA","left","NA","957","42734","NA","957","NA","2","legacy","2","1024","2","48000","-16","experiment","3","odd","4","63440","46519","52782","61235","3777","NA","61237","60112","3783","NA","65442","66400","62238","65441","NA","Sternberg Task","2","3985","3","yes","1024"
"75","75","1329.75","1329.75","black","practice","legacy","legacy","legacy","0","uniform","1","undefined","1","left","3","0","3","3","0","0","3","3","0","0","3","3","3","3","0","Sun Oct 16 13:54:25 2022","The main experiment item","yes","SternbergTask.osexp","C:/Users/lil_p/OneDrive/Documents/School/Advanced Quantitative Analysis/Lab 3.1","no","mono","no","18","no","white","no","yes","768","legacy","3","3","C:/Users/lil_p/OneDrive/Documents/School/Advanced Quantitative Analysis/Lab 3.1/cp-subject-3.csv","legacy","1 7 9 8 5","Lentiform Loewenfeld","3.3.12","4","y","yes","0","left","left","NA","left","NA","1334","42734","NA","1334","NA","2","legacy","5","1024","2","48000","-16","experiment","3","odd","8","69738","46519","66407","67533","3777","NA","67535","60112","3783","NA","71739","73074","68536","71739","NA","Sternberg Task","3","5319","4","yes","1024"
"80","80","1229.2","1229.2","black","practice","legacy","legacy","legacy","0","uniform","1","undefined","1","left","4","0","4","4","0","0","4","4","0","0","4","4","4","4","0","Sun Oct 16 13:54:25 2022","The main experiment item","yes","SternbergTask.osexp","C:/Users/lil_p/OneDrive/Documents/School/Advanced Quantitative Analysis/Lab 3.1","no","mono","no","18","no","white","no","yes","768","legacy","4","4","C:/Users/lil_p/OneDrive/Documents/School/Advanced Quantitative Analysis/Lab 3.1/cp-subject-3.csv","legacy","2 9 4","Lentiform Loewenfeld","3.3.12","3","y","yes","0","left","left","NA","left","NA","827","42734","NA","827","NA","2","legacy","3","1024","2","48000","-16","experiment","3","odd","4","76401","46519","73081","74196","3777","NA","74199","60112","3783","NA","78403","79230","75200","78402","NA","Sternberg Task","4","6146","5","yes","1024"
"83.33333333333333","83.33333333333333","1157.6666666666667","1157.6666666666667","black","practice","legacy","legacy","legacy","0","uniform","1","undefined","1","right","5","0","5","5","0","0","5","5","0","0","5","5","5","5","0","Sun Oct 16 13:54:25 2022","The main experiment item","yes","SternbergTask.osexp","C:/Users/lil_p/OneDrive/Documents/School/Advanced Quantitative Analysis/Lab 3.1","no","mono","no","18","no","white","no","yes","768","legacy","5","5","C:/Users/lil_p/OneDrive/Documents/School/Advanced Quantitative Analysis/Lab 3.1/cp-subject-3.csv","legacy","4 1 5","Lentiform Loewenfeld","3.3.12","0","n","yes","0","right","left","NA","right","NA","800","42734","NA","800","NA","2","legacy","3","1024","2","48000","-16","experiment","3","odd","2","82558","46519","79236","80353","3777","NA","80356","60112","3783","NA","84559","85360","81357","84559","NA","Sternberg Task","5","6946","6","yes","1024"
"85.71428571428571","85.71428571428571","1097.5714285714287","1097.5714285714287","black","practice","legacy","legacy","legacy","0","uniform","1","undefined","1","left","6","0","6","6","0","0","6","6","0","0","6","6","6","6","0","Sun Oct 16 13:54:25 2022","The main experiment item","yes","SternbergTask.osexp","C:/Users/lil_p/OneDrive/Documents/School/Advanced Quantitative Analysis/Lab 3.1","no","mono","no","18","no","white","no","yes","768","legacy","6","6","C:/Users/lil_p/OneDrive/Documents/School/Advanced Quantitative Analysis/Lab 3.1/cp-subject-3.csv","legacy","1 5 2 9","Lentiform Loewenfeld","3.3.12","2","y","yes","0","left","left","NA","left","NA","737","42734","NA","737","NA","2","legacy","4","1024","2","48000","-16","experiment","3","odd","5","88702","46519","85366","86498","3777","NA","86500","60112","3783","NA","90703","91441","87501","90703","NA","Sternberg Task","6","7683","7","yes","1024"
"87.5","87.5","1061.375","1061.375","black","practice","legacy","legacy","legacy","0","uniform","1","undefined","1","right","7","0","7","7","0","0","7","7","0","0","7","7","7","7","0","Sun Oct 16 13:54:25 2022","The main experiment item","yes","SternbergTask.osexp","C:/Users/lil_p/OneDrive/Documents/School/Advanced Quantitative Analysis/Lab 3.1","no","mono","no","18","no","white","no","yes","768","legacy","7","7","C:/Users/lil_p/OneDrive/Documents/School/Advanced Quantitative Analysis/Lab 3.1/cp-subject-3.csv","legacy","9 6 7 4 5","Lentiform Loewenfeld","3.3.12","0","n","yes","0","right","left","NA","right","NA","808","42734","NA","808","NA","2","legacy","5","1024","2","48000","-16","experiment","3","odd","3","94780","46519","91447","92576","3777","NA","92578","60112","3783","NA","96781","97589","93579","96781","NA","Sternberg Task","7","8491","8","yes","1024"
"88.88888888888889","88.88888888888889","1037.4444444444443","1037.4444444444443","black","practice","legacy","legacy","legacy","0","uniform","1","undefined","1","left","8","0","8","8","0","0","8","8","0","0","8","8","8","8","0","Sun Oct 16 13:54:25 2022","The main experiment item","yes","SternbergTask.osexp","C:/Users/lil_p/OneDrive/Documents/School/Advanced Quantitative Analysis/Lab 3.1","no","mono","no","18","no","white","no","yes","768","legacy","8","8","C:/Users/lil_p/OneDrive/Documents/School/Advanced Quantitative Analysis/Lab 3.1/cp-subject-3.csv","legacy","4 3 1 7 9 8","Lentiform Loewenfeld","3.3.12","1","y","yes","0","left","left","NA","left","NA","846","42734","NA","846","NA","2","legacy","6","1024","2","48000","-16","experiment","3","odd","4","100924","46519","97595","98720","3777","NA","98722","60112","3783","NA","102925","103772","99723","102925","NA","Sternberg Task","8","9337","9","yes","1024"
"90","90","1044.9","1044.9","black","practice","legacy","legacy","legacy","0","uniform","1","undefined","1","right","9","0","9","9","0","0","9","9","0","0","9","9","9","9","0","Sun Oct 16 13:54:25 2022","The main experiment item","yes","SternbergTask.osexp","C:/Users/lil_p/OneDrive/Documents/School/Advanced Quantitative Analysis/Lab 3.1","no","mono","no","18","no","white","no","yes","768","legacy","9","9","C:/Users/lil_p/OneDrive/Documents/School/Advanced Quantitative Analysis/Lab 3.1/cp-subject-3.csv","legacy","5 7 8 4 1 2","Lentiform Loewenfeld","3.3.12","0","n","yes","0","right","left","NA","right","NA","1112","42734","NA","1112","NA","2","legacy","6","1024","2","48000","-16","experiment","3","odd","6","107105","46519","103778","104900","3777","NA","104902","60112","3783","NA","109106","110219","105903","109106","NA","Sternberg Task","9","10449","10","yes","1024"
"90.9090909090909","90.9090909090909","1048.1818181818182","1048.1818181818182","black","practice","legacy","legacy","legacy","0","uniform","1","undefined","1","right","10","0","10","10","0","0","10","10","0","0","10","10","10","10","0","Sun Oct 16 13:54:25 2022","The main experiment item","yes","SternbergTask.osexp","C:/Users/lil_p/OneDrive/Documents/School/Advanced Quantitative Analysis/Lab 3.1","no","mono","no","18","no","white","no","yes","768","legacy","10","10","C:/Users/lil_p/OneDrive/Documents/School/Advanced Quantitative Analysis/Lab 3.1/cp-subject-3.csv","legacy","2 1","Lentiform Loewenfeld","3.3.12","0","n","yes","0","right","left","NA","right","NA","1081","42734","NA","1081","NA","2","legacy","2","1024","2","48000","-16","experiment","3","odd","5","113557","46519","110226","111351","3777","NA","111353","60112","3783","NA","115558","116640","112355","115558","NA","Sternberg Task","10","11530","11","yes","1024"
"91.66666666666667","91.66666666666667","1087.1666666666667","1087.1666666666667","black","practice","legacy","legacy","legacy","0","uniform","1","undefined","1","left","11","0","11","11","0","0","11","11","0","0","11","11","11","11","0","Sun Oct 16 13:54:25 2022","The main experiment item","yes","SternbergTask.osexp","C:/Users/lil_p/OneDrive/Documents/School/Advanced Quantitative Analysis/Lab 3.1","no","mono","no","18","no","white","no","yes","768","legacy","11","11","C:/Users/lil_p/OneDrive/Documents/School/Advanced Quantitative Analysis/Lab 3.1/cp-subject-3.csv","legacy","6","Lentiform Loewenfeld","3.3.12","1","y","yes","0","left","left","NA","left","NA","1516","42734","NA","1516","NA","2","legacy","1","1024","2","48000","-16","experiment","3","odd","6","119963","46519","116646","117759","3777","NA","117761","60112","3783","NA","121964","123481","118762","121964","NA","Sternberg Task","11","13046","12","yes","1024"
"92.3076923076923","92.3076923076923","1047","1047","black","experiment","legacy","legacy","legacy","0","uniform","1","undefined","1","right","12","0","12","12","0","0","12","12","0","0","12","12","12","12","0","Sun Oct 16 13:54:25 2022","The main experiment item","yes","SternbergTask.osexp","C:/Users/lil_p/OneDrive/Documents/School/Advanced Quantitative Analysis/Lab 3.1","no","mono","no","18","no","white","no","yes","768","legacy","0","11","C:/Users/lil_p/OneDrive/Documents/School/Advanced Quantitative Analysis/Lab 3.1/cp-subject-3.csv","legacy","9","Lentiform Loewenfeld","3.3.12","0","n","yes","0","right","left","left","right","NA","565","42734","4992","565","NA","2","legacy","1","1024","2","48000","-16","experiment","3","odd","6","131848","46519","123487","129644","3777","129517","129646","60112","3783","124524","133850","134416","130647","133849","NA","Sternberg Task","12","13611","13","yes","1024"
"92.85714285714286","92.85714285714286","1036.642857142857","1036.642857142857","black","experiment","legacy","legacy","legacy","0","uniform","1","undefined","1","left","13","0","13","13","0","0","13","13","0","0","13","13","13","13","0","Sun Oct 16 13:54:25 2022","The main experiment item","yes","SternbergTask.osexp","C:/Users/lil_p/OneDrive/Documents/School/Advanced Quantitative Analysis/Lab 3.1","no","mono","no","18","no","white","no","yes","768","legacy","1","11","C:/Users/lil_p/OneDrive/Documents/School/Advanced Quantitative Analysis/Lab 3.1/cp-subject-3.csv","legacy","3 2 1 4 7","Lentiform Loewenfeld","3.3.12","2","y","yes","0","left","left","left","left","NA","902","42734","4992","902","NA","2","legacy","5","1024","2","48000","-16","experiment","3","odd","2","137737","46519","134420","135533","3777","129517","135535","60112","3783","124524","139738","140641","136536","139738","NA","Sternberg Task","13","14513","14","yes","1024"
"86.66666666666667","86.66666666666667","1054.9333333333334","1054.9333333333334","black","experiment","legacy","legacy","legacy","0","uniform","0","undefined","0","left","14","0","14","14","0","0","14","14","0","0","14","14","14","14","0","Sun Oct 16 13:54:25 2022","The main experiment item","yes","SternbergTask.osexp","C:/Users/lil_p/OneDrive/Documents/School/Advanced Quantitative Analysis/Lab 3.1","no","mono","no","18","no","white","no","yes","768","legacy","2","11","C:/Users/lil_p/OneDrive/Documents/School/Advanced Quantitative Analysis/Lab 3.1/cp-subject-3.csv","legacy","9 6 2 4 1","Lentiform Loewenfeld","3.3.12","4","y","yes","0","right","left","left","right","NA","1311","42734","4992","1311","NA","2","legacy","5","1024","2","48000","-16","experiment","3","odd","4","143962","46519","140645","141757","3777","129517","141760","60112","3783","124524","145963","147275","142761","145963","NA","Sternberg Task","13","15824","15","yes","1024"
"87.5","87.5","1052.9375","1052.9375","black","experiment","legacy","legacy","legacy","0","uniform","1","undefined","1","right","15","0","15","15","0","0","15","15","0","0","15","15","15","15","0","Sun Oct 16 13:54:25 2022","The main experiment item","yes","SternbergTask.osexp","C:/Users/lil_p/OneDrive/Documents/School/Advanced Quantitative Analysis/Lab 3.1","no","mono","no","18","no","white","no","yes","768","legacy","3","11","C:/Users/lil_p/OneDrive/Documents/School/Advanced Quantitative Analysis/Lab 3.1/cp-subject-3.csv","legacy","6 7 5 9","Lentiform Loewenfeld","3.3.12","0","n","yes","0","right","left","left","right","NA","1023","42734","4992","1023","NA","2","legacy","4","1024","2","48000","-16","experiment","3","odd","2","150610","46519","140645","148404","3777","129517","148407","147281","3783","124524","152612","153636","149409","152612","NA","Sternberg Task","14","16847","16","yes","1024"
"88.23529411764706","88.23529411764706","1064.1764705882354","1064.1764705882354","black","experiment","legacy","legacy","legacy","0","uniform","1","undefined","1","left","16","0","16","16","0","0","16","16","0","0","16","16","16","16","0","Sun Oct 16 13:54:25 2022","The main experiment item","yes","SternbergTask.osexp","C:/Users/lil_p/OneDrive/Documents/School/Advanced Quantitative Analysis/Lab 3.1","no","mono","no","18","no","white","no","yes","768","legacy","4","11","C:/Users/lil_p/OneDrive/Documents/School/Advanced Quantitative Analysis/Lab 3.1/cp-subject-3.csv","legacy","5 7 8 2 3 8","Lentiform Loewenfeld","3.3.12","5","y","yes","0","left","left","left","left","NA","1244","42734","4992","1244","NA","2","legacy","6","1024","2","48000","-16","experiment","3","odd","3","156961","46519","153642","154756","3777","129517","154759","147281","3783","124524","158962","160207","155760","158962","NA","Sternberg Task","15","18091","17","yes","1024"
"88.88888888888889","88.88888888888889","1045.7222222222222","1045.7222222222222","black","experiment","legacy","legacy","legacy","0","uniform","1","undefined","1","left","17","0","17","17","0","0","17","17","0","0","17","17","17","17","0","Sun Oct 16 13:54:25 2022","The main experiment item","yes","SternbergTask.osexp","C:/Users/lil_p/OneDrive/Documents/School/Advanced Quantitative Analysis/Lab 3.1","no","mono","no","18","no","white","no","yes","768","legacy","5","11","C:/Users/lil_p/OneDrive/Documents/School/Advanced Quantitative Analysis/Lab 3.1/cp-subject-3.csv","legacy","7 8 4 6 9 5","Lentiform Loewenfeld","3.3.12","4","y","yes","0","left","left","left","left","NA","732","42734","4992","732","NA","2","legacy","6","1024","2","48000","-16","experiment","3","odd","6","163529","46519","160213","161324","3777","129517","161327","147281","3783","124524","165530","166263","162328","165530","NA","Sternberg Task","16","18823","18","yes","1024"
"89.47368421052632","89.47368421052632","1023.578947368421","1023.578947368421","black","experiment","legacy","legacy","legacy","0","uniform","1","undefined","1","left","18","0","18","18","0","0","18","18","0","0","18","18","18","18","0","Sun Oct 16 13:54:25 2022","The main experiment item","yes","SternbergTask.osexp","C:/Users/lil_p/OneDrive/Documents/School/Advanced Quantitative Analysis/Lab 3.1","no","mono","no","18","no","white","no","yes","768","legacy","6","11","C:/Users/lil_p/OneDrive/Documents/School/Advanced Quantitative Analysis/Lab 3.1/cp-subject-3.csv","legacy","4 6 5 8","Lentiform Loewenfeld","3.3.12","1","y","yes","0","left","left","left","left","NA","625","42734","4992","625","NA","2","legacy","4","1024","2","48000","-16","experiment","3","odd","4","169585","46519","166269","167380","3777","129517","167382","147281","3783","124524","171586","172212","168383","171586","NA","Sternberg Task","17","19448","19","yes","1024"
"90","90","1020.85","1020.85","black","experiment","legacy","legacy","legacy","0","uniform","1","undefined","1","left","19","0","19","19","0","0","19","19","0","0","19","19","19","19","0","Sun Oct 16 13:54:25 2022","The main experiment item","yes","SternbergTask.osexp","C:/Users/lil_p/OneDrive/Documents/School/Advanced Quantitative Analysis/Lab 3.1","no","mono","no","18","no","white","no","yes","768","legacy","7","11","C:/Users/lil_p/OneDrive/Documents/School/Advanced Quantitative Analysis/Lab 3.1/cp-subject-3.csv","legacy","4 1 5","Lentiform Loewenfeld","3.3.12","2","y","yes","0","left","left","left","left","NA","969","42734","4992","969","NA","2","legacy","3","1024","2","48000","-16","experiment","3","odd","1","175538","46519","172218","173333","3777","129517","173336","147281","3783","124524","177539","178509","174337","177539","NA","Sternberg Task","18","20417","20","yes","1024"
"90.47619047619048","90.47619047619048","1006.4761904761905","1006.4761904761905","black","experiment","legacy","legacy","legacy","0","uniform","1","undefined","1","left","20","0","20","20","0","0","20","20","0","0","20","20","20","20","0","Sun Oct 16 13:54:25 2022","The main experiment item","yes","SternbergTask.osexp","C:/Users/lil_p/OneDrive/Documents/School/Advanced Quantitative Analysis/Lab 3.1","no","mono","no","18","no","white","no","yes","768","legacy","8","11","C:/Users/lil_p/OneDrive/Documents/School/Advanced Quantitative Analysis/Lab 3.1/cp-subject-3.csv","legacy","8 3","Lentiform Loewenfeld","3.3.12","2","y","yes","0","left","left","left","left","NA","719","42734","4992","719","NA","2","legacy","2","1024","2","48000","-16","experiment","3","odd","3","181831","46519","178515","179627","3777","129517","179629","147281","3783","124524","183832","184552","180630","183832","NA","Sternberg Task","19","21136","21","yes","1024"
"90.9090909090909","90.9090909090909","989","989","black","experiment","legacy","legacy","legacy","0","uniform","1","undefined","1","left","21","0","21","21","0","0","21","21","0","0","21","21","21","21","0","Sun Oct 16 13:54:25 2022","The main experiment item","yes","SternbergTask.osexp","C:/Users/lil_p/OneDrive/Documents/School/Advanced Quantitative Analysis/Lab 3.1","no","mono","no","18","no","white","no","yes","768","legacy","9","11","C:/Users/lil_p/OneDrive/Documents/School/Advanced Quantitative Analysis/Lab 3.1/cp-subject-3.csv","legacy","8 9 5 6 7","Lentiform Loewenfeld","3.3.12","1","y","yes","0","left","left","left","left","NA","622","42734","4992","622","NA","2","legacy","5","1024","2","48000","-16","experiment","3","odd","8","187884","46519","184558","185679","3777","129517","185682","147281","3783","124524","189885","190508","186683","189885","NA","Sternberg Task","20","21758","22","yes","1024"
"91.30434782608695","91.30434782608695","975.9565217391304","975.9565217391304","black","experiment","legacy","legacy","legacy","0","uniform","1","undefined","1","left","22","0","22","22","0","0","22","22","0","0","22","22","22","22","0","Sun Oct 16 13:54:25 2022","The main experiment item","yes","SternbergTask.osexp","C:/Users/lil_p/OneDrive/Documents/School/Advanced Quantitative Analysis/Lab 3.1","no","mono","no","18","no","white","no","yes","768","legacy","10","11","C:/Users/lil_p/OneDrive/Documents/School/Advanced Quantitative Analysis/Lab 3.1/cp-subject-3.csv","legacy","5 7 3 6 2","Lentiform Loewenfeld","3.3.12","5","y","yes","0","left","left","left","left","NA","689","42734","4992","689","NA","2","legacy","5","1024","2","48000","-16","experiment","3","odd","2","193829","46519","190513","191625","3777","129517","191627","147281","3783","124524","195830","196520","192628","195830","NA","Sternberg Task","21","22447","23","yes","1024"
"91.66666666666667","91.66666666666667","964.75","964.75","black","experiment","legacy","legacy","legacy","0","uniform","1","undefined","1","right","23","0","23","23","0","0","23","23","0","0","23","23","23","23","0","Sun Oct 16 13:54:25 2022","The main experiment item","yes","SternbergTask.osexp","C:/Users/lil_p/OneDrive/Documents/School/Advanced Quantitative Analysis/Lab 3.1","no","mono","no","18","no","white","no","yes","768","legacy","11","11","C:/Users/lil_p/OneDrive/Documents/School/Advanced Quantitative Analysis/Lab 3.1/cp-subject-3.csv","legacy","8 9","Lentiform Loewenfeld","3.3.12","0","n","yes","0","right","left","left","right","NA","707","42734","4992","707","NA","2","legacy","2","1024","2","48000","-16","experiment","3","odd","5","199847","46519","196526","197643","3777","129517","197644","147281","3783","124524","201848","202555","198645","201848","NA","Sternberg Task","22","23154","24","yes","1024"
"92","92","976.48","976.48","black","experiment","legacy","legacy","legacy","0","uniform","1","undefined","1","right","24","0","24","24","0","0","24","24","0","0","24","24","24","24","0","Sun Oct 16 13:54:25 2022","The main experiment item","yes","SternbergTask.osexp","C:/Users/lil_p/OneDrive/Documents/School/Advanced Quantitative Analysis/Lab 3.1","no","mono","no","18","no","white","no","yes","768","legacy","12","11","C:/Users/lil_p/OneDrive/Documents/School/Advanced Quantitative Analysis/Lab 3.1/cp-subject-3.csv","legacy","7 3 2 8","Lentiform Loewenfeld","3.3.12","0","n","yes","0","right","left","left","right","NA","1258","42734","4992","1258","NA","2","legacy","4","1024","2","48000","-16","experiment","3","odd","4","205877","46519","202561","203672","3777","129517","203674","147281","3783","124524","207878","209137","204675","207878","NA","Sternberg Task","23","24412","25","yes","1024"
"92.3076923076923","92.3076923076923","975.6538461538462","975.6538461538462","black","experiment","legacy","legacy","legacy","0","uniform","1","undefined","1","left","25","0","25","25","0","0","25","25","0","0","25","25","25","25","0","Sun Oct 16 13:54:25 2022","The main experiment item","yes","SternbergTask.osexp","C:/Users/lil_p/OneDrive/Documents/School/Advanced Quantitative Analysis/Lab 3.1","no","mono","no","18","no","white","no","yes","768","legacy","13","11","C:/Users/lil_p/OneDrive/Documents/School/Advanced Quantitative Analysis/Lab 3.1/cp-subject-3.csv","legacy","6 9 3 1","Lentiform Loewenfeld","3.3.12","4","y","yes","0","left","left","left","left","NA","955","42734","4992","955","NA","2","legacy","4","1024","2","48000","-16","experiment","3","odd","1","212473","46519","209143","210269","3777","129517","210271","147281","3783","124524","214474","215429","211272","214474","NA","Sternberg Task","24","25367","26","yes","1024"
"92.5925925925926","92.5925925925926","983.2962962962963","983.2962962962963","black","experiment","legacy","legacy","legacy","0","uniform","1","undefined","1","left","26","0","26","26","0","0","26","26","0","0","26","26","26","26","0","Sun Oct 16 13:54:25 2022","The main experiment item","yes","SternbergTask.osexp","C:/Users/lil_p/OneDrive/Documents/School/Advanced Quantitative Analysis/Lab 3.1","no","mono","no","18","no","white","no","yes","768","legacy","14","11","C:/Users/lil_p/OneDrive/Documents/School/Advanced Quantitative Analysis/Lab 3.1/cp-subject-3.csv","legacy","8 1 6","Lentiform Loewenfeld","3.3.12","3","y","yes","0","left","left","left","left","NA","1182","42734","4992","1182","NA","2","legacy","3","1024","2","48000","-16","experiment","3","odd","6","218756","46519","215435","216551","3777","129517","216553","147281","3783","124524","220757","221940","217554","220757","NA","Sternberg Task","25","26549","27","yes","1024"
"92.85714285714286","92.85714285714286","1009.5357142857143","1009.5357142857143","black","experiment","legacy","legacy","legacy","0","uniform","1","undefined","1","right","27","0","27","27","0","0","27","27","0","0","27","27","27","27","0","Sun Oct 16 13:54:25 2022","The main experiment item","yes","SternbergTask.osexp","C:/Users/lil_p/OneDrive/Documents/School/Advanced Quantitative Analysis/Lab 3.1","no","mono","no","18","no","white","no","yes","768","legacy","15","11","C:/Users/lil_p/OneDrive/Documents/School/Advanced Quantitative Analysis/Lab 3.1/cp-subject-3.csv","legacy","7 1 8 4 9 3","Lentiform Loewenfeld","3.3.12","0","n","yes","0","right","left","left","right","NA","1718","42734","4992","1718","NA","2","legacy","6","1024","2","48000","-16","experiment","3","odd","6","225273","46519","221946","223068","3777","129517","223070","147281","3783","124524","227274","228993","224071","227274","NA","Sternberg Task","26","28267","28","yes","1024"
"93.10344827586206","93.10344827586206","1021.3103448275862","1021.3103448275862","black","experiment","legacy","legacy","legacy","0","uniform","1","undefined","1","right","28","0","28","28","0","0","28","28","0","0","28","28","28","28","0","Sun Oct 16 13:54:25 2022","The main experiment item","yes","SternbergTask.osexp","C:/Users/lil_p/OneDrive/Documents/School/Advanced Quantitative Analysis/Lab 3.1","no","mono","no","18","no","white","no","yes","768","legacy","16","11","C:/Users/lil_p/OneDrive/Documents/School/Advanced Quantitative Analysis/Lab 3.1/cp-subject-3.csv","legacy","4 2 6 9","Lentiform Loewenfeld","3.3.12","0","n","yes","0","right","left","left","right","NA","1351","42734","4992","1351","NA","2","legacy","4","1024","2","48000","-16","experiment","3","odd","7","232328","46519","228999","230123","3777","129517","230126","147281","3783","124524","234329","235681","231127","234329","NA","Sternberg Task","27","29618","29","yes","1024"
"93.33333333333333","93.33333333333333","1024.0333333333333","1024.0333333333333","black","experiment","legacy","legacy","legacy","0","uniform","1","undefined","1","left","29","0","29","29","0","0","29","29","0","0","29","29","29","29","0","Sun Oct 16 13:54:25 2022","The main experiment item","yes","SternbergTask.osexp","C:/Users/lil_p/OneDrive/Documents/School/Advanced Quantitative Analysis/Lab 3.1","no","mono","no","18","no","white","no","yes","768","legacy","17","11","C:/Users/lil_p/OneDrive/Documents/School/Advanced Quantitative Analysis/Lab 3.1/cp-subject-3.csv","legacy","5 2 9 6 1 7","Lentiform Loewenfeld","3.3.12","3","y","yes","0","left","left","left","left","NA","1103","42734","4992","1103","NA","2","legacy","6","1024","2","48000","-16","experiment","3","odd","9","239003","46519","235688","236800","3777","129517","236801","147281","3783","124524","241004","242108","237802","241004","NA","Sternberg Task","28","30721","30","yes","1024"
"93.54838709677419","93.54838709677419","1026.6774193548388","1026.6774193548388","black","experiment","legacy","legacy","legacy","0","uniform","1","undefined","1","left","30","0","30","30","0","0","30","30","0","0","30","30","30","30","0","Sun Oct 16 13:54:25 2022","The main experiment item","yes","SternbergTask.osexp","C:/Users/lil_p/OneDrive/Documents/School/Advanced Quantitative Analysis/Lab 3.1","no","mono","no","18","no","white","no","yes","768","legacy","18","11","C:/Users/lil_p/OneDrive/Documents/School/Advanced Quantitative Analysis/Lab 3.1/cp-subject-3.csv","legacy","7 4 2 6 3 5","Lentiform Loewenfeld","3.3.12","6","y","yes","0","left","left","left","left","NA","1106","42734","4992","1106","NA","2","legacy","6","1024","2","48000","-16","experiment","3","odd","5","245431","46519","242115","243226","3777","129517","243229","147281","3783","124524","247432","248539","244230","247432","NA","Sternberg Task","29","31827","31","yes","1024"
"93.75","93.75","1022.4375","1022.4375","black","experiment","legacy","legacy","legacy","0","uniform","1","undefined","1","left","31","0","31","31","0","0","31","31","0","0","31","31","31","31","0","Sun Oct 16 13:54:25 2022","The main experiment item","yes","SternbergTask.osexp","C:/Users/lil_p/OneDrive/Documents/School/Advanced Quantitative Analysis/Lab 3.1","no","mono","no","18","no","white","no","yes","768","legacy","19","11","C:/Users/lil_p/OneDrive/Documents/School/Advanced Quantitative Analysis/Lab 3.1/cp-subject-3.csv","legacy","3 5 7 1","Lentiform Loewenfeld","3.3.12","3","y","yes","0","left","left","left","left","NA","891","42734","4992","891","NA","2","legacy","4","1024","2","48000","-16","experiment","3","odd","7","251875","46519","248543","249671","3777","129517","249672","147281","3783","124524","253876","254768","250673","253876","NA","Sternberg Task","30","32718","32","yes","1024"
"93.93939393939394","93.93939393939394","1018.6969696969697","1018.6969696969697","black","experiment","legacy","legacy","legacy","0","uniform","1","undefined","1","right","32","0","32","32","0","0","32","32","0","0","32","32","32","32","0","Sun Oct 16 13:54:25 2022","The main experiment item","yes","SternbergTask.osexp","C:/Users/lil_p/OneDrive/Documents/School/Advanced Quantitative Analysis/Lab 3.1","no","mono","no","18","no","white","no","yes","768","legacy","20","11","C:/Users/lil_p/OneDrive/Documents/School/Advanced Quantitative Analysis/Lab 3.1/cp-subject-3.csv","legacy","4 2 7 6 1 3","Lentiform Loewenfeld","3.3.12","0","n","yes","0","right","left","left","right","NA","899","42734","4992","899","NA","2","legacy","6","1024","2","48000","-16","experiment","3","odd","8","258091","46519","254774","255886","3777","129517","255889","147281","3783","124524","260092","260992","256890","260092","NA","Sternberg Task","31","33617","33","yes","1024"
"91.17647058823529","91.17647058823529","1030.9705882352941","1030.9705882352941","black","experiment","legacy","legacy","legacy","0","uniform","0","undefined","0","right","33","0","33","33","0","0","33","33","0","0","33","33","33","33","0","Sun Oct 16 13:54:25 2022","The main experiment item","yes","SternbergTask.osexp","C:/Users/lil_p/OneDrive/Documents/School/Advanced Quantitative Analysis/Lab 3.1","no","mono","no","18","no","white","no","yes","768","legacy","21","11","C:/Users/lil_p/OneDrive/Documents/School/Advanced Quantitative Analysis/Lab 3.1/cp-subject-3.csv","legacy","1 6 4 3 9 7","Lentiform Loewenfeld","3.3.12","0","n","yes","0","left","left","left","left","NA","1436","42734","4992","1436","NA","2","legacy","6","1024","2","48000","-16","experiment","3","odd","8","264323","46519","260998","262119","3777","129517","262121","147281","3783","124524","266324","267762","263122","266324","NA","Sternberg Task","31","35053","34","yes","1024"
"91.42857142857143","91.42857142857143","1025.8","1025.8","black","experiment","legacy","legacy","legacy","0","uniform","1","undefined","1","left","34","0","34","34","0","0","34","34","0","0","34","34","34","34","0","Sun Oct 16 13:54:25 2022","The main experiment item","yes","SternbergTask.osexp","C:/Users/lil_p/OneDrive/Documents/School/Advanced Quantitative Analysis/Lab 3.1","no","mono","no","18","no","white","no","yes","768","legacy","22","11","C:/Users/lil_p/OneDrive/Documents/School/Advanced Quantitative Analysis/Lab 3.1/cp-subject-3.csv","legacy","4 3 2 5 8","Lentiform Loewenfeld","3.3.12","2","y","yes","0","left","left","left","left","NA","850","42734","4992","850","NA","2","legacy","5","1024","2","48000","-16","experiment","3","odd","3","271085","46519","260998","268880","3777","129517","268883","267768","3783","124524","273087","273938","269884","273087","NA","Sternberg Task","32","35903","35","yes","1024"
"91.66666666666667","91.66666666666667","1019.0833333333334","1019.0833333333334","black","experiment","legacy","legacy","legacy","0","uniform","1","undefined","1","left","35","0","35","35","0","0","35","35","0","0","35","35","35","35","0","Sun Oct 16 13:54:25 2022","The main experiment item","yes","SternbergTask.osexp","C:/Users/lil_p/OneDrive/Documents/School/Advanced Quantitative Analysis/Lab 3.1","no","mono","no","18","no","white","no","yes","768","legacy","23","11","C:/Users/lil_p/OneDrive/Documents/School/Advanced Quantitative Analysis/Lab 3.1/cp-subject-3.csv","legacy","8","Lentiform Loewenfeld","3.3.12","1","y","yes","0","left","left","left","left","NA","784","42734","4992","784","NA","2","legacy","1","1024","2","48000","-16","experiment","3","odd","8","277260","46519","273944","275055","3777","129517","275057","267768","3783","124524","279261","280046","276058","279261","NA","Sternberg Task","33","36687","36","yes","1024"
"91.89189189189189","91.89189189189189","1014.5945945945946","1014.5945945945946","black","experiment","legacy","legacy","legacy","0","uniform","1","undefined","1","right","36","0","36","36","0","0","36","36","0","0","36","36","36","36","0","Sun Oct 16 13:54:25 2022","The main experiment item","yes","SternbergTask.osexp","C:/Users/lil_p/OneDrive/Documents/School/Advanced Quantitative Analysis/Lab 3.1","no","mono","no","18","no","white","no","yes","768","legacy","24","11","C:/Users/lil_p/OneDrive/Documents/School/Advanced Quantitative Analysis/Lab 3.1/cp-subject-3.csv","legacy","3 9 1","Lentiform Loewenfeld","3.3.12","0","n","yes","0","right","left","left","right","NA","853","42734","4992","853","NA","2","legacy","3","1024","2","48000","-16","experiment","3","odd","7","283375","46519","280050","281171","3777","129517","281173","267768","3783","124524","285377","286231","282174","285377","NA","Sternberg Task","34","37540","37","yes","1024"
"92.10526315789474","92.10526315789474","1033.078947368421","1033.078947368421","black","experiment","legacy","legacy","legacy","0","uniform","1","undefined","1","left","37","0","37","37","0","0","37","37","0","0","37","37","37","37","0","Sun Oct 16 13:54:25 2022","The main experiment item","yes","SternbergTask.osexp","C:/Users/lil_p/OneDrive/Documents/School/Advanced Quantitative Analysis/Lab 3.1","no","mono","no","18","no","white","no","yes","768","legacy","25","11","C:/Users/lil_p/OneDrive/Documents/School/Advanced Quantitative Analysis/Lab 3.1/cp-subject-3.csv","legacy","9 5 8 1","Lentiform Loewenfeld","3.3.12","2","y","yes","0","left","left","left","left","NA","1717","42734","4992","1717","NA","2","legacy","4","1024","2","48000","-16","experiment","3","odd","5","289554","46519","286237","287350","3777","129517","287352","267768","3783","124524","291555","293273","288353","291555","NA","Sternberg Task","35","39257","38","yes","1024"
"92.3076923076923","92.3076923076923","1038.6410256410256","1038.6410256410256","black","experiment","legacy","legacy","legacy","0","uniform","1","undefined","1","left","38","0","38","38","0","0","38","38","0","0","38","38","38","38","0","Sun Oct 16 13:54:25 2022","The main experiment item","yes","SternbergTask.osexp","C:/Users/lil_p/OneDrive/Documents/School/Advanced Quantitative Analysis/Lab 3.1","no","mono","no","18","no","white","no","yes","768","legacy","26","11","C:/Users/lil_p/OneDrive/Documents/School/Advanced Quantitative Analysis/Lab 3.1/cp-subject-3.csv","legacy","9 1 7 2","Lentiform Loewenfeld","3.3.12","2","y","yes","0","left","left","left","left","NA","1250","42734","4992","1250","NA","2","legacy","4","1024","2","48000","-16","experiment","3","odd","1","296603","46519","293278","294399","3777","129517","294401","267768","3783","124524","298604","299855","295402","298604","NA","Sternberg Task","36","40507","39","yes","1024"
"92.5","92.5","1035.475","1035.475","black","experiment","legacy","legacy","legacy","0","uniform","1","undefined","1","left","39","0","39","39","0","0","39","39","0","0","39","39","39","39","0","Sun Oct 16 13:54:25 2022","The main experiment item","yes","SternbergTask.osexp","C:/Users/lil_p/OneDrive/Documents/School/Advanced Quantitative Analysis/Lab 3.1","no","mono","no","18","no","white","no","yes","768","legacy","27","11","C:/Users/lil_p/OneDrive/Documents/School/Advanced Quantitative Analysis/Lab 3.1/cp-subject-3.csv","legacy","8 5 4 7 3 1","Lentiform Loewenfeld","3.3.12","2","y","yes","0","left","left","left","left","NA","912","42734","4992","912","NA","2","legacy","6","1024","2","48000","-16","experiment","3","odd","5","303177","46519","299861","300974","3777","129517","300975","267768","3783","124524","305178","306092","301976","305178","NA","Sternberg Task","37","41419","40","yes","1024"
"90.2439024390244","90.2439024390244","1035.8536585365853","1035.8536585365853","black","experiment","legacy","legacy","legacy","0","uniform","0","undefined","0","right","40","0","40","40","0","0","40","40","0","0","40","40","40","40","0","Sun Oct 16 13:54:25 2022","The main experiment item","yes","SternbergTask.osexp","C:/Users/lil_p/OneDrive/Documents/School/Advanced Quantitative Analysis/Lab 3.1","no","mono","no","18","no","white","no","yes","768","legacy","28","11","C:/Users/lil_p/OneDrive/Documents/School/Advanced Quantitative Analysis/Lab 3.1/cp-subject-3.csv","legacy","6 2 9 3 8 4","Lentiform Loewenfeld","3.3.12","0","n","yes","0","left","left","left","left","NA","1051","42734","4992","1051","NA","2","legacy","6","1024","2","48000","-16","experiment","3","odd","1","309419","46519","306098","307213","3777","129517","307215","267768","3783","124524","311420","312473","308217","311420","NA","Sternberg Task","37","42470","41","yes","1024"
"90.47619047619048","90.47619047619048","1029.047619047619","1029.047619047619","black","experiment","legacy","legacy","legacy","0","uniform","1","undefined","1","left","41","0","41","41","0","0","41","41","0","0","41","41","41","41","0","Sun Oct 16 13:54:25 2022","The main experiment item","yes","SternbergTask.osexp","C:/Users/lil_p/OneDrive/Documents/School/Advanced Quantitative Analysis/Lab 3.1","no","mono","no","18","no","white","no","yes","768","legacy","29","11","C:/Users/lil_p/OneDrive/Documents/School/Advanced Quantitative Analysis/Lab 3.1/cp-subject-3.csv","legacy","2 3 7 4","Lentiform Loewenfeld","3.3.12","1","y","yes","0","left","left","left","left","NA","750","42734","4992","750","NA","2","legacy","4","1024","2","48000","-16","experiment","3","odd","2","315793","46519","306098","313589","3777","129517","313591","312477","3783","124524","317794","318545","314592","317794","NA","Sternberg Task","38","43220","42","yes","1024"
"90.69767441860465","90.69767441860465","1028.2558139534883","1028.2558139534883","black","experiment","legacy","legacy","legacy","0","uniform","1","undefined","1","right","42","0","42","42","0","0","42","42","0","0","42","42","42","42","0","Sun Oct 16 13:54:25 2022","The main experiment item","yes","SternbergTask.osexp","C:/Users/lil_p/OneDrive/Documents/School/Advanced Quantitative Analysis/Lab 3.1","no","mono","no","18","no","white","no","yes","768","legacy","30","11","C:/Users/lil_p/OneDrive/Documents/School/Advanced Quantitative Analysis/Lab 3.1/cp-subject-3.csv","legacy","2 8 7 9 5 3","Lentiform Loewenfeld","3.3.12","0","n","yes","0","right","left","left","right","NA","995","42734","4992","995","NA","2","legacy","6","1024","2","48000","-16","experiment","3","odd","6","321876","46519","318552","319672","3777","129517","319674","312477","3783","124524","323878","324874","320675","323877","NA","Sternberg Task","39","44215","43","yes","1024"
"90.9090909090909","90.9090909090909","1031.9545454545455","1031.9545454545455","black","experiment","legacy","legacy","legacy","0","uniform","1","undefined","1","left","43","0","43","43","0","0","43","43","0","0","43","43","43","43","0","Sun Oct 16 13:54:25 2022","The main experiment item","yes","SternbergTask.osexp","C:/Users/lil_p/OneDrive/Documents/School/Advanced Quantitative Analysis/Lab 3.1","no","mono","no","18","no","white","no","yes","768","legacy","31","11","C:/Users/lil_p/OneDrive/Documents/School/Advanced Quantitative Analysis/Lab 3.1/cp-subject-3.csv","legacy","8 5 3 7 4 6","Lentiform Loewenfeld","3.3.12","6","y","yes","0","left","left","left","left","NA","1191","42734","4992","1191","NA","2","legacy","6","1024","2","48000","-16","experiment","3","odd","6","328202","46519","324880","325998","3777","129517","326000","312477","3783","124524","330203","331395","327001","330203","NA","Sternberg Task","40","45406","44","yes","1024"
"91.11111111111111","91.11111111111111","1026.4","1026.4","black","experiment","legacy","legacy","legacy","0","uniform","1","undefined","1","left","44","0","44","44","0","0","44","44","0","0","44","44","44","44","0","Sun Oct 16 13:54:25 2022","The main experiment item","yes","SternbergTask.osexp","C:/Users/lil_p/OneDrive/Documents/School/Advanced Quantitative Analysis/Lab 3.1","no","mono","no","18","no","white","no","yes","768","legacy","32","11","C:/Users/lil_p/OneDrive/Documents/School/Advanced Quantitative Analysis/Lab 3.1/cp-subject-3.csv","legacy","3 5 9 6 2 4","Lentiform Loewenfeld","3.3.12","1","y","yes","0","left","left","left","left","NA","782","42734","4992","782","NA","2","legacy","6","1024","2","48000","-16","experiment","3","odd","3","334721","46519","331401","332516","3777","129517","332519","312477","3783","124524","336722","337505","333520","336722","NA","Sternberg Task","41","46188","45","yes","1024"
"91.30434782608695","91.30434782608695","1029.608695652174","1029.608695652174","black","experiment","legacy","legacy","legacy","0","uniform","1","undefined","1","right","45","0","45","45","0","0","45","45","0","0","45","45","45","45","0","Sun Oct 16 13:54:25 2022","The main experiment item","yes","SternbergTask.osexp","C:/Users/lil_p/OneDrive/Documents/School/Advanced Quantitative Analysis/Lab 3.1","no","mono","no","18","no","white","no","yes","768","legacy","33","11","C:/Users/lil_p/OneDrive/Documents/School/Advanced Quantitative Analysis/Lab 3.1/cp-subject-3.csv","legacy","2 8 6 3 1","Lentiform Loewenfeld","3.3.12","0","n","yes","0","right","left","left","right","NA","1174","42734","4992","1174","NA","2","legacy","5","1024","2","48000","-16","experiment","3","odd","7","340845","46519","337511","338640","3777","129517","338642","312477","3783","124524","342846","344021","339643","342846","NA","Sternberg Task","42","47362","46","yes","1024"
"91.48936170212765","91.48936170212765","1044.2340425531916","1044.2340425531916","black","experiment","legacy","legacy","legacy","0","uniform","1","undefined","1","right","46","0","46","46","0","0","46","46","0","0","46","46","46","46","0","Sun Oct 16 13:54:25 2022","The main experiment item","yes","SternbergTask.osexp","C:/Users/lil_p/OneDrive/Documents/School/Advanced Quantitative Analysis/Lab 3.1","no","mono","no","18","no","white","no","yes","768","legacy","34","11","C:/Users/lil_p/OneDrive/Documents/School/Advanced Quantitative Analysis/Lab 3.1/cp-subject-3.csv","legacy","6 9 4 5 3 2","Lentiform Loewenfeld","3.3.12","0","n","yes","0","right","left","left","right","NA","1717","42734","4992","1717","NA","2","legacy","6","1024","2","48000","-16","experiment","3","odd","8","347349","46519","344027","345146","3777","129517","345147","312477","3783","124524","349350","351068","346148","349350","NA","Sternberg Task","43","49079","47","yes","1024"
"91.66666666666667","91.66666666666667","1035.375","1035.375","black","experiment","legacy","legacy","legacy","0","uniform","1","undefined","1","right","47","0","47","47","0","0","47","47","0","0","47","47","47","47","0","Sun Oct 16 13:54:25 2022","The main experiment item","yes","SternbergTask.osexp","C:/Users/lil_p/OneDrive/Documents/School/Advanced Quantitative Analysis/Lab 3.1","no","mono","no","18","no","white","no","yes","768","legacy","35","11","C:/Users/lil_p/OneDrive/Documents/School/Advanced Quantitative Analysis/Lab 3.1/cp-subject-3.csv","legacy","1","Lentiform Loewenfeld","3.3.12","0","n","yes","0","right","left","left","right","NA","619","42734","4992","619","NA","2","legacy","1","1024","2","48000","-16","experiment","3","odd","7","354393","46519","351074","352189","3777","129517","352191","312477","3783","124524","356394","357014","353192","356394","NA","Sternberg Task","44","49698","48","yes","1024"
"91.83673469387755","91.83673469387755","1037.0204081632653","1037.0204081632653","black","experiment","legacy","legacy","legacy","0","uniform","1","undefined","1","left","48","0","48","48","0","0","48","48","0","0","48","48","48","48","0","Sun Oct 16 13:54:25 2022","The main experiment item","yes","SternbergTask.osexp","C:/Users/lil_p/OneDrive/Documents/School/Advanced Quantitative Analysis/Lab 3.1","no","mono","no","18","no","white","no","yes","768","legacy","36","11","C:/Users/lil_p/OneDrive/Documents/School/Advanced Quantitative Analysis/Lab 3.1/cp-subject-3.csv","legacy","6 5","Lentiform Loewenfeld","3.3.12","2","y","yes","0","left","left","left","left","NA","1116","42734","4992","1116","NA","2","legacy","2","1024","2","48000","-16","experiment","3","odd","5","360339","46519","357020","358134","3777","129517","358136","312477","3783","124524","362340","363457","359137","362340","NA","Sternberg Task","45","50814","49","yes","1024"
"92","92","1029.42","1029.42","black","experiment","legacy","legacy","legacy","0","uniform","1","undefined","1","left","49","0","49","49","0","0","49","49","0","0","49","49","49","49","0","Sun Oct 16 13:54:25 2022","The main experiment item","yes","SternbergTask.osexp","C:/Users/lil_p/OneDrive/Documents/School/Advanced Quantitative Analysis/Lab 3.1","no","mono","no","18","no","white","no","yes","768","legacy","37","11","C:/Users/lil_p/OneDrive/Documents/School/Advanced Quantitative Analysis/Lab 3.1/cp-subject-3.csv","legacy","7","Lentiform Loewenfeld","3.3.12","1","y","yes","0","left","left","left","left","NA","657","42734","4992","657","NA","2","legacy","1","1024","2","48000","-16","experiment","3","odd","7","366796","46519","363463","364592","3777","129517","364594","312477","3783","124524","368797","369456","365595","368797","NA","Sternberg Task","46","51471","50","yes","1024"
"92.15686274509804","92.15686274509804","1026.1960784313726","1026.1960784313726","black","experiment","legacy","legacy","legacy","0","uniform","1","undefined","1","right","50","0","50","50","0","0","50","50","0","0","50","50","50","50","0","Sun Oct 16 13:54:25 2022","The main experiment item","yes","SternbergTask.osexp","C:/Users/lil_p/OneDrive/Documents/School/Advanced Quantitative Analysis/Lab 3.1","no","mono","no","18","no","white","no","yes","768","legacy","38","11","C:/Users/lil_p/OneDrive/Documents/School/Advanced Quantitative Analysis/Lab 3.1/cp-subject-3.csv","legacy","5 2","Lentiform Loewenfeld","3.3.12","0","n","yes","0","right","left","left","right","NA","865","42734","4992","865","NA","2","legacy","2","1024","2","48000","-16","experiment","3","odd","7","372785","46519","369462","370581","3777","129517","370583","312477","3783","124524","374786","375653","371584","374786","NA","Sternberg Task","47","52336","51","yes","1024"
"92.3076923076923","92.3076923076923","1028.6153846153845","1028.6153846153845","black","experiment","legacy","legacy","legacy","0","uniform","1","undefined","1","left","51","0","51","51","0","0","51","51","0","0","51","51","51","51","0","Sun Oct 16 13:54:25 2022","The main experiment item","yes","SternbergTask.osexp","C:/Users/lil_p/OneDrive/Documents/School/Advanced Quantitative Analysis/Lab 3.1","no","mono","no","18","no","white","no","yes","768","legacy","39","11","C:/Users/lil_p/OneDrive/Documents/School/Advanced Quantitative Analysis/Lab 3.1/cp-subject-3.csv","legacy","9 8 4","Lentiform Loewenfeld","3.3.12","1","y","yes","0","left","left","left","left","NA","1152","42734","4992","1152","NA","2","legacy","3","1024","2","48000","-16","experiment","3","odd","9","378981","46519","375660","376776","3777","129517","376778","312477","3783","124524","380982","382136","377780","380982","NA","Sternberg Task","48","53488","52","yes","1024"
"90.56603773584905","90.56603773584905","1045.2641509433963","1045.2641509433963","black","experiment","legacy","legacy","legacy","0","uniform","0","undefined","0","left","52","0","52","52","0","0","52","52","0","0","52","52","52","52","0","Sun Oct 16 13:54:25 2022","The main experiment item","yes","SternbergTask.osexp","C:/Users/lil_p/OneDrive/Documents/School/Advanced Quantitative Analysis/Lab 3.1","no","mono","no","18","no","white","no","yes","768","legacy","40","11","C:/Users/lil_p/OneDrive/Documents/School/Advanced Quantitative Analysis/Lab 3.1/cp-subject-3.csv","legacy","1 4 9 3 2 5","Lentiform Loewenfeld","3.3.12","3","y","yes","0","right","left","left","right","NA","1911","42734","4992","1911","NA","2","legacy","6","1024","2","48000","-16","experiment","3","odd","9","385460","46519","382142","383256","3777","129517","383258","312477","3783","124524","387461","389373","384259","387461","NA","Sternberg Task","48","55399","53","yes","1024"
"90.74074074074075","90.74074074074075","1046.7777777777778","1046.7777777777778","black","experiment","legacy","legacy","legacy","0","uniform","1","undefined","1","right","53","0","53","53","0","0","53","53","0","0","53","53","53","53","0","Sun Oct 16 13:54:25 2022","The main experiment item","yes","SternbergTask.osexp","C:/Users/lil_p/OneDrive/Documents/School/Advanced Quantitative Analysis/Lab 3.1","no","mono","no","18","no","white","no","yes","768","legacy","41","11","C:/Users/lil_p/OneDrive/Documents/School/Advanced Quantitative Analysis/Lab 3.1/cp-subject-3.csv","legacy","1 4 9 3","Lentiform Loewenfeld","3.3.12","0","n","yes","0","right","left","left","right","NA","1127","42734","4992","1127","NA","2","legacy","4","1024","2","48000","-16","experiment","3","odd","5","392703","46519","382142","390499","3777","129517","390501","389380","3783","124524","394704","395832","391502","394704","NA","Sternberg Task","49","56526","54","yes","1024"
"89.0909090909091","89.0909090909091","1064.1090909090908","1064.1090909090908","black","experiment","legacy","legacy","legacy","0","uniform","0","undefined","0","right","54","0","54","54","0","0","54","54","0","0","54","54","54","54","0","Sun Oct 16 13:54:25 2022","The main experiment item","yes","SternbergTask.osexp","C:/Users/lil_p/OneDrive/Documents/School/Advanced Quantitative Analysis/Lab 3.1","no","mono","no","18","no","white","no","yes","768","legacy","42","11","C:/Users/lil_p/OneDrive/Documents/School/Advanced Quantitative Analysis/Lab 3.1/cp-subject-3.csv","legacy","9 8 2 7 4","Lentiform Loewenfeld","3.3.12","0","n","yes","0","None","left","left","None","NA","2000","42734","4992","2000","NA","2","legacy","5","1024","2","48000","-16","experiment","3","odd","5","399159","46519","395838","396954","3777","129517","396957","389380","3783","124524","401160","403160","397958","401160","NA","Sternberg Task","49","58526","55","yes","1024"
"87.5","87.5","1075.357142857143","1075.357142857143","black","experiment","legacy","legacy","legacy","0","uniform","0","undefined","0","left","55","0","55","55","0","0","55","55","0","0","55","55","55","55","0","Sun Oct 16 13:54:25 2022","The main experiment item","yes","SternbergTask.osexp","C:/Users/lil_p/OneDrive/Documents/School/Advanced Quantitative Analysis/Lab 3.1","no","mono","no","18","no","white","no","yes","768","legacy","43","11","C:/Users/lil_p/OneDrive/Documents/School/Advanced Quantitative Analysis/Lab 3.1/cp-subject-3.csv","legacy","6 9 7 4 5 1","Lentiform Loewenfeld","3.3.12","2","y","yes","0","right","left","left","right","NA","1694","42734","4992","1694","NA","2","legacy","6","1024","2","48000","-16","experiment","3","odd","9","406482","46519","395838","404278","3777","129517","404280","403166","3783","124524","408483","410178","405281","408483","NA","Sternberg Task","49","60220","56","yes","1024"
"87.71929824561404","87.71929824561404","1078.561403508772","1078.561403508772","black","experiment","legacy","legacy","legacy","0","uniform","1","undefined","1","right","56","0","56","56","0","0","56","56","0","0","56","56","56","56","0","Sun Oct 16 13:54:25 2022","The main experiment item","yes","SternbergTask.osexp","C:/Users/lil_p/OneDrive/Documents/School/Advanced Quantitative Analysis/Lab 3.1","no","mono","no","18","no","white","no","yes","768","legacy","44","11","C:/Users/lil_p/OneDrive/Documents/School/Advanced Quantitative Analysis/Lab 3.1/cp-subject-3.csv","legacy","8 6 3 4 7","Lentiform Loewenfeld","3.3.12","0","n","yes","0","right","left","left","right","NA","1258","42734","4992","1258","NA","2","legacy","5","1024","2","48000","-16","experiment","3","odd","1","413500","46519","395838","411297","3777","129517","411298","410184","3783","124524","415501","416761","412299","415501","NA","Sternberg Task","50","61478","57","yes","1024"
"87.93103448275862","87.93103448275862","1078.448275862069","1078.448275862069","black","experiment","legacy","legacy","legacy","0","uniform","1","undefined","1","right","57","0","57","57","0","0","57","57","0","0","57","57","57","57","0","Sun Oct 16 13:54:25 2022","The main experiment item","yes","SternbergTask.osexp","C:/Users/lil_p/OneDrive/Documents/School/Advanced Quantitative Analysis/Lab 3.1","no","mono","no","18","no","white","no","yes","768","legacy","45","11","C:/Users/lil_p/OneDrive/Documents/School/Advanced Quantitative Analysis/Lab 3.1/cp-subject-3.csv","legacy","1 7 5 2 9","Lentiform Loewenfeld","3.3.12","0","n","yes","0","right","left","left","right","NA","1072","42734","4992","1072","NA","2","legacy","5","1024","2","48000","-16","experiment","3","odd","3","420084","46519","416767","417879","3777","129517","417882","410184","3783","124524","422085","423158","418883","422085","NA","Sternberg Task","51","62550","58","yes","1024"
"88.13559322033899","88.13559322033899","1080.6440677966102","1080.6440677966102","black","experiment","legacy","legacy","legacy","0","uniform","1","undefined","1","right","58","0","58","58","0","0","58","58","0","0","58","58","58","58","0","Sun Oct 16 13:54:25 2022","The main experiment item","yes","SternbergTask.osexp","C:/Users/lil_p/OneDrive/Documents/School/Advanced Quantitative Analysis/Lab 3.1","no","mono","no","18","no","white","no","yes","768","legacy","46","11","C:/Users/lil_p/OneDrive/Documents/School/Advanced Quantitative Analysis/Lab 3.1/cp-subject-3.csv","legacy","3 4 9 6 7 8","Lentiform Loewenfeld","3.3.12","0","n","yes","0","right","left","left","right","NA","1208","42734","4992","1208","NA","2","legacy","6","1024","2","48000","-16","experiment","3","odd","2","426497","46519","423164","424293","3777","129517","424295","410184","3783","124524","428498","429708","425296","428498","NA","Sternberg Task","52","63758","59","yes","1024"
"86.66666666666667","86.66666666666667","1079.9333333333334","1079.9333333333334","black","experiment","legacy","legacy","legacy","0","uniform","0","undefined","0","right","59","0","59","59","0","0","59","59","0","0","59","59","59","59","0","Sun Oct 16 13:54:25 2022","The main experiment item","yes","SternbergTask.osexp","C:/Users/lil_p/OneDrive/Documents/School/Advanced Quantitative Analysis/Lab 3.1","no","mono","no","18","no","white","no","yes","768","legacy","47","11","C:/Users/lil_p/OneDrive/Documents/School/Advanced Quantitative Analysis/Lab 3.1/cp-subject-3.csv","legacy","1 5 3 2 8","Lentiform Loewenfeld","3.3.12","0","n","yes","0","left","left","left","left","NA","1038","42734","4992","1038","NA","2","legacy","5","1024","2","48000","-16","experiment","3","odd","4","433032","46519","429714","430827","3777","129517","430830","410184","3783","124524","435033","436072","431831","435033","NA","Sternberg Task","52","64796","60","yes","1024"
"86.88524590163935","86.88524590163935","1075.8524590163934","1075.8524590163934","black","experiment","legacy","legacy","legacy","0","uniform","1","undefined","1","right","60","0","60","60","0","0","60","60","0","0","60","60","60","60","0","Sun Oct 16 13:54:25 2022","The main experiment item","yes","SternbergTask.osexp","C:/Users/lil_p/OneDrive/Documents/School/Advanced Quantitative Analysis/Lab 3.1","no","mono","no","18","no","white","no","yes","768","legacy","48","11","C:/Users/lil_p/OneDrive/Documents/School/Advanced Quantitative Analysis/Lab 3.1/cp-subject-3.csv","legacy","6 8","Lentiform Loewenfeld","3.3.12","0","n","yes","0","right","left","left","right","NA","831","42734","4992","831","NA","2","legacy","2","1024","2","48000","-16","experiment","3","odd","9","439394","46519","429714","437189","3777","129517","437192","436077","3783","124524","441395","442228","438193","441395","NA","Sternberg Task","53","65627","61","yes","1024"
"87.09677419354838","87.09677419354838","1075.3225806451612","1075.3225806451612","black","experiment","legacy","legacy","legacy","0","uniform","1","undefined","1","right","61","0","61","61","0","0","61","61","0","0","61","61","61","61","0","Sun Oct 16 13:54:25 2022","The main experiment item","yes","SternbergTask.osexp","C:/Users/lil_p/OneDrive/Documents/School/Advanced Quantitative Analysis/Lab 3.1","no","mono","no","18","no","white","no","yes","768","legacy","49","11","C:/Users/lil_p/OneDrive/Documents/School/Advanced Quantitative Analysis/Lab 3.1/cp-subject-3.csv","legacy","9 7 4 5 8","Lentiform Loewenfeld","3.3.12","0","n","yes","0","right","left","left","right","NA","1043","42734","4992","1043","NA","2","legacy","5","1024","2","48000","-16","experiment","3","odd","6","445551","46519","442234","443346","3777","129517","443349","436077","3783","124524","447553","448598","444350","447553","NA","Sternberg Task","54","66670","62","yes","1024"
"87.3015873015873","87.3015873015873","1078.5555555555557","1078.5555555555557","black","experiment","legacy","legacy","legacy","0","uniform","1","undefined","1","right","62","0","62","62","0","0","62","62","0","0","62","62","62","62","0","Sun Oct 16 13:54:25 2022","The main experiment item","yes","SternbergTask.osexp","C:/Users/lil_p/OneDrive/Documents/School/Advanced Quantitative Analysis/Lab 3.1","no","mono","no","18","no","white","no","yes","768","legacy","50","11","C:/Users/lil_p/OneDrive/Documents/School/Advanced Quantitative Analysis/Lab 3.1/cp-subject-3.csv","legacy","8 5 7 3 6","Lentiform Loewenfeld","3.3.12","0","n","yes","0","right","left","left","right","NA","1279","42734","4992","1279","NA","2","legacy","5","1024","2","48000","-16","experiment","3","odd","9","451920","46519","448602","449715","3777","129517","449718","436077","3783","124524","453921","455202","450719","453921","NA","Sternberg Task","55","67949","63","yes","1024"
"87.5","87.5","1085.296875","1085.296875","black","experiment","legacy","legacy","legacy","0","uniform","1","undefined","1","left","63","0","63","63","0","0","63","63","0","0","63","63","63","63","0","Sun Oct 16 13:54:25 2022","The main experiment item","yes","SternbergTask.osexp","C:/Users/lil_p/OneDrive/Documents/School/Advanced Quantitative Analysis/Lab 3.1","no","mono","no","18","no","white","no","yes","768","legacy","51","11","C:/Users/lil_p/OneDrive/Documents/School/Advanced Quantitative Analysis/Lab 3.1/cp-subject-3.csv","legacy","3 4 9 6 2 9","Lentiform Loewenfeld","3.3.12","5","y","yes","0","left","left","left","left","NA","1510","42734","4992","1510","NA","2","legacy","6","1024","2","48000","-16","experiment","3","odd","2","458525","46519","455208","456320","3777","129517","456323","436077","3783","124524","460526","462038","457324","460526","NA","Sternberg Task","56","69459","64","yes","1024"
"87.6923076923077","87.6923076923077","1081.6","1081.6","black","experiment","legacy","legacy","legacy","0","uniform","1","undefined","1","right","64","0","64","64","0","0","64","64","0","0","64","64","64","64","0","Sun Oct 16 13:54:25 2022","The main experiment item","yes","SternbergTask.osexp","C:/Users/lil_p/OneDrive/Documents/School/Advanced Quantitative Analysis/Lab 3.1","no","mono","no","18","no","white","no","yes","768","legacy","52","11","C:/Users/lil_p/OneDrive/Documents/School/Advanced Quantitative Analysis/Lab 3.1/cp-subject-3.csv","legacy","1 8 7","Lentiform Loewenfeld","3.3.12","0","n","yes","0","right","left","left","right","NA","845","42734","4992","845","NA","2","legacy","3","1024","2","48000","-16","experiment","3","odd","4","465360","46519","462044","463156","3777","129517","463158","436077","3783","124524","467361","468208","464159","467361","NA","Sternberg Task","57","70304","65","yes","1024"
"87.87878787878788","87.87878787878788","1082.9242424242425","1082.9242424242425","black","experiment","legacy","legacy","legacy","0","uniform","1","undefined","1","left","65","0","65","65","0","0","65","65","0","0","65","65","65","65","0","Sun Oct 16 13:54:25 2022","The main experiment item","yes","SternbergTask.osexp","C:/Users/lil_p/OneDrive/Documents/School/Advanced Quantitative Analysis/Lab 3.1","no","mono","no","18","no","white","no","yes","768","legacy","53","11","C:/Users/lil_p/OneDrive/Documents/School/Advanced Quantitative Analysis/Lab 3.1/cp-subject-3.csv","legacy","6 7 8 5","Lentiform Loewenfeld","3.3.12","3","y","yes","0","left","left","left","left","NA","1169","42734","4992","1169","NA","2","legacy","4","1024","2","48000","-16","experiment","3","odd","8","471543","46519","468213","469339","3777","129517","469341","436077","3783","124524","473544","474715","470342","473544","NA","Sternberg Task","58","71473","66","yes","1024"
"88.05970149253731","88.05970149253731","1079.2835820895523","1079.2835820895523","black","experiment","legacy","legacy","legacy","0","uniform","1","undefined","1","left","66","0","66","66","0","0","66","66","0","0","66","66","66","66","0","Sun Oct 16 13:54:25 2022","The main experiment item","yes","SternbergTask.osexp","C:/Users/lil_p/OneDrive/Documents/School/Advanced Quantitative Analysis/Lab 3.1","no","mono","no","18","no","white","no","yes","768","legacy","54","11","C:/Users/lil_p/OneDrive/Documents/School/Advanced Quantitative Analysis/Lab 3.1/cp-subject-3.csv","legacy","3 4","Lentiform Loewenfeld","3.3.12","1","y","yes","0","left","left","left","left","NA","839","42734","4992","839","NA","2","legacy","2","1024","2","48000","-16","experiment","3","odd","3","478044","46519","474721","475840","3777","129517","475842","436077","3783","124524","480047","480887","476843","480046","NA","Sternberg Task","59","72312","67","yes","1024"
"88.23529411764706","88.23529411764706","1076.764705882353","1076.764705882353","black","experiment","legacy","legacy","legacy","0","uniform","1","undefined","1","right","67","0","67","67","0","0","67","67","0","0","67","67","67","67","0","Sun Oct 16 13:54:25 2022","The main experiment item","yes","SternbergTask.osexp","C:/Users/lil_p/OneDrive/Documents/School/Advanced Quantitative Analysis/Lab 3.1","no","mono","no","18","no","white","no","yes","768","legacy","55","11","C:/Users/lil_p/OneDrive/Documents/School/Advanced Quantitative Analysis/Lab 3.1/cp-subject-3.csv","legacy","2 6 4 3 9","Lentiform Loewenfeld","3.3.12","0","n","yes","0","right","left","left","right","NA","908","42734","4992","908","NA","2","legacy","5","1024","2","48000","-16","experiment","3","odd","1","484210","46519","480893","482006","3777","129517","482008","436077","3783","124524","486211","487121","483009","486211","NA","Sternberg Task","60","73220","68","yes","1024"
"88.40579710144928","88.40579710144928","1078.6376811594203","1078.6376811594203","black","experiment","legacy","legacy","legacy","0","uniform","1","undefined","1","left","68","0","68","68","0","0","68","68","0","0","68","68","68","68","0","Sun Oct 16 13:54:25 2022","The main experiment item","yes","SternbergTask.osexp","C:/Users/lil_p/OneDrive/Documents/School/Advanced Quantitative Analysis/Lab 3.1","no","mono","no","18","no","white","no","yes","768","legacy","56","11","C:/Users/lil_p/OneDrive/Documents/School/Advanced Quantitative Analysis/Lab 3.1/cp-subject-3.csv","legacy","2 5 4 8 7","Lentiform Loewenfeld","3.3.12","3","y","yes","0","left","left","left","left","NA","1206","42734","4992","1206","NA","2","legacy","5","1024","2","48000","-16","experiment","3","odd","4","490461","46519","487127","488255","3777","129517","488258","436077","3783","124524","492462","493669","489260","492462","NA","Sternberg Task","61","74426","69","yes","1024"
"88.57142857142857","88.57142857142857","1080.3","1080.3","black","experiment","legacy","legacy","legacy","0","uniform","1","undefined","1","left","69","0","69","69","0","0","69","69","0","0","69","69","69","69","0","Sun Oct 16 13:54:25 2022","The main experiment item","yes","SternbergTask.osexp","C:/Users/lil_p/OneDrive/Documents/School/Advanced Quantitative Analysis/Lab 3.1","no","mono","no","18","no","white","no","yes","768","legacy","57","11","C:/Users/lil_p/OneDrive/Documents/School/Advanced Quantitative Analysis/Lab 3.1/cp-subject-3.csv","legacy","9 3 1 2 5","Lentiform Loewenfeld","3.3.12","4","y","yes","0","left","left","left","left","NA","1195","42734","4992","1195","NA","2","legacy","5","1024","2","48000","-16","experiment","3","odd","2","497005","46519","493674","494800","3777","129517","494802","436077","3783","124524","499006","500203","495803","499006","NA","Sternberg Task","62","75621","70","yes","1024"
"88.73239436619718","88.73239436619718","1078.6760563380283","1078.6760563380283","black","experiment","legacy","legacy","legacy","0","uniform","1","undefined","1","right","70","0","70","70","0","0","70","70","0","0","70","70","70","70","0","Sun Oct 16 13:54:25 2022","The main experiment item","yes","SternbergTask.osexp","C:/Users/lil_p/OneDrive/Documents/School/Advanced Quantitative Analysis/Lab 3.1","no","mono","no","18","no","white","no","yes","768","legacy","58","11","C:/Users/lil_p/OneDrive/Documents/School/Advanced Quantitative Analysis/Lab 3.1/cp-subject-3.csv","legacy","6 9 5","Lentiform Loewenfeld","3.3.12","0","n","yes","0","right","left","left","right","NA","965","42734","4992","965","NA","2","legacy","3","1024","2","48000","-16","experiment","3","odd","8","503539","46519","500208","501335","3777","129517","501337","436077","3783","124524","505540","506507","502338","505540","NA","Sternberg Task","63","76586","71","yes","1024"
"88.88888888888889","88.88888888888889","1083.1527777777778","1083.1527777777778","black","experiment","legacy","legacy","legacy","0","uniform","1","undefined","1","left","71","0","71","71","0","0","71","71","0","0","71","71","71","71","0","Sun Oct 16 13:54:25 2022","The main experiment item","yes","SternbergTask.osexp","C:/Users/lil_p/OneDrive/Documents/School/Advanced Quantitative Analysis/Lab 3.1","no","mono","no","18","no","white","no","yes","768","legacy","59","11","C:/Users/lil_p/OneDrive/Documents/School/Advanced Quantitative Analysis/Lab 3.1/cp-subject-3.csv","legacy","8 9 6 1","Lentiform Loewenfeld","3.3.12","2","y","yes","0","left","left","left","left","NA","1401","42734","4992","1401","NA","2","legacy","4","1024","2","48000","-16","experiment","3","odd","9","509832","46519","506513","507627","3777","129517","507630","436077","3783","124524","511833","513236","508631","511833","NA","Sternberg Task","64","77987","72","yes","1024"
"89.04109589041096","89.04109589041096","1082.7397260273972","1082.7397260273972","black","experiment","legacy","legacy","legacy","0","uniform","1","undefined","1","right","72","0","72","72","0","0","72","72","0","0","72","72","72","72","0","Sun Oct 16 13:54:25 2022","The main experiment item","yes","SternbergTask.osexp","C:/Users/lil_p/OneDrive/Documents/School/Advanced Quantitative Analysis/Lab 3.1","no","mono","no","18","no","white","no","yes","768","legacy","60","11","C:/Users/lil_p/OneDrive/Documents/School/Advanced Quantitative Analysis/Lab 3.1/cp-subject-3.csv","legacy","5 3 2 6 9 8","Lentiform Loewenfeld","3.3.12","0","n","yes","0","right","left","left","right","NA","1053","42734","4992","1053","NA","2","legacy","6","1024","2","48000","-16","experiment","3","odd","4","516560","46519","513242","514355","3777","129517","514357","436077","3783","124524","518561","519616","515358","518561","NA","Sternberg Task","65","79040","73","yes","1024"
"89.1891891891892","89.1891891891892","1083.4594594594594","1083.4594594594594","black","experiment","legacy","legacy","legacy","0","uniform","1","undefined","1","left","73","0","73","73","0","0","73","73","0","0","73","73","73","73","0","Sun Oct 16 13:54:25 2022","The main experiment item","yes","SternbergTask.osexp","C:/Users/lil_p/OneDrive/Documents/School/Advanced Quantitative Analysis/Lab 3.1","no","mono","no","18","no","white","no","yes","768","legacy","61","11","C:/Users/lil_p/OneDrive/Documents/School/Advanced Quantitative Analysis/Lab 3.1/cp-subject-3.csv","legacy","8 5 1 3 9","Lentiform Loewenfeld","3.3.12","4","y","yes","0","left","left","left","left","NA","1136","42734","4992","1136","NA","2","legacy","5","1024","2","48000","-16","experiment","3","odd","3","522941","46519","519621","520736","3777","129517","520739","436077","3783","124524","524942","526080","521740","524942","NA","Sternberg Task","66","80176","74","yes","1024"
"89.33333333333333","89.33333333333333","1080.3466666666666","1080.3466666666666","black","experiment","legacy","legacy","legacy","0","uniform","1","undefined","1","right","74","0","74","74","0","0","74","74","0","0","74","74","74","74","0","Sun Oct 16 13:54:25 2022","The main experiment item","yes","SternbergTask.osexp","C:/Users/lil_p/OneDrive/Documents/School/Advanced Quantitative Analysis/Lab 3.1","no","mono","no","18","no","white","no","yes","768","legacy","62","11","C:/Users/lil_p/OneDrive/Documents/School/Advanced Quantitative Analysis/Lab 3.1/cp-subject-3.csv","legacy","4 8 1 2","Lentiform Loewenfeld","3.3.12","0","n","yes","0","right","left","left","right","NA","850","42734","4992","850","NA","2","legacy","4","1024","2","48000","-16","experiment","3","odd","7","529419","46519","526087","527215","3777","129517","527217","436077","3783","124524","531420","532271","528218","531420","NA","Sternberg Task","67","81026","75","yes","1024"
"88.15789473684211","88.15789473684211","1077.578947368421","1077.578947368421","black","experiment","legacy","legacy","legacy","0","uniform","0","undefined","0","left","75","0","75","75","0","0","75","75","0","0","75","75","75","75","0","Sun Oct 16 13:54:25 2022","The main experiment item","yes","SternbergTask.osexp","C:/Users/lil_p/OneDrive/Documents/School/Advanced Quantitative Analysis/Lab 3.1","no","mono","no","18","no","white","no","yes","768","legacy","63","11","C:/Users/lil_p/OneDrive/Documents/School/Advanced Quantitative Analysis/Lab 3.1/cp-subject-3.csv","legacy","7 2 3","Lentiform Loewenfeld","3.3.12","3","y","yes","0","right","left","left","right","NA","870","42734","4992","870","NA","2","legacy","3","1024","2","48000","-16","experiment","3","odd","3","535600","46519","532278","533397","3777","129517","533398","436077","3783","124524","537601","538473","534399","537601","NA","Sternberg Task","67","81896","76","yes","1024"
"88.31168831168831","88.31168831168831","1078.4675324675325","1078.4675324675325","black","experiment","legacy","legacy","legacy","0","uniform","1","undefined","1","left","76","0","76","76","0","0","76","76","0","0","76","76","76","76","0","Sun Oct 16 13:54:25 2022","The main experiment item","yes","SternbergTask.osexp","C:/Users/lil_p/OneDrive/Documents/School/Advanced Quantitative Analysis/Lab 3.1","no","mono","no","18","no","white","no","yes","768","legacy","64","11","C:/Users/lil_p/OneDrive/Documents/School/Advanced Quantitative Analysis/Lab 3.1/cp-subject-3.csv","legacy","4 1 8 7 5","Lentiform Loewenfeld","3.3.12","3","y","yes","0","left","left","left","left","NA","1146","42734","4992","1146","NA","2","legacy","5","1024","2","48000","-16","experiment","3","odd","8","541797","46519","532278","539593","3777","129517","539594","538479","3783","124524","543798","544946","540596","543798","NA","Sternberg Task","68","83042","77","yes","1024"
"88.46153846153847","88.46153846153847","1079.1025641025642","1079.1025641025642","black","experiment","legacy","legacy","legacy","0","uniform","1","undefined","1","right","77","0","77","77","0","0","77","77","0","0","77","77","77","77","0","Sun Oct 16 13:54:25 2022","The main experiment item","yes","SternbergTask.osexp","C:/Users/lil_p/OneDrive/Documents/School/Advanced Quantitative Analysis/Lab 3.1","no","mono","no","18","no","white","no","yes","768","legacy","65","11","C:/Users/lil_p/OneDrive/Documents/School/Advanced Quantitative Analysis/Lab 3.1/cp-subject-3.csv","legacy","7 9 1 6","Lentiform Loewenfeld","3.3.12","0","n","yes","0","right","left","left","right","NA","1128","42734","4992","1128","NA","2","legacy","4","1024","2","48000","-16","experiment","3","odd","4","548269","46519","544952","546064","3777","129517","546067","538479","3783","124524","550270","551399","547068","550270","NA","Sternberg Task","69","84170","78","yes","1024"
"88.60759493670886","88.60759493670886","1081.746835443038","1081.746835443038","black","experiment","legacy","legacy","legacy","0","uniform","1","undefined","1","left","78","0","78","78","0","0","78","78","0","0","78","78","78","78","0","Sun Oct 16 13:54:25 2022","The main experiment item","yes","SternbergTask.osexp","C:/Users/lil_p/OneDrive/Documents/School/Advanced Quantitative Analysis/Lab 3.1","no","mono","no","18","no","white","no","yes","768","legacy","66","11","C:/Users/lil_p/OneDrive/Documents/School/Advanced Quantitative Analysis/Lab 3.1/cp-subject-3.csv","legacy","4 7 6 8 2 3","Lentiform Loewenfeld","3.3.12","6","y","yes","0","left","left","left","left","NA","1288","42734","4992","1288","NA","2","legacy","6","1024","2","48000","-16","experiment","3","odd","3","554722","46519","551405","552518","3777","129517","552520","538479","3783","124524","556723","558013","553521","556723","NA","Sternberg Task","70","85458","79","yes","1024"
"88.75","88.75","1091.775","1091.775","black","experiment","legacy","legacy","legacy","0","uniform","1","undefined","1","left","79","0","79","79","0","0","79","79","0","0","79","79","79","79","0","Sun Oct 16 13:54:25 2022","The main experiment item","yes","SternbergTask.osexp","C:/Users/lil_p/OneDrive/Documents/School/Advanced Quantitative Analysis/Lab 3.1","no","mono","no","18","no","white","no","yes","768","legacy","67","11","C:/Users/lil_p/OneDrive/Documents/School/Advanced Quantitative Analysis/Lab 3.1/cp-subject-3.csv","legacy","7 1 8 5 6 2","Lentiform Loewenfeld","3.3.12","2","y","yes","0","left","left","left","left","NA","1884","42734","4992","1884","NA","2","legacy","6","1024","2","48000","-16","experiment","3","odd","1","561337","46519","558019","559133","3777","129517","559135","538479","3783","124524","563338","565224","560136","563338","NA","Sternberg Task","71","87342","80","yes","1024"
"88.88888888888889","88.88888888888889","1093.1604938271605","1093.1604938271605","black","experiment","legacy","legacy","legacy","0","uniform","1","undefined","1","right","80","0","80","80","0","0","80","80","0","0","80","80","80","80","0","Sun Oct 16 13:54:25 2022","The main experiment item","yes","SternbergTask.osexp","C:/Users/lil_p/OneDrive/Documents/School/Advanced Quantitative Analysis/Lab 3.1","no","mono","no","18","no","white","no","yes","768","legacy","68","11","C:/Users/lil_p/OneDrive/Documents/School/Advanced Quantitative Analysis/Lab 3.1/cp-subject-3.csv","legacy","1 7 5 2","Lentiform Loewenfeld","3.3.12","0","n","yes","0","right","left","left","right","NA","1204","42734","4992","1204","NA","2","legacy","4","1024","2","48000","-16","experiment","3","odd","3","568548","46519","565230","566343","3777","129517","566345","538479","3783","124524","570550","571755","567347","570550","NA","Sternberg Task","72","88546","81","yes","1024"
"89.02439024390245","89.02439024390245","1088.060975609756","1088.060975609756","black","experiment","legacy","legacy","legacy","0","uniform","1","undefined","1","left","81","0","81","81","0","0","81","81","0","0","81","81","81","81","0","Sun Oct 16 13:54:25 2022","The main experiment item","yes","SternbergTask.osexp","C:/Users/lil_p/OneDrive/Documents/School/Advanced Quantitative Analysis/Lab 3.1","no","mono","no","18","no","white","no","yes","768","legacy","69","11","C:/Users/lil_p/OneDrive/Documents/School/Advanced Quantitative Analysis/Lab 3.1/cp-subject-3.csv","legacy","9 5 3 8 4","Lentiform Loewenfeld","3.3.12","1","y","yes","0","left","left","left","left","NA","675","42734","4992","675","NA","2","legacy","5","1024","2","48000","-16","experiment","3","odd","9","575093","46519","571761","572889","3777","129517","572891","538479","3783","124524","577094","577770","573892","577094","NA","Sternberg Task","73","89221","82","yes","1024"
"89.1566265060241","89.1566265060241","1090.0843373493976","1090.0843373493976","black","experiment","legacy","legacy","legacy","0","uniform","1","undefined","1","right","82","0","82","82","0","0","82","82","0","0","82","82","82","82","0","Sun Oct 16 13:54:25 2022","The main experiment item","yes","SternbergTask.osexp","C:/Users/lil_p/OneDrive/Documents/School/Advanced Quantitative Analysis/Lab 3.1","no","mono","no","18","no","white","no","yes","768","legacy","70","11","C:/Users/lil_p/OneDrive/Documents/School/Advanced Quantitative Analysis/Lab 3.1/cp-subject-3.csv","legacy","9 5 3 2 8 6","Lentiform Loewenfeld","3.3.12","0","n","yes","0","right","left","left","right","NA","1256","42734","4992","1256","NA","2","legacy","6","1024","2","48000","-16","experiment","3","odd","7","581097","46519","577777","578891","3777","129517","578893","538479","3783","124524","583098","584356","579895","583098","NA","Sternberg Task","74","90477","83","yes","1024"
"88.0952380952381","88.0952380952381","1100.9166666666667","1100.9166666666667","black","experiment","legacy","legacy","legacy","0","uniform","0","undefined","0","right","83","0","83","83","0","0","83","83","0","0","83","83","83","83","0","Sun Oct 16 13:54:25 2022","The main experiment item","yes","SternbergTask.osexp","C:/Users/lil_p/OneDrive/Documents/School/Advanced Quantitative Analysis/Lab 3.1","no","mono","no","18","no","white","no","yes","768","legacy","71","11","C:/Users/lil_p/OneDrive/Documents/School/Advanced Quantitative Analysis/Lab 3.1/cp-subject-3.csv","legacy","2 3 8 5 6 7","Lentiform Loewenfeld","3.3.12","0","n","yes","0","None","left","left","None","NA","2000","42734","4992","2000","NA","2","legacy","6","1024","2","48000","-16","experiment","3","odd","1","587678","46519","584360","585473","3777","129517","585476","538479","3783","124524","589679","591680","586477","589679","NA","Sternberg Task","74","92477","84","yes","1024"
"88.23529411764706","88.23529411764706","1102.0235294117647","1102.0235294117647","black","experiment","legacy","legacy","legacy","0","uniform","1","undefined","1","left","84","0","84","84","0","0","84","84","0","0","84","84","84","84","0","Sun Oct 16 13:54:25 2022","The main experiment item","yes","SternbergTask.osexp","C:/Users/lil_p/OneDrive/Documents/School/Advanced Quantitative Analysis/Lab 3.1","no","mono","no","18","no","white","no","yes","768","legacy","72","11","C:/Users/lil_p/OneDrive/Documents/School/Advanced Quantitative Analysis/Lab 3.1/cp-subject-3.csv","legacy","3 5 4 7","Lentiform Loewenfeld","3.3.12","1","y","yes","0","left","left","left","left","NA","1195","42734","4992","1195","NA","2","legacy","4","1024","2","48000","-16","experiment","3","odd","3","595001","46519","584360","592797","3777","129517","592799","591686","3783","124524","597002","598198","593800","597002","NA","Sternberg Task","75","93672","85","yes","1024"
"88.37209302325581","88.37209302325581","1098.8023255813953","1098.8023255813953","black","experiment","legacy","legacy","legacy","0","uniform","1","undefined","1","right","85","0","85","85","0","0","85","85","0","0","85","85","85","85","0","Sun Oct 16 13:54:25 2022","The main experiment item","yes","SternbergTask.osexp","C:/Users/lil_p/OneDrive/Documents/School/Advanced Quantitative Analysis/Lab 3.1","no","mono","no","18","no","white","no","yes","768","legacy","73","11","C:/Users/lil_p/OneDrive/Documents/School/Advanced Quantitative Analysis/Lab 3.1/cp-subject-3.csv","legacy","6 8 4","Lentiform Loewenfeld","3.3.12","0","n","yes","0","right","left","left","right","NA","825","42734","4992","825","NA","2","legacy","3","1024","2","48000","-16","experiment","3","odd","1","601524","46519","598205","599320","3777","129517","599322","591686","3783","124524","603525","604352","600323","603525","NA","Sternberg Task","76","94497","86","yes","1024"
"88.50574712643679","88.50574712643679","1098.057471264368","1098.057471264368","black","experiment","legacy","legacy","legacy","0","uniform","1","undefined","1","right","86","0","86","86","0","0","86","86","0","0","86","86","86","86","0","Sun Oct 16 13:54:25 2022","The main experiment item","yes","SternbergTask.osexp","C:/Users/lil_p/OneDrive/Documents/School/Advanced Quantitative Analysis/Lab 3.1","no","mono","no","18","no","white","no","yes","768","legacy","74","11","C:/Users/lil_p/OneDrive/Documents/School/Advanced Quantitative Analysis/Lab 3.1/cp-subject-3.csv","legacy","2 5 1 4","Lentiform Loewenfeld","3.3.12","0","n","yes","0","right","left","left","right","NA","1034","42734","4992","1034","NA","2","legacy","4","1024","2","48000","-16","experiment","3","odd","6","607676","46519","604358","605471","3777","129517","605474","591686","3783","124524","609677","610713","606475","609677","NA","Sternberg Task","77","95531","87","yes","1024"
"88.63636363636364","88.63636363636364","1093.4772727272727","1093.4772727272727","black","experiment","legacy","legacy","legacy","0","uniform","1","undefined","1","right","87","0","87","87","0","0","87","87","0","0","87","87","87","87","0","Sun Oct 16 13:54:25 2022","The main experiment item","yes","SternbergTask.osexp","C:/Users/lil_p/OneDrive/Documents/School/Advanced Quantitative Analysis/Lab 3.1","no","mono","no","18","no","white","no","yes","768","legacy","75","11","C:/Users/lil_p/OneDrive/Documents/School/Advanced Quantitative Analysis/Lab 3.1/cp-subject-3.csv","legacy","5","Lentiform Loewenfeld","3.3.12","0","n","yes","0","right","left","left","right","NA","695","42734","4992","695","NA","2","legacy","1","1024","2","48000","-16","experiment","3","odd","8","614041","46519","610719","611837","3777","129517","611839","591686","3783","124524","616042","616738","612840","616042","NA","Sternberg Task","78","96226","88","yes","1024"
"88.76404494382022","88.76404494382022","1086.0449438202247","1086.0449438202247","black","experiment","legacy","legacy","legacy","0","uniform","1","undefined","1","left","88","0","88","88","0","0","88","88","0","0","88","88","88","88","0","Sun Oct 16 13:54:25 2022","The main experiment item","yes","SternbergTask.osexp","C:/Users/lil_p/OneDrive/Documents/School/Advanced Quantitative Analysis/Lab 3.1","no","mono","no","18","no","white","no","yes","768","legacy","76","11","C:/Users/lil_p/OneDrive/Documents/School/Advanced Quantitative Analysis/Lab 3.1/cp-subject-3.csv","legacy","4","Lentiform Loewenfeld","3.3.12","1","y","yes","0","left","left","left","left","NA","432","42734","4992","432","NA","2","legacy","1","1024","2","48000","-16","experiment","3","odd","4","620064","46519","616742","617859","3777","129517","617862","591686","3783","124524","622065","622500","618863","622065","NA","Sternberg Task","79","96658","89","yes","1024"
"88.88888888888889","88.88888888888889","1086.4","1086.4","black","experiment","legacy","legacy","legacy","0","uniform","1","undefined","1","left","89","0","89","89","0","0","89","89","0","0","89","89","89","89","0","Sun Oct 16 13:54:25 2022","The main experiment item","yes","SternbergTask.osexp","C:/Users/lil_p/OneDrive/Documents/School/Advanced Quantitative Analysis/Lab 3.1","no","mono","no","18","no","white","no","yes","768","legacy","77","11","C:/Users/lil_p/OneDrive/Documents/School/Advanced Quantitative Analysis/Lab 3.1/cp-subject-3.csv","legacy","7 8 6 3 1","Lentiform Loewenfeld","3.3.12","5","y","yes","0","left","left","left","left","NA","1118","42734","4992","1118","NA","2","legacy","5","1024","2","48000","-16","experiment","3","odd","1","625830","46519","622505","623625","3777","129517","623628","591686","3783","124524","627831","628951","624629","627831","NA","Sternberg Task","80","97776","90","yes","1024"
"89.01098901098901","89.01098901098901","1084.868131868132","1084.868131868132","black","experiment","legacy","legacy","legacy","0","uniform","1","undefined","1","right","90","0","90","90","0","0","90","90","0","0","90","90","90","90","0","Sun Oct 16 13:54:25 2022","The main experiment item","yes","SternbergTask.osexp","C:/Users/lil_p/OneDrive/Documents/School/Advanced Quantitative Analysis/Lab 3.1","no","mono","no","18","no","white","no","yes","768","legacy","78","11","C:/Users/lil_p/OneDrive/Documents/School/Advanced Quantitative Analysis/Lab 3.1/cp-subject-3.csv","legacy","1 3 2 6 9","Lentiform Loewenfeld","3.3.12","0","n","yes","0","right","left","left","right","NA","947","42734","4992","947","NA","2","legacy","5","1024","2","48000","-16","experiment","3","odd","5","632273","46519","628955","630069","3777","129517","630071","591686","3783","124524","634274","635223","631072","634274","NA","Sternberg Task","81","98723","91","yes","1024"
"89.1304347826087","89.1304347826087","1084.7391304347825","1084.7391304347825","black","experiment","legacy","legacy","legacy","0","uniform","1","undefined","1","right","91","0","91","91","0","0","91","91","0","0","91","91","91","91","0","Sun Oct 16 13:54:25 2022","The main experiment item","yes","SternbergTask.osexp","C:/Users/lil_p/OneDrive/Documents/School/Advanced Quantitative Analysis/Lab 3.1","no","mono","no","18","no","white","no","yes","768","legacy","79","11","C:/Users/lil_p/OneDrive/Documents/School/Advanced Quantitative Analysis/Lab 3.1/cp-subject-3.csv","legacy","1 7 8 3 9","Lentiform Loewenfeld","3.3.12","0","n","yes","0","right","left","left","right","NA","1073","42734","4992","1073","NA","2","legacy","5","1024","2","48000","-16","experiment","3","odd","2","638553","46519","635229","636349","3777","129517","636351","591686","3783","124524","640554","641629","637352","640554","NA","Sternberg Task","82","99796","92","yes","1024"
"89.24731182795699","89.24731182795699","1084.3870967741937","1084.3870967741937","black","experiment","legacy","legacy","legacy","0","uniform","1","undefined","1","right","92","0","92","92","0","0","92","92","0","0","92","92","92","92","0","Sun Oct 16 13:54:25 2022","The main experiment item","yes","SternbergTask.osexp","C:/Users/lil_p/OneDrive/Documents/School/Advanced Quantitative Analysis/Lab 3.1","no","mono","no","18","no","white","no","yes","768","legacy","80","11","C:/Users/lil_p/OneDrive/Documents/School/Advanced Quantitative Analysis/Lab 3.1/cp-subject-3.csv","legacy","1 4 3 6 5","Lentiform Loewenfeld","3.3.12","0","n","yes","0","right","left","left","right","NA","1052","42734","4992","1052","NA","2","legacy","5","1024","2","48000","-16","experiment","3","odd","8","644953","46519","641635","642747","3777","129517","642749","591686","3783","124524","646955","648009","643751","646954","NA","Sternberg Task","83","100848","93","yes","1024"
"89.36170212765957","89.36170212765957","1083.5851063829787","1083.5851063829787","black","experiment","legacy","legacy","legacy","0","uniform","1","undefined","1","right","93","0","93","93","0","0","93","93","0","0","93","93","93","93","0","Sun Oct 16 13:54:25 2022","The main experiment item","yes","SternbergTask.osexp","C:/Users/lil_p/OneDrive/Documents/School/Advanced Quantitative Analysis/Lab 3.1","no","mono","no","18","no","white","no","yes","768","legacy","81","11","C:/Users/lil_p/OneDrive/Documents/School/Advanced Quantitative Analysis/Lab 3.1/cp-subject-3.csv","legacy","8 2 1 4 5 9","Lentiform Loewenfeld","3.3.12","0","n","yes","0","right","left","left","right","NA","1009","42734","4992","1009","NA","2","legacy","6","1024","2","48000","-16","experiment","3","odd","7","651344","46519","648015","649140","3777","129517","649142","591686","3783","124524","653345","654356","650143","653345","NA","Sternberg Task","84","101857","94","yes","1024"
"89.47368421052632","89.47368421052632","1081.3894736842105","1081.3894736842105","black","experiment","legacy","legacy","legacy","0","uniform","1","undefined","1","left","94","0","94","94","0","0","94","94","0","0","94","94","94","94","0","Sun Oct 16 13:54:25 2022","The main experiment item","yes","SternbergTask.osexp","C:/Users/lil_p/OneDrive/Documents/School/Advanced Quantitative Analysis/Lab 3.1","no","mono","no","18","no","white","no","yes","768","legacy","82","11","C:/Users/lil_p/OneDrive/Documents/School/Advanced Quantitative Analysis/Lab 3.1/cp-subject-3.csv","legacy","2 6 1 7 4","Lentiform Loewenfeld","3.3.12","2","y","yes","0","left","left","left","left","NA","875","42734","4992","875","NA","2","legacy","5","1024","2","48000","-16","experiment","3","odd","6","657680","46519","654362","655476","3777","129517","655478","591686","3783","124524","659681","660557","656479","659681","NA","Sternberg Task","85","102732","95","yes","1024"
"88.54166666666667","88.54166666666667","1083.7395833333333","1083.7395833333333","black","experiment","legacy","legacy","legacy","0","uniform","0","undefined","0","left","95","0","95","95","0","0","95","95","0","0","95","95","95","95","0","Sun Oct 16 13:54:25 2022","The main experiment item","yes","SternbergTask.osexp","C:/Users/lil_p/OneDrive/Documents/School/Advanced Quantitative Analysis/Lab 3.1","no","mono","no","18","no","white","no","yes","768","legacy","83","11","C:/Users/lil_p/OneDrive/Documents/School/Advanced Quantitative Analysis/Lab 3.1/cp-subject-3.csv","legacy","5 2 6","Lentiform Loewenfeld","3.3.12","2","y","yes","0","right","left","left","right","NA","1307","42734","4992","1307","NA","2","legacy","3","1024","2","48000","-16","experiment","3","odd","2","663883","46519","660563","661679","3777","129517","661681","591686","3783","124524","665884","667193","662682","665884","NA","Sternberg Task","85","104039","96","yes","1024"
"88.65979381443299","88.65979381443299","1083.3505154639174","1083.3505154639174","black","experiment","legacy","legacy","legacy","0","uniform","1","undefined","1","right","96","0","96","96","0","0","96","96","0","0","96","96","96","96","0","Sun Oct 16 13:54:25 2022","The main experiment item","yes","SternbergTask.osexp","C:/Users/lil_p/OneDrive/Documents/School/Advanced Quantitative Analysis/Lab 3.1","no","mono","no","18","no","white","no","yes","768","legacy","84","11","C:/Users/lil_p/OneDrive/Documents/School/Advanced Quantitative Analysis/Lab 3.1/cp-subject-3.csv","legacy","8 4 3 9","Lentiform Loewenfeld","3.3.12","0","n","yes","0","right","left","left","right","NA","1046","42734","4992","1046","NA","2","legacy","4","1024","2","48000","-16","experiment","3","odd","5","670515","46519","660563","668310","3777","129517","668312","667197","3783","124524","672517","673564","669314","672517","NA","Sternberg Task","86","105085","97","yes","1024"
"88.77551020408163","88.77551020408163","1083.5","1083.5","black","experiment","legacy","legacy","legacy","0","uniform","1","undefined","1","right","97","0","97","97","0","0","97","97","0","0","97","97","97","97","0","Sun Oct 16 13:54:25 2022","The main experiment item","yes","SternbergTask.osexp","C:/Users/lil_p/OneDrive/Documents/School/Advanced Quantitative Analysis/Lab 3.1","no","mono","no","18","no","white","no","yes","768","legacy","85","11","C:/Users/lil_p/OneDrive/Documents/School/Advanced Quantitative Analysis/Lab 3.1/cp-subject-3.csv","legacy","8 5 4 2 9 6","Lentiform Loewenfeld","3.3.12","0","n","yes","0","right","left","left","right","NA","1098","42734","4992","1098","NA","2","legacy","6","1024","2","48000","-16","experiment","3","odd","3","676889","46519","673570","674683","3777","129517","674686","667197","3783","124524","678890","679990","675687","678890","NA","Sternberg Task","87","106183","98","yes","1024"
"88.88888888888889","88.88888888888889","1083.3737373737374","1083.3737373737374","black","experiment","legacy","legacy","legacy","0","uniform","1","undefined","1","left","98","0","98","98","0","0","98","98","0","0","98","98","98","98","0","Sun Oct 16 13:54:25 2022","The main experiment item","yes","SternbergTask.osexp","C:/Users/lil_p/OneDrive/Documents/School/Advanced Quantitative Analysis/Lab 3.1","no","mono","no","18","no","white","no","yes","768","legacy","86","11","C:/Users/lil_p/OneDrive/Documents/School/Advanced Quantitative Analysis/Lab 3.1/cp-subject-3.csv","legacy","2 4 6 9","Lentiform Loewenfeld","3.3.12","3","y","yes","0","left","left","left","left","NA","1071","42734","4992","1071","NA","2","legacy","4","1024","2","48000","-16","experiment","3","odd","6","683312","46519","679996","681108","3777","129517","681110","667197","3783","124524","685313","686386","682111","685313","NA","Sternberg Task","88","107254","99","yes","1024"
"89","89","1080.37","1080.37","black","experiment","legacy","legacy","legacy","0","uniform","1","undefined","1","left","99","0","99","99","0","0","99","99","0","0","99","99","99","99","0","Sun Oct 16 13:54:25 2022","The main experiment item","yes","SternbergTask.osexp","C:/Users/lil_p/OneDrive/Documents/School/Advanced Quantitative Analysis/Lab 3.1","no","mono","no","18","no","white","no","yes","768","legacy","87","11","C:/Users/lil_p/OneDrive/Documents/School/Advanced Quantitative Analysis/Lab 3.1/cp-subject-3.csv","legacy","6 8 9 3 4 9","Lentiform Loewenfeld","3.3.12","5","y","yes","0","left","left","left","left","NA","783","42734","4992","783","NA","2","legacy","6","1024","2","48000","-16","experiment","3","odd","4","689709","46519","686392","687504","3777","129517","687506","667197","3783","124524","691710","692494","688508","691710","NA","Sternberg Task","89","108037","100","yes","1024"
"89.10891089108911","89.10891089108911","1077.5445544554455","1077.5445544554455","black","experiment","legacy","legacy","legacy","0","uniform","1","undefined","1","left","100","0","100","100","0","0","100","100","0","0","100","100","100","100","0","Sun Oct 16 13:54:25 2022","The main experiment item","yes","SternbergTask.osexp","C:/Users/lil_p/OneDrive/Documents/School/Advanced Quantitative Analysis/Lab 3.1","no","mono","no","18","no","white","no","yes","768","legacy","88","11","C:/Users/lil_p/OneDrive/Documents/School/Advanced Quantitative Analysis/Lab 3.1/cp-subject-3.csv","legacy","9 1 6 7 8","Lentiform Loewenfeld","3.3.12","1","y","yes","0","left","left","left","left","NA","795","42734","4992","795","NA","2","legacy","5","1024","2","48000","-16","experiment","3","odd","9","695817","46519","692500","693612","3777","129517","693615","667197","3783","124524","697818","698615","694616","697818","NA","Sternberg Task","90","108832","101","yes","1024"
"89.2156862745098","89.2156862745098","1076.578431372549","1076.578431372549","black","experiment","legacy","legacy","legacy","0","uniform","1","undefined","1","left","101","0","101","101","0","0","101","101","0","0","101","101","101","101","0","Sun Oct 16 13:54:25 2022","The main experiment item","yes","SternbergTask.osexp","C:/Users/lil_p/OneDrive/Documents/School/Advanced Quantitative Analysis/Lab 3.1","no","mono","no","18","no","white","no","yes","768","legacy","89","11","C:/Users/lil_p/OneDrive/Documents/School/Advanced Quantitative Analysis/Lab 3.1/cp-subject-3.csv","legacy","4 9 7 8 5 3","Lentiform Loewenfeld","3.3.12","4","y","yes","0","left","left","left","left","NA","979","42734","4992","979","NA","2","legacy","6","1024","2","48000","-16","experiment","3","odd","8","701939","46519","698621","699734","3777","129517","699736","667197","3783","124524","703940","704920","700738","703940","NA","Sternberg Task","91","109811","102","yes","1024"
"89.32038834951456","89.32038834951456","1072.3300970873786","1072.3300970873786","black","experiment","legacy","legacy","legacy","0","uniform","1","undefined","1","left","102","0","102","102","0","0","102","102","0","0","102","102","102","102","0","Sun Oct 16 13:54:25 2022","The main experiment item","yes","SternbergTask.osexp","C:/Users/lil_p/OneDrive/Documents/School/Advanced Quantitative Analysis/Lab 3.1","no","mono","no","18","no","white","no","yes","768","legacy","90","11","C:/Users/lil_p/OneDrive/Documents/School/Advanced Quantitative Analysis/Lab 3.1/cp-subject-3.csv","legacy","6 2","Lentiform Loewenfeld","3.3.12","1","y","yes","0","left","left","left","left","NA","639","42734","4992","639","NA","2","legacy","2","1024","2","48000","-16","experiment","3","odd","6","708256","46519","704926","706052","3777","129517","706054","667197","3783","124524","710257","710897","707055","710257","NA","Sternberg Task","92","110450","103","yes","1024"
"89.42307692307692","89.42307692307692","1072.7211538461538","1072.7211538461538","black","experiment","legacy","legacy","legacy","0","uniform","1","undefined","1","right","103","0","103","103","0","0","103","103","0","0","103","103","103","103","0","Sun Oct 16 13:54:25 2022","The main experiment item","yes","SternbergTask.osexp","C:/Users/lil_p/OneDrive/Documents/School/Advanced Quantitative Analysis/Lab 3.1","no","mono","no","18","no","white","no","yes","768","legacy","91","11","C:/Users/lil_p/OneDrive/Documents/School/Advanced Quantitative Analysis/Lab 3.1/cp-subject-3.csv","legacy","4 1","Lentiform Loewenfeld","3.3.12","0","n","yes","0","right","left","left","right","NA","1113","42734","4992","1113","NA","2","legacy","2","1024","2","48000","-16","experiment","3","odd","6","714233","46519","710904","712029","3777","129517","712031","667197","3783","124524","716234","717349","713032","716234","NA","Sternberg Task","93","111563","104","yes","1024"
