"acc","accuracy","average_response_time","avg_rt","background","block","canvas_backend","clock_backend","color_backend","compensation","coordinates","correct","correct_instruction1","correct_keyboard_response","correct_response","count_ISI","count_correctFeedback","count_expSequence","count_experiment","count_experimentLoop","count_fixation","count_incorrectFeedback","count_instruction1","count_instruction2","count_keyboard_response","count_logger","count_memorySet","count_practiceLoop","count_probe","count_thankYou","datetime","description","disable_garbage_collection","experiment_file","experiment_path","font_bold","font_family","font_italic","font_size","font_underline","foreground","form_clicks","fullscreen","height","keyboard_backend","live_row","live_row_practiceLoop","logfile","mouse_backend","numberSet","opensesame_codename","opensesame_version","posInSet","present","repeat_cycle","response","response_instruction1","response_instruction2","response_keyboard_response","response_thankYou","response_time","response_time_instruction1","response_time_instruction2","response_time_keyboard_response","response_time_thankYou","round_decimals","sampler_backend","setSize","sound_buf_size","sound_channels","sound_freq","sound_sample_size","start","subject_nr","subject_parity","target","time_ISI","time_correctFeedback","time_expSequence","time_experiment","time_experimentLoop","time_fixation","time_incorrectFeedback","time_instruction1","time_instruction2","time_keyboard_response","time_logger","time_memorySet","time_practiceLoop","time_probe","time_thankYou","title","total_correct","total_response_time","total_responses","uniform_coordinates","width"
"0","0","1030","1030","black","practice","legacy","legacy","legacy","0","uniform","0","undefined","0","left","0","0","0","0","0","0","0","0","0","0","0","0","0","0","0","Sun Oct 23 19:01:36 2022","The main experiment item","yes","Sternbergtask.osexp","/Users/keelyn/Library/CloudStorage/OneDrive-Personal","no","mono","no","18","no","white","no","yes","768","legacy","0","0","/Users/keelyn/Library/CloudStorage/OneDrive-Personal/KB-subject-4.csv","legacy","2 9 4","Lentiform Loewenfeld","3.3.12","3","y","0","right","right","NA","right","NA","1030","66685","NA","1030","NA","2","legacy","3","1024","2","48000","-16","experiment","4","even","4","69990","NA","67749","921","NA","67754","NA","932","NA","72003","73040","68767","67634","72003","NA","Sternberg task","0","1030","1","yes","1024"
"50","50","992","992","black","practice","legacy","legacy","legacy","0","uniform","1","undefined","1","left","1","1","1","0","0","1","1","0","0","1","1","1","0","1","0","Sun Oct 23 19:01:36 2022","The main experiment item","yes","Sternbergtask.osexp","/Users/keelyn/Library/CloudStorage/OneDrive-Personal","no","mono","no","18","no","white","no","yes","768","legacy","1","1","/Users/keelyn/Library/CloudStorage/OneDrive-Personal/KB-subject-4.csv","legacy","1 5 2 9","Lentiform Loewenfeld","3.3.12","2","y","0","left","right","NA","left","NA","954","66685","NA","954","NA","2","legacy","4","1024","2","48000","-16","experiment","4","even","5","76369","NA","74132","921","NA","74137","73062","932","NA","78382","79337","75150","67634","78382","NA","Sternberg task","1","1984","2","yes","1024"
"66.66666666666667","66.66666666666667","834","834","black","practice","legacy","legacy","legacy","0","uniform","1","undefined","1","left","2","2","2","0","0","2","2","0","0","2","2","2","0","2","0","Sun Oct 23 19:01:36 2022","The main experiment item","yes","Sternbergtask.osexp","/Users/keelyn/Library/CloudStorage/OneDrive-Personal","no","mono","no","18","no","white","no","yes","768","legacy","2","2","/Users/keelyn/Library/CloudStorage/OneDrive-Personal/KB-subject-4.csv","legacy","6","Lentiform Loewenfeld","3.3.12","1","y","0","left","right","NA","left","NA","518","66685","NA","518","NA","2","legacy","1","1024","2","48000","-16","experiment","4","even","6","82642","79342","80407","921","NA","80413","73062","932","NA","84657","85175","81426","67634","84657","NA","Sternberg task","2","2502","3","yes","1024"
"75","75","857.25","857.25","black","practice","legacy","legacy","legacy","0","uniform","1","undefined","1","right","3","3","3","0","0","3","3","0","0","3","3","3","0","3","0","Sun Oct 23 19:01:36 2022","The main experiment item","yes","Sternbergtask.osexp","/Users/keelyn/Library/CloudStorage/OneDrive-Personal","no","mono","no","18","no","white","no","yes","768","legacy","3","3","/Users/keelyn/Library/CloudStorage/OneDrive-Personal/KB-subject-4.csv","legacy","5","Lentiform Loewenfeld","3.3.12","0","n","0","right","right","NA","right","NA","927","66685","NA","927","NA","2","legacy","1","1024","2","48000","-16","experiment","4","even","3","88477","85181","86244","921","NA","86249","73062","932","NA","90494","91422","87262","67634","90494","NA","Sternberg task","3","3429","4","yes","1024"
"80","80","894.2","894.2","black","practice","legacy","legacy","legacy","0","uniform","1","undefined","1","right","4","4","4","0","0","4","4","0","0","4","4","4","0","4","0","Sun Oct 23 19:01:36 2022","The main experiment item","yes","Sternbergtask.osexp","/Users/keelyn/Library/CloudStorage/OneDrive-Personal","no","mono","no","18","no","white","no","yes","768","legacy","4","4","/Users/keelyn/Library/CloudStorage/OneDrive-Personal/KB-subject-4.csv","legacy","9 6 7 4 5","Lentiform Loewenfeld","3.3.12","0","n","0","right","right","NA","right","NA","1042","66685","NA","1042","NA","2","legacy","5","1024","2","48000","-16","experiment","4","even","3","94718","91427","92482","921","NA","92488","73062","932","NA","96730","97773","93501","67634","96730","NA","Sternberg task","4","4471","5","yes","1024"
"83.33333333333333","83.33333333333333","860.1666666666666","860.1666666666666","black","practice","legacy","legacy","legacy","0","uniform","1","undefined","1","left","5","5","5","0","0","5","5","0","0","5","5","5","0","5","0","Sun Oct 23 19:01:36 2022","The main experiment item","yes","Sternbergtask.osexp","/Users/keelyn/Library/CloudStorage/OneDrive-Personal","no","mono","no","18","no","white","no","yes","768","legacy","5","5","/Users/keelyn/Library/CloudStorage/OneDrive-Personal/KB-subject-4.csv","legacy","4 3 1 7 9 8","Lentiform Loewenfeld","3.3.12","1","y","0","left","right","NA","left","NA","690","66685","NA","690","NA","2","legacy","6","1024","2","48000","-16","experiment","4","even","4","101077","97778","98841","921","NA","98847","73062","932","NA","103089","103780","99860","67634","103088","NA","Sternberg task","5","5161","6","yes","1024"
"71.42857142857143","71.42857142857143","956","956","black","practice","legacy","legacy","legacy","0","uniform","0","undefined","0","right","6","6","6","0","0","6","6","0","0","6","6","6","0","6","0","Sun Oct 23 19:01:36 2022","The main experiment item","yes","Sternbergtask.osexp","/Users/keelyn/Library/CloudStorage/OneDrive-Personal","no","mono","no","18","no","white","no","yes","768","legacy","6","6","/Users/keelyn/Library/CloudStorage/OneDrive-Personal/KB-subject-4.csv","legacy","5 7 8 4 1 2","Lentiform Loewenfeld","3.3.12","0","n","0","left","right","NA","left","NA","1531","66685","NA","1531","NA","2","legacy","6","1024","2","48000","-16","experiment","4","even","6","107079","103785","104847","921","NA","104852","73062","932","NA","109088","110619","105864","67634","109088","NA","Sternberg task","5","6692","7","yes","1024"
"75","75","923.125","923.125","black","practice","legacy","legacy","legacy","0","uniform","1","undefined","1","left","7","7","7","0","0","7","7","0","0","7","7","7","0","7","0","Sun Oct 23 19:01:36 2022","The main experiment item","yes","Sternbergtask.osexp","/Users/keelyn/Library/CloudStorage/OneDrive-Personal","no","mono","no","18","no","white","no","yes","768","legacy","7","7","/Users/keelyn/Library/CloudStorage/OneDrive-Personal/KB-subject-4.csv","legacy","4 8","Lentiform Loewenfeld","3.3.12","1","y","0","left","right","NA","left","NA","693","66685","NA","693","NA","2","legacy","2","1024","2","48000","-16","experiment","4","even","4","113928","103785","111686","921","NA","111692","110624","932","NA","115945","116639","112712","67634","115944","NA","Sternberg task","6","7385","8","yes","1024"
"77.77777777777777","77.77777777777777","950.7777777777778","950.7777777777778","black","practice","legacy","legacy","legacy","0","uniform","1","undefined","1","right","8","8","8","0","0","8","8","0","0","8","8","8","0","8","0","Sun Oct 23 19:01:36 2022","The main experiment item","yes","Sternbergtask.osexp","/Users/keelyn/Library/CloudStorage/OneDrive-Personal","no","mono","no","18","no","white","no","yes","768","legacy","8","8","/Users/keelyn/Library/CloudStorage/OneDrive-Personal/KB-subject-4.csv","legacy","3 1 9 4","Lentiform Loewenfeld","3.3.12","0","n","0","right","right","NA","right","NA","1172","66685","NA","1172","NA","2","legacy","4","1024","2","48000","-16","experiment","4","even","6","119941","116644","117708","921","NA","117714","110624","932","NA","121953","123126","118726","67634","121953","NA","Sternberg task","7","8557","9","yes","1024"
"80","80","928.5","928.5","black","practice","legacy","legacy","legacy","0","uniform","1","undefined","1","right","9","9","9","0","0","9","9","0","0","9","9","9","0","9","0","Sun Oct 23 19:01:36 2022","The main experiment item","yes","Sternbergtask.osexp","/Users/keelyn/Library/CloudStorage/OneDrive-Personal","no","mono","no","18","no","white","no","yes","768","legacy","9","9","/Users/keelyn/Library/CloudStorage/OneDrive-Personal/KB-subject-4.csv","legacy","2 1","Lentiform Loewenfeld","3.3.12","0","n","0","right","right","NA","right","NA","728","66685","NA","728","NA","2","legacy","2","1024","2","48000","-16","experiment","4","even","5","126429","123131","124192","921","NA","124198","110624","932","NA","128445","129173","125210","67634","128445","NA","Sternberg task","8","9285","10","yes","1024"
"81.81818181818181","81.81818181818181","905.4545454545455","905.4545454545455","black","practice","legacy","legacy","legacy","0","uniform","1","undefined","1","right","10","10","10","0","0","10","10","0","0","10","10","10","0","10","0","Sun Oct 23 19:01:36 2022","The main experiment item","yes","Sternbergtask.osexp","/Users/keelyn/Library/CloudStorage/OneDrive-Personal","no","mono","no","18","no","white","no","yes","768","legacy","10","10","/Users/keelyn/Library/CloudStorage/OneDrive-Personal/KB-subject-4.csv","legacy","4 1 5","Lentiform Loewenfeld","3.3.12","0","n","0","right","right","NA","right","NA","675","66685","NA","675","NA","2","legacy","3","1024","2","48000","-16","experiment","4","even","2","132477","129179","130238","921","NA","130243","110624","932","NA","134489","135164","131262","67634","134489","NA","Sternberg task","9","9960","11","yes","1024"
"83.33333333333333","83.33333333333333","908.9166666666666","908.9166666666666","black","practice","legacy","legacy","legacy","0","uniform","1","undefined","1","left","11","11","11","0","0","11","11","0","0","11","11","11","0","11","0","Sun Oct 23 19:01:36 2022","The main experiment item","yes","Sternbergtask.osexp","/Users/keelyn/Library/CloudStorage/OneDrive-Personal","no","mono","no","18","no","white","no","yes","768","legacy","11","11","/Users/keelyn/Library/CloudStorage/OneDrive-Personal/KB-subject-4.csv","legacy","1 7 9 8 5","Lentiform Loewenfeld","3.3.12","4","y","0","left","right","NA","left","NA","947","66685","NA","947","NA","2","legacy","5","1024","2","48000","-16","experiment","4","even","8","138465","135169","136230","921","NA","136235","110624","932","NA","140476","141423","137248","67634","140476","NA","Sternberg task","10","10907","12","yes","1024"
"84.61538461538461","84.61538461538461","891.0769230769231","891.0769230769231","black","experiment","legacy","legacy","legacy","0","uniform","1","undefined","1","right","12","12","12","0","0","12","12","0","0","12","12","12","0","12","0","Sun Oct 23 19:01:36 2022","The main experiment item","yes","Sternbergtask.osexp","/Users/keelyn/Library/CloudStorage/OneDrive-Personal","no","mono","no","18","no","white","no","yes","768","legacy","0","11","/Users/keelyn/Library/CloudStorage/OneDrive-Personal/KB-subject-4.csv","legacy","4 2 6 9","Lentiform Loewenfeld","3.3.12","0","n","0","right","right","left","right","NA","677","66685","4837","677","NA","2","legacy","4","1024","2","48000","-16","experiment","4","even","7","149565","141428","147332","921","147300","147336","110624","932","142463","151576","152254","148349","67634","151576","NA","Sternberg task","11","11584","13","yes","1024"
"85.71428571428571","85.71428571428571","879.9285714285714","879.9285714285714","black","experiment","legacy","legacy","legacy","0","uniform","1","undefined","1","right","13","13","13","0","0","13","13","0","0","13","13","13","0","13","0","Sun Oct 23 19:01:36 2022","The main experiment item","yes","Sternbergtask.osexp","/Users/keelyn/Library/CloudStorage/OneDrive-Personal","no","mono","no","18","no","white","no","yes","768","legacy","1","11","/Users/keelyn/Library/CloudStorage/OneDrive-Personal/KB-subject-4.csv","legacy","7 3 2 8","Lentiform Loewenfeld","3.3.12","0","n","0","right","right","left","right","NA","735","66685","4837","735","NA","2","legacy","4","1024","2","48000","-16","experiment","4","even","4","155561","152259","153321","921","147300","153327","110624","932","142463","157573","158308","154345","67634","157573","NA","Sternberg task","12","12319","14","yes","1024"
"86.66666666666667","86.66666666666667","909.2","909.2","black","experiment","legacy","legacy","legacy","0","uniform","1","undefined","1","left","14","14","14","0","0","14","14","0","0","14","14","14","0","14","0","Sun Oct 23 19:01:36 2022","The main experiment item","yes","Sternbergtask.osexp","/Users/keelyn/Library/CloudStorage/OneDrive-Personal","no","mono","no","18","no","white","no","yes","768","legacy","2","11","/Users/keelyn/Library/CloudStorage/OneDrive-Personal/KB-subject-4.csv","legacy","1 4 9 3 2 5","Lentiform Loewenfeld","3.3.12","3","y","0","left","right","left","left","NA","1319","66685","4837","1319","NA","2","legacy","6","1024","2","48000","-16","experiment","4","even","9","161612","158313","159376","921","147300","159382","110624","932","142463","163623","164943","160395","67634","163623","NA","Sternberg task","13","13638","15","yes","1024"
"87.5","87.5","893.4375","893.4375","black","experiment","legacy","legacy","legacy","0","uniform","1","undefined","1","left","15","15","15","0","0","15","15","0","0","15","15","15","0","15","0","Sun Oct 23 19:01:36 2022","The main experiment item","yes","Sternbergtask.osexp","/Users/keelyn/Library/CloudStorage/OneDrive-Personal","no","mono","no","18","no","white","no","yes","768","legacy","3","11","/Users/keelyn/Library/CloudStorage/OneDrive-Personal/KB-subject-4.csv","legacy","8 5 1 3 9","Lentiform Loewenfeld","3.3.12","4","y","0","left","right","left","left","NA","657","66685","4837","657","NA","2","legacy","5","1024","2","48000","-16","experiment","4","even","3","168241","164948","166007","921","147300","166012","110624","932","142463","170253","170910","167026","67634","170253","NA","Sternberg task","14","14295","16","yes","1024"
"88.23529411764706","88.23529411764706","879.8823529411765","879.8823529411765","black","experiment","legacy","legacy","legacy","0","uniform","1","undefined","1","right","16","16","16","0","0","16","16","0","0","16","16","16","0","16","0","Sun Oct 23 19:01:36 2022","The main experiment item","yes","Sternbergtask.osexp","/Users/keelyn/Library/CloudStorage/OneDrive-Personal","no","mono","no","18","no","white","no","yes","768","legacy","4","11","/Users/keelyn/Library/CloudStorage/OneDrive-Personal/KB-subject-4.csv","legacy","2 8 7 9 5 3","Lentiform Loewenfeld","3.3.12","0","n","0","right","right","left","right","NA","663","66685","4837","663","NA","2","legacy","6","1024","2","48000","-16","experiment","4","even","6","174210","170915","171977","921","147300","171983","110624","932","142463","176221","176885","172994","67634","176220","NA","Sternberg task","15","14958","17","yes","1024"
"88.88888888888889","88.88888888888889","868.8333333333334","868.8333333333334","black","experiment","legacy","legacy","legacy","0","uniform","1","undefined","1","right","17","17","17","0","0","17","17","0","0","17","17","17","0","17","0","Sun Oct 23 19:01:36 2022","The main experiment item","yes","Sternbergtask.osexp","/Users/keelyn/Library/CloudStorage/OneDrive-Personal","no","mono","no","18","no","white","no","yes","768","legacy","5","11","/Users/keelyn/Library/CloudStorage/OneDrive-Personal/KB-subject-4.csv","legacy","9 5 3 2 8 6","Lentiform Loewenfeld","3.3.12","0","n","0","right","right","left","right","NA","681","66685","4837","681","NA","2","legacy","6","1024","2","48000","-16","experiment","4","even","7","180190","176890","177949","921","147300","177955","110624","932","142463","182203","182885","178973","67634","182203","NA","Sternberg task","16","15639","18","yes","1024"
"89.47368421052632","89.47368421052632","855.4736842105264","855.4736842105264","black","experiment","legacy","legacy","legacy","0","uniform","1","undefined","1","right","18","18","18","0","0","18","18","0","0","18","18","18","0","18","0","Sun Oct 23 19:01:36 2022","The main experiment item","yes","Sternbergtask.osexp","/Users/keelyn/Library/CloudStorage/OneDrive-Personal","no","mono","no","18","no","white","no","yes","768","legacy","6","11","/Users/keelyn/Library/CloudStorage/OneDrive-Personal/KB-subject-4.csv","legacy","1 7 5 2 9","Lentiform Loewenfeld","3.3.12","0","n","0","right","right","left","right","NA","615","66685","4837","615","NA","2","legacy","5","1024","2","48000","-16","experiment","4","even","3","186182","182890","183947","921","147300","183952","110624","932","142463","188194","188810","184966","67634","188194","NA","Sternberg task","17","16254","19","yes","1024"
"90","90","850.1","850.1","black","experiment","legacy","legacy","legacy","0","uniform","1","undefined","1","left","19","19","19","0","0","19","19","0","0","19","19","19","0","19","0","Sun Oct 23 19:01:36 2022","The main experiment item","yes","Sternbergtask.osexp","/Users/keelyn/Library/CloudStorage/OneDrive-Personal","no","mono","no","18","no","white","no","yes","768","legacy","7","11","/Users/keelyn/Library/CloudStorage/OneDrive-Personal/KB-subject-4.csv","legacy","7","Lentiform Loewenfeld","3.3.12","1","y","0","left","right","left","left","NA","748","66685","4837","748","NA","2","legacy","1","1024","2","48000","-16","experiment","4","even","7","192116","188815","189881","921","147300","189887","110624","932","142463","194127","194875","190900","67634","194126","NA","Sternberg task","18","17002","20","yes","1024"
"90.47619047619048","90.47619047619048","854.1904761904761","854.1904761904761","black","experiment","legacy","legacy","legacy","0","uniform","1","undefined","1","left","20","20","20","0","0","20","20","0","0","20","20","20","0","20","0","Sun Oct 23 19:01:36 2022","The main experiment item","yes","Sternbergtask.osexp","/Users/keelyn/Library/CloudStorage/OneDrive-Personal","no","mono","no","18","no","white","no","yes","768","legacy","8","11","/Users/keelyn/Library/CloudStorage/OneDrive-Personal/KB-subject-4.csv","legacy","9 1 7 2","Lentiform Loewenfeld","3.3.12","2","y","0","left","right","left","left","NA","936","66685","4837","936","NA","2","legacy","4","1024","2","48000","-16","experiment","4","even","1","198171","194881","195938","921","147300","195943","110624","932","142463","200182","201119","196956","67634","200181","NA","Sternberg task","19","17938","21","yes","1024"
"90.9090909090909","90.9090909090909","845.5909090909091","845.5909090909091","black","experiment","legacy","legacy","legacy","0","uniform","1","undefined","1","right","21","21","21","0","0","21","21","0","0","21","21","21","0","21","0","Sun Oct 23 19:01:36 2022","The main experiment item","yes","Sternbergtask.osexp","/Users/keelyn/Library/CloudStorage/OneDrive-Personal","no","mono","no","18","no","white","no","yes","768","legacy","9","11","/Users/keelyn/Library/CloudStorage/OneDrive-Personal/KB-subject-4.csv","legacy","8 4 3 5","Lentiform Loewenfeld","3.3.12","0","n","0","right","right","left","right","NA","665","66685","4837","665","NA","2","legacy","4","1024","2","48000","-16","experiment","4","even","6","204410","201124","202176","921","147300","202181","110624","932","142463","206422","207088","203195","67634","206421","NA","Sternberg task","20","18603","22","yes","1024"
"91.30434782608695","91.30434782608695","842.0434782608696","842.0434782608696","black","experiment","legacy","legacy","legacy","0","uniform","1","undefined","1","right","22","22","22","0","0","22","22","0","0","22","22","22","0","22","0","Sun Oct 23 19:01:36 2022","The main experiment item","yes","Sternbergtask.osexp","/Users/keelyn/Library/CloudStorage/OneDrive-Personal","no","mono","no","18","no","white","no","yes","768","legacy","10","11","/Users/keelyn/Library/CloudStorage/OneDrive-Personal/KB-subject-4.csv","legacy","5","Lentiform Loewenfeld","3.3.12","0","n","0","right","right","left","right","NA","764","66685","4837","764","NA","2","legacy","1","1024","2","48000","-16","experiment","4","even","8","210383","207093","208149","921","147300","208154","110624","932","142463","212394","213158","209168","67634","212394","NA","Sternberg task","21","19367","23","yes","1024"
"91.66666666666667","91.66666666666667","833.1666666666666","833.1666666666666","black","experiment","legacy","legacy","legacy","0","uniform","1","undefined","1","left","23","23","23","0","0","23","23","0","0","23","23","23","0","23","0","Sun Oct 23 19:01:36 2022","The main experiment item","yes","Sternbergtask.osexp","/Users/keelyn/Library/CloudStorage/OneDrive-Personal","no","mono","no","18","no","white","no","yes","768","legacy","11","11","/Users/keelyn/Library/CloudStorage/OneDrive-Personal/KB-subject-4.csv","legacy","4 6 5 8","Lentiform Loewenfeld","3.3.12","1","y","0","left","right","left","left","NA","629","66685","4837","629","NA","2","legacy","4","1024","2","48000","-16","experiment","4","even","4","216453","213163","214217","921","147300","214222","110624","932","142463","218465","219094","215234","67634","218465","NA","Sternberg task","22","19996","24","yes","1024"
"92","92","825.8","825.8","black","experiment","legacy","legacy","legacy","0","uniform","1","undefined","1","left","24","24","24","0","0","24","24","0","0","24","24","24","0","24","0","Sun Oct 23 19:01:36 2022","The main experiment item","yes","Sternbergtask.osexp","/Users/keelyn/Library/CloudStorage/OneDrive-Personal","no","mono","no","18","no","white","no","yes","768","legacy","12","11","/Users/keelyn/Library/CloudStorage/OneDrive-Personal/KB-subject-4.csv","legacy","9 5 3 8 4","Lentiform Loewenfeld","3.3.12","1","y","0","left","right","left","left","NA","649","66685","4837","649","NA","2","legacy","5","1024","2","48000","-16","experiment","4","even","9","222394","219100","220161","921","147300","220167","110624","932","142463","224407","225056","221179","67634","224407","NA","Sternberg task","23","20645","25","yes","1024"
"92.3076923076923","92.3076923076923","814.4615384615385","814.4615384615385","black","experiment","legacy","legacy","legacy","0","uniform","1","undefined","1","left","25","25","25","0","0","25","25","0","0","25","25","25","0","25","0","Sun Oct 23 19:01:36 2022","The main experiment item","yes","Sternbergtask.osexp","/Users/keelyn/Library/CloudStorage/OneDrive-Personal","no","mono","no","18","no","white","no","yes","768","legacy","13","11","/Users/keelyn/Library/CloudStorage/OneDrive-Personal/KB-subject-4.csv","legacy","9 1 6 7 8","Lentiform Loewenfeld","3.3.12","1","y","0","left","right","left","left","NA","531","66685","4837","531","NA","2","legacy","5","1024","2","48000","-16","experiment","4","even","9","228359","225061","226122","921","147300","226128","110624","932","142463","230370","230901","227141","67634","230370","NA","Sternberg task","24","21176","26","yes","1024"
"88.88888888888889","88.88888888888889","805.2592592592592","805.2592592592592","black","experiment","legacy","legacy","legacy","0","uniform","0","undefined","0","left","26","26","26","0","0","26","26","0","0","26","26","26","0","26","0","Sun Oct 23 19:01:36 2022","The main experiment item","yes","Sternbergtask.osexp","/Users/keelyn/Library/CloudStorage/OneDrive-Personal","no","mono","no","18","no","white","no","yes","768","legacy","14","11","/Users/keelyn/Library/CloudStorage/OneDrive-Personal/KB-subject-4.csv","legacy","5 7 3 6 2","Lentiform Loewenfeld","3.3.12","5","y","0","right","right","left","right","NA","566","66685","4837","566","NA","2","legacy","5","1024","2","48000","-16","experiment","4","even","2","234200","230906","231966","921","147300","231971","110624","932","142463","236211","236777","232986","67634","236211","NA","Sternberg task","24","21742","27","yes","1024"
"89.28571428571429","89.28571428571429","804.1785714285714","804.1785714285714","black","experiment","legacy","legacy","legacy","0","uniform","1","undefined","1","right","27","27","27","0","0","27","27","0","0","27","27","27","0","27","0","Sun Oct 23 19:01:36 2022","The main experiment item","yes","Sternbergtask.osexp","/Users/keelyn/Library/CloudStorage/OneDrive-Personal","no","mono","no","18","no","white","no","yes","768","legacy","15","11","/Users/keelyn/Library/CloudStorage/OneDrive-Personal/KB-subject-4.csv","legacy","8 5 7 3 6","Lentiform Loewenfeld","3.3.12","0","n","0","right","right","left","right","NA","775","66685","4837","775","NA","2","legacy","5","1024","2","48000","-16","experiment","4","even","9","240078","230906","237845","921","147300","237851","236783","932","142463","242088","242864","238863","67634","242088","NA","Sternberg task","25","22517","28","yes","1024"
"89.65517241379311","89.65517241379311","800.5862068965517","800.5862068965517","black","experiment","legacy","legacy","legacy","0","uniform","1","undefined","1","right","28","28","28","0","0","28","28","0","0","28","28","28","0","28","0","Sun Oct 23 19:01:36 2022","The main experiment item","yes","Sternbergtask.osexp","/Users/keelyn/Library/CloudStorage/OneDrive-Personal","no","mono","no","18","no","white","no","yes","768","legacy","16","11","/Users/keelyn/Library/CloudStorage/OneDrive-Personal/KB-subject-4.csv","legacy","7 9 1 6","Lentiform Loewenfeld","3.3.12","0","n","0","right","right","left","right","NA","700","66685","4837","700","NA","2","legacy","4","1024","2","48000","-16","experiment","4","even","4","246165","242869","243931","921","147300","243937","236783","932","142463","248177","248877","244950","67634","248177","NA","Sternberg task","26","23217","29","yes","1024"
"90","90","796.3666666666667","796.3666666666667","black","experiment","legacy","legacy","legacy","0","uniform","1","undefined","1","right","29","29","29","0","0","29","29","0","0","29","29","29","0","29","0","Sun Oct 23 19:01:36 2022","The main experiment item","yes","Sternbergtask.osexp","/Users/keelyn/Library/CloudStorage/OneDrive-Personal","no","mono","no","18","no","white","no","yes","768","legacy","17","11","/Users/keelyn/Library/CloudStorage/OneDrive-Personal/KB-subject-4.csv","legacy","5 7 3","Lentiform Loewenfeld","3.3.12","0","n","0","right","right","left","right","NA","674","66685","4837","674","NA","2","legacy","3","1024","2","48000","-16","experiment","4","even","9","252180","248882","249942","921","147300","249948","236783","932","142463","254189","254863","250961","67634","254189","NA","Sternberg task","27","23891","30","yes","1024"
"87.09677419354838","87.09677419354838","800.2258064516129","800.2258064516129","black","experiment","legacy","legacy","legacy","0","uniform","0","undefined","0","left","30","30","30","0","0","30","30","0","0","30","30","30","0","30","0","Sun Oct 23 19:01:36 2022","The main experiment item","yes","Sternbergtask.osexp","/Users/keelyn/Library/CloudStorage/OneDrive-Personal","no","mono","no","18","no","white","no","yes","768","legacy","18","11","/Users/keelyn/Library/CloudStorage/OneDrive-Personal/KB-subject-4.csv","legacy","3 9 6 2","Lentiform Loewenfeld","3.3.12","4","y","0","right","right","left","right","NA","916","66685","4837","916","NA","2","legacy","4","1024","2","48000","-16","experiment","4","even","2","258165","254869","255931","921","147300","255937","236783","932","142463","260176","261092","256950","67634","260176","NA","Sternberg task","27","24807","31","yes","1024"
"84.375","84.375","805.1875","805.1875","black","experiment","legacy","legacy","legacy","0","uniform","0","undefined","0","left","31","31","31","0","0","31","31","0","0","31","31","31","0","31","0","Sun Oct 23 19:01:36 2022","The main experiment item","yes","Sternbergtask.osexp","/Users/keelyn/Library/CloudStorage/OneDrive-Personal","no","mono","no","18","no","white","no","yes","768","legacy","19","11","/Users/keelyn/Library/CloudStorage/OneDrive-Personal/KB-subject-4.csv","legacy","2 5 4 8 7","Lentiform Loewenfeld","3.3.12","3","y","0","right","right","left","right","NA","959","66685","4837","959","NA","2","legacy","5","1024","2","48000","-16","experiment","4","even","4","264394","254869","262160","921","147300","262165","261098","932","142463","266411","267370","263179","67634","266410","NA","Sternberg task","27","25766","32","yes","1024"
"84.84848484848484","84.84848484848484","798.6666666666666","798.6666666666666","black","experiment","legacy","legacy","legacy","0","uniform","1","undefined","1","left","32","32","32","0","0","32","32","0","0","32","32","32","0","32","0","Sun Oct 23 19:01:36 2022","The main experiment item","yes","Sternbergtask.osexp","/Users/keelyn/Library/CloudStorage/OneDrive-Personal","no","mono","no","18","no","white","no","yes","768","legacy","20","11","/Users/keelyn/Library/CloudStorage/OneDrive-Personal/KB-subject-4.csv","legacy","6 2","Lentiform Loewenfeld","3.3.12","1","y","0","left","right","left","left","NA","590","66685","4837","590","NA","2","legacy","2","1024","2","48000","-16","experiment","4","even","6","270662","254869","268429","921","147300","268434","267376","932","142463","272674","273264","269447","67634","272674","NA","Sternberg task","28","26356","33","yes","1024"
"85.29411764705883","85.29411764705883","795.7058823529412","795.7058823529412","black","experiment","legacy","legacy","legacy","0","uniform","1","undefined","1","right","33","33","33","0","0","33","33","0","0","33","33","33","0","33","0","Sun Oct 23 19:01:36 2022","The main experiment item","yes","Sternbergtask.osexp","/Users/keelyn/Library/CloudStorage/OneDrive-Personal","no","mono","no","18","no","white","no","yes","768","legacy","21","11","/Users/keelyn/Library/CloudStorage/OneDrive-Personal/KB-subject-4.csv","legacy","5 9 2 3","Lentiform Loewenfeld","3.3.12","0","n","0","right","right","left","right","NA","698","66685","4837","698","NA","2","legacy","4","1024","2","48000","-16","experiment","4","even","8","276564","273269","274331","921","147300","274336","267376","932","142463","278576","279275","275349","67634","278576","NA","Sternberg task","29","27054","34","yes","1024"
"85.71428571428571","85.71428571428571","788.7142857142857","788.7142857142857","black","experiment","legacy","legacy","legacy","0","uniform","1","undefined","1","right","34","34","34","0","0","34","34","0","0","34","34","34","0","34","0","Sun Oct 23 19:01:36 2022","The main experiment item","yes","Sternbergtask.osexp","/Users/keelyn/Library/CloudStorage/OneDrive-Personal","no","mono","no","18","no","white","no","yes","768","legacy","22","11","/Users/keelyn/Library/CloudStorage/OneDrive-Personal/KB-subject-4.csv","legacy","3 9 8 1 6 4","Lentiform Loewenfeld","3.3.12","0","n","0","right","right","left","right","NA","551","66685","4837","551","NA","2","legacy","6","1024","2","48000","-16","experiment","4","even","7","282581","279280","280342","921","147300","280348","267376","932","142463","284594","285146","281365","67634","284594","NA","Sternberg task","30","27605","35","yes","1024"
"86.11111111111111","86.11111111111111","783.4444444444445","783.4444444444445","black","experiment","legacy","legacy","legacy","0","uniform","1","undefined","1","right","35","35","35","0","0","35","35","0","0","35","35","35","0","35","0","Sun Oct 23 19:01:36 2022","The main experiment item","yes","Sternbergtask.osexp","/Users/keelyn/Library/CloudStorage/OneDrive-Personal","no","mono","no","18","no","white","no","yes","768","legacy","23","11","/Users/keelyn/Library/CloudStorage/OneDrive-Personal/KB-subject-4.csv","legacy","1 7 5 2","Lentiform Loewenfeld","3.3.12","0","n","0","right","right","left","right","NA","599","66685","4837","599","NA","2","legacy","4","1024","2","48000","-16","experiment","4","even","3","288445","285150","286212","921","147300","286217","267376","932","142463","290456","291056","287230","67634","290456","NA","Sternberg task","31","28204","36","yes","1024"
"86.48648648648648","86.48648648648648","780.6486486486486","780.6486486486486","black","experiment","legacy","legacy","legacy","0","uniform","1","undefined","1","right","36","36","36","0","0","36","36","0","0","36","36","36","0","36","0","Sun Oct 23 19:01:36 2022","The main experiment item","yes","Sternbergtask.osexp","/Users/keelyn/Library/CloudStorage/OneDrive-Personal","no","mono","no","18","no","white","no","yes","768","legacy","24","11","/Users/keelyn/Library/CloudStorage/OneDrive-Personal/KB-subject-4.csv","legacy","4 8 1 2","Lentiform Loewenfeld","3.3.12","0","n","0","right","right","left","right","NA","680","66685","4837","680","NA","2","legacy","4","1024","2","48000","-16","experiment","4","even","7","294358","291061","292123","921","147300","292129","267376","932","142463","296370","297050","293142","67634","296370","NA","Sternberg task","32","28884","37","yes","1024"
"84.21052631578948","84.21052631578948","791.5526315789474","791.5526315789474","black","experiment","legacy","legacy","legacy","0","uniform","0","undefined","0","left","37","37","37","0","0","37","37","0","0","37","37","37","0","37","0","Sun Oct 23 19:01:36 2022","The main experiment item","yes","Sternbergtask.osexp","/Users/keelyn/Library/CloudStorage/OneDrive-Personal","no","mono","no","18","no","white","no","yes","768","legacy","25","11","/Users/keelyn/Library/CloudStorage/OneDrive-Personal/KB-subject-4.csv","legacy","5 2 9 6 1 7","Lentiform Loewenfeld","3.3.12","3","y","0","right","right","left","right","NA","1195","66685","4837","1195","NA","2","legacy","6","1024","2","48000","-16","experiment","4","even","9","300353","297055","298119","921","147300","298124","267376","932","142463","302362","303558","299137","67634","302362","NA","Sternberg task","32","30079","38","yes","1024"
"84.61538461538461","84.61538461538461","816.5897435897435","816.5897435897435","black","experiment","legacy","legacy","legacy","0","uniform","1","undefined","1","right","38","38","38","0","0","38","38","0","0","38","38","38","0","38","0","Sun Oct 23 19:01:36 2022","The main experiment item","yes","Sternbergtask.osexp","/Users/keelyn/Library/CloudStorage/OneDrive-Personal","no","mono","no","18","no","white","no","yes","768","legacy","26","11","/Users/keelyn/Library/CloudStorage/OneDrive-Personal/KB-subject-4.csv","legacy","2 8 9","Lentiform Loewenfeld","3.3.12","0","n","0","right","right","left","right","NA","1768","66685","4837","1768","NA","2","legacy","3","1024","2","48000","-16","experiment","4","even","6","306858","297055","304624","921","147300","304630","303563","932","142463","308869","310638","305643","67634","308869","NA","Sternberg task","33","31847","39","yes","1024"
"82.5","82.5","821.3","821.3","black","experiment","legacy","legacy","legacy","0","uniform","0","undefined","0","left","39","39","39","0","0","39","39","0","0","39","39","39","0","39","0","Sun Oct 23 19:01:36 2022","The main experiment item","yes","Sternbergtask.osexp","/Users/keelyn/Library/CloudStorage/OneDrive-Personal","no","mono","no","18","no","white","no","yes","768","legacy","27","11","/Users/keelyn/Library/CloudStorage/OneDrive-Personal/KB-subject-4.csv","legacy","3 5 9 6 2 4","Lentiform Loewenfeld","3.3.12","1","y","0","right","right","left","right","NA","1005","66685","4837","1005","NA","2","legacy","6","1024","2","48000","-16","experiment","4","even","3","313938","310643","311702","921","147300","311708","303563","932","142463","315950","316956","312720","67634","315950","NA","Sternberg task","33","32852","40","yes","1024"
"80.48780487804878","80.48780487804878","818.7560975609756","818.7560975609756","black","experiment","legacy","legacy","legacy","0","uniform","0","undefined","0","left","40","40","40","0","0","40","40","0","0","40","40","40","0","40","0","Sun Oct 23 19:01:36 2022","The main experiment item","yes","Sternbergtask.osexp","/Users/keelyn/Library/CloudStorage/OneDrive-Personal","no","mono","no","18","no","white","no","yes","768","legacy","28","11","/Users/keelyn/Library/CloudStorage/OneDrive-Personal/KB-subject-4.csv","legacy","8 1 6","Lentiform Loewenfeld","3.3.12","3","y","0","right","right","left","right","NA","717","66685","4837","717","NA","2","legacy","3","1024","2","48000","-16","experiment","4","even","6","320257","310643","318022","921","147300","318028","316961","932","142463","322272","322990","319041","67634","322272","NA","Sternberg task","33","33569","41","yes","1024"
"78.57142857142857","78.57142857142857","824.4285714285714","824.4285714285714","black","experiment","legacy","legacy","legacy","0","uniform","0","undefined","0","left","41","41","41","0","0","41","41","0","0","41","41","41","0","41","0","Sun Oct 23 19:01:36 2022","The main experiment item","yes","Sternbergtask.osexp","/Users/keelyn/Library/CloudStorage/OneDrive-Personal","no","mono","no","18","no","white","no","yes","768","legacy","29","11","/Users/keelyn/Library/CloudStorage/OneDrive-Personal/KB-subject-4.csv","legacy","3 9 7 6 4","Lentiform Loewenfeld","3.3.12","3","y","0","right","right","left","right","NA","1057","66685","4837","1057","NA","2","legacy","5","1024","2","48000","-16","experiment","4","even","7","326288","310643","324055","921","147300","324060","322995","932","142463","328301","329359","325073","67634","328300","NA","Sternberg task","33","34626","42","yes","1024"
"79.06976744186046","79.06976744186046","827.5348837209302","827.5348837209302","black","experiment","legacy","legacy","legacy","0","uniform","1","undefined","1","right","42","42","42","0","0","42","42","0","0","42","42","42","0","42","0","Sun Oct 23 19:01:36 2022","The main experiment item","yes","Sternbergtask.osexp","/Users/keelyn/Library/CloudStorage/OneDrive-Personal","no","mono","no","18","no","white","no","yes","768","legacy","30","11","/Users/keelyn/Library/CloudStorage/OneDrive-Personal/KB-subject-4.csv","legacy","1 4 9 3","Lentiform Loewenfeld","3.3.12","0","n","0","right","right","left","right","NA","958","66685","4837","958","NA","2","legacy","4","1024","2","48000","-16","experiment","4","even","5","332671","310643","330429","921","147300","330435","329364","932","142463","334683","335642","331448","67634","334682","NA","Sternberg task","34","35584","43","yes","1024"
"79.54545454545455","79.54545454545455","822.9772727272727","822.9772727272727","black","experiment","legacy","legacy","legacy","0","uniform","1","undefined","1","right","43","43","43","0","0","43","43","0","0","43","43","43","0","43","0","Sun Oct 23 19:01:36 2022","The main experiment item","yes","Sternbergtask.osexp","/Users/keelyn/Library/CloudStorage/OneDrive-Personal","no","mono","no","18","no","white","no","yes","768","legacy","31","11","/Users/keelyn/Library/CloudStorage/OneDrive-Personal/KB-subject-4.csv","legacy","2 8 6 3 1","Lentiform Loewenfeld","3.3.12","0","n","0","right","right","left","right","NA","627","66685","4837","627","NA","2","legacy","5","1024","2","48000","-16","experiment","4","even","7","338940","335647","336706","921","147300","336712","329364","932","142463","340952","341580","337725","67634","340952","NA","Sternberg task","35","36211","44","yes","1024"
"80","80","821.5333333333333","821.5333333333333","black","experiment","legacy","legacy","legacy","0","uniform","1","undefined","1","right","44","44","44","0","0","44","44","0","0","44","44","44","0","44","0","Sun Oct 23 19:01:36 2022","The main experiment item","yes","Sternbergtask.osexp","/Users/keelyn/Library/CloudStorage/OneDrive-Personal","no","mono","no","18","no","white","no","yes","768","legacy","32","11","/Users/keelyn/Library/CloudStorage/OneDrive-Personal/KB-subject-4.csv","legacy","2 6 4 3 9","Lentiform Loewenfeld","3.3.12","0","n","0","right","right","left","right","NA","758","66685","4837","758","NA","2","legacy","5","1024","2","48000","-16","experiment","4","even","1","344875","341585","342641","921","147300","342646","329364","932","142463","346888","347647","343659","67634","346888","NA","Sternberg task","36","36969","45","yes","1024"
"80.43478260869566","80.43478260869566","825.0217391304348","825.0217391304348","black","experiment","legacy","legacy","legacy","0","uniform","1","undefined","1","left","45","45","45","0","0","45","45","0","0","45","45","45","0","45","0","Sun Oct 23 19:01:36 2022","The main experiment item","yes","Sternbergtask.osexp","/Users/keelyn/Library/CloudStorage/OneDrive-Personal","no","mono","no","18","no","white","no","yes","768","legacy","33","11","/Users/keelyn/Library/CloudStorage/OneDrive-Personal/KB-subject-4.csv","legacy","3 4 9 6 2 9","Lentiform Loewenfeld","3.3.12","5","y","0","left","right","left","left","NA","982","66685","4837","982","NA","2","legacy","6","1024","2","48000","-16","experiment","4","even","2","350956","347652","348720","921","147300","348726","329364","932","142463","352968","353951","349740","67634","352968","NA","Sternberg task","37","37951","46","yes","1024"
"80.85106382978724","80.85106382978724","822.5531914893617","822.5531914893617","black","experiment","legacy","legacy","legacy","0","uniform","1","undefined","1","left","46","46","46","0","0","46","46","0","0","46","46","46","0","46","0","Sun Oct 23 19:01:36 2022","The main experiment item","yes","Sternbergtask.osexp","/Users/keelyn/Library/CloudStorage/OneDrive-Personal","no","mono","no","18","no","white","no","yes","768","legacy","34","11","/Users/keelyn/Library/CloudStorage/OneDrive-Personal/KB-subject-4.csv","legacy","7 1 3","Lentiform Loewenfeld","3.3.12","2","y","0","left","right","left","left","NA","709","66685","4837","709","NA","2","legacy","3","1024","2","48000","-16","experiment","4","even","1","357249","353956","355014","921","147300","355020","329364","932","142463","359262","359971","356033","67634","359262","NA","Sternberg task","38","38660","47","yes","1024"
"81.25","81.25","819.625","819.625","black","experiment","legacy","legacy","legacy","0","uniform","1","undefined","1","right","47","47","47","0","0","47","47","0","0","47","47","47","0","47","0","Sun Oct 23 19:01:36 2022","The main experiment item","yes","Sternbergtask.osexp","/Users/keelyn/Library/CloudStorage/OneDrive-Personal","no","mono","no","18","no","white","no","yes","768","legacy","35","11","/Users/keelyn/Library/CloudStorage/OneDrive-Personal/KB-subject-4.csv","legacy","6 9 4 5 3 2","Lentiform Loewenfeld","3.3.12","0","n","0","right","right","left","right","NA","682","66685","4837","682","NA","2","legacy","6","1024","2","48000","-16","experiment","4","even","8","363269","359976","361036","921","147300","361042","329364","932","142463","365283","365965","362054","67634","365282","NA","Sternberg task","39","39342","48","yes","1024"
"81.63265306122449","81.63265306122449","816.9795918367347","816.9795918367347","black","experiment","legacy","legacy","legacy","0","uniform","1","undefined","1","right","48","48","48","0","0","48","48","0","0","48","48","48","0","48","0","Sun Oct 23 19:01:36 2022","The main experiment item","yes","Sternbergtask.osexp","/Users/keelyn/Library/CloudStorage/OneDrive-Personal","no","mono","no","18","no","white","no","yes","768","legacy","36","11","/Users/keelyn/Library/CloudStorage/OneDrive-Personal/KB-subject-4.csv","legacy","1 8 7","Lentiform Loewenfeld","3.3.12","0","n","0","right","right","left","right","NA","690","66685","4837","690","NA","2","legacy","3","1024","2","48000","-16","experiment","4","even","4","369271","365971","367037","921","147300","367043","329364","932","142463","371280","371971","368055","67634","371280","NA","Sternberg task","40","40032","49","yes","1024"
"82","82","818.34","818.34","black","experiment","legacy","legacy","legacy","0","uniform","1","undefined","1","left","49","49","49","0","0","49","49","0","0","49","49","49","0","49","0","Sun Oct 23 19:01:36 2022","The main experiment item","yes","Sternbergtask.osexp","/Users/keelyn/Library/CloudStorage/OneDrive-Personal","no","mono","no","18","no","white","no","yes","768","legacy","37","11","/Users/keelyn/Library/CloudStorage/OneDrive-Personal/KB-subject-4.csv","legacy","4 1 5","Lentiform Loewenfeld","3.3.12","2","y","0","left","right","left","left","NA","885","66685","4837","885","NA","2","legacy","3","1024","2","48000","-16","experiment","4","even","1","375270","371976","373036","921","147300","373041","329364","932","142463","377282","378168","374054","67634","377281","NA","Sternberg task","41","40917","50","yes","1024"
"82.3529411764706","82.3529411764706","817.7058823529412","817.7058823529412","black","experiment","legacy","legacy","legacy","0","uniform","1","undefined","1","right","50","50","50","0","0","50","50","0","0","50","50","50","0","50","0","Sun Oct 23 19:01:36 2022","The main experiment item","yes","Sternbergtask.osexp","/Users/keelyn/Library/CloudStorage/OneDrive-Personal","no","mono","no","18","no","white","no","yes","768","legacy","38","11","/Users/keelyn/Library/CloudStorage/OneDrive-Personal/KB-subject-4.csv","legacy","2 3 8 5 6 7","Lentiform Loewenfeld","3.3.12","0","n","0","right","right","left","right","NA","786","66685","4837","786","NA","2","legacy","6","1024","2","48000","-16","experiment","4","even","1","381471","378173","379237","921","147300","379242","329364","932","142463","383481","384267","380255","67634","383481","NA","Sternberg task","42","41703","51","yes","1024"
"80.76923076923077","80.76923076923077","817.3846153846154","817.3846153846154","black","experiment","legacy","legacy","legacy","0","uniform","0","undefined","0","right","51","51","51","0","0","51","51","0","0","51","51","51","0","51","0","Sun Oct 23 19:01:36 2022","The main experiment item","yes","Sternbergtask.osexp","/Users/keelyn/Library/CloudStorage/OneDrive-Personal","no","mono","no","18","no","white","no","yes","768","legacy","39","11","/Users/keelyn/Library/CloudStorage/OneDrive-Personal/KB-subject-4.csv","legacy","9 7 4 5 8","Lentiform Loewenfeld","3.3.12","0","n","0","left","right","left","left","NA","801","66685","4837","801","NA","2","legacy","5","1024","2","48000","-16","experiment","4","even","6","387583","384272","385341","921","147300","385347","329364","932","142463","389594","390395","386360","67634","389594","NA","Sternberg task","42","42504","52","yes","1024"
"81.13207547169812","81.13207547169812","824.1132075471698","824.1132075471698","black","experiment","legacy","legacy","legacy","0","uniform","1","undefined","1","left","52","52","52","0","0","52","52","0","0","52","52","52","0","52","0","Sun Oct 23 19:01:36 2022","The main experiment item","yes","Sternbergtask.osexp","/Users/keelyn/Library/CloudStorage/OneDrive-Personal","no","mono","no","18","no","white","no","yes","768","legacy","40","11","/Users/keelyn/Library/CloudStorage/OneDrive-Personal/KB-subject-4.csv","legacy","8 5 3 7 4 6","Lentiform Loewenfeld","3.3.12","6","y","0","left","right","left","left","NA","1174","66685","4837","1174","NA","2","legacy","6","1024","2","48000","-16","experiment","4","even","6","393694","384272","391461","921","147300","391466","390400","932","142463","395706","396880","392479","67634","395705","NA","Sternberg task","43","43678","53","yes","1024"
"81.48148148148148","81.48148148148148","823.1851851851852","823.1851851851852","black","experiment","legacy","legacy","legacy","0","uniform","1","undefined","1","right","53","53","53","0","0","53","53","0","0","53","53","53","0","53","0","Sun Oct 23 19:01:36 2022","The main experiment item","yes","Sternbergtask.osexp","/Users/keelyn/Library/CloudStorage/OneDrive-Personal","no","mono","no","18","no","white","no","yes","768","legacy","41","11","/Users/keelyn/Library/CloudStorage/OneDrive-Personal/KB-subject-4.csv","legacy","2 8 9 4 1","Lentiform Loewenfeld","3.3.12","0","n","0","right","right","left","right","NA","774","66685","4837","774","NA","2","legacy","5","1024","2","48000","-16","experiment","4","even","5","400183","396886","397947","921","147300","397953","390400","932","142463","402196","402971","398967","67634","402195","NA","Sternberg task","44","44452","54","yes","1024"
"81.81818181818181","81.81818181818181","820.4545454545455","820.4545454545455","black","experiment","legacy","legacy","legacy","0","uniform","1","undefined","1","left","54","54","54","0","0","54","54","0","0","54","54","54","0","54","0","Sun Oct 23 19:01:36 2022","The main experiment item","yes","Sternbergtask.osexp","/Users/keelyn/Library/CloudStorage/OneDrive-Personal","no","mono","no","18","no","white","no","yes","768","legacy","42","11","/Users/keelyn/Library/CloudStorage/OneDrive-Personal/KB-subject-4.csv","legacy","9 3 1 2 5","Lentiform Loewenfeld","3.3.12","4","y","0","left","right","left","left","NA","673","66685","4837","673","NA","2","legacy","5","1024","2","48000","-16","experiment","4","even","2","406272","402976","404038","921","147300","404043","390400","932","142463","408289","408963","405057","67634","408289","NA","Sternberg task","45","45125","55","yes","1024"
"82.14285714285714","82.14285714285714","822.3392857142857","822.3392857142857","black","experiment","legacy","legacy","legacy","0","uniform","1","undefined","1","right","55","55","55","0","0","55","55","0","0","55","55","55","0","55","0","Sun Oct 23 19:01:36 2022","The main experiment item","yes","Sternbergtask.osexp","/Users/keelyn/Library/CloudStorage/OneDrive-Personal","no","mono","no","18","no","white","no","yes","768","legacy","43","11","/Users/keelyn/Library/CloudStorage/OneDrive-Personal/KB-subject-4.csv","legacy","6 9 7 3 8 2","Lentiform Loewenfeld","3.3.12","0","n","0","right","right","left","right","NA","926","66685","4837","926","NA","2","legacy","6","1024","2","48000","-16","experiment","4","even","5","412262","408968","410030","921","147300","410035","390400","932","142463","414274","415200","411047","67634","414274","NA","Sternberg task","46","46051","56","yes","1024"
"82.45614035087719","82.45614035087719","820.8771929824561","820.8771929824561","black","experiment","legacy","legacy","legacy","0","uniform","1","undefined","1","left","56","56","56","0","0","56","56","0","0","56","56","56","0","56","0","Sun Oct 23 19:01:36 2022","The main experiment item","yes","Sternbergtask.osexp","/Users/keelyn/Library/CloudStorage/OneDrive-Personal","no","mono","no","18","no","white","no","yes","768","legacy","44","11","/Users/keelyn/Library/CloudStorage/OneDrive-Personal/KB-subject-4.csv","legacy","7 2 3","Lentiform Loewenfeld","3.3.12","3","y","0","left","right","left","left","NA","739","66685","4837","739","NA","2","legacy","3","1024","2","48000","-16","experiment","4","even","3","418507","415206","416264","921","147300","416270","390400","932","142463","420519","421259","417288","67634","420519","NA","Sternberg task","47","46790","57","yes","1024"
"82.75862068965517","82.75862068965517","817.2586206896551","817.2586206896551","black","experiment","legacy","legacy","legacy","0","uniform","1","undefined","1","right","57","57","57","0","0","57","57","0","0","57","57","57","0","57","0","Sun Oct 23 19:01:36 2022","The main experiment item","yes","Sternbergtask.osexp","/Users/keelyn/Library/CloudStorage/OneDrive-Personal","no","mono","no","18","no","white","no","yes","768","legacy","45","11","/Users/keelyn/Library/CloudStorage/OneDrive-Personal/KB-subject-4.csv","legacy","3 4 2","Lentiform Loewenfeld","3.3.12","0","n","0","right","right","left","right","NA","611","66685","4837","611","NA","2","legacy","3","1024","2","48000","-16","experiment","4","even","5","424568","421264","422332","921","147300","422338","390400","932","142463","426578","427190","423352","67634","426578","NA","Sternberg task","48","47401","58","yes","1024"
"83.05084745762711","83.05084745762711","815.9661016949152","815.9661016949152","black","experiment","legacy","legacy","legacy","0","uniform","1","undefined","1","left","58","58","58","0","0","58","58","0","0","58","58","58","0","58","0","Sun Oct 23 19:01:36 2022","The main experiment item","yes","Sternbergtask.osexp","/Users/keelyn/Library/CloudStorage/OneDrive-Personal","no","mono","no","18","no","white","no","yes","768","legacy","46","11","/Users/keelyn/Library/CloudStorage/OneDrive-Personal/KB-subject-4.csv","legacy","6 5","Lentiform Loewenfeld","3.3.12","2","y","0","left","right","left","left","NA","741","66685","4837","741","NA","2","legacy","2","1024","2","48000","-16","experiment","4","even","5","430490","427195","428257","921","147300","428263","390400","932","142463","432501","433243","429275","67634","432501","NA","Sternberg task","49","48142","59","yes","1024"
"83.33333333333333","83.33333333333333","812.15","812.15","black","experiment","legacy","legacy","legacy","0","uniform","1","undefined","1","right","59","59","59","0","0","59","59","0","0","59","59","59","0","59","0","Sun Oct 23 19:01:36 2022","The main experiment item","yes","Sternbergtask.osexp","/Users/keelyn/Library/CloudStorage/OneDrive-Personal","no","mono","no","18","no","white","no","yes","768","legacy","47","11","/Users/keelyn/Library/CloudStorage/OneDrive-Personal/KB-subject-4.csv","legacy","6 2 9 3 8 4","Lentiform Loewenfeld","3.3.12","0","n","0","right","right","left","right","NA","587","66685","4837","587","NA","2","legacy","6","1024","2","48000","-16","experiment","4","even","1","436544","433248","434310","921","147300","434316","390400","932","142463","438555","439143","435329","67634","438555","NA","Sternberg task","50","48729","60","yes","1024"
"83.60655737704919","83.60655737704919","811.4754098360655","811.4754098360655","black","experiment","legacy","legacy","legacy","0","uniform","1","undefined","1","left","60","60","60","0","0","60","60","0","0","60","60","60","0","60","0","Sun Oct 23 19:01:36 2022","The main experiment item","yes","Sternbergtask.osexp","/Users/keelyn/Library/CloudStorage/OneDrive-Personal","no","mono","no","18","no","white","no","yes","768","legacy","48","11","/Users/keelyn/Library/CloudStorage/OneDrive-Personal/KB-subject-4.csv","legacy","6 7 8 5","Lentiform Loewenfeld","3.3.12","3","y","0","left","right","left","left","NA","771","66685","4837","771","NA","2","legacy","4","1024","2","48000","-16","experiment","4","even","8","442445","439148","440210","921","147300","440216","390400","932","142463","444457","445229","441229","67634","444457","NA","Sternberg task","51","49500","61","yes","1024"
"83.87096774193549","83.87096774193549","809.3548387096774","809.3548387096774","black","experiment","legacy","legacy","legacy","0","uniform","1","undefined","1","right","61","61","61","0","0","61","61","0","0","61","61","61","0","61","0","Sun Oct 23 19:01:36 2022","The main experiment item","yes","Sternbergtask.osexp","/Users/keelyn/Library/CloudStorage/OneDrive-Personal","no","mono","no","18","no","white","no","yes","768","legacy","49","11","/Users/keelyn/Library/CloudStorage/OneDrive-Personal/KB-subject-4.csv","legacy","3 4 9 6 7 8","Lentiform Loewenfeld","3.3.12","0","n","0","right","right","left","right","NA","680","66685","4837","680","NA","2","legacy","6","1024","2","48000","-16","experiment","4","even","2","448524","445234","446288","921","147300","446293","390400","932","142463","450537","451217","447309","67634","450537","NA","Sternberg task","52","50180","62","yes","1024"
"84.12698412698413","84.12698412698413","806.6984126984127","806.6984126984127","black","experiment","legacy","legacy","legacy","0","uniform","1","undefined","1","right","62","62","62","0","0","62","62","0","0","62","62","62","0","62","0","Sun Oct 23 19:01:36 2022","The main experiment item","yes","Sternbergtask.osexp","/Users/keelyn/Library/CloudStorage/OneDrive-Personal","no","mono","no","18","no","white","no","yes","768","legacy","50","11","/Users/keelyn/Library/CloudStorage/OneDrive-Personal/KB-subject-4.csv","legacy","5 2","Lentiform Loewenfeld","3.3.12","0","n","0","right","right","left","right","NA","642","66685","4837","642","NA","2","legacy","2","1024","2","48000","-16","experiment","4","even","7","454518","451223","452284","921","147300","452290","390400","932","142463","456529","457171","453303","67634","456529","NA","Sternberg task","53","50822","63","yes","1024"
"84.375","84.375","806.546875","806.546875","black","experiment","legacy","legacy","legacy","0","uniform","1","undefined","1","left","63","63","63","0","0","63","63","0","0","63","63","63","0","63","0","Sun Oct 23 19:01:36 2022","The main experiment item","yes","Sternbergtask.osexp","/Users/keelyn/Library/CloudStorage/OneDrive-Personal","no","mono","no","18","no","white","no","yes","768","legacy","51","11","/Users/keelyn/Library/CloudStorage/OneDrive-Personal/KB-subject-4.csv","legacy","2 4 6 9","Lentiform Loewenfeld","3.3.12","3","y","0","left","right","left","left","NA","797","66685","4837","797","NA","2","legacy","4","1024","2","48000","-16","experiment","4","even","6","460472","457177","458238","921","147300","458243","390400","932","142463","462481","463279","459256","67634","462481","NA","Sternberg task","54","51619","64","yes","1024"
"84.61538461538461","84.61538461538461","802.3846153846154","802.3846153846154","black","experiment","legacy","legacy","legacy","0","uniform","1","undefined","1","left","64","64","64","0","0","64","64","0","0","64","64","64","0","64","0","Sun Oct 23 19:01:36 2022","The main experiment item","yes","Sternbergtask.osexp","/Users/keelyn/Library/CloudStorage/OneDrive-Personal","no","mono","no","18","no","white","no","yes","768","legacy","52","11","/Users/keelyn/Library/CloudStorage/OneDrive-Personal/KB-subject-4.csv","legacy","6 7 9 3 1 2","Lentiform Loewenfeld","3.3.12","1","y","0","left","right","left","left","NA","536","66685","4837","536","NA","2","legacy","6","1024","2","48000","-16","experiment","4","even","6","466583","463284","464349","921","147300","464354","390400","932","142463","468596","469133","465367","67634","468596","NA","Sternberg task","55","52155","65","yes","1024"
"84.84848484848484","84.84848484848484","800.439393939394","800.439393939394","black","experiment","legacy","legacy","legacy","0","uniform","1","undefined","1","left","65","65","65","0","0","65","65","0","0","65","65","65","0","65","0","Sun Oct 23 19:01:36 2022","The main experiment item","yes","Sternbergtask.osexp","/Users/keelyn/Library/CloudStorage/OneDrive-Personal","no","mono","no","18","no","white","no","yes","768","legacy","53","11","/Users/keelyn/Library/CloudStorage/OneDrive-Personal/KB-subject-4.csv","legacy","3 4","Lentiform Loewenfeld","3.3.12","1","y","0","left","right","left","left","NA","674","66685","4837","674","NA","2","legacy","2","1024","2","48000","-16","experiment","4","even","3","472430","469138","470197","921","147300","470203","390400","932","142463","474440","475114","471215","67634","474440","NA","Sternberg task","56","52829","66","yes","1024"
"85.07462686567165","85.07462686567165","797.3880597014926","797.3880597014926","black","experiment","legacy","legacy","legacy","0","uniform","1","undefined","1","left","66","66","66","0","0","66","66","0","0","66","66","66","0","66","0","Sun Oct 23 19:01:36 2022","The main experiment item","yes","Sternbergtask.osexp","/Users/keelyn/Library/CloudStorage/OneDrive-Personal","no","mono","no","18","no","white","no","yes","768","legacy","54","11","/Users/keelyn/Library/CloudStorage/OneDrive-Personal/KB-subject-4.csv","legacy","8","Lentiform Loewenfeld","3.3.12","1","y","0","left","right","left","left","NA","596","66685","4837","596","NA","2","legacy","1","1024","2","48000","-16","experiment","4","even","8","478414","475120","476180","921","147300","476186","390400","932","142463","480425","481022","477198","67634","480425","NA","Sternberg task","57","53425","67","yes","1024"
"85.29411764705883","85.29411764705883","795.2352941176471","795.2352941176471","black","experiment","legacy","legacy","legacy","0","uniform","1","undefined","1","right","67","67","67","0","0","67","67","0","0","67","67","67","0","67","0","Sun Oct 23 19:01:36 2022","The main experiment item","yes","Sternbergtask.osexp","/Users/keelyn/Library/CloudStorage/OneDrive-Personal","no","mono","no","18","no","white","no","yes","768","legacy","55","11","/Users/keelyn/Library/CloudStorage/OneDrive-Personal/KB-subject-4.csv","legacy","7 6 4 8 1 2","Lentiform Loewenfeld","3.3.12","0","n","0","right","right","left","right","NA","651","66685","4837","651","NA","2","legacy","6","1024","2","48000","-16","experiment","4","even","9","484322","481027","482090","921","147300","482095","390400","932","142463","486336","486988","483107","67634","486336","NA","Sternberg task","58","54076","68","yes","1024"
"85.5072463768116","85.5072463768116","806.1304347826087","806.1304347826087","black","experiment","legacy","legacy","legacy","0","uniform","1","undefined","1","right","68","68","68","0","0","68","68","0","0","68","68","68","0","68","0","Sun Oct 23 19:01:36 2022","The main experiment item","yes","Sternbergtask.osexp","/Users/keelyn/Library/CloudStorage/OneDrive-Personal","no","mono","no","18","no","white","no","yes","768","legacy","56","11","/Users/keelyn/Library/CloudStorage/OneDrive-Personal/KB-subject-4.csv","legacy","6 3 1 7 9 8","Lentiform Loewenfeld","3.3.12","0","n","0","right","right","left","right","NA","1547","66685","4837","1547","NA","2","legacy","6","1024","2","48000","-16","experiment","4","even","4","490289","486993","488055","921","147300","488061","390400","932","142463","492302","493850","489074","67634","492302","NA","Sternberg task","59","55623","69","yes","1024"
"85.71428571428571","85.71428571428571","803.1571428571428","803.1571428571428","black","experiment","legacy","legacy","legacy","0","uniform","1","undefined","1","left","69","69","69","0","0","69","69","0","0","69","69","69","0","69","0","Sun Oct 23 19:01:36 2022","The main experiment item","yes","Sternbergtask.osexp","/Users/keelyn/Library/CloudStorage/OneDrive-Personal","no","mono","no","18","no","white","no","yes","768","legacy","57","11","/Users/keelyn/Library/CloudStorage/OneDrive-Personal/KB-subject-4.csv","legacy","8 3","Lentiform Loewenfeld","3.3.12","2","y","0","left","right","left","left","NA","598","66685","4837","598","NA","2","legacy","2","1024","2","48000","-16","experiment","4","even","3","497149","493856","494915","921","147300","494921","390400","932","142463","499161","499759","495934","67634","499161","NA","Sternberg task","60","56221","70","yes","1024"
"85.91549295774648","85.91549295774648","805.6760563380282","805.6760563380282","black","experiment","legacy","legacy","legacy","0","uniform","1","undefined","1","left","70","70","70","0","0","70","70","0","0","70","70","70","0","70","0","Sun Oct 23 19:01:36 2022","The main experiment item","yes","Sternbergtask.osexp","/Users/keelyn/Library/CloudStorage/OneDrive-Personal","no","mono","no","18","no","white","no","yes","768","legacy","58","11","/Users/keelyn/Library/CloudStorage/OneDrive-Personal/KB-subject-4.csv","legacy","7 8 4 6 9 5","Lentiform Loewenfeld","3.3.12","4","y","0","left","right","left","left","NA","982","66685","4837","982","NA","2","legacy","6","1024","2","48000","-16","experiment","4","even","6","503058","499765","500825","921","147300","500831","390400","932","142463","505070","506053","501843","67634","505070","NA","Sternberg task","61","57203","71","yes","1024"
"84.72222222222223","84.72222222222223","802.9722222222222","802.9722222222222","black","experiment","legacy","legacy","legacy","0","uniform","0","undefined","0","right","71","71","71","0","0","71","71","0","0","71","71","71","0","71","0","Sun Oct 23 19:01:36 2022","The main experiment item","yes","Sternbergtask.osexp","/Users/keelyn/Library/CloudStorage/OneDrive-Personal","no","mono","no","18","no","white","no","yes","768","legacy","59","11","/Users/keelyn/Library/CloudStorage/OneDrive-Personal/KB-subject-4.csv","legacy","7 1 8 4 9 3","Lentiform Loewenfeld","3.3.12","0","n","0","left","right","left","left","NA","611","66685","4837","611","NA","2","legacy","6","1024","2","48000","-16","experiment","4","even","6","509350","506058","507118","921","147300","507123","390400","932","142463","511363","511975","508135","67634","511363","NA","Sternberg task","61","57814","72","yes","1024"
"84.93150684931507","84.93150684931507","802.8493150684932","802.8493150684932","black","experiment","legacy","legacy","legacy","0","uniform","1","undefined","1","left","72","72","72","0","0","72","72","0","0","72","72","72","0","72","0","Sun Oct 23 19:01:36 2022","The main experiment item","yes","Sternbergtask.osexp","/Users/keelyn/Library/CloudStorage/OneDrive-Personal","no","mono","no","18","no","white","no","yes","768","legacy","60","11","/Users/keelyn/Library/CloudStorage/OneDrive-Personal/KB-subject-4.csv","legacy","9 6 2 4 1","Lentiform Loewenfeld","3.3.12","4","y","0","left","right","left","left","NA","794","66685","4837","794","NA","2","legacy","5","1024","2","48000","-16","experiment","4","even","4","515277","506058","513041","921","147300","513047","511980","932","142463","517294","518089","514060","67634","517293","NA","Sternberg task","62","58608","73","yes","1024"
"85.13513513513513","85.13513513513513","799.9864864864865","799.9864864864865","black","experiment","legacy","legacy","legacy","0","uniform","1","undefined","1","right","73","73","73","0","0","73","73","0","0","73","73","73","0","73","0","Sun Oct 23 19:01:36 2022","The main experiment item","yes","Sternbergtask.osexp","/Users/keelyn/Library/CloudStorage/OneDrive-Personal","no","mono","no","18","no","white","no","yes","768","legacy","61","11","/Users/keelyn/Library/CloudStorage/OneDrive-Personal/KB-subject-4.csv","legacy","1 7 8 3 9","Lentiform Loewenfeld","3.3.12","0","n","0","right","right","left","right","NA","591","66685","4837","591","NA","2","legacy","5","1024","2","48000","-16","experiment","4","even","2","521384","518094","519151","921","147300","519157","511980","932","142463","523396","523987","520169","67634","523396","NA","Sternberg task","63","59199","74","yes","1024"
"84","84","799.6933333333334","799.6933333333334","black","experiment","legacy","legacy","legacy","0","uniform","0","undefined","0","left","74","74","74","0","0","74","74","0","0","74","74","74","0","74","0","Sun Oct 23 19:01:36 2022","The main experiment item","yes","Sternbergtask.osexp","/Users/keelyn/Library/CloudStorage/OneDrive-Personal","no","mono","no","18","no","white","no","yes","768","legacy","62","11","/Users/keelyn/Library/CloudStorage/OneDrive-Personal/KB-subject-4.csv","legacy","4 1 8 7 5","Lentiform Loewenfeld","3.3.12","3","y","0","right","right","left","right","NA","778","66685","4837","778","NA","2","legacy","5","1024","2","48000","-16","experiment","4","even","8","527288","523992","525054","921","147300","525060","511980","932","142463","529301","530079","526072","67634","529301","NA","Sternberg task","63","59977","75","yes","1024"
"84.21052631578948","84.21052631578948","798.421052631579","798.421052631579","black","experiment","legacy","legacy","legacy","0","uniform","1","undefined","1","left","75","75","75","0","0","75","75","0","0","75","75","75","0","75","0","Sun Oct 23 19:01:36 2022","The main experiment item","yes","Sternbergtask.osexp","/Users/keelyn/Library/CloudStorage/OneDrive-Personal","no","mono","no","18","no","white","no","yes","768","legacy","63","11","/Users/keelyn/Library/CloudStorage/OneDrive-Personal/KB-subject-4.csv","legacy","5 2 6","Lentiform Loewenfeld","3.3.12","2","y","0","left","right","left","left","NA","703","66685","4837","703","NA","2","legacy","3","1024","2","48000","-16","experiment","4","even","2","533380","523992","531146","921","147300","531152","530085","932","142463","535395","536099","532164","67634","535395","NA","Sternberg task","64","60680","76","yes","1024"
"84.41558441558442","84.41558441558442","802.6753246753246","802.6753246753246","black","experiment","legacy","legacy","legacy","0","uniform","1","undefined","1","right","76","76","76","0","0","76","76","0","0","76","76","76","0","76","0","Sun Oct 23 19:01:36 2022","The main experiment item","yes","Sternbergtask.osexp","/Users/keelyn/Library/CloudStorage/OneDrive-Personal","no","mono","no","18","no","white","no","yes","768","legacy","64","11","/Users/keelyn/Library/CloudStorage/OneDrive-Personal/KB-subject-4.csv","legacy","6 8 4","Lentiform Loewenfeld","3.3.12","0","n","0","right","right","left","right","NA","1126","66685","4837","1126","NA","2","legacy","3","1024","2","48000","-16","experiment","4","even","1","539400","536104","537167","921","147300","537173","530085","932","142463","541411","542538","538185","67634","541411","NA","Sternberg task","65","61806","77","yes","1024"
"84.61538461538461","84.61538461538461","802.3333333333334","802.3333333333334","black","experiment","legacy","legacy","legacy","0","uniform","1","undefined","1","right","77","77","77","0","0","77","77","0","0","77","77","77","0","77","0","Sun Oct 23 19:01:36 2022","The main experiment item","yes","Sternbergtask.osexp","/Users/keelyn/Library/CloudStorage/OneDrive-Personal","no","mono","no","18","no","white","no","yes","768","legacy","65","11","/Users/keelyn/Library/CloudStorage/OneDrive-Personal/KB-subject-4.csv","legacy","5 3 8 7 2 4","Lentiform Loewenfeld","3.3.12","0","n","0","right","right","left","right","NA","776","66685","4837","776","NA","2","legacy","6","1024","2","48000","-16","experiment","4","even","9","545837","542543","543603","921","147300","543608","530085","932","142463","547850","548627","544622","67634","547850","NA","Sternberg task","66","62582","78","yes","1024"
"83.54430379746836","83.54430379746836","804.506329113924","804.506329113924","black","experiment","legacy","legacy","legacy","0","uniform","0","undefined","0","left","78","78","78","0","0","78","78","0","0","78","78","78","0","78","0","Sun Oct 23 19:01:36 2022","The main experiment item","yes","Sternbergtask.osexp","/Users/keelyn/Library/CloudStorage/OneDrive-Personal","no","mono","no","18","no","white","no","yes","768","legacy","66","11","/Users/keelyn/Library/CloudStorage/OneDrive-Personal/KB-subject-4.csv","legacy","4 7 6 8 2 3","Lentiform Loewenfeld","3.3.12","6","y","0","right","right","left","right","NA","974","66685","4837","974","NA","2","legacy","6","1024","2","48000","-16","experiment","4","even","3","551928","548632","549694","921","147300","549700","530085","932","142463","553945","554920","550713","67634","553945","NA","Sternberg task","66","63556","79","yes","1024"
"83.75","83.75","802.9125","802.9125","black","experiment","legacy","legacy","legacy","0","uniform","1","undefined","1","right","79","79","79","0","0","79","79","0","0","79","79","79","0","79","0","Sun Oct 23 19:01:36 2022","The main experiment item","yes","Sternbergtask.osexp","/Users/keelyn/Library/CloudStorage/OneDrive-Personal","no","mono","no","18","no","white","no","yes","768","legacy","67","11","/Users/keelyn/Library/CloudStorage/OneDrive-Personal/KB-subject-4.csv","legacy","7 1","Lentiform Loewenfeld","3.3.12","0","n","0","right","right","left","right","NA","677","66685","4837","677","NA","2","legacy","2","1024","2","48000","-16","experiment","4","even","8","558221","548632","555987","921","147300","555993","554925","932","142463","560233","560911","557006","67634","560233","NA","Sternberg task","67","64233","80","yes","1024"
"82.71604938271605","82.71604938271605","801.9012345679013","801.9012345679013","black","experiment","legacy","legacy","legacy","0","uniform","0","undefined","0","right","80","80","80","0","0","80","80","0","0","80","80","80","0","80","0","Sun Oct 23 19:01:36 2022","The main experiment item","yes","Sternbergtask.osexp","/Users/keelyn/Library/CloudStorage/OneDrive-Personal","no","mono","no","18","no","white","no","yes","768","legacy","68","11","/Users/keelyn/Library/CloudStorage/OneDrive-Personal/KB-subject-4.csv","legacy","8 5 4 2 9 6","Lentiform Loewenfeld","3.3.12","0","n","0","left","right","left","left","NA","721","66685","4837","721","NA","2","legacy","6","1024","2","48000","-16","experiment","4","even","3","564205","560916","561972","921","147300","561977","554925","932","142463","566216","566938","562990","67634","566216","NA","Sternberg task","67","64954","81","yes","1024"
"81.70731707317073","81.70731707317073","802.4146341463414","802.4146341463414","black","experiment","legacy","legacy","legacy","0","uniform","0","undefined","0","left","81","81","81","0","0","81","81","0","0","81","81","81","0","81","0","Sun Oct 23 19:01:36 2022","The main experiment item","yes","Sternbergtask.osexp","/Users/keelyn/Library/CloudStorage/OneDrive-Personal","no","mono","no","18","no","white","no","yes","768","legacy","69","11","/Users/keelyn/Library/CloudStorage/OneDrive-Personal/KB-subject-4.csv","legacy","8 9 5 7 1 6","Lentiform Loewenfeld","3.3.12","4","y","0","right","right","left","right","NA","844","66685","4837","844","NA","2","legacy","6","1024","2","48000","-16","experiment","4","even","7","570242","560916","568010","921","147300","568016","566943","932","142463","572254","573099","569027","67634","572254","NA","Sternberg task","67","65798","82","yes","1024"
"81.92771084337349","81.92771084337349","802.8072289156627","802.8072289156627","black","experiment","legacy","legacy","legacy","0","uniform","1","undefined","1","right","82","82","82","0","0","82","82","0","0","82","82","82","0","82","0","Sun Oct 23 19:01:36 2022","The main experiment item","yes","Sternbergtask.osexp","/Users/keelyn/Library/CloudStorage/OneDrive-Personal","no","mono","no","18","no","white","no","yes","768","legacy","70","11","/Users/keelyn/Library/CloudStorage/OneDrive-Personal/KB-subject-4.csv","legacy","1 4 3 6 5","Lentiform Loewenfeld","3.3.12","0","n","0","right","right","left","right","NA","835","66685","4837","835","NA","2","legacy","5","1024","2","48000","-16","experiment","4","even","8","576407","560916","574169","921","147300","574174","573105","932","142463","578416","579252","575191","67634","578416","NA","Sternberg task","68","66633","83","yes","1024"
"80.95238095238095","80.95238095238095","803.7380952380952","803.7380952380952","black","experiment","legacy","legacy","legacy","0","uniform","0","undefined","0","right","83","83","83","0","0","83","83","0","0","83","83","83","0","83","0","Sun Oct 23 19:01:36 2022","The main experiment item","yes","Sternbergtask.osexp","/Users/keelyn/Library/CloudStorage/OneDrive-Personal","no","mono","no","18","no","white","no","yes","768","legacy","71","11","/Users/keelyn/Library/CloudStorage/OneDrive-Personal/KB-subject-4.csv","legacy","8 2 1 4 5 9","Lentiform Loewenfeld","3.3.12","0","n","0","left","right","left","left","NA","881","66685","4837","881","NA","2","legacy","6","1024","2","48000","-16","experiment","4","even","7","582553","579257","580319","921","147300","580325","573105","932","142463","584570","585452","581338","67634","584570","NA","Sternberg task","68","67514","84","yes","1024"
"81.17647058823529","81.17647058823529","801.0470588235294","801.0470588235294","black","experiment","legacy","legacy","legacy","0","uniform","1","undefined","1","left","84","84","84","0","0","84","84","0","0","84","84","84","0","84","0","Sun Oct 23 19:01:36 2022","The main experiment item","yes","Sternbergtask.osexp","/Users/keelyn/Library/CloudStorage/OneDrive-Personal","no","mono","no","18","no","white","no","yes","768","legacy","72","11","/Users/keelyn/Library/CloudStorage/OneDrive-Personal/KB-subject-4.csv","legacy","9 4 2","Lentiform Loewenfeld","3.3.12","1","y","0","left","right","left","left","NA","575","66685","4837","575","NA","2","legacy","3","1024","2","48000","-16","experiment","4","even","9","588754","579257","586522","921","147300","586527","585458","932","142463","590765","591340","587539","67634","590765","NA","Sternberg task","69","68089","85","yes","1024"
"81.3953488372093","81.3953488372093","799.8139534883721","799.8139534883721","black","experiment","legacy","legacy","legacy","0","uniform","1","undefined","1","right","85","85","85","0","0","85","85","0","0","85","85","85","0","85","0","Sun Oct 23 19:01:36 2022","The main experiment item","yes","Sternbergtask.osexp","/Users/keelyn/Library/CloudStorage/OneDrive-Personal","no","mono","no","18","no","white","no","yes","768","legacy","73","11","/Users/keelyn/Library/CloudStorage/OneDrive-Personal/KB-subject-4.csv","legacy","7 4 2 8 1 9","Lentiform Loewenfeld","3.3.12","0","n","0","right","right","left","right","NA","695","66685","4837","695","NA","2","legacy","6","1024","2","48000","-16","experiment","4","even","5","594645","591345","592408","921","147300","592413","585458","932","142463","596657","597353","593425","67634","596657","NA","Sternberg task","70","68784","86","yes","1024"
"81.60919540229885","81.60919540229885","797.9425287356322","797.9425287356322","black","experiment","legacy","legacy","legacy","0","uniform","1","undefined","1","right","86","86","86","0","0","86","86","0","0","86","86","86","0","86","0","Sun Oct 23 19:01:36 2022","The main experiment item","yes","Sternbergtask.osexp","/Users/keelyn/Library/CloudStorage/OneDrive-Personal","no","mono","no","18","no","white","no","yes","768","legacy","74","11","/Users/keelyn/Library/CloudStorage/OneDrive-Personal/KB-subject-4.csv","legacy","2 5 1 4","Lentiform Loewenfeld","3.3.12","0","n","0","right","right","left","right","NA","637","66685","4837","637","NA","2","legacy","4","1024","2","48000","-16","experiment","4","even","6","600655","597358","598420","921","147300","598426","585458","932","142463","602667","603305","599439","67634","602667","NA","Sternberg task","71","69421","87","yes","1024"
"81.81818181818181","81.81818181818181","796.7840909090909","796.7840909090909","black","experiment","legacy","legacy","legacy","0","uniform","1","undefined","1","right","87","87","87","0","0","87","87","0","0","87","87","87","0","87","0","Sun Oct 23 19:01:36 2022","The main experiment item","yes","Sternbergtask.osexp","/Users/keelyn/Library/CloudStorage/OneDrive-Personal","no","mono","no","18","no","white","no","yes","768","legacy","75","11","/Users/keelyn/Library/CloudStorage/OneDrive-Personal/KB-subject-4.csv","legacy","7 1 5 6 3","Lentiform Loewenfeld","3.3.12","0","n","0","right","right","left","right","NA","696","66685","4837","696","NA","2","legacy","5","1024","2","48000","-16","experiment","4","even","8","606612","603310","604374","921","147300","604380","585458","932","142463","608624","609321","605392","67634","608624","NA","Sternberg task","72","70117","88","yes","1024"
"82.02247191011236","82.02247191011236","796.5730337078652","796.5730337078652","black","experiment","legacy","legacy","legacy","0","uniform","1","undefined","1","left","88","88","88","0","0","88","88","0","0","88","88","88","0","88","0","Sun Oct 23 19:01:36 2022","The main experiment item","yes","Sternbergtask.osexp","/Users/keelyn/Library/CloudStorage/OneDrive-Personal","no","mono","no","18","no","white","no","yes","768","legacy","76","11","/Users/keelyn/Library/CloudStorage/OneDrive-Personal/KB-subject-4.csv","legacy","8 9 6 1","Lentiform Loewenfeld","3.3.12","2","y","0","left","right","left","left","NA","778","66685","4837","778","NA","2","legacy","4","1024","2","48000","-16","experiment","4","even","9","612621","609326","610387","921","147300","610393","585458","932","142463","614633","615412","611406","67634","614633","NA","Sternberg task","73","70895","89","yes","1024"
"82.22222222222223","82.22222222222223","793.9444444444445","793.9444444444445","black","experiment","legacy","legacy","legacy","0","uniform","1","undefined","1","left","89","89","89","0","0","89","89","0","0","89","89","89","0","89","0","Sun Oct 23 19:01:36 2022","The main experiment item","yes","Sternbergtask.osexp","/Users/keelyn/Library/CloudStorage/OneDrive-Personal","no","mono","no","18","no","white","no","yes","768","legacy","77","11","/Users/keelyn/Library/CloudStorage/OneDrive-Personal/KB-subject-4.csv","legacy","2 8 5 1","Lentiform Loewenfeld","3.3.12","4","y","0","left","right","left","left","NA","560","66685","4837","560","NA","2","legacy","4","1024","2","48000","-16","experiment","4","even","1","618713","615417","616480","921","147300","616485","585458","932","142463","620725","621286","617499","67634","620725","NA","Sternberg task","74","71455","90","yes","1024"
"82.41758241758242","82.41758241758242","791.7802197802198","791.7802197802198","black","experiment","legacy","legacy","legacy","0","uniform","1","undefined","1","right","90","90","90","0","0","90","90","0","0","90","90","90","0","90","0","Sun Oct 23 19:01:36 2022","The main experiment item","yes","Sternbergtask.osexp","/Users/keelyn/Library/CloudStorage/OneDrive-Personal","no","mono","no","18","no","white","no","yes","768","legacy","78","11","/Users/keelyn/Library/CloudStorage/OneDrive-Personal/KB-subject-4.csv","legacy","1 3 2 6 9","Lentiform Loewenfeld","3.3.12","0","n","0","right","right","left","right","NA","597","66685","4837","597","NA","2","legacy","5","1024","2","48000","-16","experiment","4","even","5","624588","621291","622349","921","147300","622354","585458","932","142463","626600","627198","623367","67634","626600","NA","Sternberg task","75","72052","91","yes","1024"
"82.6086956521739","82.6086956521739","789.8804347826087","789.8804347826087","black","experiment","legacy","legacy","legacy","0","uniform","1","undefined","1","left","91","91","91","0","0","91","91","0","0","91","91","91","0","91","0","Sun Oct 23 19:01:36 2022","The main experiment item","yes","Sternbergtask.osexp","/Users/keelyn/Library/CloudStorage/OneDrive-Personal","no","mono","no","18","no","white","no","yes","768","legacy","79","11","/Users/keelyn/Library/CloudStorage/OneDrive-Personal/KB-subject-4.csv","legacy","6 1 2","Lentiform Loewenfeld","3.3.12","3","y","0","left","right","left","left","NA","617","66685","4837","617","NA","2","legacy","3","1024","2","48000","-16","experiment","4","even","2","630499","627203","628265","921","147300","628270","585458","932","142463","632510","633128","629284","67634","632510","NA","Sternberg task","76","72669","92","yes","1024"
"82.79569892473118","82.79569892473118","787.8817204301075","787.8817204301075","black","experiment","legacy","legacy","legacy","0","uniform","1","undefined","1","right","92","92","92","0","0","92","92","0","0","92","92","92","0","92","0","Sun Oct 23 19:01:36 2022","The main experiment item","yes","Sternbergtask.osexp","/Users/keelyn/Library/CloudStorage/OneDrive-Personal","no","mono","no","18","no","white","no","yes","768","legacy","80","11","/Users/keelyn/Library/CloudStorage/OneDrive-Personal/KB-subject-4.csv","legacy","1","Lentiform Loewenfeld","3.3.12","0","n","0","right","right","left","right","NA","604","66685","4837","604","NA","2","legacy","1","1024","2","48000","-16","experiment","4","even","7","636430","633133","634194","921","147300","634199","585458","932","142463","638440","639045","635212","67634","638440","NA","Sternberg task","77","73273","93","yes","1024"
"82.97872340425532","82.97872340425532","787.563829787234","787.563829787234","black","experiment","legacy","legacy","legacy","0","uniform","1","undefined","1","right","93","93","93","0","0","93","93","0","0","93","93","93","0","93","0","Sun Oct 23 19:01:36 2022","The main experiment item","yes","Sternbergtask.osexp","/Users/keelyn/Library/CloudStorage/OneDrive-Personal","no","mono","no","18","no","white","no","yes","768","legacy","81","11","/Users/keelyn/Library/CloudStorage/OneDrive-Personal/KB-subject-4.csv","legacy","6 9 4 5 2","Lentiform Loewenfeld","3.3.12","0","n","0","right","right","left","right","NA","758","66685","4837","758","NA","2","legacy","5","1024","2","48000","-16","experiment","4","even","1","642340","639050","640106","921","147300","640111","585458","932","142463","644355","645114","641124","67634","644355","NA","Sternberg task","78","74031","94","yes","1024"
"83.15789473684211","83.15789473684211","785.7052631578947","785.7052631578947","black","experiment","legacy","legacy","legacy","0","uniform","1","undefined","1","right","94","94","94","0","0","94","94","0","0","94","94","94","0","94","0","Sun Oct 23 19:01:36 2022","The main experiment item","yes","Sternbergtask.osexp","/Users/keelyn/Library/CloudStorage/OneDrive-Personal","no","mono","no","18","no","white","no","yes","768","legacy","82","11","/Users/keelyn/Library/CloudStorage/OneDrive-Personal/KB-subject-4.csv","legacy","8 9","Lentiform Loewenfeld","3.3.12","0","n","0","right","right","left","right","NA","611","66685","4837","611","NA","2","legacy","2","1024","2","48000","-16","experiment","4","even","5","648413","645119","646180","921","147300","646186","585458","932","142463","650425","651037","647198","67634","650425","NA","Sternberg task","79","74642","95","yes","1024"
"83.33333333333333","83.33333333333333","785.5416666666666","785.5416666666666","black","experiment","legacy","legacy","legacy","0","uniform","1","undefined","1","left","95","95","95","0","0","95","95","0","0","95","95","95","0","95","0","Sun Oct 23 19:01:36 2022","The main experiment item","yes","Sternbergtask.osexp","/Users/keelyn/Library/CloudStorage/OneDrive-Personal","no","mono","no","18","no","white","no","yes","768","legacy","83","11","/Users/keelyn/Library/CloudStorage/OneDrive-Personal/KB-subject-4.csv","legacy","2 6 1 7 4","Lentiform Loewenfeld","3.3.12","2","y","0","left","right","left","left","NA","770","66685","4837","770","NA","2","legacy","5","1024","2","48000","-16","experiment","4","even","6","654334","651042","652101","921","147300","652107","585458","932","142463","656346","657117","653118","67634","656346","NA","Sternberg task","80","75412","96","yes","1024"
"83.50515463917526","83.50515463917526","786.3814432989691","786.3814432989691","black","experiment","legacy","legacy","legacy","0","uniform","1","undefined","1","left","96","96","96","0","0","96","96","0","0","96","96","96","0","96","0","Sun Oct 23 19:01:36 2022","The main experiment item","yes","Sternbergtask.osexp","/Users/keelyn/Library/CloudStorage/OneDrive-Personal","no","mono","no","18","no","white","no","yes","768","legacy","84","11","/Users/keelyn/Library/CloudStorage/OneDrive-Personal/KB-subject-4.csv","legacy","4","Lentiform Loewenfeld","3.3.12","1","y","0","left","right","left","left","NA","867","66685","4837","867","NA","2","legacy","1","1024","2","48000","-16","experiment","4","even","4","660419","657122","658182","921","147300","658188","585458","932","142463","662431","663299","659201","67634","662430","NA","Sternberg task","81","76279","97","yes","1024"
"83.6734693877551","83.6734693877551","784.4591836734694","784.4591836734694","black","experiment","legacy","legacy","legacy","0","uniform","1","undefined","1","left","97","97","97","0","0","97","97","0","0","97","97","97","0","97","0","Sun Oct 23 19:01:36 2022","The main experiment item","yes","Sternbergtask.osexp","/Users/keelyn/Library/CloudStorage/OneDrive-Personal","no","mono","no","18","no","white","no","yes","768","legacy","85","11","/Users/keelyn/Library/CloudStorage/OneDrive-Personal/KB-subject-4.csv","legacy","8 9 5 6 7","Lentiform Loewenfeld","3.3.12","1","y","0","left","right","left","left","NA","598","66685","4837","598","NA","2","legacy","5","1024","2","48000","-16","experiment","4","even","8","666600","663304","664366","921","147300","664372","585458","932","142463","668612","669211","665385","67634","668612","NA","Sternberg task","82","76877","98","yes","1024"
"82.82828282828282","82.82828282828282","783.010101010101","783.010101010101","black","experiment","legacy","legacy","legacy","0","uniform","0","undefined","0","left","98","98","98","0","0","98","98","0","0","98","98","98","0","98","0","Sun Oct 23 19:01:36 2022","The main experiment item","yes","Sternbergtask.osexp","/Users/keelyn/Library/CloudStorage/OneDrive-Personal","no","mono","no","18","no","white","no","yes","768","legacy","86","11","/Users/keelyn/Library/CloudStorage/OneDrive-Personal/KB-subject-4.csv","legacy","9 5 8 1","Lentiform Loewenfeld","3.3.12","2","y","0","right","right","left","right","NA","641","66685","4837","641","NA","2","legacy","4","1024","2","48000","-16","experiment","4","even","5","672511","669216","670277","921","147300","670283","585458","932","142463","674524","675166","671295","67634","674524","NA","Sternberg task","82","77518","99","yes","1024"
"83","83","783.07","783.07","black","experiment","legacy","legacy","legacy","0","uniform","1","undefined","1","right","99","99","99","0","0","99","99","0","0","99","99","99","0","99","0","Sun Oct 23 19:01:36 2022","The main experiment item","yes","Sternbergtask.osexp","/Users/keelyn/Library/CloudStorage/OneDrive-Personal","no","mono","no","18","no","white","no","yes","768","legacy","87","11","/Users/keelyn/Library/CloudStorage/OneDrive-Personal/KB-subject-4.csv","legacy","4 2 7 6 1 3","Lentiform Loewenfeld","3.3.12","0","n","0","right","right","left","right","NA","789","66685","4837","789","NA","2","legacy","6","1024","2","48000","-16","experiment","4","even","8","678468","669216","676233","921","147300","676239","675171","932","142463","680481","681271","677253","67634","680481","NA","Sternberg task","83","78307","100","yes","1024"
"83.16831683168317","83.16831683168317","782.1287128712871","782.1287128712871","black","experiment","legacy","legacy","legacy","0","uniform","1","undefined","1","right","100","100","100","0","0","100","100","0","0","100","100","100","0","100","0","Sun Oct 23 19:01:36 2022","The main experiment item","yes","Sternbergtask.osexp","/Users/keelyn/Library/CloudStorage/OneDrive-Personal","no","mono","no","18","no","white","no","yes","768","legacy","88","11","/Users/keelyn/Library/CloudStorage/OneDrive-Personal/KB-subject-4.csv","legacy","4 1","Lentiform Loewenfeld","3.3.12","0","n","0","right","right","left","right","NA","688","66685","4837","688","NA","2","legacy","2","1024","2","48000","-16","experiment","4","even","6","684570","681277","682334","921","147300","682340","675171","932","142463","686586","687274","683355","67634","686586","NA","Sternberg task","84","78995","101","yes","1024"
"83.33333333333333","83.33333333333333","781.2156862745098","781.2156862745098","black","experiment","legacy","legacy","legacy","0","uniform","1","undefined","1","right","101","101","101","0","0","101","101","0","0","101","101","101","0","101","0","Sun Oct 23 19:01:36 2022","The main experiment item","yes","Sternbergtask.osexp","/Users/keelyn/Library/CloudStorage/OneDrive-Personal","no","mono","no","18","no","white","no","yes","768","legacy","89","11","/Users/keelyn/Library/CloudStorage/OneDrive-Personal/KB-subject-4.csv","legacy","2 7 5","Lentiform Loewenfeld","3.3.12","0","n","0","right","right","left","right","NA","689","66685","4837","689","NA","2","legacy","3","1024","2","48000","-16","experiment","4","even","8","690577","687279","688339","921","147300","688344","675171","932","142463","692586","693276","689360","67634","692586","NA","Sternberg task","85","79684","102","yes","1024"
"83.49514563106796","83.49514563106796","789.0485436893204","789.0485436893204","black","experiment","legacy","legacy","legacy","0","uniform","1","undefined","1","right","102","102","102","0","0","102","102","0","0","102","102","102","0","102","0","Sun Oct 23 19:01:36 2022","The main experiment item","yes","Sternbergtask.osexp","/Users/keelyn/Library/CloudStorage/OneDrive-Personal","no","mono","no","18","no","white","no","yes","768","legacy","90","11","/Users/keelyn/Library/CloudStorage/OneDrive-Personal/KB-subject-4.csv","legacy","1 6 4","Lentiform Loewenfeld","3.3.12","0","n","0","right","right","left","right","NA","1588","66685","4837","1588","NA","2","legacy","3","1024","2","48000","-16","experiment","4","even","7","696575","693281","694342","921","147300","694348","675171","932","142463","698588","700177","695360","67634","698588","NA","Sternberg task","86","81272","103","yes","1024"
"83.65384615384616","83.65384615384616","787.1442307692307","787.1442307692307","black","experiment","legacy","legacy","legacy","0","uniform","1","undefined","1","right","103","103","103","0","0","103","103","0","0","103","103","103","0","103","0","Sun Oct 23 19:01:36 2022","The main experiment item","yes","Sternbergtask.osexp","/Users/keelyn/Library/CloudStorage/OneDrive-Personal","no","mono","no","18","no","white","no","yes","768","legacy","91","11","/Users/keelyn/Library/CloudStorage/OneDrive-Personal/KB-subject-4.csv","legacy","8 4 3 9","Lentiform Loewenfeld","3.3.12","0","n","0","right","right","left","right","NA","591","66685","4837","591","NA","2","legacy","4","1024","2","48000","-16","experiment","4","even","5","703478","700182","701244","921","147300","701250","675171","932","142463","705488","706080","702262","67634","705488","NA","Sternberg task","87","81863","104","yes","1024"
"83.80952380952381","83.80952380952381","787.0190476190476","787.0190476190476","black","experiment","legacy","legacy","legacy","0","uniform","1","undefined","1","left","104","104","104","0","0","104","104","0","0","104","104","104","0","104","0","Sun Oct 23 19:01:36 2022","The main experiment item","yes","Sternbergtask.osexp","/Users/keelyn/Library/CloudStorage/OneDrive-Personal","no","mono","no","18","no","white","no","yes","768","legacy","92","11","/Users/keelyn/Library/CloudStorage/OneDrive-Personal/KB-subject-4.csv","legacy","3 5 7 1","Lentiform Loewenfeld","3.3.12","3","y","0","left","right","left","left","NA","774","66685","4837","774","NA","2","legacy","4","1024","2","48000","-16","experiment","4","even","7","709377","706085","707144","921","147300","707149","675171","932","142463","711388","712163","708162","67634","711388","NA","Sternberg task","88","82637","105","yes","1024"
"83.9622641509434","83.9622641509434","785.9245283018868","785.9245283018868","black","experiment","legacy","legacy","legacy","0","uniform","1","undefined","1","right","105","105","105","0","0","105","105","0","0","105","105","105","0","105","0","Sun Oct 23 19:01:36 2022","The main experiment item","yes","Sternbergtask.osexp","/Users/keelyn/Library/CloudStorage/OneDrive-Personal","no","mono","no","18","no","white","no","yes","768","legacy","93","11","/Users/keelyn/Library/CloudStorage/OneDrive-Personal/KB-subject-4.csv","legacy","1 6 4 3 9 7","Lentiform Loewenfeld","3.3.12","0","n","0","right","right","left","right","NA","671","66685","4837","671","NA","2","legacy","6","1024","2","48000","-16","experiment","4","even","8","715464","712168","713229","921","147300","713235","675171","932","142463","717476","718148","714248","67634","717475","NA","Sternberg task","89","83308","106","yes","1024"
"84.11214953271028","84.11214953271028","783.9439252336449","783.9439252336449","black","experiment","legacy","legacy","legacy","0","uniform","1","undefined","1","left","106","106","106","0","0","106","106","0","0","106","106","106","0","106","0","Sun Oct 23 19:01:36 2022","The main experiment item","yes","Sternbergtask.osexp","/Users/keelyn/Library/CloudStorage/OneDrive-Personal","no","mono","no","18","no","white","no","yes","768","legacy","94","11","/Users/keelyn/Library/CloudStorage/OneDrive-Personal/KB-subject-4.csv","legacy","7 6","Lentiform Loewenfeld","3.3.12","2","y","0","left","right","left","left","NA","574","66685","4837","574","NA","2","legacy","2","1024","2","48000","-16","experiment","4","even","6","721451","718153","719218","921","147300","719223","675171","932","142463","723462","724037","720235","67634","723462","NA","Sternberg task","90","83882","107","yes","1024"
"84.25925925925925","84.25925925925925","781.8055555555555","781.8055555555555","black","experiment","legacy","legacy","legacy","0","uniform","1","undefined","1","left","107","107","107","0","0","107","107","0","0","107","107","107","0","107","0","Sun Oct 23 19:01:36 2022","The main experiment item","yes","Sternbergtask.osexp","/Users/keelyn/Library/CloudStorage/OneDrive-Personal","no","mono","no","18","no","white","no","yes","768","legacy","95","11","/Users/keelyn/Library/CloudStorage/OneDrive-Personal/KB-subject-4.csv","legacy","3 5 4 7","Lentiform Loewenfeld","3.3.12","1","y","0","left","right","left","left","NA","553","66685","4837","553","NA","2","legacy","4","1024","2","48000","-16","experiment","4","even","3","727336","724042","725103","921","147300","725109","675171","932","142463","729349","729903","726121","67634","729349","NA","Sternberg task","91","84435","108","yes","1024"
"84.40366972477064","84.40366972477064","781.2477064220184","781.2477064220184","black","experiment","legacy","legacy","legacy","0","uniform","1","undefined","1","left","108","108","108","0","0","108","108","0","0","108","108","108","0","108","0","Sun Oct 23 19:01:36 2022","The main experiment item","yes","Sternbergtask.osexp","/Users/keelyn/Library/CloudStorage/OneDrive-Personal","no","mono","no","18","no","white","no","yes","768","legacy","96","11","/Users/keelyn/Library/CloudStorage/OneDrive-Personal/KB-subject-4.csv","legacy","5 7 8 2 3 8","Lentiform Loewenfeld","3.3.12","5","y","0","left","right","left","left","NA","721","66685","4837","721","NA","2","legacy","6","1024","2","48000","-16","experiment","4","even","3","733197","729908","730963","921","147300","730968","675171","932","142463","735208","735930","731980","67634","735208","NA","Sternberg task","92","85156","109","yes","1024"
"84.54545454545455","84.54545454545455","780.4","780.4","black","experiment","legacy","legacy","legacy","0","uniform","1","undefined","1","left","109","109","109","0","0","109","109","0","0","109","109","109","0","109","0","Sun Oct 23 19:01:36 2022","The main experiment item","yes","Sternbergtask.osexp","/Users/keelyn/Library/CloudStorage/OneDrive-Personal","no","mono","no","18","no","white","no","yes","768","legacy","97","11","/Users/keelyn/Library/CloudStorage/OneDrive-Personal/KB-subject-4.csv","legacy","4 6 2 5 1","Lentiform Loewenfeld","3.3.12","5","y","0","left","right","left","left","NA","688","66685","4837","688","NA","2","legacy","5","1024","2","48000","-16","experiment","4","even","1","739237","735935","737003","921","147300","737009","675171","932","142463","741251","741940","738022","67634","741251","NA","Sternberg task","93","85844","110","yes","1024"
"84.68468468468468","84.68468468468468","778.3963963963964","778.3963963963964","black","experiment","legacy","legacy","legacy","0","uniform","1","undefined","1","left","110","110","110","0","0","110","110","0","0","110","110","110","0","110","0","Sun Oct 23 19:01:36 2022","The main experiment item","yes","Sternbergtask.osexp","/Users/keelyn/Library/CloudStorage/OneDrive-Personal","no","mono","no","18","no","white","no","yes","768","legacy","98","11","/Users/keelyn/Library/CloudStorage/OneDrive-Personal/KB-subject-4.csv","legacy","6 8 9 3 4 9","Lentiform Loewenfeld","3.3.12","5","y","0","left","right","left","left","NA","558","66685","4837","558","NA","2","legacy","6","1024","2","48000","-16","experiment","4","even","4","745242","741945","743007","921","147300","743013","675171","932","142463","747253","747811","744026","67634","747253","NA","Sternberg task","94","86402","111","yes","1024"
