"acc","accuracy","average_response_time","avg_rt","background","block","canvas_backend","clock_backend","color_backend","compensation","coordinates","correct","correct_instruction1","correct_keyboard_response","correct_response","count_ISI","count_correctFeedback","count_expLoop","count_expSequence","count_experiment","count_fixation","count_incorrectFeedback","count_instruction1","count_instruction2","count_keyboard_response","count_logger","count_memorySet","count_practiceLoop","count_probe","count_thankYou","datetime","description","disable_garbage_collection","experiment_file","experiment_path","font_bold","font_family","font_italic","font_size","font_underline","foreground","form_clicks","fullscreen","height","keyboard_backend","live_row","live_row_practiceLoop","logfile","mouse_backend","numberSet","opensesame_codename","opensesame_version","posInSet","present","repeat_cycle","response","response_instruction1","response_instruction2","response_keyboard_response","response_thankYou","response_time","response_time_instruction1","response_time_instruction2","response_time_keyboard_response","response_time_thankYou","round_decimals","sampler_backend","setSize","sound_buf_size","sound_channels","sound_freq","sound_sample_size","start","subject_nr","subject_parity","target","time_ISI","time_correctFeedback","time_expLoop","time_expSequence","time_experiment","time_fixation","time_incorrectFeedback","time_instruction1","time_instruction2","time_keyboard_response","time_logger","time_memorySet","time_practiceLoop","time_probe","time_thankYou","title","total_correct","total_response_time","total_responses","uniform_coordinates","width"
"100","100","376","376","black","practice","legacy","legacy","legacy","0","uniform","1","undefined","1","right","0","0","0","0","0","0","0","0","0","0","0","0","0","0","0","Tue Oct 18 10:10:40 2022","The main experiment item","yes","SternbergTask.osexp","C:\Users\Austin\Documents\PSYC 5316\Lab 3","no","mono","no","18","no","white","no","yes","768","legacy","0","0","C:/Users/Austin/Documents/PSYC 5316/Lab 3/AH-subject-2.csv","legacy","5","Lentiform Loewenfeld","3.3.12","0","n","0","right","left","NA","right","NA","376","3156","NA","376","NA","2","legacy","1","1024","2","48000","-16","experiment","2","even","3","11166","NA","NA","8952","4655","8957","NA","4661","NA","13171","13548","9962","7819","13171","NA","Sternberg Task","1","376","1","yes","1024"
"100","100","484.5","484.5","black","practice","legacy","legacy","legacy","0","uniform","1","undefined","1","right","1","1","0","1","0","1","1","0","0","1","1","1","0","1","0","Tue Oct 18 10:10:40 2022","The main experiment item","yes","SternbergTask.osexp","C:\Users\Austin\Documents\PSYC 5316\Lab 3","no","mono","no","18","no","white","no","yes","768","legacy","1","1","C:/Users/Austin/Documents/PSYC 5316/Lab 3/AH-subject-2.csv","legacy","5 7 8 4 1 2","Lentiform Loewenfeld","3.3.12","0","n","0","right","left","NA","right","NA","593","3156","NA","593","NA","2","legacy","6","1024","2","48000","-16","experiment","2","even","6","17022","13642","NA","14807","4655","14813","NA","4661","NA","19027","19621","15817","7819","19027","NA","Sternberg Task","2","969","2","yes","1024"
"100","100","508.6666666666667","508.6666666666667","black","practice","legacy","legacy","legacy","0","uniform","1","undefined","1","right","2","2","0","2","0","2","2","0","0","2","2","2","0","2","0","Tue Oct 18 10:10:40 2022","The main experiment item","yes","SternbergTask.osexp","C:\Users\Austin\Documents\PSYC 5316\Lab 3","no","mono","no","18","no","white","no","yes","768","legacy","2","2","C:/Users/Austin/Documents/PSYC 5316/Lab 3/AH-subject-2.csv","legacy","2 1","Lentiform Loewenfeld","3.3.12","0","n","0","right","left","NA","right","NA","557","3156","NA","557","NA","2","legacy","2","1024","2","48000","-16","experiment","2","even","5","23023","19630","NA","20810","4655","20814","NA","4661","NA","25028","25586","21819","7819","25028","NA","Sternberg Task","3","1526","3","yes","1024"
"100","100","516.75","516.75","black","practice","legacy","legacy","legacy","0","uniform","1","undefined","1","right","3","3","0","3","0","3","3","0","0","3","3","3","0","3","0","Tue Oct 18 10:10:40 2022","The main experiment item","yes","SternbergTask.osexp","C:\Users\Austin\Documents\PSYC 5316\Lab 3","no","mono","no","18","no","white","no","yes","768","legacy","3","3","C:/Users/Austin/Documents/PSYC 5316/Lab 3/AH-subject-2.csv","legacy","4 1 5","Lentiform Loewenfeld","3.3.12","0","n","0","right","left","NA","right","NA","541","3156","NA","541","NA","2","legacy","3","1024","2","48000","-16","experiment","2","even","2","28979","25595","NA","26767","4655","26771","NA","4661","NA","30984","31526","27774","7819","30983","NA","Sternberg Task","4","2067","4","yes","1024"
"100","100","523.6","523.6","black","practice","legacy","legacy","legacy","0","uniform","1","undefined","1","left","4","4","0","4","0","4","4","0","0","4","4","4","0","4","0","Tue Oct 18 10:10:40 2022","The main experiment item","yes","SternbergTask.osexp","C:\Users\Austin\Documents\PSYC 5316\Lab 3","no","mono","no","18","no","white","no","yes","768","legacy","4","4","C:/Users/Austin/Documents/PSYC 5316/Lab 3/AH-subject-2.csv","legacy","4 3 1 7 9 8","Lentiform Loewenfeld","3.3.12","1","y","0","left","left","NA","left","NA","551","3156","NA","551","NA","2","legacy","6","1024","2","48000","-16","experiment","2","even","4","34907","31536","NA","32694","4655","32699","NA","4661","NA","36912","37464","33703","7819","36912","NA","Sternberg Task","5","2618","5","yes","1024"
"100","100","538.8333333333334","538.8333333333334","black","practice","legacy","legacy","legacy","0","uniform","1","undefined","1","right","5","5","0","5","0","5","5","0","0","5","5","5","0","5","0","Tue Oct 18 10:10:40 2022","The main experiment item","yes","SternbergTask.osexp","C:\Users\Austin\Documents\PSYC 5316\Lab 3","no","mono","no","18","no","white","no","yes","768","legacy","5","5","C:/Users/Austin/Documents/PSYC 5316/Lab 3/AH-subject-2.csv","legacy","9 6 7 4 5","Lentiform Loewenfeld","3.3.12","0","n","0","right","left","NA","right","NA","615","3156","NA","615","NA","2","legacy","5","1024","2","48000","-16","experiment","2","even","3","40872","37473","NA","38658","4655","38663","NA","4661","NA","42878","43494","39668","7819","42878","NA","Sternberg Task","6","3233","6","yes","1024"
"100","100","552.1428571428571","552.1428571428571","black","practice","legacy","legacy","legacy","0","uniform","1","undefined","1","right","6","6","0","6","0","6","6","0","0","6","6","6","0","6","0","Tue Oct 18 10:10:40 2022","The main experiment item","yes","SternbergTask.osexp","C:\Users\Austin\Documents\PSYC 5316\Lab 3","no","mono","no","18","no","white","no","yes","768","legacy","6","6","C:/Users/Austin/Documents/PSYC 5316/Lab 3/AH-subject-2.csv","legacy","3 1 9 4","Lentiform Loewenfeld","3.3.12","0","n","0","right","left","NA","right","NA","632","3156","NA","632","NA","2","legacy","4","1024","2","48000","-16","experiment","2","even","6","46864","43503","NA","44653","4655","44657","NA","4661","NA","48868","49501","45660","7819","48868","NA","Sternberg Task","7","3865","7","yes","1024"
"100","100","567.5","567.5","black","practice","legacy","legacy","legacy","0","uniform","1","undefined","1","left","7","7","0","7","0","7","7","0","0","7","7","7","0","7","0","Tue Oct 18 10:10:40 2022","The main experiment item","yes","SternbergTask.osexp","C:\Users\Austin\Documents\PSYC 5316\Lab 3","no","mono","no","18","no","white","no","yes","768","legacy","7","7","C:/Users/Austin/Documents/PSYC 5316/Lab 3/AH-subject-2.csv","legacy","1 7 9 8 5","Lentiform Loewenfeld","3.3.12","4","y","0","left","left","NA","left","NA","675","3156","NA","675","NA","2","legacy","5","1024","2","48000","-16","experiment","2","even","8","52889","49511","NA","50679","4655","50683","NA","4661","NA","54894","55570","51686","7819","54894","NA","Sternberg Task","8","4540","8","yes","1024"
"100","100","565.7777777777778","565.7777777777778","black","practice","legacy","legacy","legacy","0","uniform","1","undefined","1","left","8","8","0","8","0","8","8","0","0","8","8","8","0","8","0","Tue Oct 18 10:10:40 2022","The main experiment item","yes","SternbergTask.osexp","C:\Users\Austin\Documents\PSYC 5316\Lab 3","no","mono","no","18","no","white","no","yes","768","legacy","8","8","C:/Users/Austin/Documents/PSYC 5316/Lab 3/AH-subject-2.csv","legacy","6","Lentiform Loewenfeld","3.3.12","1","y","0","left","left","NA","left","NA","552","3156","NA","552","NA","2","legacy","1","1024","2","48000","-16","experiment","2","even","6","58971","55579","NA","56759","4655","56763","NA","4661","NA","60975","61528","57767","7819","60975","NA","Sternberg Task","9","5092","9","yes","1024"
"100","100","593.9","593.9","black","practice","legacy","legacy","legacy","0","uniform","1","undefined","1","left","9","9","0","9","0","9","9","0","0","9","9","9","0","9","0","Tue Oct 18 10:10:40 2022","The main experiment item","yes","SternbergTask.osexp","C:\Users\Austin\Documents\PSYC 5316\Lab 3","no","mono","no","18","no","white","no","yes","768","legacy","9","9","C:/Users/Austin/Documents/PSYC 5316/Lab 3/AH-subject-2.csv","legacy","2 9 4","Lentiform Loewenfeld","3.3.12","3","y","0","left","left","NA","left","NA","847","3156","NA","847","NA","2","legacy","3","1024","2","48000","-16","experiment","2","even","4","64914","61539","NA","62702","4655","62706","NA","4661","NA","66917","67765","63710","7819","66917","NA","Sternberg Task","10","5939","10","yes","1024"
"100","100","577.8181818181819","577.8181818181819","black","practice","legacy","legacy","legacy","0","uniform","1","undefined","1","left","10","10","0","10","0","10","10","0","0","10","10","10","0","10","0","Tue Oct 18 10:10:40 2022","The main experiment item","yes","SternbergTask.osexp","C:\Users\Austin\Documents\PSYC 5316\Lab 3","no","mono","no","18","no","white","no","yes","768","legacy","10","10","C:/Users/Austin/Documents/PSYC 5316/Lab 3/AH-subject-2.csv","legacy","4 8","Lentiform Loewenfeld","3.3.12","1","y","0","left","left","NA","left","NA","417","3156","NA","417","NA","2","legacy","2","1024","2","48000","-16","experiment","2","even","4","71136","67775","NA","68922","4655","68926","NA","4661","NA","73139","73557","69931","7819","73139","NA","Sternberg Task","11","6356","11","yes","1024"
"100","100","568.4166666666666","568.4166666666666","black","practice","legacy","legacy","legacy","0","uniform","1","undefined","1","left","11","11","0","11","0","11","11","0","0","11","11","11","0","11","0","Tue Oct 18 10:10:40 2022","The main experiment item","yes","SternbergTask.osexp","C:\Users\Austin\Documents\PSYC 5316\Lab 3","no","mono","no","18","no","white","no","yes","768","legacy","11","11","C:/Users/Austin/Documents/PSYC 5316/Lab 3/AH-subject-2.csv","legacy","1 5 2 9","Lentiform Loewenfeld","3.3.12","2","y","0","left","left","NA","left","NA","465","3156","NA","465","NA","2","legacy","4","1024","2","48000","-16","experiment","2","even","5","76929","73567","NA","74716","4655","74720","NA","4661","NA","78933","79399","75724","7819","78933","NA","Sternberg Task","12","6821","12","yes","1024"
"92.3076923076923","92.3076923076923","581.9230769230769","581.9230769230769","black","experiment","legacy","legacy","legacy","0","uniform","0","undefined","0","left","12","12","0","12","0","12","12","0","0","12","12","12","0","12","0","Tue Oct 18 10:10:40 2022","The main experiment item","yes","SternbergTask.osexp","C:\Users\Austin\Documents\PSYC 5316\Lab 3","no","mono","no","18","no","white","no","yes","768","legacy","0","11","C:/Users/Austin/Documents/PSYC 5316/Lab 3/AH-subject-2.csv","legacy","5 2 6","Lentiform Loewenfeld","3.3.12","2","y","0","right","left","right","right","NA","744","3156","588416","744","NA","2","legacy","3","1024","2","48000","-16","experiment","2","even","2","671252","79407","668881","669040","4655","669044","NA","4661","80464","673257","674002","670048","7819","673256","NA","Sternberg Task","12","7565","13","yes","1024"
"92.85714285714286","92.85714285714286","588.3571428571429","588.3571428571429","black","experiment","legacy","legacy","legacy","0","uniform","1","undefined","1","left","13","13","0","13","0","13","13","0","0","13","13","13","0","13","0","Tue Oct 18 10:10:40 2022","The main experiment item","yes","SternbergTask.osexp","C:\Users\Austin\Documents\PSYC 5316\Lab 3","no","mono","no","18","no","white","no","yes","768","legacy","1","11","C:/Users/Austin/Documents/PSYC 5316/Lab 3/AH-subject-2.csv","legacy","5 2 9 6 1 7","Lentiform Loewenfeld","3.3.12","3","y","0","left","left","right","left","NA","672","3156","588416","672","NA","2","legacy","6","1024","2","48000","-16","experiment","2","even","9","677394","79407","668881","675181","4655","675185","674011","4661","80464","679397","680070","676189","7819","679397","NA","Sternberg Task","13","8237","14","yes","1024"
"86.66666666666667","86.66666666666667","607.6666666666666","607.6666666666666","black","experiment","legacy","legacy","legacy","0","uniform","0","undefined","0","left","14","14","0","14","0","14","14","0","0","14","14","14","0","14","0","Tue Oct 18 10:10:40 2022","The main experiment item","yes","SternbergTask.osexp","C:\Users\Austin\Documents\PSYC 5316\Lab 3","no","mono","no","18","no","white","no","yes","768","legacy","2","11","C:/Users/Austin/Documents/PSYC 5316/Lab 3/AH-subject-2.csv","legacy","2 8 5 1","Lentiform Loewenfeld","3.3.12","4","y","0","right","left","right","right","NA","878","3156","588416","878","NA","2","legacy","4","1024","2","48000","-16","experiment","2","even","1","683454","680079","668881","681241","4655","681245","674011","4661","80464","685459","686338","682250","7819","685459","NA","Sternberg Task","13","9115","15","yes","1024"
"87.5","87.5","618.125","618.125","black","experiment","legacy","legacy","legacy","0","uniform","1","undefined","1","right","15","15","0","15","0","15","15","0","0","15","15","15","0","15","0","Tue Oct 18 10:10:40 2022","The main experiment item","yes","SternbergTask.osexp","C:\Users\Austin\Documents\PSYC 5316\Lab 3","no","mono","no","18","no","white","no","yes","768","legacy","3","11","C:/Users/Austin/Documents/PSYC 5316/Lab 3/AH-subject-2.csv","legacy","1 4 3 6 5","Lentiform Loewenfeld","3.3.12","0","n","0","right","left","right","right","NA","775","3156","588416","775","NA","2","legacy","5","1024","2","48000","-16","experiment","2","even","8","689730","680079","668881","687518","4655","687522","686349","4661","80464","691735","692511","688527","7819","691735","NA","Sternberg Task","14","9890","16","yes","1024"
"88.23529411764706","88.23529411764706","606.0588235294117","606.0588235294117","black","experiment","legacy","legacy","legacy","0","uniform","1","undefined","1","left","16","16","0","16","0","16","16","0","0","16","16","16","0","16","0","Tue Oct 18 10:10:40 2022","The main experiment item","yes","SternbergTask.osexp","C:\Users\Austin\Documents\PSYC 5316\Lab 3","no","mono","no","18","no","white","no","yes","768","legacy","4","11","C:/Users/Austin/Documents/PSYC 5316/Lab 3/AH-subject-2.csv","legacy","8 5 1 3 9","Lentiform Loewenfeld","3.3.12","4","y","0","left","left","right","left","NA","413","3156","588416","413","NA","2","legacy","5","1024","2","48000","-16","experiment","2","even","3","695886","692521","668881","693674","4655","693678","686349","4661","80464","697892","698306","694682","7819","697892","NA","Sternberg Task","15","10303","17","yes","1024"
"88.88888888888889","88.88888888888889","617.5","617.5","black","experiment","legacy","legacy","legacy","0","uniform","1","undefined","1","right","17","17","0","17","0","17","17","0","0","17","17","17","0","17","0","Tue Oct 18 10:10:40 2022","The main experiment item","yes","SternbergTask.osexp","C:\Users\Austin\Documents\PSYC 5316\Lab 3","no","mono","no","18","no","white","no","yes","768","legacy","5","11","C:/Users/Austin/Documents/PSYC 5316/Lab 3/AH-subject-2.csv","legacy","6 8","Lentiform Loewenfeld","3.3.12","0","n","0","right","left","right","right","NA","812","3156","588416","812","NA","2","legacy","2","1024","2","48000","-16","experiment","2","even","9","701684","698317","668881","699472","4655","699477","686349","4661","80464","703689","704502","700480","7819","703689","NA","Sternberg Task","16","11115","18","yes","1024"
"89.47368421052632","89.47368421052632","619.5263157894736","619.5263157894736","black","experiment","legacy","legacy","legacy","0","uniform","1","undefined","1","right","18","18","0","18","0","18","18","0","0","18","18","18","0","18","0","Tue Oct 18 10:10:40 2022","The main experiment item","yes","SternbergTask.osexp","C:\Users\Austin\Documents\PSYC 5316\Lab 3","no","mono","no","18","no","white","no","yes","768","legacy","6","11","C:/Users/Austin/Documents/PSYC 5316/Lab 3/AH-subject-2.csv","legacy","2 3 8 5 6 7","Lentiform Loewenfeld","3.3.12","0","n","0","right","left","right","right","NA","656","3156","588416","656","NA","2","legacy","6","1024","2","48000","-16","experiment","2","even","1","707874","704513","668881","705660","4655","705664","686349","4661","80464","709877","710534","706669","7819","709877","NA","Sternberg Task","17","11771","19","yes","1024"
"90","90","622.3","622.3","black","experiment","legacy","legacy","legacy","0","uniform","1","undefined","1","right","19","19","0","19","0","19","19","0","0","19","19","19","0","19","0","Tue Oct 18 10:10:40 2022","The main experiment item","yes","SternbergTask.osexp","C:\Users\Austin\Documents\PSYC 5316\Lab 3","no","mono","no","18","no","white","no","yes","768","legacy","7","11","C:/Users/Austin/Documents/PSYC 5316/Lab 3/AH-subject-2.csv","legacy","7 8 6 1","Lentiform Loewenfeld","3.3.12","0","n","0","right","left","right","right","NA","675","3156","588416","675","NA","2","legacy","4","1024","2","48000","-16","experiment","2","even","3","713909","710543","668881","711696","4655","711699","686349","4661","80464","715912","716588","712703","7819","715912","NA","Sternberg Task","18","12446","20","yes","1024"
"90.47619047619048","90.47619047619048","628.952380952381","628.952380952381","black","experiment","legacy","legacy","legacy","0","uniform","1","undefined","1","left","20","20","0","20","0","20","20","0","0","20","20","20","0","20","0","Tue Oct 18 10:10:40 2022","The main experiment item","yes","SternbergTask.osexp","C:\Users\Austin\Documents\PSYC 5316\Lab 3","no","mono","no","18","no","white","no","yes","768","legacy","8","11","C:/Users/Austin/Documents/PSYC 5316/Lab 3/AH-subject-2.csv","legacy","6 8 9 3 4 9","Lentiform Loewenfeld","3.3.12","5","y","0","left","left","right","left","NA","762","3156","588416","762","NA","2","legacy","6","1024","2","48000","-16","experiment","2","even","4","719957","716597","668881","717745","4655","717749","686349","4661","80464","721961","722724","718753","7819","721961","NA","Sternberg Task","19","13208","21","yes","1024"
"86.36363636363636","86.36363636363636","629.1363636363636","629.1363636363636","black","experiment","legacy","legacy","legacy","0","uniform","0","undefined","0","left","21","21","0","21","0","21","21","0","0","21","21","21","0","21","0","Tue Oct 18 10:10:40 2022","The main experiment item","yes","SternbergTask.osexp","C:\Users\Austin\Documents\PSYC 5316\Lab 3","no","mono","no","18","no","white","no","yes","768","legacy","9","11","C:/Users/Austin/Documents/PSYC 5316/Lab 3/AH-subject-2.csv","legacy","7 8 6 3 1","Lentiform Loewenfeld","3.3.12","5","y","0","right","left","right","right","NA","633","3156","588416","633","NA","2","legacy","5","1024","2","48000","-16","experiment","2","even","1","726115","722732","668881","723903","4655","723907","686349","4661","80464","728118","728752","724911","7819","728118","NA","Sternberg Task","19","13841","22","yes","1024"
"86.95652173913044","86.95652173913044","651.8260869565217","651.8260869565217","black","experiment","legacy","legacy","legacy","0","uniform","1","undefined","1","left","22","22","0","22","0","22","22","0","0","22","22","22","0","22","0","Tue Oct 18 10:10:40 2022","The main experiment item","yes","SternbergTask.osexp","C:\Users\Austin\Documents\PSYC 5316\Lab 3","no","mono","no","18","no","white","no","yes","768","legacy","10","11","C:/Users/Austin/Documents/PSYC 5316/Lab 3/AH-subject-2.csv","legacy","8 3","Lentiform Loewenfeld","3.3.12","2","y","0","left","left","right","left","NA","1151","3156","588416","1151","NA","2","legacy","2","1024","2","48000","-16","experiment","2","even","3","732141","722732","668881","729928","4655","729933","728761","4661","80464","734145","735298","730937","7819","734145","NA","Sternberg Task","20","14992","23","yes","1024"
"87.5","87.5","685.2916666666666","685.2916666666666","black","experiment","legacy","legacy","legacy","0","uniform","1","undefined","1","right","23","23","0","23","0","23","23","0","0","23","23","23","0","23","0","Tue Oct 18 10:10:40 2022","The main experiment item","yes","SternbergTask.osexp","C:\Users\Austin\Documents\PSYC 5316\Lab 3","no","mono","no","18","no","white","no","yes","768","legacy","11","11","C:/Users/Austin/Documents/PSYC 5316/Lab 3/AH-subject-2.csv","legacy","8 9","Lentiform Loewenfeld","3.3.12","0","n","0","right","left","right","right","NA","1455","3156","588416","1455","NA","2","legacy","2","1024","2","48000","-16","experiment","2","even","5","738686","735308","668881","736474","4655","736478","728761","4661","80464","740691","742148","737482","7819","740691","NA","Sternberg Task","21","16447","24","yes","1024"
"88","88","687.4","687.4","black","experiment","legacy","legacy","legacy","0","uniform","1","undefined","1","right","24","24","0","24","0","24","24","0","0","24","24","24","0","24","0","Tue Oct 18 10:10:40 2022","The main experiment item","yes","SternbergTask.osexp","C:\Users\Austin\Documents\PSYC 5316\Lab 3","no","mono","no","18","no","white","no","yes","768","legacy","12","11","C:/Users/Austin/Documents/PSYC 5316/Lab 3/AH-subject-2.csv","legacy","7 9","Lentiform Loewenfeld","3.3.12","0","n","0","right","left","right","right","NA","738","3156","588416","738","NA","2","legacy","2","1024","2","48000","-16","experiment","2","even","1","745547","742156","668881","743334","4655","743339","728761","4661","80464","747552","748291","744342","7819","747551","NA","Sternberg Task","22","17185","25","yes","1024"
"88.46153846153847","88.46153846153847","677.1153846153846","677.1153846153846","black","experiment","legacy","legacy","legacy","0","uniform","1","undefined","1","left","25","25","0","25","0","25","25","0","0","25","25","25","0","25","0","Tue Oct 18 10:10:40 2022","The main experiment item","yes","SternbergTask.osexp","C:\Users\Austin\Documents\PSYC 5316\Lab 3","no","mono","no","18","no","white","no","yes","768","legacy","13","11","C:/Users/Austin/Documents/PSYC 5316/Lab 3/AH-subject-2.csv","legacy","4","Lentiform Loewenfeld","3.3.12","1","y","0","left","left","right","left","NA","420","3156","588416","420","NA","2","legacy","1","1024","2","48000","-16","experiment","2","even","4","751669","748301","668881","749457","4655","749461","728761","4661","80464","753674","754095","750465","7819","753674","NA","Sternberg Task","23","17605","26","yes","1024"
"85.18518518518519","85.18518518518519","691.074074074074","691.074074074074","black","experiment","legacy","legacy","legacy","0","uniform","0","undefined","0","left","26","26","0","26","0","26","26","0","0","26","26","26","0","26","0","Tue Oct 18 10:10:40 2022","The main experiment item","yes","SternbergTask.osexp","C:\Users\Austin\Documents\PSYC 5316\Lab 3","no","mono","no","18","no","white","no","yes","768","legacy","14","11","C:/Users/Austin/Documents/PSYC 5316/Lab 3/AH-subject-2.csv","legacy","7 1 8 5 6 2","Lentiform Loewenfeld","3.3.12","2","y","0","right","left","right","right","NA","1054","3156","588416","1054","NA","2","legacy","6","1024","2","48000","-16","experiment","2","even","1","757465","754104","668881","755253","4655","755257","728761","4661","80464","759469","760525","756260","7819","759469","NA","Sternberg Task","23","18659","27","yes","1024"
"82.14285714285714","82.14285714285714","686.1071428571429","686.1071428571429","black","experiment","legacy","legacy","legacy","0","uniform","0","undefined","0","right","27","27","0","27","0","27","27","0","0","27","27","27","0","27","0","Tue Oct 18 10:10:40 2022","The main experiment item","yes","SternbergTask.osexp","C:\Users\Austin\Documents\PSYC 5316\Lab 3","no","mono","no","18","no","white","no","yes","768","legacy","15","11","C:/Users/Austin/Documents/PSYC 5316/Lab 3/AH-subject-2.csv","legacy","8 5 4 2 9 6","Lentiform Loewenfeld","3.3.12","0","n","0","left","left","right","left","NA","552","3156","588416","552","NA","2","legacy","6","1024","2","48000","-16","experiment","2","even","3","763911","754104","668881","761698","4655","761702","760534","4661","80464","765915","766468","762705","7819","765915","NA","Sternberg Task","23","19211","28","yes","1024"
"79.3103448275862","79.3103448275862","676.1379310344828","676.1379310344828","black","experiment","legacy","legacy","legacy","0","uniform","0","undefined","0","right","28","28","0","28","0","28","28","0","0","28","28","28","0","28","0","Tue Oct 18 10:10:40 2022","The main experiment item","yes","SternbergTask.osexp","C:\Users\Austin\Documents\PSYC 5316\Lab 3","no","mono","no","18","no","white","no","yes","768","legacy","16","11","C:/Users/Austin/Documents/PSYC 5316/Lab 3/AH-subject-2.csv","legacy","7 1","Lentiform Loewenfeld","3.3.12","0","n","0","left","left","right","left","NA","397","3156","588416","397","NA","2","legacy","2","1024","2","48000","-16","experiment","2","even","8","769840","754104","668881","767628","4655","767632","766479","4661","80464","771844","772242","768635","7819","771843","NA","Sternberg Task","23","19608","29","yes","1024"
"80","80","671.7666666666667","671.7666666666667","black","experiment","legacy","legacy","legacy","0","uniform","1","undefined","1","left","29","29","0","29","0","29","29","0","0","29","29","29","0","29","0","Tue Oct 18 10:10:40 2022","The main experiment item","yes","SternbergTask.osexp","C:\Users\Austin\Documents\PSYC 5316\Lab 3","no","mono","no","18","no","white","no","yes","768","legacy","17","11","C:/Users/Austin/Documents/PSYC 5316/Lab 3/AH-subject-2.csv","legacy","8 9 5 6 7","Lentiform Loewenfeld","3.3.12","1","y","0","left","left","right","left","NA","545","3156","588416","545","NA","2","legacy","5","1024","2","48000","-16","experiment","2","even","8","775661","754104","668881","773448","4655","773453","772252","4661","80464","777665","778212","774457","7819","777665","NA","Sternberg Task","24","20153","30","yes","1024"
"80.64516129032258","80.64516129032258","667.9032258064516","667.9032258064516","black","experiment","legacy","legacy","legacy","0","uniform","1","undefined","1","left","30","30","0","30","0","30","30","0","0","30","30","30","0","30","0","Tue Oct 18 10:10:40 2022","The main experiment item","yes","SternbergTask.osexp","C:\Users\Austin\Documents\PSYC 5316\Lab 3","no","mono","no","18","no","white","no","yes","768","legacy","18","11","C:/Users/Austin/Documents/PSYC 5316/Lab 3/AH-subject-2.csv","legacy","2 3 7 4","Lentiform Loewenfeld","3.3.12","1","y","0","left","left","right","left","NA","552","3156","588416","552","NA","2","legacy","4","1024","2","48000","-16","experiment","2","even","2","781637","778221","668881","779422","4655","779427","772252","4661","80464","783642","784195","780432","7819","783642","NA","Sternberg Task","25","20705","31","yes","1024"
"81.25","81.25","678.78125","678.78125","black","experiment","legacy","legacy","legacy","0","uniform","1","undefined","1","right","31","31","0","31","0","31","31","0","0","31","31","31","0","31","0","Tue Oct 18 10:10:40 2022","The main experiment item","yes","SternbergTask.osexp","C:\Users\Austin\Documents\PSYC 5316\Lab 3","no","mono","no","18","no","white","no","yes","768","legacy","19","11","C:/Users/Austin/Documents/PSYC 5316/Lab 3/AH-subject-2.csv","legacy","2 8 7 9 5 3","Lentiform Loewenfeld","3.3.12","0","n","0","right","left","right","right","NA","1016","3156","588416","1016","NA","2","legacy","6","1024","2","48000","-16","experiment","2","even","6","787657","784206","668881","785441","4655","785447","772252","4661","80464","789662","790680","786452","7819","789662","NA","Sternberg Task","26","21721","32","yes","1024"
"81.81818181818181","81.81818181818181","671.7878787878788","671.7878787878788","black","experiment","legacy","legacy","legacy","0","uniform","1","undefined","1","left","32","32","0","32","0","32","32","0","0","32","32","32","0","32","0","Tue Oct 18 10:10:40 2022","The main experiment item","yes","SternbergTask.osexp","C:\Users\Austin\Documents\PSYC 5316\Lab 3","no","mono","no","18","no","white","no","yes","768","legacy","20","11","C:/Users/Austin/Documents/PSYC 5316/Lab 3/AH-subject-2.csv","legacy","2 4 8 5 1 3","Lentiform Loewenfeld","3.3.12","1","y","0","left","left","right","left","NA","448","3156","588416","448","NA","2","legacy","6","1024","2","48000","-16","experiment","2","even","2","794101","790690","668881","791887","4655","791892","772252","4661","80464","796106","796555","792895","7819","796105","NA","Sternberg Task","27","22169","33","yes","1024"
"79.41176470588235","79.41176470588235","669","669","black","experiment","legacy","legacy","legacy","0","uniform","0","undefined","0","right","33","33","0","33","0","33","33","0","0","33","33","33","0","33","0","Tue Oct 18 10:10:40 2022","The main experiment item","yes","SternbergTask.osexp","C:\Users\Austin\Documents\PSYC 5316\Lab 3","no","mono","no","18","no","white","no","yes","768","legacy","21","11","C:/Users/Austin/Documents/PSYC 5316/Lab 3/AH-subject-2.csv","legacy","3 9 8 1 6 4","Lentiform Loewenfeld","3.3.12","0","n","0","left","left","right","left","NA","577","3156","588416","577","NA","2","legacy","6","1024","2","48000","-16","experiment","2","even","7","799973","796565","668881","797759","4655","797764","772252","4661","80464","801978","802556","798768","7819","801977","NA","Sternberg Task","27","22746","34","yes","1024"
"77.14285714285714","77.14285714285714","664.7142857142857","664.7142857142857","black","experiment","legacy","legacy","legacy","0","uniform","0","undefined","0","left","34","34","0","34","0","34","34","0","0","34","34","34","0","34","0","Tue Oct 18 10:10:40 2022","The main experiment item","yes","SternbergTask.osexp","C:\Users\Austin\Documents\PSYC 5316\Lab 3","no","mono","no","18","no","white","no","yes","768","legacy","22","11","C:/Users/Austin/Documents/PSYC 5316/Lab 3/AH-subject-2.csv","legacy","7 8 4 6 9 5","Lentiform Loewenfeld","3.3.12","4","y","0","right","left","right","right","NA","519","3156","588416","519","NA","2","legacy","6","1024","2","48000","-16","experiment","2","even","6","805958","796565","668881","803745","4655","803749","802564","4661","80464","807962","808482","804754","7819","807962","NA","Sternberg Task","27","23265","35","yes","1024"
"77.77777777777777","77.77777777777777","659.8888888888889","659.8888888888889","black","experiment","legacy","legacy","legacy","0","uniform","1","undefined","1","left","35","35","0","35","0","35","35","0","0","35","35","35","0","35","0","Tue Oct 18 10:10:40 2022","The main experiment item","yes","SternbergTask.osexp","C:\Users\Austin\Documents\PSYC 5316\Lab 3","no","mono","no","18","no","white","no","yes","768","legacy","23","11","C:/Users/Austin/Documents/PSYC 5316/Lab 3/AH-subject-2.csv","legacy","8 1 6","Lentiform Loewenfeld","3.3.12","3","y","0","left","left","right","left","NA","491","3156","588416","491","NA","2","legacy","3","1024","2","48000","-16","experiment","2","even","6","811857","796565","668881","809645","4655","809649","808492","4661","80464","813862","814355","810653","7819","813862","NA","Sternberg Task","28","23756","36","yes","1024"
"78.37837837837837","78.37837837837837","658.3783783783783","658.3783783783783","black","experiment","legacy","legacy","legacy","0","uniform","1","undefined","1","right","36","36","0","36","0","36","36","0","0","36","36","36","0","36","0","Tue Oct 18 10:10:40 2022","The main experiment item","yes","SternbergTask.osexp","C:\Users\Austin\Documents\PSYC 5316\Lab 3","no","mono","no","18","no","white","no","yes","768","legacy","24","11","C:/Users/Austin/Documents/PSYC 5316/Lab 3/AH-subject-2.csv","legacy","6 2 9 3 8 4","Lentiform Loewenfeld","3.3.12","0","n","0","right","left","right","right","NA","604","3156","588416","604","NA","2","legacy","6","1024","2","48000","-16","experiment","2","even","1","817804","814366","668881","815591","4655","815596","808492","4661","80464","819809","820414","816600","7819","819809","NA","Sternberg Task","29","24360","37","yes","1024"
"76.3157894736842","76.3157894736842","657.7631578947369","657.7631578947369","black","experiment","legacy","legacy","legacy","0","uniform","0","undefined","0","right","37","37","0","37","0","37","37","0","0","37","37","37","0","37","0","Tue Oct 18 10:10:40 2022","The main experiment item","yes","SternbergTask.osexp","C:\Users\Austin\Documents\PSYC 5316\Lab 3","no","mono","no","18","no","white","no","yes","768","legacy","25","11","C:/Users/Austin/Documents/PSYC 5316/Lab 3/AH-subject-2.csv","legacy","2 8 9","Lentiform Loewenfeld","3.3.12","0","n","0","left","left","right","left","NA","635","3156","588416","635","NA","2","legacy","3","1024","2","48000","-16","experiment","2","even","6","823807","820423","668881","821595","4655","821600","808492","4661","80464","825811","826447","822603","7819","825811","NA","Sternberg Task","29","24995","38","yes","1024"
"74.35897435897436","74.35897435897436","660.8717948717949","660.8717948717949","black","experiment","legacy","legacy","legacy","0","uniform","0","undefined","0","right","38","38","0","38","0","38","38","0","0","38","38","38","0","38","0","Tue Oct 18 10:10:40 2022","The main experiment item","yes","SternbergTask.osexp","C:\Users\Austin\Documents\PSYC 5316\Lab 3","no","mono","no","18","no","white","no","yes","768","legacy","26","11","C:/Users/Austin/Documents/PSYC 5316/Lab 3/AH-subject-2.csv","legacy","7 4 2 8 1 9","Lentiform Loewenfeld","3.3.12","0","n","0","left","left","right","left","NA","779","3156","588416","779","NA","2","legacy","6","1024","2","48000","-16","experiment","2","even","5","829824","820423","668881","827612","4655","827616","826458","4661","80464","831829","832609","828619","7819","831828","NA","Sternberg Task","29","25774","39","yes","1024"
"75","75","658.475","658.475","black","experiment","legacy","legacy","legacy","0","uniform","1","undefined","1","left","39","39","0","39","0","39","39","0","0","39","39","39","0","39","0","Tue Oct 18 10:10:40 2022","The main experiment item","yes","SternbergTask.osexp","C:\Users\Austin\Documents\PSYC 5316\Lab 3","no","mono","no","18","no","white","no","yes","768","legacy","27","11","C:/Users/Austin/Documents/PSYC 5316/Lab 3/AH-subject-2.csv","legacy","4 6 5 8","Lentiform Loewenfeld","3.3.12","1","y","0","left","left","right","left","NA","565","3156","588416","565","NA","2","legacy","4","1024","2","48000","-16","experiment","2","even","4","835995","820423","668881","833783","4655","833786","832617","4661","80464","838000","838567","834791","7819","837999","NA","Sternberg Task","30","26339","40","yes","1024"
"75.60975609756098","75.60975609756098","654.5121951219512","654.5121951219512","black","experiment","legacy","legacy","legacy","0","uniform","1","undefined","1","left","40","40","0","40","0","40","40","0","0","40","40","40","0","40","0","Tue Oct 18 10:10:40 2022","The main experiment item","yes","SternbergTask.osexp","C:\Users\Austin\Documents\PSYC 5316\Lab 3","no","mono","no","18","no","white","no","yes","768","legacy","28","11","C:/Users/Austin/Documents/PSYC 5316/Lab 3/AH-subject-2.csv","legacy","9 6 2 4 1","Lentiform Loewenfeld","3.3.12","4","y","0","left","left","right","left","NA","496","3156","588416","496","NA","2","legacy","5","1024","2","48000","-16","experiment","2","even","4","841957","838575","668881","839744","4655","839748","832617","4661","80464","843962","844459","840753","7819","843962","NA","Sternberg Task","31","26835","41","yes","1024"
"76.19047619047619","76.19047619047619","651.4761904761905","651.4761904761905","black","experiment","legacy","legacy","legacy","0","uniform","1","undefined","1","left","41","41","0","41","0","41","41","0","0","41","41","41","0","41","0","Tue Oct 18 10:10:40 2022","The main experiment item","yes","SternbergTask.osexp","C:\Users\Austin\Documents\PSYC 5316\Lab 3","no","mono","no","18","no","white","no","yes","768","legacy","29","11","C:/Users/Austin/Documents/PSYC 5316/Lab 3/AH-subject-2.csv","legacy","4 9 7 8 5 3","Lentiform Loewenfeld","3.3.12","4","y","0","left","left","right","left","NA","527","3156","588416","527","NA","2","legacy","6","1024","2","48000","-16","experiment","2","even","8","847849","844469","668881","845638","4655","845641","832617","4661","80464","849854","850382","846645","7819","849854","NA","Sternberg Task","32","27362","42","yes","1024"
"76.74418604651163","76.74418604651163","646.2558139534884","646.2558139534884","black","experiment","legacy","legacy","legacy","0","uniform","1","undefined","1","left","42","42","0","42","0","42","42","0","0","42","42","42","0","42","0","Tue Oct 18 10:10:40 2022","The main experiment item","yes","SternbergTask.osexp","C:\Users\Austin\Documents\PSYC 5316\Lab 3","no","mono","no","18","no","white","no","yes","768","legacy","30","11","C:/Users/Austin/Documents/PSYC 5316/Lab 3/AH-subject-2.csv","legacy","8 9 5 7 1 6","Lentiform Loewenfeld","3.3.12","4","y","0","left","left","right","left","NA","427","3156","588416","427","NA","2","legacy","6","1024","2","48000","-16","experiment","2","even","7","853798","850390","668881","851585","4655","851590","832617","4661","80464","855804","856232","852594","7819","855803","NA","Sternberg Task","33","27789","43","yes","1024"
"77.27272727272727","77.27272727272727","643.25","643.25","black","experiment","legacy","legacy","legacy","0","uniform","1","undefined","1","left","43","43","0","43","0","43","43","0","0","43","43","43","0","43","0","Tue Oct 18 10:10:40 2022","The main experiment item","yes","SternbergTask.osexp","C:\Users\Austin\Documents\PSYC 5316\Lab 3","no","mono","no","18","no","white","no","yes","768","legacy","31","11","C:/Users/Austin/Documents/PSYC 5316/Lab 3/AH-subject-2.csv","legacy","3 5 7 1","Lentiform Loewenfeld","3.3.12","3","y","0","left","left","right","left","NA","514","3156","588416","514","NA","2","legacy","4","1024","2","48000","-16","experiment","2","even","7","859604","856242","668881","857392","4655","857396","832617","4661","80464","861607","862122","858400","7819","861607","NA","Sternberg Task","34","28303","44","yes","1024"
"77.77777777777777","77.77777777777777","646.4444444444445","646.4444444444445","black","experiment","legacy","legacy","legacy","0","uniform","1","undefined","1","right","44","44","0","44","0","44","44","0","0","44","44","44","0","44","0","Tue Oct 18 10:10:40 2022","The main experiment item","yes","SternbergTask.osexp","C:\Users\Austin\Documents\PSYC 5316\Lab 3","no","mono","no","18","no","white","no","yes","768","legacy","32","11","C:/Users/Austin/Documents/PSYC 5316/Lab 3/AH-subject-2.csv","legacy","9 5 3 2 8 6","Lentiform Loewenfeld","3.3.12","0","n","0","right","left","right","right","NA","787","3156","588416","787","NA","2","legacy","6","1024","2","48000","-16","experiment","2","even","7","865528","862131","668881","863315","4655","863319","832617","4661","80464","867532","868320","864322","7819","867532","NA","Sternberg Task","35","29090","45","yes","1024"
"78.26086956521739","78.26086956521739","643.4130434782609","643.4130434782609","black","experiment","legacy","legacy","legacy","0","uniform","1","undefined","1","left","45","45","0","45","0","45","45","0","0","45","45","45","0","45","0","Tue Oct 18 10:10:40 2022","The main experiment item","yes","SternbergTask.osexp","C:\Users\Austin\Documents\PSYC 5316\Lab 3","no","mono","no","18","no","white","no","yes","768","legacy","33","11","C:/Users/Austin/Documents/PSYC 5316/Lab 3/AH-subject-2.csv","legacy","6 9 7 4 5 1","Lentiform Loewenfeld","3.3.12","2","y","0","left","left","right","left","NA","507","3156","588416","507","NA","2","legacy","6","1024","2","48000","-16","experiment","2","even","9","871693","868330","668881","869479","4655","869483","832617","4661","80464","873696","874204","870487","7819","873696","NA","Sternberg Task","36","29597","46","yes","1024"
"78.72340425531915","78.72340425531915","646.3829787234042","646.3829787234042","black","experiment","legacy","legacy","legacy","0","uniform","1","undefined","1","right","46","46","0","46","0","46","46","0","0","46","46","46","0","46","0","Tue Oct 18 10:10:40 2022","The main experiment item","yes","SternbergTask.osexp","C:\Users\Austin\Documents\PSYC 5316\Lab 3","no","mono","no","18","no","white","no","yes","768","legacy","34","11","C:/Users/Austin/Documents/PSYC 5316/Lab 3/AH-subject-2.csv","legacy","1 7 8 3 9","Lentiform Loewenfeld","3.3.12","0","n","0","right","left","right","right","NA","783","3156","588416","783","NA","2","legacy","5","1024","2","48000","-16","experiment","2","even","2","877602","874213","668881","875390","4655","875395","832617","4661","80464","879606","880390","876398","7819","879606","NA","Sternberg Task","37","30380","47","yes","1024"
"77.08333333333333","77.08333333333333","647.6458333333334","647.6458333333334","black","experiment","legacy","legacy","legacy","0","uniform","0","undefined","0","right","47","47","0","47","0","47","47","0","0","47","47","47","0","47","0","Tue Oct 18 10:10:40 2022","The main experiment item","yes","SternbergTask.osexp","C:\Users\Austin\Documents\PSYC 5316\Lab 3","no","mono","no","18","no","white","no","yes","768","legacy","35","11","C:/Users/Austin/Documents/PSYC 5316/Lab 3/AH-subject-2.csv","legacy","2 5 1 4","Lentiform Loewenfeld","3.3.12","0","n","0","left","left","right","left","NA","707","3156","588416","707","NA","2","legacy","4","1024","2","48000","-16","experiment","2","even","6","883779","880401","668881","881565","4655","881571","832617","4661","80464","885783","886491","882574","7819","885783","NA","Sternberg Task","37","31087","48","yes","1024"
"75.51020408163265","75.51020408163265","646.1428571428571","646.1428571428571","black","experiment","legacy","legacy","legacy","0","uniform","0","undefined","0","left","48","48","0","48","0","48","48","0","0","48","48","48","0","48","0","Tue Oct 18 10:10:40 2022","The main experiment item","yes","SternbergTask.osexp","C:\Users\Austin\Documents\PSYC 5316\Lab 3","no","mono","no","18","no","white","no","yes","768","legacy","36","11","C:/Users/Austin/Documents/PSYC 5316/Lab 3/AH-subject-2.csv","legacy","7 2 3","Lentiform Loewenfeld","3.3.12","3","y","0","right","left","right","right","NA","574","3156","588416","574","NA","2","legacy","3","1024","2","48000","-16","experiment","2","even","3","889865","880401","668881","887653","4655","887657","886500","4661","80464","891868","892444","888661","7819","891868","NA","Sternberg Task","37","31661","49","yes","1024"
"76","76","648.16","648.16","black","experiment","legacy","legacy","legacy","0","uniform","1","undefined","1","right","49","49","0","49","0","49","49","0","0","49","49","49","0","49","0","Tue Oct 18 10:10:40 2022","The main experiment item","yes","SternbergTask.osexp","C:\Users\Austin\Documents\PSYC 5316\Lab 3","no","mono","no","18","no","white","no","yes","768","legacy","37","11","C:/Users/Austin/Documents/PSYC 5316/Lab 3/AH-subject-2.csv","legacy","1 4 9 2 5","Lentiform Loewenfeld","3.3.12","0","n","0","right","left","right","right","NA","747","3156","588416","747","NA","2","legacy","5","1024","2","48000","-16","experiment","2","even","7","895821","880401","668881","893609","4655","893613","892453","4661","80464","897825","898573","894618","7819","897825","NA","Sternberg Task","38","32408","50","yes","1024"
"76.47058823529412","76.47058823529412","645.4313725490196","645.4313725490196","black","experiment","legacy","legacy","legacy","0","uniform","1","undefined","1","left","50","50","0","50","0","50","50","0","0","50","50","50","0","50","0","Tue Oct 18 10:10:40 2022","The main experiment item","yes","SternbergTask.osexp","C:\Users\Austin\Documents\PSYC 5316\Lab 3","no","mono","no","18","no","white","no","yes","768","legacy","38","11","C:/Users/Austin/Documents/PSYC 5316/Lab 3/AH-subject-2.csv","legacy","9 5 3 8 4","Lentiform Loewenfeld","3.3.12","1","y","0","left","left","right","left","NA","509","3156","588416","509","NA","2","legacy","5","1024","2","48000","-16","experiment","2","even","9","901961","898582","668881","899750","4655","899753","892453","4661","80464","903966","904477","900757","7819","903966","NA","Sternberg Task","39","32917","51","yes","1024"
"75","75","663.6538461538462","663.6538461538462","black","experiment","legacy","legacy","legacy","0","uniform","0","undefined","0","left","51","51","0","51","0","51","51","0","0","51","51","51","0","51","0","Tue Oct 18 10:10:40 2022","The main experiment item","yes","SternbergTask.osexp","C:\Users\Austin\Documents\PSYC 5316\Lab 3","no","mono","no","18","no","white","no","yes","768","legacy","39","11","C:/Users/Austin/Documents/PSYC 5316/Lab 3/AH-subject-2.csv","legacy","6 1 2","Lentiform Loewenfeld","3.3.12","3","y","0","right","left","right","right","NA","1593","3156","588416","1593","NA","2","legacy","3","1024","2","48000","-16","experiment","2","even","2","907893","904486","668881","905680","4655","905685","892453","4661","80464","909898","911493","906689","7819","909898","NA","Sternberg Task","39","34510","52","yes","1024"
"75.47169811320755","75.47169811320755","664.0188679245283","664.0188679245283","black","experiment","legacy","legacy","legacy","0","uniform","1","undefined","1","right","52","52","0","52","0","52","52","0","0","52","52","52","0","52","0","Tue Oct 18 10:10:40 2022","The main experiment item","yes","SternbergTask.osexp","C:\Users\Austin\Documents\PSYC 5316\Lab 3","no","mono","no","18","no","white","no","yes","768","legacy","40","11","C:/Users/Austin/Documents/PSYC 5316/Lab 3/AH-subject-2.csv","legacy","1 7 5 2","Lentiform Loewenfeld","3.3.12","0","n","0","right","left","right","right","NA","683","3156","588416","683","NA","2","legacy","4","1024","2","48000","-16","experiment","2","even","3","914878","904486","668881","912666","4655","912670","911502","4661","80464","916884","917569","913674","7819","916883","NA","Sternberg Task","40","35193","53","yes","1024"
"74.07407407407408","74.07407407407408","667.6111111111111","667.6111111111111","black","experiment","legacy","legacy","legacy","0","uniform","0","undefined","0","left","53","53","0","53","0","53","53","0","0","53","53","53","0","53","0","Tue Oct 18 10:10:40 2022","The main experiment item","yes","SternbergTask.osexp","C:\Users\Austin\Documents\PSYC 5316\Lab 3","no","mono","no","18","no","white","no","yes","768","legacy","41","11","C:/Users/Austin/Documents/PSYC 5316/Lab 3/AH-subject-2.csv","legacy","3 9 6 2","Lentiform Loewenfeld","3.3.12","4","y","0","right","left","right","right","NA","858","3156","588416","858","NA","2","legacy","4","1024","2","48000","-16","experiment","2","even","2","920960","917579","668881","918749","4655","918753","911502","4661","80464","922965","923825","919756","7819","922964","NA","Sternberg Task","40","36051","54","yes","1024"
"74.54545454545455","74.54545454545455","664.1090909090909","664.1090909090909","black","experiment","legacy","legacy","legacy","0","uniform","1","undefined","1","left","54","54","0","54","0","54","54","0","0","54","54","54","0","54","0","Tue Oct 18 10:10:40 2022","The main experiment item","yes","SternbergTask.osexp","C:\Users\Austin\Documents\PSYC 5316\Lab 3","no","mono","no","18","no","white","no","yes","768","legacy","42","11","C:/Users/Austin/Documents/PSYC 5316/Lab 3/AH-subject-2.csv","legacy","5 7 8 2 3 8","Lentiform Loewenfeld","3.3.12","5","y","0","left","left","right","left","NA","475","3156","588416","475","NA","2","legacy","6","1024","2","48000","-16","experiment","2","even","3","927191","917579","668881","924979","4655","924983","923834","4661","80464","929194","929671","925986","7819","929194","NA","Sternberg Task","41","36526","55","yes","1024"
"75","75","664.2678571428571","664.2678571428571","black","experiment","legacy","legacy","legacy","0","uniform","1","undefined","1","right","55","55","0","55","0","55","55","0","0","55","55","55","0","55","0","Tue Oct 18 10:10:40 2022","The main experiment item","yes","SternbergTask.osexp","C:\Users\Austin\Documents\PSYC 5316\Lab 3","no","mono","no","18","no","white","no","yes","768","legacy","43","11","C:/Users/Austin/Documents/PSYC 5316/Lab 3/AH-subject-2.csv","legacy","6 9 7 3 8 2","Lentiform Loewenfeld","3.3.12","0","n","0","right","left","right","right","NA","673","3156","588416","673","NA","2","legacy","6","1024","2","48000","-16","experiment","2","even","5","933061","929678","668881","930849","4655","930853","923834","4661","80464","935066","935740","931856","7819","935065","NA","Sternberg Task","42","37199","56","yes","1024"
"75.43859649122807","75.43859649122807","666.4736842105264","666.4736842105264","black","experiment","legacy","legacy","legacy","0","uniform","1","undefined","1","left","56","56","0","56","0","56","56","0","0","56","56","56","0","56","0","Tue Oct 18 10:10:40 2022","The main experiment item","yes","SternbergTask.osexp","C:\Users\Austin\Documents\PSYC 5316\Lab 3","no","mono","no","18","no","white","no","yes","768","legacy","44","11","C:/Users/Austin/Documents/PSYC 5316/Lab 3/AH-subject-2.csv","legacy","4 7 6 8 2 3","Lentiform Loewenfeld","3.3.12","6","y","0","left","left","right","left","NA","790","3156","588416","790","NA","2","legacy","6","1024","2","48000","-16","experiment","2","even","3","939113","935748","668881","936901","4655","936905","923834","4661","80464","941116","941907","937909","7819","941116","NA","Sternberg Task","43","37989","57","yes","1024"
"75.86206896551724","75.86206896551724","663.5172413793103","663.5172413793103","black","experiment","legacy","legacy","legacy","0","uniform","1","undefined","1","left","57","57","0","57","0","57","57","0","0","57","57","57","0","57","0","Tue Oct 18 10:10:40 2022","The main experiment item","yes","SternbergTask.osexp","C:\Users\Austin\Documents\PSYC 5316\Lab 3","no","mono","no","18","no","white","no","yes","768","legacy","45","11","C:/Users/Austin/Documents/PSYC 5316/Lab 3/AH-subject-2.csv","legacy","9 5 8 1","Lentiform Loewenfeld","3.3.12","2","y","0","left","left","right","left","NA","495","3156","588416","495","NA","2","legacy","4","1024","2","48000","-16","experiment","2","even","5","945303","941916","668881","943091","4655","943096","923834","4661","80464","947308","947805","944099","7819","947308","NA","Sternberg Task","44","38484","58","yes","1024"
"76.27118644067797","76.27118644067797","663.4915254237288","663.4915254237288","black","experiment","legacy","legacy","legacy","0","uniform","1","undefined","1","left","58","58","0","58","0","58","58","0","0","58","58","58","0","58","0","Tue Oct 18 10:10:40 2022","The main experiment item","yes","SternbergTask.osexp","C:\Users\Austin\Documents\PSYC 5316\Lab 3","no","mono","no","18","no","white","no","yes","768","legacy","46","11","C:/Users/Austin/Documents/PSYC 5316/Lab 3/AH-subject-2.csv","legacy","1 4 9 3 2 5","Lentiform Loewenfeld","3.3.12","3","y","0","left","left","right","left","NA","662","3156","588416","662","NA","2","legacy","6","1024","2","48000","-16","experiment","2","even","9","951203","947813","668881","948990","4655","948994","923834","4661","80464","953208","953872","949998","7819","953208","NA","Sternberg Task","45","39146","59","yes","1024"
"75","75","661.25","661.25","black","experiment","legacy","legacy","legacy","0","uniform","0","undefined","0","left","59","59","0","59","0","59","59","0","0","59","59","59","0","59","0","Tue Oct 18 10:10:40 2022","The main experiment item","yes","SternbergTask.osexp","C:\Users\Austin\Documents\PSYC 5316\Lab 3","no","mono","no","18","no","white","no","yes","768","legacy","47","11","C:/Users/Austin/Documents/PSYC 5316/Lab 3/AH-subject-2.csv","legacy","3 5 9 6 2 4","Lentiform Loewenfeld","3.3.12","1","y","0","right","left","right","right","NA","529","3156","588416","529","NA","2","legacy","6","1024","2","48000","-16","experiment","2","even","3","957242","953880","668881","955030","4655","955034","923834","4661","80464","959245","959776","956037","7819","959245","NA","Sternberg Task","45","39675","60","yes","1024"
"75.40983606557377","75.40983606557377","661.0819672131148","661.0819672131148","black","experiment","legacy","legacy","legacy","0","uniform","1","undefined","1","right","60","60","0","60","0","60","60","0","0","60","60","60","0","60","0","Tue Oct 18 10:10:40 2022","The main experiment item","yes","SternbergTask.osexp","C:\Users\Austin\Documents\PSYC 5316\Lab 3","no","mono","no","18","no","white","no","yes","768","legacy","48","11","C:/Users/Austin/Documents/PSYC 5316/Lab 3/AH-subject-2.csv","legacy","6 8 4","Lentiform Loewenfeld","3.3.12","0","n","0","right","left","right","right","NA","651","3156","588416","651","NA","2","legacy","3","1024","2","48000","-16","experiment","2","even","1","963150","953880","668881","960939","4655","960943","959784","4661","80464","965153","965806","961946","7819","965153","NA","Sternberg Task","46","40326","61","yes","1024"
"75.80645161290323","75.80645161290323","673.6612903225806","673.6612903225806","black","experiment","legacy","legacy","legacy","0","uniform","1","undefined","1","right","61","61","0","61","0","61","61","0","0","61","61","61","0","61","0","Tue Oct 18 10:10:40 2022","The main experiment item","yes","SternbergTask.osexp","C:\Users\Austin\Documents\PSYC 5316\Lab 3","no","mono","no","18","no","white","no","yes","768","legacy","49","11","C:/Users/Austin/Documents/PSYC 5316/Lab 3/AH-subject-2.csv","legacy","5 3 2 6 9 8","Lentiform Loewenfeld","3.3.12","0","n","0","right","left","right","right","NA","1441","3156","588416","1441","NA","2","legacy","6","1024","2","48000","-16","experiment","2","even","4","969178","965815","668881","966965","4655","966969","959784","4661","80464","971182","972624","967973","7819","971182","NA","Sternberg Task","47","41767","62","yes","1024"
"76.19047619047619","76.19047619047619","674.3015873015873","674.3015873015873","black","experiment","legacy","legacy","legacy","0","uniform","1","undefined","1","right","62","62","0","62","0","62","62","0","0","62","62","62","0","62","0","Tue Oct 18 10:10:40 2022","The main experiment item","yes","SternbergTask.osexp","C:\Users\Austin\Documents\PSYC 5316\Lab 3","no","mono","no","18","no","white","no","yes","768","legacy","50","11","C:/Users/Austin/Documents/PSYC 5316/Lab 3/AH-subject-2.csv","legacy","5 3 8 7 2 4","Lentiform Loewenfeld","3.3.12","0","n","0","right","left","right","right","NA","714","3156","588416","714","NA","2","legacy","6","1024","2","48000","-16","experiment","2","even","9","976014","972632","668881","973802","4655","973807","959784","4661","80464","978020","978736","974810","7819","978019","NA","Sternberg Task","48","42481","63","yes","1024"
"76.5625","76.5625","673.3125","673.3125","black","experiment","legacy","legacy","legacy","0","uniform","1","undefined","1","right","63","63","0","63","0","63","63","0","0","63","63","63","0","63","0","Tue Oct 18 10:10:40 2022","The main experiment item","yes","SternbergTask.osexp","C:\Users\Austin\Documents\PSYC 5316\Lab 3","no","mono","no","18","no","white","no","yes","768","legacy","51","11","C:/Users/Austin/Documents/PSYC 5316/Lab 3/AH-subject-2.csv","legacy","1 6 4","Lentiform Loewenfeld","3.3.12","0","n","0","right","left","right","right","NA","611","3156","588416","611","NA","2","legacy","3","1024","2","48000","-16","experiment","2","even","7","982106","978744","668881","979894","4655","979898","959784","4661","80464","984111","984724","980902","7819","984111","NA","Sternberg Task","49","43092","64","yes","1024"
"76.92307692307692","76.92307692307692","674.5230769230769","674.5230769230769","black","experiment","legacy","legacy","legacy","0","uniform","1","undefined","1","right","64","64","0","64","0","64","64","0","0","64","64","64","0","64","0","Tue Oct 18 10:10:40 2022","The main experiment item","yes","SternbergTask.osexp","C:\Users\Austin\Documents\PSYC 5316\Lab 3","no","mono","no","18","no","white","no","yes","768","legacy","52","11","C:/Users/Austin/Documents/PSYC 5316/Lab 3/AH-subject-2.csv","legacy","7 1 8 4 9 3","Lentiform Loewenfeld","3.3.12","0","n","0","right","left","right","right","NA","752","3156","588416","752","NA","2","legacy","6","1024","2","48000","-16","experiment","2","even","6","988096","984733","668881","985884","4655","985888","959784","4661","80464","990101","990855","986892","7819","990101","NA","Sternberg Task","50","43844","65","yes","1024"
"77.27272727272727","77.27272727272727","679.3636363636364","679.3636363636364","black","experiment","legacy","legacy","legacy","0","uniform","1","undefined","1","left","65","65","0","65","0","65","65","0","0","65","65","65","0","65","0","Tue Oct 18 10:10:40 2022","The main experiment item","yes","SternbergTask.osexp","C:\Users\Austin\Documents\PSYC 5316\Lab 3","no","mono","no","18","no","white","no","yes","768","legacy","53","11","C:/Users/Austin/Documents/PSYC 5316/Lab 3/AH-subject-2.csv","legacy","4 1 8 7 5","Lentiform Loewenfeld","3.3.12","3","y","0","left","left","right","left","NA","994","3156","588416","994","NA","2","legacy","5","1024","2","48000","-16","experiment","2","even","8","994242","990864","668881","992029","4655","992033","959784","4661","80464","996248","997244","993037","7819","996248","NA","Sternberg Task","51","44838","66","yes","1024"
"77.61194029850746","77.61194029850746","678.2388059701492","678.2388059701492","black","experiment","legacy","legacy","legacy","0","uniform","1","undefined","1","right","66","66","0","66","0","66","66","0","0","66","66","66","0","66","0","Tue Oct 18 10:10:40 2022","The main experiment item","yes","SternbergTask.osexp","C:\Users\Austin\Documents\PSYC 5316\Lab 3","no","mono","no","18","no","white","no","yes","768","legacy","54","11","C:/Users/Austin/Documents/PSYC 5316/Lab 3/AH-subject-2.csv","legacy","4 2 6 9","Lentiform Loewenfeld","3.3.12","0","n","0","right","left","right","right","NA","604","3156","588416","604","NA","2","legacy","4","1024","2","48000","-16","experiment","2","even","7","1000627","997253","668881","998415","4655","998420","959784","4661","80464","1002632","1003238","999424","7819","1002631","NA","Sternberg Task","52","45442","67","yes","1024"
"77.94117647058823","77.94117647058823","679.0441176470588","679.0441176470588","black","experiment","legacy","legacy","legacy","0","uniform","1","undefined","1","left","67","67","0","67","0","67","67","0","0","67","67","67","0","67","0","Tue Oct 18 10:10:40 2022","The main experiment item","yes","SternbergTask.osexp","C:\Users\Austin\Documents\PSYC 5316\Lab 3","no","mono","no","18","no","white","no","yes","768","legacy","55","11","C:/Users/Austin/Documents/PSYC 5316/Lab 3/AH-subject-2.csv","legacy","5 7 3 6 2","Lentiform Loewenfeld","3.3.12","5","y","0","left","left","right","left","NA","733","3156","588416","733","NA","2","legacy","5","1024","2","48000","-16","experiment","2","even","2","1006622","1003247","668881","1004407","4655","1004412","959784","4661","80464","1008625","1009359","1005417","7819","1008625","NA","Sternberg Task","53","46175","68","yes","1024"
"78.26086956521739","78.26086956521739","680.7826086956521","680.7826086956521","black","experiment","legacy","legacy","legacy","0","uniform","1","undefined","1","left","68","68","0","68","0","68","68","0","0","68","68","68","0","68","0","Tue Oct 18 10:10:40 2022","The main experiment item","yes","SternbergTask.osexp","C:\Users\Austin\Documents\PSYC 5316\Lab 3","no","mono","no","18","no","white","no","yes","768","legacy","56","11","C:/Users/Austin/Documents/PSYC 5316/Lab 3/AH-subject-2.csv","legacy","9 3 8 2 1 4","Lentiform Loewenfeld","3.3.12","3","y","0","left","left","right","left","NA","799","3156","588416","799","NA","2","legacy","6","1024","2","48000","-16","experiment","2","even","8","1012746","1009369","668881","1010532","4655","1010537","959784","4661","80464","1014749","1015549","1011541","7819","1014749","NA","Sternberg Task","54","46974","69","yes","1024"
"78.57142857142857","78.57142857142857","683.4428571428572","683.4428571428572","black","experiment","legacy","legacy","legacy","0","uniform","1","undefined","1","left","69","69","0","69","0","69","69","0","0","69","69","69","0","69","0","Tue Oct 18 10:10:40 2022","The main experiment item","yes","SternbergTask.osexp","C:\Users\Austin\Documents\PSYC 5316\Lab 3","no","mono","no","18","no","white","no","yes","768","legacy","57","11","C:/Users/Austin/Documents/PSYC 5316/Lab 3/AH-subject-2.csv","legacy","8 5 3 7 4 6","Lentiform Loewenfeld","3.3.12","6","y","0","left","left","right","left","NA","867","3156","588416","867","NA","2","legacy","6","1024","2","48000","-16","experiment","2","even","6","1018927","1015561","668881","1016714","4655","1016718","959784","4661","80464","1020932","1021800","1017721","7819","1020932","NA","Sternberg Task","55","47841","70","yes","1024"
"77.46478873239437","77.46478873239437","687.9295774647887","687.9295774647887","black","experiment","legacy","legacy","legacy","0","uniform","0","undefined","0","right","70","70","0","70","0","70","70","0","0","70","70","70","0","70","0","Tue Oct 18 10:10:40 2022","The main experiment item","yes","SternbergTask.osexp","C:\Users\Austin\Documents\PSYC 5316\Lab 3","no","mono","no","18","no","white","no","yes","768","legacy","58","11","C:/Users/Austin/Documents/PSYC 5316/Lab 3/AH-subject-2.csv","legacy","9 7 4 5 8","Lentiform Loewenfeld","3.3.12","0","n","0","left","left","right","left","NA","1002","3156","588416","1002","NA","2","legacy","5","1024","2","48000","-16","experiment","2","even","6","1025171","1021809","668881","1022959","4655","1022963","959784","4661","80464","1027174","1028178","1023967","7819","1027174","NA","Sternberg Task","55","48843","71","yes","1024"
"77.77777777777777","77.77777777777777","687.5277777777778","687.5277777777778","black","experiment","legacy","legacy","legacy","0","uniform","1","undefined","1","right","71","71","0","71","0","71","71","0","0","71","71","71","0","71","0","Tue Oct 18 10:10:40 2022","The main experiment item","yes","SternbergTask.osexp","C:\Users\Austin\Documents\PSYC 5316\Lab 3","no","mono","no","18","no","white","no","yes","768","legacy","59","11","C:/Users/Austin/Documents/PSYC 5316/Lab 3/AH-subject-2.csv","legacy","9","Lentiform Loewenfeld","3.3.12","0","n","0","right","left","right","right","NA","659","3156","588416","659","NA","2","legacy","1","1024","2","48000","-16","experiment","2","even","6","1031574","1021809","668881","1029362","4655","1029367","1028186","4661","80464","1033579","1034240","1030370","7819","1033578","NA","Sternberg Task","56","49502","72","yes","1024"
"78.08219178082192","78.08219178082192","685.4794520547945","685.4794520547945","black","experiment","legacy","legacy","legacy","0","uniform","1","undefined","1","right","72","72","0","72","0","72","72","0","0","72","72","72","0","72","0","Tue Oct 18 10:10:40 2022","The main experiment item","yes","SternbergTask.osexp","C:\Users\Austin\Documents\PSYC 5316\Lab 3","no","mono","no","18","no","white","no","yes","768","legacy","60","11","C:/Users/Austin/Documents/PSYC 5316/Lab 3/AH-subject-2.csv","legacy","3 9 1","Lentiform Loewenfeld","3.3.12","0","n","0","right","left","right","right","NA","538","3156","588416","538","NA","2","legacy","3","1024","2","48000","-16","experiment","2","even","7","1037627","1034249","668881","1035414","4655","1035419","1028186","4661","80464","1039630","1040170","1036422","7819","1039630","NA","Sternberg Task","57","50040","73","yes","1024"
"78.37837837837837","78.37837837837837","686.6351351351351","686.6351351351351","black","experiment","legacy","legacy","legacy","0","uniform","1","undefined","1","right","73","73","0","73","0","73","73","0","0","73","73","73","0","73","0","Tue Oct 18 10:10:40 2022","The main experiment item","yes","SternbergTask.osexp","C:\Users\Austin\Documents\PSYC 5316\Lab 3","no","mono","no","18","no","white","no","yes","768","legacy","61","11","C:/Users/Austin/Documents/PSYC 5316/Lab 3/AH-subject-2.csv","legacy","1 4 9 3","Lentiform Loewenfeld","3.3.12","0","n","0","right","left","right","right","NA","771","3156","588416","771","NA","2","legacy","4","1024","2","48000","-16","experiment","2","even","5","1043576","1040180","668881","1041360","4655","1041365","1028186","4661","80464","1045580","1046353","1042372","7819","1045580","NA","Sternberg Task","58","50811","74","yes","1024"
"78.66666666666667","78.66666666666667","683.76","683.76","black","experiment","legacy","legacy","legacy","0","uniform","1","undefined","1","left","74","74","0","74","0","74","74","0","0","74","74","74","0","74","0","Tue Oct 18 10:10:40 2022","The main experiment item","yes","SternbergTask.osexp","C:\Users\Austin\Documents\PSYC 5316\Lab 3","no","mono","no","18","no","white","no","yes","768","legacy","62","11","C:/Users/Austin/Documents/PSYC 5316/Lab 3/AH-subject-2.csv","legacy","3 4","Lentiform Loewenfeld","3.3.12","1","y","0","left","left","right","left","NA","471","3156","588416","471","NA","2","legacy","2","1024","2","48000","-16","experiment","2","even","3","1049722","1046363","668881","1047509","4655","1047513","1028186","4661","80464","1051727","1052200","1048516","7819","1051726","NA","Sternberg Task","59","51282","75","yes","1024"
"78.94736842105263","78.94736842105263","682.5131578947369","682.5131578947369","black","experiment","legacy","legacy","legacy","0","uniform","1","undefined","1","right","75","75","0","75","0","75","75","0","0","75","75","75","0","75","0","Tue Oct 18 10:10:40 2022","The main experiment item","yes","SternbergTask.osexp","C:\Users\Austin\Documents\PSYC 5316\Lab 3","no","mono","no","18","no","white","no","yes","768","legacy","63","11","C:/Users/Austin/Documents/PSYC 5316/Lab 3/AH-subject-2.csv","legacy","6 7 5 9","Lentiform Loewenfeld","3.3.12","0","n","0","right","left","right","right","NA","589","3156","588416","589","NA","2","legacy","4","1024","2","48000","-16","experiment","2","even","2","1055586","1052209","668881","1053373","4655","1053378","1028186","4661","80464","1057590","1058182","1054381","7819","1057590","NA","Sternberg Task","60","51871","76","yes","1024"
"79.22077922077922","79.22077922077922","681.1298701298701","681.1298701298701","black","experiment","legacy","legacy","legacy","0","uniform","1","undefined","1","left","76","76","0","76","0","76","76","0","0","76","76","76","0","76","0","Tue Oct 18 10:10:40 2022","The main experiment item","yes","SternbergTask.osexp","C:\Users\Austin\Documents\PSYC 5316\Lab 3","no","mono","no","18","no","white","no","yes","768","legacy","64","11","C:/Users/Austin/Documents/PSYC 5316/Lab 3/AH-subject-2.csv","legacy","8 9 6 1","Lentiform Loewenfeld","3.3.12","2","y","0","left","left","right","left","NA","576","3156","588416","576","NA","2","legacy","4","1024","2","48000","-16","experiment","2","even","9","1061556","1058190","668881","1059344","4655","1059347","1028186","4661","80464","1063561","1064139","1060351","7819","1063561","NA","Sternberg Task","61","52447","77","yes","1024"
"79.48717948717949","79.48717948717949","681.1282051282051","681.1282051282051","black","experiment","legacy","legacy","legacy","0","uniform","1","undefined","1","right","77","77","0","77","0","77","77","0","0","77","77","77","0","77","0","Tue Oct 18 10:10:40 2022","The main experiment item","yes","SternbergTask.osexp","C:\Users\Austin\Documents\PSYC 5316\Lab 3","no","mono","no","18","no","white","no","yes","768","legacy","65","11","C:/Users/Austin/Documents/PSYC 5316/Lab 3/AH-subject-2.csv","legacy","6 3 1 7 9 8","Lentiform Loewenfeld","3.3.12","0","n","0","right","left","right","right","NA","681","3156","588416","681","NA","2","legacy","6","1024","2","48000","-16","experiment","2","even","4","1067541","1064150","668881","1065329","4655","1065334","1028186","4661","80464","1069546","1070229","1066337","7819","1069546","NA","Sternberg Task","62","53128","78","yes","1024"
"79.74683544303798","79.74683544303798","678.7848101265823","678.7848101265823","black","experiment","legacy","legacy","legacy","0","uniform","1","undefined","1","right","78","78","0","78","0","78","78","0","0","78","78","78","0","78","0","Tue Oct 18 10:10:40 2022","The main experiment item","yes","SternbergTask.osexp","C:\Users\Austin\Documents\PSYC 5316\Lab 3","no","mono","no","18","no","white","no","yes","768","legacy","66","11","C:/Users/Austin/Documents/PSYC 5316/Lab 3/AH-subject-2.csv","legacy","2 7 5","Lentiform Loewenfeld","3.3.12","0","n","0","right","left","right","right","NA","496","3156","588416","496","NA","2","legacy","3","1024","2","48000","-16","experiment","2","even","8","1073600","1070237","668881","1071389","4655","1071393","1028186","4661","80464","1075605","1076103","1072396","7819","1075605","NA","Sternberg Task","63","53624","79","yes","1024"
"80","80","689.2125","689.2125","black","experiment","legacy","legacy","legacy","0","uniform","1","undefined","1","left","79","79","0","79","0","79","79","0","0","79","79","79","0","79","0","Tue Oct 18 10:10:40 2022","The main experiment item","yes","SternbergTask.osexp","C:\Users\Austin\Documents\PSYC 5316\Lab 3","no","mono","no","18","no","white","no","yes","768","legacy","67","11","C:/Users/Austin/Documents/PSYC 5316/Lab 3/AH-subject-2.csv","legacy","6 7 9 3 1 2","Lentiform Loewenfeld","3.3.12","1","y","0","left","left","right","left","NA","1513","3156","588416","1513","NA","2","legacy","6","1024","2","48000","-16","experiment","2","even","6","1079495","1076113","668881","1077281","4655","1077285","1028186","4661","80464","1081504","1083019","1078291","7819","1081504","NA","Sternberg Task","64","55137","80","yes","1024"
"79.01234567901234","79.01234567901234","687.3456790123457","687.3456790123457","black","experiment","legacy","legacy","legacy","0","uniform","0","undefined","0","right","80","80","0","80","0","80","80","0","0","80","80","80","0","80","0","Tue Oct 18 10:10:40 2022","The main experiment item","yes","SternbergTask.osexp","C:\Users\Austin\Documents\PSYC 5316\Lab 3","no","mono","no","18","no","white","no","yes","768","legacy","68","11","C:/Users/Austin/Documents/PSYC 5316/Lab 3/AH-subject-2.csv","legacy","7 1 5 6 3","Lentiform Loewenfeld","3.3.12","0","n","0","left","left","right","left","NA","538","3156","588416","538","NA","2","legacy","5","1024","2","48000","-16","experiment","2","even","8","1086414","1083028","668881","1084202","4655","1084206","1028186","4661","80464","1088418","1088958","1085209","7819","1088418","NA","Sternberg Task","64","55675","81","yes","1024"
"79.26829268292683","79.26829268292683","697.3780487804878","697.3780487804878","black","experiment","legacy","legacy","legacy","0","uniform","1","undefined","1","right","81","81","0","81","0","81","81","0","0","81","81","81","0","81","0","Tue Oct 18 10:10:40 2022","The main experiment item","yes","SternbergTask.osexp","C:\Users\Austin\Documents\PSYC 5316\Lab 3","no","mono","no","18","no","white","no","yes","768","legacy","69","11","C:/Users/Austin/Documents/PSYC 5316/Lab 3/AH-subject-2.csv","legacy","7 3 2 8","Lentiform Loewenfeld","3.3.12","0","n","0","right","left","right","right","NA","1510","3156","588416","1510","NA","2","legacy","4","1024","2","48000","-16","experiment","2","even","4","1092341","1083028","668881","1090130","4655","1090134","1088967","4661","80464","1094346","1095858","1091137","7819","1094345","NA","Sternberg Task","65","57185","82","yes","1024"
"79.51807228915662","79.51807228915662","706.433734939759","706.433734939759","black","experiment","legacy","legacy","legacy","0","uniform","1","undefined","1","right","82","82","0","82","0","82","82","0","0","82","82","82","0","82","0","Tue Oct 18 10:10:40 2022","The main experiment item","yes","SternbergTask.osexp","C:\Users\Austin\Documents\PSYC 5316\Lab 3","no","mono","no","18","no","white","no","yes","768","legacy","70","11","C:/Users/Austin/Documents/PSYC 5316/Lab 3/AH-subject-2.csv","legacy","8 4 3 5","Lentiform Loewenfeld","3.3.12","0","n","0","right","left","right","right","NA","1449","3156","588416","1449","NA","2","legacy","4","1024","2","48000","-16","experiment","2","even","6","1099229","1095866","668881","1097015","4655","1097019","1088967","4661","80464","1101232","1102683","1098024","7819","1101232","NA","Sternberg Task","66","58634","83","yes","1024"
"79.76190476190476","79.76190476190476","705.5238095238095","705.5238095238095","black","experiment","legacy","legacy","legacy","0","uniform","1","undefined","1","right","83","83","0","83","0","83","83","0","0","83","83","83","0","83","0","Tue Oct 18 10:10:40 2022","The main experiment item","yes","SternbergTask.osexp","C:\Users\Austin\Documents\PSYC 5316\Lab 3","no","mono","no","18","no","white","no","yes","768","legacy","71","11","C:/Users/Austin/Documents/PSYC 5316/Lab 3/AH-subject-2.csv","legacy","3 4 2","Lentiform Loewenfeld","3.3.12","0","n","0","right","left","right","right","NA","630","3156","588416","630","NA","2","legacy","3","1024","2","48000","-16","experiment","2","even","5","1106053","1102691","668881","1103841","4655","1103845","1088967","4661","80464","1108058","1108690","1104848","7819","1108057","NA","Sternberg Task","67","59264","84","yes","1024"
"78.82352941176471","78.82352941176471","720.7529411764706","720.7529411764706","black","experiment","legacy","legacy","legacy","0","uniform","0","undefined","0","right","84","84","0","84","0","84","84","0","0","84","84","84","0","84","0","Tue Oct 18 10:10:40 2022","The main experiment item","yes","SternbergTask.osexp","C:\Users\Austin\Documents\PSYC 5316\Lab 3","no","mono","no","18","no","white","no","yes","768","legacy","72","11","C:/Users/Austin/Documents/PSYC 5316/Lab 3/AH-subject-2.csv","legacy","6 9 4 5 2","Lentiform Loewenfeld","3.3.12","0","n","0","None","left","right","None","NA","2000","3156","588416","2000","NA","2","legacy","5","1024","2","48000","-16","experiment","2","even","1","1112076","1108699","668881","1109865","4655","1109868","1088967","4661","80464","1114080","1116081","1110872","7819","1114080","NA","Sternberg Task","67","61264","85","yes","1024"
"79.06976744186046","79.06976744186046","732.4767441860465","732.4767441860465","black","experiment","legacy","legacy","legacy","0","uniform","1","undefined","1","left","85","85","0","85","0","85","85","0","0","85","85","85","0","85","0","Tue Oct 18 10:10:40 2022","The main experiment item","yes","SternbergTask.osexp","C:\Users\Austin\Documents\PSYC 5316\Lab 3","no","mono","no","18","no","white","no","yes","768","legacy","73","11","C:/Users/Austin/Documents/PSYC 5316/Lab 3/AH-subject-2.csv","legacy","7 6","Lentiform Loewenfeld","3.3.12","2","y","0","left","left","right","left","NA","1729","3156","588416","1729","NA","2","legacy","2","1024","2","48000","-16","experiment","2","even","6","1119452","1108699","668881","1117242","4655","1117246","1116090","4661","80464","1121458","1123189","1118249","7819","1121458","NA","Sternberg Task","68","62993","86","yes","1024"
"79.3103448275862","79.3103448275862","744.2873563218391","744.2873563218391","black","experiment","legacy","legacy","legacy","0","uniform","1","undefined","1","left","86","86","0","86","0","86","86","0","0","86","86","86","0","86","0","Tue Oct 18 10:10:40 2022","The main experiment item","yes","SternbergTask.osexp","C:\Users\Austin\Documents\PSYC 5316\Lab 3","no","mono","no","18","no","white","no","yes","768","legacy","74","11","C:/Users/Austin/Documents/PSYC 5316/Lab 3/AH-subject-2.csv","legacy","9 3 1 2 5","Lentiform Loewenfeld","3.3.12","4","y","0","left","left","right","left","NA","1760","3156","588416","1760","NA","2","legacy","5","1024","2","48000","-16","experiment","2","even","2","1126583","1123199","668881","1124372","4655","1124376","1116090","4661","80464","1128586","1130348","1125379","7819","1128586","NA","Sternberg Task","69","64753","87","yes","1024"
"79.54545454545455","79.54545454545455","740.3977272727273","740.3977272727273","black","experiment","legacy","legacy","legacy","0","uniform","1","undefined","1","left","87","87","0","87","0","87","87","0","0","87","87","87","0","87","0","Tue Oct 18 10:10:40 2022","The main experiment item","yes","SternbergTask.osexp","C:\Users\Austin\Documents\PSYC 5316\Lab 3","no","mono","no","18","no","white","no","yes","768","legacy","75","11","C:/Users/Austin/Documents/PSYC 5316/Lab 3/AH-subject-2.csv","legacy","4 1 5","Lentiform Loewenfeld","3.3.12","2","y","0","left","left","right","left","NA","402","3156","588416","402","NA","2","legacy","3","1024","2","48000","-16","experiment","2","even","1","1133724","1130358","668881","1131511","4655","1131515","1116090","4661","80464","1135729","1136133","1132519","7819","1135729","NA","Sternberg Task","70","65155","88","yes","1024"
"79.7752808988764","79.7752808988764","738.4494382022472","738.4494382022472","black","experiment","legacy","legacy","legacy","0","uniform","1","undefined","1","right","88","88","0","88","0","88","88","0","0","88","88","88","0","88","0","Tue Oct 18 10:10:40 2022","The main experiment item","yes","SternbergTask.osexp","C:\Users\Austin\Documents\PSYC 5316\Lab 3","no","mono","no","18","no","white","no","yes","768","legacy","76","11","C:/Users/Austin/Documents/PSYC 5316/Lab 3/AH-subject-2.csv","legacy","4 8 1 2","Lentiform Loewenfeld","3.3.12","0","n","0","right","left","right","right","NA","567","3156","588416","567","NA","2","legacy","4","1024","2","48000","-16","experiment","2","even","7","1139501","1136142","668881","1137290","4655","1137294","1116090","4661","80464","1141506","1142075","1138297","7819","1141505","NA","Sternberg Task","71","65722","89","yes","1024"
"80","80","733.4555555555555","733.4555555555555","black","experiment","legacy","legacy","legacy","0","uniform","1","undefined","1","left","89","89","0","89","0","89","89","0","0","89","89","89","0","89","0","Tue Oct 18 10:10:40 2022","The main experiment item","yes","SternbergTask.osexp","C:\Users\Austin\Documents\PSYC 5316\Lab 3","no","mono","no","18","no","white","no","yes","768","legacy","77","11","C:/Users/Austin/Documents/PSYC 5316/Lab 3/AH-subject-2.csv","legacy","2 4 6 9","Lentiform Loewenfeld","3.3.12","3","y","0","left","left","right","left","NA","289","3156","588416","289","NA","2","legacy","4","1024","2","48000","-16","experiment","2","even","6","1145481","1142083","668881","1143268","4655","1143273","1116090","4661","80464","1147486","1147777","1144277","7819","1147486","NA","Sternberg Task","72","66011","90","yes","1024"
"80.21978021978022","80.21978021978022","731.1538461538462","731.1538461538462","black","experiment","legacy","legacy","legacy","0","uniform","1","undefined","1","left","90","90","0","90","0","90","90","0","0","90","90","90","0","90","0","Tue Oct 18 10:10:40 2022","The main experiment item","yes","SternbergTask.osexp","C:\Users\Austin\Documents\PSYC 5316\Lab 3","no","mono","no","18","no","white","no","yes","768","legacy","78","11","C:/Users/Austin/Documents/PSYC 5316/Lab 3/AH-subject-2.csv","legacy","8 5 4 7 3 1","Lentiform Loewenfeld","3.3.12","2","y","0","left","left","right","left","NA","524","3156","588416","524","NA","2","legacy","6","1024","2","48000","-16","experiment","2","even","5","1151149","1147786","668881","1148938","4655","1148942","1116090","4661","80464","1153153","1153679","1149945","7819","1153153","NA","Sternberg Task","73","66535","91","yes","1024"
"80.43478260869566","80.43478260869566","729.4021739130435","729.4021739130435","black","experiment","legacy","legacy","legacy","0","uniform","1","undefined","1","left","91","91","0","91","0","91","91","0","0","91","91","91","0","91","0","Tue Oct 18 10:10:40 2022","The main experiment item","yes","SternbergTask.osexp","C:\Users\Austin\Documents\PSYC 5316\Lab 3","no","mono","no","18","no","white","no","yes","768","legacy","79","11","C:/Users/Austin/Documents/PSYC 5316/Lab 3/AH-subject-2.csv","legacy","9 1 6 7 8","Lentiform Loewenfeld","3.3.12","1","y","0","left","left","right","left","NA","570","3156","588416","570","NA","2","legacy","5","1024","2","48000","-16","experiment","2","even","9","1157067","1153687","668881","1154854","4655","1154858","1116090","4661","80464","1159071","1159643","1155861","7819","1159071","NA","Sternberg Task","74","67105","92","yes","1024"
"80.64516129032258","80.64516129032258","729.0752688172043","729.0752688172043","black","experiment","legacy","legacy","legacy","0","uniform","1","undefined","1","right","92","92","0","92","0","92","92","0","0","92","92","92","0","92","0","Tue Oct 18 10:10:40 2022","The main experiment item","yes","SternbergTask.osexp","C:\Users\Austin\Documents\PSYC 5316\Lab 3","no","mono","no","18","no","white","no","yes","768","legacy","80","11","C:/Users/Austin/Documents/PSYC 5316/Lab 3/AH-subject-2.csv","legacy","1 3 2 6 9","Lentiform Loewenfeld","3.3.12","0","n","0","right","left","right","right","NA","699","3156","588416","699","NA","2","legacy","5","1024","2","48000","-16","experiment","2","even","5","1163014","1159653","668881","1160803","4655","1160807","1116090","4661","80464","1165017","1165718","1161810","7819","1165017","NA","Sternberg Task","75","67804","93","yes","1024"
"80.85106382978724","80.85106382978724","737.0212765957447","737.0212765957447","black","experiment","legacy","legacy","legacy","0","uniform","1","undefined","1","right","93","93","0","93","0","93","93","0","0","93","93","93","0","93","0","Tue Oct 18 10:10:40 2022","The main experiment item","yes","SternbergTask.osexp","C:\Users\Austin\Documents\PSYC 5316\Lab 3","no","mono","no","18","no","white","no","yes","768","legacy","81","11","C:/Users/Austin/Documents/PSYC 5316/Lab 3/AH-subject-2.csv","legacy","7 9 1 6","Lentiform Loewenfeld","3.3.12","0","n","0","right","left","right","right","NA","1476","3156","588416","1476","NA","2","legacy","4","1024","2","48000","-16","experiment","2","even","4","1169092","1165727","668881","1166878","4655","1166882","1116090","4661","80464","1171095","1172573","1167887","7819","1171095","NA","Sternberg Task","76","69280","94","yes","1024"
"80","80","732.7368421052631","732.7368421052631","black","experiment","legacy","legacy","legacy","0","uniform","0","undefined","0","right","94","94","0","94","0","94","94","0","0","94","94","94","0","94","0","Tue Oct 18 10:10:40 2022","The main experiment item","yes","SternbergTask.osexp","C:\Users\Austin\Documents\PSYC 5316\Lab 3","no","mono","no","18","no","white","no","yes","768","legacy","82","11","C:/Users/Austin/Documents/PSYC 5316/Lab 3/AH-subject-2.csv","legacy","1 5 3 2 8","Lentiform Loewenfeld","3.3.12","0","n","0","left","left","right","left","NA","330","3156","588416","330","NA","2","legacy","5","1024","2","48000","-16","experiment","2","even","4","1175976","1172584","668881","1173762","4655","1173766","1116090","4661","80464","1177982","1178314","1174770","7819","1177981","NA","Sternberg Task","76","69610","95","yes","1024"
"80.20833333333333","80.20833333333333","731.5104166666666","731.5104166666666","black","experiment","legacy","legacy","legacy","0","uniform","1","undefined","1","left","95","95","0","95","0","95","95","0","0","95","95","95","0","95","0","Tue Oct 18 10:10:40 2022","The main experiment item","yes","SternbergTask.osexp","C:\Users\Austin\Documents\PSYC 5316\Lab 3","no","mono","no","18","no","white","no","yes","768","legacy","83","11","C:/Users/Austin/Documents/PSYC 5316/Lab 3/AH-subject-2.csv","legacy","9 1 7 2","Lentiform Loewenfeld","3.3.12","2","y","0","left","left","right","left","NA","615","3156","588416","615","NA","2","legacy","4","1024","2","48000","-16","experiment","2","even","1","1181692","1172584","668881","1179480","4655","1179484","1178325","4661","80464","1183698","1184315","1180488","7819","1183698","NA","Sternberg Task","77","70225","96","yes","1024"
"80.41237113402062","80.41237113402062","729.8453608247422","729.8453608247422","black","experiment","legacy","legacy","legacy","0","uniform","1","undefined","1","right","96","96","0","96","0","96","96","0","0","96","96","96","0","96","0","Tue Oct 18 10:10:40 2022","The main experiment item","yes","SternbergTask.osexp","C:\Users\Austin\Documents\PSYC 5316\Lab 3","no","mono","no","18","no","white","no","yes","768","legacy","84","11","C:/Users/Austin/Documents/PSYC 5316/Lab 3/AH-subject-2.csv","legacy","8 6 3 4 7","Lentiform Loewenfeld","3.3.12","0","n","0","right","left","right","right","NA","570","3156","588416","570","NA","2","legacy","5","1024","2","48000","-16","experiment","2","even","1","1187685","1184327","668881","1185474","4655","1185478","1178325","4661","80464","1189690","1190262","1186482","7819","1189690","NA","Sternberg Task","78","70795","97","yes","1024"
"80.61224489795919","80.61224489795919","727.4081632653061","727.4081632653061","black","experiment","legacy","legacy","legacy","0","uniform","1","undefined","1","right","97","97","0","97","0","97","97","0","0","97","97","97","0","97","0","Tue Oct 18 10:10:40 2022","The main experiment item","yes","SternbergTask.osexp","C:\Users\Austin\Documents\PSYC 5316\Lab 3","no","mono","no","18","no","white","no","yes","768","legacy","85","11","C:/Users/Austin/Documents/PSYC 5316/Lab 3/AH-subject-2.csv","legacy","7 6 4 8 1 2","Lentiform Loewenfeld","3.3.12","0","n","0","right","left","right","right","NA","491","3156","588416","491","NA","2","legacy","6","1024","2","48000","-16","experiment","2","even","9","1193662","1190270","668881","1191449","4655","1191453","1178325","4661","80464","1195667","1196160","1192457","7819","1195667","NA","Sternberg Task","79","71286","98","yes","1024"
"80.8080808080808","80.8080808080808","724.0505050505051","724.0505050505051","black","experiment","legacy","legacy","legacy","0","uniform","1","undefined","1","left","98","98","0","98","0","98","98","0","0","98","98","98","0","98","0","Tue Oct 18 10:10:40 2022","The main experiment item","yes","SternbergTask.osexp","C:\Users\Austin\Documents\PSYC 5316\Lab 3","no","mono","no","18","no","white","no","yes","768","legacy","86","11","C:/Users/Austin/Documents/PSYC 5316/Lab 3/AH-subject-2.csv","legacy","8 7 3","Lentiform Loewenfeld","3.3.12","1","y","0","left","left","right","left","NA","395","3156","588416","395","NA","2","legacy","3","1024","2","48000","-16","experiment","2","even","8","1199543","1196171","668881","1197329","4655","1197334","1178325","4661","80464","1201547","1201943","1198338","7819","1201547","NA","Sternberg Task","80","71681","99","yes","1024"
"80","80","727.49","727.49","black","experiment","legacy","legacy","legacy","0","uniform","0","undefined","0","right","99","99","0","99","0","99","99","0","0","99","99","99","0","99","0","Tue Oct 18 10:10:40 2022","The main experiment item","yes","SternbergTask.osexp","C:\Users\Austin\Documents\PSYC 5316\Lab 3","no","mono","no","18","no","white","no","yes","768","legacy","87","11","C:/Users/Austin/Documents/PSYC 5316/Lab 3/AH-subject-2.csv","legacy","3 4 9 6 7 8","Lentiform Loewenfeld","3.3.12","0","n","0","left","left","right","left","NA","1068","3156","588416","1068","NA","2","legacy","6","1024","2","48000","-16","experiment","2","even","2","1205334","1201950","668881","1203122","4655","1203126","1178325","4661","80464","1207339","1208409","1204131","7819","1207338","NA","Sternberg Task","80","72749","100","yes","1024"
"80.1980198019802","80.1980198019802","726.7920792079208","726.7920792079208","black","experiment","legacy","legacy","legacy","0","uniform","1","undefined","1","right","100","100","0","100","0","100","100","0","0","100","100","100","0","100","0","Tue Oct 18 10:10:40 2022","The main experiment item","yes","SternbergTask.osexp","C:\Users\Austin\Documents\PSYC 5316\Lab 3","no","mono","no","18","no","white","no","yes","768","legacy","88","11","C:/Users/Austin/Documents/PSYC 5316/Lab 3/AH-subject-2.csv","legacy","1 8 7","Lentiform Loewenfeld","3.3.12","0","n","0","right","left","right","right","NA","657","3156","588416","657","NA","2","legacy","3","1024","2","48000","-16","experiment","2","even","4","1211813","1201950","668881","1209601","4655","1209606","1208419","4661","80464","1213816","1214475","1210610","7819","1213816","NA","Sternberg Task","81","73406","101","yes","1024"
"80.3921568627451","80.3921568627451","724.6078431372549","724.6078431372549","black","experiment","legacy","legacy","legacy","0","uniform","1","undefined","1","left","101","101","0","101","0","101","101","0","0","101","101","101","0","101","0","Tue Oct 18 10:10:40 2022","The main experiment item","yes","SternbergTask.osexp","C:\Users\Austin\Documents\PSYC 5316\Lab 3","no","mono","no","18","no","white","no","yes","768","legacy","89","11","C:/Users/Austin/Documents/PSYC 5316/Lab 3/AH-subject-2.csv","legacy","8","Lentiform Loewenfeld","3.3.12","1","y","0","left","left","right","left","NA","504","3156","588416","504","NA","2","legacy","1","1024","2","48000","-16","experiment","2","even","8","1217869","1214485","668881","1215658","4655","1215662","1208419","4661","80464","1219874","1220380","1216665","7819","1219873","NA","Sternberg Task","82","73910","102","yes","1024"
"79.6116504854369","79.6116504854369","723.6796116504854","723.6796116504854","black","experiment","legacy","legacy","legacy","0","uniform","0","undefined","0","left","102","102","0","102","0","102","102","0","0","102","102","102","0","102","0","Tue Oct 18 10:10:40 2022","The main experiment item","yes","SternbergTask.osexp","C:\Users\Austin\Documents\PSYC 5316\Lab 3","no","mono","no","18","no","white","no","yes","768","legacy","90","11","C:/Users/Austin/Documents/PSYC 5316/Lab 3/AH-subject-2.csv","legacy","6 9 3 1","Lentiform Loewenfeld","3.3.12","4","y","0","right","left","right","right","NA","629","3156","588416","629","NA","2","legacy","4","1024","2","48000","-16","experiment","2","even","1","1223753","1220390","668881","1221541","4655","1221544","1208419","4661","80464","1225757","1226388","1222548","7819","1225757","NA","Sternberg Task","82","74539","103","yes","1024"
"79.8076923076923","79.8076923076923","722.1538461538462","722.1538461538462","black","experiment","legacy","legacy","legacy","0","uniform","1","undefined","1","left","103","103","0","103","0","103","103","0","0","103","103","103","0","103","0","Tue Oct 18 10:10:40 2022","The main experiment item","yes","SternbergTask.osexp","C:\Users\Austin\Documents\PSYC 5316\Lab 3","no","mono","no","18","no","white","no","yes","768","legacy","91","11","C:/Users/Austin/Documents/PSYC 5316/Lab 3/AH-subject-2.csv","legacy","3 2 1 4 7","Lentiform Loewenfeld","3.3.12","2","y","0","left","left","right","left","NA","565","3156","588416","565","NA","2","legacy","5","1024","2","48000","-16","experiment","2","even","2","1229755","1220390","668881","1227543","4655","1227547","1226398","4661","80464","1231760","1232328","1228551","7819","1231760","NA","Sternberg Task","83","75104","104","yes","1024"
"80","80","721.9714285714285","721.9714285714285","black","experiment","legacy","legacy","legacy","0","uniform","1","undefined","1","right","104","104","0","104","0","104","104","0","0","104","104","104","0","104","0","Tue Oct 18 10:10:40 2022","The main experiment item","yes","SternbergTask.osexp","C:\Users\Austin\Documents\PSYC 5316\Lab 3","no","mono","no","18","no","white","no","yes","768","legacy","92","11","C:/Users/Austin/Documents/PSYC 5316/Lab 3/AH-subject-2.csv","legacy","4 1","Lentiform Loewenfeld","3.3.12","0","n","0","right","left","right","right","NA","703","3156","588416","703","NA","2","legacy","2","1024","2","48000","-16","experiment","2","even","6","1235700","1232340","668881","1233487","4655","1233491","1226398","4661","80464","1237705","1238410","1234496","7819","1237704","NA","Sternberg Task","84","75807","105","yes","1024"
"79.24528301886792","79.24528301886792","722.9716981132076","722.9716981132076","black","experiment","legacy","legacy","legacy","0","uniform","0","undefined","0","right","105","105","0","105","0","105","105","0","0","105","105","105","0","105","0","Tue Oct 18 10:10:40 2022","The main experiment item","yes","SternbergTask.osexp","C:\Users\Austin\Documents\PSYC 5316\Lab 3","no","mono","no","18","no","white","no","yes","768","legacy","93","11","C:/Users/Austin/Documents/PSYC 5316/Lab 3/AH-subject-2.csv","legacy","5 9 2 3","Lentiform Loewenfeld","3.3.12","0","n","0","left","left","right","left","NA","828","3156","588416","828","NA","2","legacy","4","1024","2","48000","-16","experiment","2","even","8","1241820","1238419","668881","1239607","4655","1239612","1226398","4661","80464","1243823","1244653","1240616","7819","1243823","NA","Sternberg Task","84","76635","106","yes","1024"
"78.50467289719626","78.50467289719626","723.1869158878504","723.1869158878504","black","experiment","legacy","legacy","legacy","0","uniform","0","undefined","0","right","106","106","0","106","0","106","106","0","0","106","106","106","0","106","0","Tue Oct 18 10:10:40 2022","The main experiment item","yes","SternbergTask.osexp","C:\Users\Austin\Documents\PSYC 5316\Lab 3","no","mono","no","18","no","white","no","yes","768","legacy","94","11","C:/Users/Austin/Documents/PSYC 5316/Lab 3/AH-subject-2.csv","legacy","6 9 4 5 3 2","Lentiform Loewenfeld","3.3.12","0","n","0","left","left","right","left","NA","746","3156","588416","746","NA","2","legacy","6","1024","2","48000","-16","experiment","2","even","8","1248022","1238419","668881","1245811","4655","1245815","1244661","4661","80464","1250027","1250775","1246818","7819","1250026","NA","Sternberg Task","84","77381","107","yes","1024"
"78.70370370370371","78.70370370370371","721.4074074074074","721.4074074074074","black","experiment","legacy","legacy","legacy","0","uniform","1","undefined","1","right","107","107","0","107","0","107","107","0","0","107","107","107","0","107","0","Tue Oct 18 10:10:40 2022","The main experiment item","yes","SternbergTask.osexp","C:\Users\Austin\Documents\PSYC 5316\Lab 3","no","mono","no","18","no","white","no","yes","768","legacy","95","11","C:/Users/Austin/Documents/PSYC 5316/Lab 3/AH-subject-2.csv","legacy","5","Lentiform Loewenfeld","3.3.12","0","n","0","right","left","right","right","NA","531","3156","588416","531","NA","2","legacy","1","1024","2","48000","-16","experiment","2","even","8","1254164","1238419","668881","1251952","4655","1251957","1250785","4661","80464","1256168","1256701","1252960","7819","1256167","NA","Sternberg Task","85","77912","108","yes","1024"
"78.89908256880734","78.89908256880734","719.1651376146789","719.1651376146789","black","experiment","legacy","legacy","legacy","0","uniform","1","undefined","1","left","108","108","0","108","0","108","108","0","0","108","108","108","0","108","0","Tue Oct 18 10:10:40 2022","The main experiment item","yes","SternbergTask.osexp","C:\Users\Austin\Documents\PSYC 5316\Lab 3","no","mono","no","18","no","white","no","yes","768","legacy","96","11","C:/Users/Austin/Documents/PSYC 5316/Lab 3/AH-subject-2.csv","legacy","6 2","Lentiform Loewenfeld","3.3.12","1","y","0","left","left","right","left","NA","477","3156","588416","477","NA","2","legacy","2","1024","2","48000","-16","experiment","2","even","6","1260075","1256709","668881","1257864","4655","1257868","1250785","4661","80464","1262081","1262560","1258871","7819","1262081","NA","Sternberg Task","86","78389","109","yes","1024"
"79.0909090909091","79.0909090909091","718.6454545454545","718.6454545454545","black","experiment","legacy","legacy","legacy","0","uniform","1","undefined","1","left","109","109","0","109","0","109","109","0","0","109","109","109","0","109","0","Tue Oct 18 10:10:40 2022","The main experiment item","yes","SternbergTask.osexp","C:\Users\Austin\Documents\PSYC 5316\Lab 3","no","mono","no","18","no","white","no","yes","768","legacy","97","11","C:/Users/Austin/Documents/PSYC 5316/Lab 3/AH-subject-2.csv","legacy","6 7 8 5","Lentiform Loewenfeld","3.3.12","3","y","0","left","left","right","left","NA","662","3156","588416","662","NA","2","legacy","4","1024","2","48000","-16","experiment","2","even","8","1265930","1262569","668881","1263718","4655","1263722","1250785","4661","80464","1267934","1268598","1264725","7819","1267934","NA","Sternberg Task","87","79051","110","yes","1024"
"79.27927927927928","79.27927927927928","717.2252252252252","717.2252252252252","black","experiment","legacy","legacy","legacy","0","uniform","1","undefined","1","left","110","110","0","110","0","110","110","0","0","110","110","110","0","110","0","Tue Oct 18 10:10:40 2022","The main experiment item","yes","SternbergTask.osexp","C:\Users\Austin\Documents\PSYC 5316\Lab 3","no","mono","no","18","no","white","no","yes","768","legacy","98","11","C:/Users/Austin/Documents/PSYC 5316/Lab 3/AH-subject-2.csv","legacy","7 4 2 6 3 5","Lentiform Loewenfeld","3.3.12","6","y","0","left","left","right","left","NA","561","3156","588416","561","NA","2","legacy","6","1024","2","48000","-16","experiment","2","even","5","1272003","1268607","668881","1269790","4655","1269794","1250785","4661","80464","1274006","1274569","1270798","7819","1274006","NA","Sternberg Task","88","79612","111","yes","1024"
"79.46428571428571","79.46428571428571","719.4107142857143","719.4107142857143","black","experiment","legacy","legacy","legacy","0","uniform","1","undefined","1","left","111","111","0","111","0","111","111","0","0","111","111","111","0","111","0","Tue Oct 18 10:10:40 2022","The main experiment item","yes","SternbergTask.osexp","C:\Users\Austin\Documents\PSYC 5316\Lab 3","no","mono","no","18","no","white","no","yes","768","legacy","99","11","C:/Users/Austin/Documents/PSYC 5316/Lab 3/AH-subject-2.csv","legacy","3 4 9 6 2 9","Lentiform Loewenfeld","3.3.12","5","y","0","left","left","right","left","NA","962","3156","588416","962","NA","2","legacy","6","1024","2","48000","-16","experiment","2","even","2","1277968","1274580","668881","1275757","4655","1275761","1250785","4661","80464","1279973","1280938","1276764","7819","1279973","NA","Sternberg Task","89","80574","112","yes","1024"
"78.76106194690266","78.76106194690266","717.4955752212389","717.4955752212389","black","experiment","legacy","legacy","legacy","0","uniform","0","undefined","0","right","112","112","0","112","0","112","112","0","0","112","112","112","0","112","0","Tue Oct 18 10:10:40 2022","The main experiment item","yes","SternbergTask.osexp","C:\Users\Austin\Documents\PSYC 5316\Lab 3","no","mono","no","18","no","white","no","yes","768","legacy","100","11","C:/Users/Austin/Documents/PSYC 5316/Lab 3/AH-subject-2.csv","legacy","2 8 9 4 1","Lentiform Loewenfeld","3.3.12","0","n","0","left","left","right","left","NA","503","3156","588416","503","NA","2","legacy","5","1024","2","48000","-16","experiment","2","even","5","1284366","1280948","668881","1282153","4655","1282158","1250785","4661","80464","1286370","1286876","1283162","7819","1286370","NA","Sternberg Task","89","81077","113","yes","1024"
"78.0701754385965","78.0701754385965","715.6666666666666","715.6666666666666","black","experiment","legacy","legacy","legacy","0","uniform","0","undefined","0","right","113","113","0","113","0","113","113","0","0","113","113","113","0","113","0","Tue Oct 18 10:10:40 2022","The main experiment item","yes","SternbergTask.osexp","C:\Users\Austin\Documents\PSYC 5316\Lab 3","no","mono","no","18","no","white","no","yes","768","legacy","101","11","C:/Users/Austin/Documents/PSYC 5316/Lab 3/AH-subject-2.csv","legacy","8 4 3 9","Lentiform Loewenfeld","3.3.12","0","n","0","left","left","right","left","NA","509","3156","588416","509","NA","2","legacy","4","1024","2","48000","-16","experiment","2","even","5","1290253","1280948","668881","1288042","4655","1288046","1286886","4661","80464","1292258","1292769","1289049","7819","1292258","NA","Sternberg Task","89","81586","114","yes","1024"
