"acc","accuracy","average_response_time","avg_rt","background","block","canvas_backend","clock_backend","color_backend","compensation","coordinates","correct","correct_instruction1","correct_keyboard_response","correct_response","count_ISI","count_correctFeedback","count_expSequence","count_experiment","count_experimentLoop","count_fixation","count_incorrectFeedback","count_instruction1","count_instruction2","count_keyboard_response","count_logger","count_memorySet","count_practiceLoop","count_probe","count_thankYou","datetime","description","disable_garbage_collection","experiment_file","experiment_path","font_bold","font_family","font_italic","font_size","font_underline","foreground","form_clicks","fullscreen","height","keyboard_backend","live_row","live_row_practiceLoop","logfile","mouse_backend","numberSet","opensesame_codename","opensesame_version","posInSet","present","repeat_cycle","response","response_instruction1","response_instruction2","response_keyboard_response","response_thankYou","response_time","response_time_instruction1","response_time_instruction2","response_time_keyboard_response","response_time_thankYou","round_decimals","sampler_backend","setSize","sound_buf_size","sound_channels","sound_freq","sound_sample_size","start","subject_nr","subject_parity","target","time_ISI","time_correctFeedback","time_expSequence","time_experiment","time_experimentLoop","time_fixation","time_incorrectFeedback","time_instruction1","time_instruction2","time_keyboard_response","time_logger","time_memorySet","time_practiceLoop","time_probe","time_thankYou","title","total_correct","total_response_time","total_responses","uniform_coordinates","width"
"100","100","1568","1568","black","practice","legacy","legacy","legacy","0","uniform","1","undefined","1","right","0","0","0","0","0","0","0","0","0","0","0","0","0","0","0","Tue Oct 18 10:53:12 2022","The main experiment item","yes","Sternbergtask.osexp","/Users/keelyn/Library/CloudStorage/OneDrive-Personal","no","mono","no","18","no","white","no","yes","768","legacy","0","0","/Users/keelyn/Library/CloudStorage/OneDrive-Personal/KB-subject-2.csv","legacy","2 1","Lentiform Loewenfeld","3.3.12","0","n","0","right","right","NA","right","NA","1568","60545","NA","1568","NA","2","legacy","2","1024","2","48000","-16","experiment","2","even","5","63771","NA","61535","865","NA","61540","NA","876","NA","65782","67357","62554","61438","65781","NA","Sternberg task","1","1568","1","yes","1024"
"50","50","1597","1597","black","practice","legacy","legacy","legacy","0","uniform","0","undefined","0","left","1","1","1","0","0","1","1","0","0","1","1","1","0","1","0","Tue Oct 18 10:53:12 2022","The main experiment item","yes","Sternbergtask.osexp","/Users/keelyn/Library/CloudStorage/OneDrive-Personal","no","mono","no","18","no","white","no","yes","768","legacy","1","1","/Users/keelyn/Library/CloudStorage/OneDrive-Personal/KB-subject-2.csv","legacy","4 3 1 7 9 8","Lentiform Loewenfeld","3.3.12","1","y","0","right","right","NA","right","NA","1626","60545","NA","1626","NA","2","legacy","6","1024","2","48000","-16","experiment","2","even","4","70672","67378","68438","865","NA","68443","NA","876","NA","72683","74310","69456","61438","72683","NA","Sternberg task","1","3194","2","yes","1024"
"66.66666666666667","66.66666666666667","1315.3333333333333","1315.3333333333333","black","practice","legacy","legacy","legacy","0","uniform","1","undefined","1","right","2","2","2","0","0","2","2","0","0","2","2","2","0","2","0","Tue Oct 18 10:53:12 2022","The main experiment item","yes","Sternbergtask.osexp","/Users/keelyn/Library/CloudStorage/OneDrive-Personal","no","mono","no","18","no","white","no","yes","768","legacy","2","2","/Users/keelyn/Library/CloudStorage/OneDrive-Personal/KB-subject-2.csv","legacy","9 6 7 4 5","Lentiform Loewenfeld","3.3.12","0","n","0","right","right","NA","right","NA","752","60545","NA","752","NA","2","legacy","5","1024","2","48000","-16","experiment","2","even","3","77623","67378","75390","865","NA","75395","74315","876","NA","79636","80388","76408","61438","79636","NA","Sternberg task","2","3946","3","yes","1024"
"50","50","1123.75","1123.75","black","practice","legacy","legacy","legacy","0","uniform","0","undefined","0","right","3","3","3","0","0","3","3","0","0","3","3","3","0","3","0","Tue Oct 18 10:53:12 2022","The main experiment item","yes","Sternbergtask.osexp","/Users/keelyn/Library/CloudStorage/OneDrive-Personal","no","mono","no","18","no","white","no","yes","768","legacy","3","3","/Users/keelyn/Library/CloudStorage/OneDrive-Personal/KB-subject-2.csv","legacy","4 1 5","Lentiform Loewenfeld","3.3.12","0","n","0","left","right","NA","left","NA","549","60545","NA","549","NA","2","legacy","3","1024","2","48000","-16","experiment","2","even","2","83679","80394","81443","865","NA","81448","74315","876","NA","85691","86241","82461","61438","85691","NA","Sternberg task","2","4495","4","yes","1024"
"60","60","1039.8","1039.8","black","practice","legacy","legacy","legacy","0","uniform","1","undefined","1","right","4","4","4","0","0","4","4","0","0","4","4","4","0","4","0","Tue Oct 18 10:53:12 2022","The main experiment item","yes","Sternbergtask.osexp","/Users/keelyn/Library/CloudStorage/OneDrive-Personal","no","mono","no","18","no","white","no","yes","768","legacy","4","4","/Users/keelyn/Library/CloudStorage/OneDrive-Personal/KB-subject-2.csv","legacy","3 1 9 4","Lentiform Loewenfeld","3.3.12","0","n","0","right","right","NA","right","NA","704","60545","NA","704","NA","2","legacy","4","1024","2","48000","-16","experiment","2","even","6","89538","80394","87304","865","NA","87310","86246","876","NA","91549","92254","88322","61438","91548","NA","Sternberg task","3","5199","5","yes","1024"
"66.66666666666667","66.66666666666667","991.8333333333334","991.8333333333334","black","practice","legacy","legacy","legacy","0","uniform","1","undefined","1","right","5","5","5","0","0","5","5","0","0","5","5","5","0","5","0","Tue Oct 18 10:53:12 2022","The main experiment item","yes","Sternbergtask.osexp","/Users/keelyn/Library/CloudStorage/OneDrive-Personal","no","mono","no","18","no","white","no","yes","768","legacy","5","5","/Users/keelyn/Library/CloudStorage/OneDrive-Personal/KB-subject-2.csv","legacy","5 7 8 4 1 2","Lentiform Loewenfeld","3.3.12","0","n","0","right","right","NA","right","NA","752","60545","NA","752","NA","2","legacy","6","1024","2","48000","-16","experiment","2","even","6","95568","92259","93326","865","NA","93332","86246","876","NA","97579","98331","94346","61438","97579","NA","Sternberg task","4","5951","6","yes","1024"
"57.142857142857146","57.142857142857146","971.4285714285714","971.4285714285714","black","practice","legacy","legacy","legacy","0","uniform","0","undefined","0","left","6","6","6","0","0","6","6","0","0","6","6","6","0","6","0","Tue Oct 18 10:53:12 2022","The main experiment item","yes","Sternbergtask.osexp","/Users/keelyn/Library/CloudStorage/OneDrive-Personal","no","mono","no","18","no","white","no","yes","768","legacy","6","6","/Users/keelyn/Library/CloudStorage/OneDrive-Personal/KB-subject-2.csv","legacy","6","Lentiform Loewenfeld","3.3.12","1","y","0","right","right","NA","right","NA","849","60545","NA","849","NA","2","legacy","1","1024","2","48000","-16","experiment","2","even","6","101637","98336","99403","865","NA","99409","86246","876","NA","103648","104498","100422","61438","103648","NA","Sternberg task","4","6800","7","yes","1024"
"50","50","943.5","943.5","black","practice","legacy","legacy","legacy","0","uniform","0","undefined","0","left","7","7","7","0","0","7","7","0","0","7","7","7","0","7","0","Tue Oct 18 10:53:12 2022","The main experiment item","yes","Sternbergtask.osexp","/Users/keelyn/Library/CloudStorage/OneDrive-Personal","no","mono","no","18","no","white","no","yes","768","legacy","7","7","/Users/keelyn/Library/CloudStorage/OneDrive-Personal/KB-subject-2.csv","legacy","2 9 4","Lentiform Loewenfeld","3.3.12","3","y","0","right","right","NA","right","NA","748","60545","NA","748","NA","2","legacy","3","1024","2","48000","-16","experiment","2","even","4","107796","98336","105562","865","NA","105568","104503","876","NA","109805","110553","106580","61438","109805","NA","Sternberg task","4","7548","8","yes","1024"
"55.55555555555556","55.55555555555556","891.8888888888889","891.8888888888889","black","practice","legacy","legacy","legacy","0","uniform","1","undefined","1","left","8","8","8","0","0","8","8","0","0","8","8","8","0","8","0","Tue Oct 18 10:53:12 2022","The main experiment item","yes","Sternbergtask.osexp","/Users/keelyn/Library/CloudStorage/OneDrive-Personal","no","mono","no","18","no","white","no","yes","768","legacy","8","8","/Users/keelyn/Library/CloudStorage/OneDrive-Personal/KB-subject-2.csv","legacy","4 8","Lentiform Loewenfeld","3.3.12","1","y","0","left","right","NA","left","NA","479","60545","NA","479","NA","2","legacy","2","1024","2","48000","-16","experiment","2","even","4","113851","98336","111611","865","NA","111616","110558","876","NA","115861","116341","112635","61438","115861","NA","Sternberg task","5","8027","9","yes","1024"
"60","60","870.5","870.5","black","practice","legacy","legacy","legacy","0","uniform","1","undefined","1","right","9","9","9","0","0","9","9","0","0","9","9","9","0","9","0","Tue Oct 18 10:53:12 2022","The main experiment item","yes","Sternbergtask.osexp","/Users/keelyn/Library/CloudStorage/OneDrive-Personal","no","mono","no","18","no","white","no","yes","768","legacy","9","9","/Users/keelyn/Library/CloudStorage/OneDrive-Personal/KB-subject-2.csv","legacy","5","Lentiform Loewenfeld","3.3.12","0","n","0","right","right","NA","right","NA","678","60545","NA","678","NA","2","legacy","1","1024","2","48000","-16","experiment","2","even","3","119643","116346","117407","865","NA","117413","110558","876","NA","121654","122332","118426","61438","121654","NA","Sternberg task","6","8705","10","yes","1024"
"63.63636363636363","63.63636363636363","842.1818181818181","842.1818181818181","black","practice","legacy","legacy","legacy","0","uniform","1","undefined","1","left","10","10","10","0","0","10","10","0","0","10","10","10","0","10","0","Tue Oct 18 10:53:12 2022","The main experiment item","yes","Sternbergtask.osexp","/Users/keelyn/Library/CloudStorage/OneDrive-Personal","no","mono","no","18","no","white","no","yes","768","legacy","10","10","/Users/keelyn/Library/CloudStorage/OneDrive-Personal/KB-subject-2.csv","legacy","1 7 9 8 5","Lentiform Loewenfeld","3.3.12","4","y","0","left","right","NA","left","NA","559","60545","NA","559","NA","2","legacy","5","1024","2","48000","-16","experiment","2","even","8","125631","122338","123398","865","NA","123404","110558","876","NA","127642","128202","124417","61438","127641","NA","Sternberg task","7","9264","11","yes","1024"
"66.66666666666667","66.66666666666667","827.1666666666666","827.1666666666666","black","practice","legacy","legacy","legacy","0","uniform","1","undefined","1","left","11","11","11","0","0","11","11","0","0","11","11","11","0","11","0","Tue Oct 18 10:53:12 2022","The main experiment item","yes","Sternbergtask.osexp","/Users/keelyn/Library/CloudStorage/OneDrive-Personal","no","mono","no","18","no","white","no","yes","768","legacy","11","11","/Users/keelyn/Library/CloudStorage/OneDrive-Personal/KB-subject-2.csv","legacy","1 5 2 9","Lentiform Loewenfeld","3.3.12","2","y","0","left","right","NA","left","NA","662","60545","NA","662","NA","2","legacy","4","1024","2","48000","-16","experiment","2","even","5","131499","128207","129266","865","NA","129272","110558","876","NA","133510","134173","130284","61438","133510","NA","Sternberg task","8","9926","12","yes","1024"
"69.23076923076923","69.23076923076923","811.0769230769231","811.0769230769231","black","experiment","legacy","legacy","legacy","0","uniform","1","undefined","1","left","12","12","12","0","0","12","12","0","0","12","12","12","0","12","0","Tue Oct 18 10:53:12 2022","The main experiment item","yes","Sternbergtask.osexp","/Users/keelyn/Library/CloudStorage/OneDrive-Personal","no","mono","no","18","no","white","no","yes","768","legacy","0","11","/Users/keelyn/Library/CloudStorage/OneDrive-Personal/KB-subject-2.csv","legacy","6 1 2","Lentiform Loewenfeld","3.3.12","3","y","0","left","right","right","left","NA","618","60545","38998","618","NA","2","legacy","3","1024","2","48000","-16","experiment","2","even","2","176478","134178","174244","865","174213","174248","110558","876","135214","178490","179108","175262","61438","178490","NA","Sternberg task","9","10544","13","yes","1024"
"71.42857142857143","71.42857142857143","805.2857142857143","805.2857142857143","black","experiment","legacy","legacy","legacy","0","uniform","1","undefined","1","left","13","13","13","0","0","13","13","0","0","13","13","13","0","13","0","Tue Oct 18 10:53:12 2022","The main experiment item","yes","Sternbergtask.osexp","/Users/keelyn/Library/CloudStorage/OneDrive-Personal","no","mono","no","18","no","white","no","yes","768","legacy","1","11","/Users/keelyn/Library/CloudStorage/OneDrive-Personal/KB-subject-2.csv","legacy","8 5 1 3 9","Lentiform Loewenfeld","3.3.12","4","y","0","left","right","right","left","NA","730","60545","38998","730","NA","2","legacy","5","1024","2","48000","-16","experiment","2","even","3","182418","179114","180183","865","174213","180189","110558","876","135214","184428","185159","181203","61438","184428","NA","Sternberg task","10","11274","14","yes","1024"
"73.33333333333333","73.33333333333333","786.1333333333333","786.1333333333333","black","experiment","legacy","legacy","legacy","0","uniform","1","undefined","1","left","14","14","14","0","0","14","14","0","0","14","14","14","0","14","0","Tue Oct 18 10:53:12 2022","The main experiment item","yes","Sternbergtask.osexp","/Users/keelyn/Library/CloudStorage/OneDrive-Personal","no","mono","no","18","no","white","no","yes","768","legacy","2","11","/Users/keelyn/Library/CloudStorage/OneDrive-Personal/KB-subject-2.csv","legacy","2 4 8 5 1 3","Lentiform Loewenfeld","3.3.12","1","y","0","left","right","right","left","NA","518","60545","38998","518","NA","2","legacy","6","1024","2","48000","-16","experiment","2","even","2","188459","185164","186225","865","174213","186231","110558","876","135214","190470","190989","187244","61438","190470","NA","Sternberg task","11","11792","15","yes","1024"
"75","75","761.6875","761.6875","black","experiment","legacy","legacy","legacy","0","uniform","1","undefined","1","left","15","15","15","0","0","15","15","0","0","15","15","15","0","15","0","Tue Oct 18 10:53:12 2022","The main experiment item","yes","Sternbergtask.osexp","/Users/keelyn/Library/CloudStorage/OneDrive-Personal","no","mono","no","18","no","white","no","yes","768","legacy","3","11","/Users/keelyn/Library/CloudStorage/OneDrive-Personal/KB-subject-2.csv","legacy","5 2 6","Lentiform Loewenfeld","3.3.12","2","y","0","left","right","right","left","NA","395","60545","38998","395","NA","2","legacy","3","1024","2","48000","-16","experiment","2","even","2","194290","190994","192052","865","174213","192057","110558","876","135214","196301","196697","193069","61438","196301","NA","Sternberg task","12","12187","16","yes","1024"
"76.47058823529412","76.47058823529412","751.0588235294117","751.0588235294117","black","experiment","legacy","legacy","legacy","0","uniform","1","undefined","1","left","16","16","16","0","0","16","16","0","0","16","16","16","0","16","0","Tue Oct 18 10:53:12 2022","The main experiment item","yes","Sternbergtask.osexp","/Users/keelyn/Library/CloudStorage/OneDrive-Personal","no","mono","no","18","no","white","no","yes","768","legacy","4","11","/Users/keelyn/Library/CloudStorage/OneDrive-Personal/KB-subject-2.csv","legacy","6 9 3 1","Lentiform Loewenfeld","3.3.12","4","y","0","left","right","right","left","NA","581","60545","38998","581","NA","2","legacy","4","1024","2","48000","-16","experiment","2","even","1","199996","196702","197762","865","174213","197768","110558","876","135214","202007","202588","198781","61438","202007","NA","Sternberg task","13","12768","17","yes","1024"
"77.77777777777777","77.77777777777777","754.8888888888889","754.8888888888889","black","experiment","legacy","legacy","legacy","0","uniform","1","undefined","1","right","17","17","17","0","0","17","17","0","0","17","17","17","0","17","0","Tue Oct 18 10:53:12 2022","The main experiment item","yes","Sternbergtask.osexp","/Users/keelyn/Library/CloudStorage/OneDrive-Personal","no","mono","no","18","no","white","no","yes","768","legacy","5","11","/Users/keelyn/Library/CloudStorage/OneDrive-Personal/KB-subject-2.csv","legacy","2 6 4 3 9","Lentiform Loewenfeld","3.3.12","0","n","0","right","right","right","right","NA","820","60545","38998","820","NA","2","legacy","5","1024","2","48000","-16","experiment","2","even","1","205885","202593","203651","865","174213","203656","110558","876","135214","207900","208721","204670","61438","207900","NA","Sternberg task","14","13588","18","yes","1024"
"78.94736842105263","78.94736842105263","753","753","black","experiment","legacy","legacy","legacy","0","uniform","1","undefined","1","right","18","18","18","0","0","18","18","0","0","18","18","18","0","18","0","Tue Oct 18 10:53:12 2022","The main experiment item","yes","Sternbergtask.osexp","/Users/keelyn/Library/CloudStorage/OneDrive-Personal","no","mono","no","18","no","white","no","yes","768","legacy","6","11","/Users/keelyn/Library/CloudStorage/OneDrive-Personal/KB-subject-2.csv","legacy","1 8 7","Lentiform Loewenfeld","3.3.12","0","n","0","right","right","right","right","NA","719","60545","38998","719","NA","2","legacy","3","1024","2","48000","-16","experiment","2","even","4","212018","208726","209783","865","174213","209789","110558","876","135214","214034","214753","210803","61438","214034","NA","Sternberg task","15","14307","19","yes","1024"
"80","80","751.9","751.9","black","experiment","legacy","legacy","legacy","0","uniform","1","undefined","1","left","19","19","19","0","0","19","19","0","0","19","19","19","0","19","0","Tue Oct 18 10:53:12 2022","The main experiment item","yes","Sternbergtask.osexp","/Users/keelyn/Library/CloudStorage/OneDrive-Personal","no","mono","no","18","no","white","no","yes","768","legacy","7","11","/Users/keelyn/Library/CloudStorage/OneDrive-Personal/KB-subject-2.csv","legacy","4 6 2 5 1","Lentiform Loewenfeld","3.3.12","5","y","0","left","right","right","left","NA","731","60545","38998","731","NA","2","legacy","5","1024","2","48000","-16","experiment","2","even","1","218055","214758","215820","865","174213","215826","110558","876","135214","220065","220796","216839","61438","220065","NA","Sternberg task","16","15038","20","yes","1024"
"80.95238095238095","80.95238095238095","740.047619047619","740.047619047619","black","experiment","legacy","legacy","legacy","0","uniform","1","undefined","1","left","20","20","20","0","0","20","20","0","0","20","20","20","0","20","0","Tue Oct 18 10:53:12 2022","The main experiment item","yes","Sternbergtask.osexp","/Users/keelyn/Library/CloudStorage/OneDrive-Personal","no","mono","no","18","no","white","no","yes","768","legacy","8","11","/Users/keelyn/Library/CloudStorage/OneDrive-Personal/KB-subject-2.csv","legacy","9 8 4","Lentiform Loewenfeld","3.3.12","1","y","0","left","right","right","left","NA","503","60545","38998","503","NA","2","legacy","3","1024","2","48000","-16","experiment","2","even","9","224096","220801","221862","865","174213","221867","110558","876","135214","226108","226611","222880","61438","226108","NA","Sternberg task","17","15541","21","yes","1024"
"77.27272727272727","77.27272727272727","753.6363636363636","753.6363636363636","black","experiment","legacy","legacy","legacy","0","uniform","0","undefined","0","left","21","21","21","0","0","21","21","0","0","21","21","21","0","21","0","Tue Oct 18 10:53:12 2022","The main experiment item","yes","Sternbergtask.osexp","/Users/keelyn/Library/CloudStorage/OneDrive-Personal","no","mono","no","18","no","white","no","yes","768","legacy","9","11","/Users/keelyn/Library/CloudStorage/OneDrive-Personal/KB-subject-2.csv","legacy","7 4 2 6 3 5","Lentiform Loewenfeld","3.3.12","6","y","0","right","right","right","right","NA","1039","60545","38998","1039","NA","2","legacy","6","1024","2","48000","-16","experiment","2","even","5","229917","226616","227676","865","174213","227682","110558","876","135214","231929","232969","228700","61438","231929","NA","Sternberg task","17","16580","22","yes","1024"
"78.26086956521739","78.26086956521739","744.1739130434783","744.1739130434783","black","experiment","legacy","legacy","legacy","0","uniform","1","undefined","1","left","22","22","22","0","0","22","22","0","0","22","22","22","0","22","0","Tue Oct 18 10:53:12 2022","The main experiment item","yes","Sternbergtask.osexp","/Users/keelyn/Library/CloudStorage/OneDrive-Personal","no","mono","no","18","no","white","no","yes","768","legacy","10","11","/Users/keelyn/Library/CloudStorage/OneDrive-Personal/KB-subject-2.csv","legacy","4 3 2 5 8","Lentiform Loewenfeld","3.3.12","2","y","0","left","right","right","left","NA","536","60545","38998","536","NA","2","legacy","5","1024","2","48000","-16","experiment","2","even","3","236278","226616","234042","865","174213","234048","232974","876","135214","238290","238827","235061","61438","238289","NA","Sternberg task","18","17116","23","yes","1024"
"79.16666666666667","79.16666666666667","731.7083333333334","731.7083333333334","black","experiment","legacy","legacy","legacy","0","uniform","1","undefined","1","left","23","23","23","0","0","23","23","0","0","23","23","23","0","23","0","Tue Oct 18 10:53:12 2022","The main experiment item","yes","Sternbergtask.osexp","/Users/keelyn/Library/CloudStorage/OneDrive-Personal","no","mono","no","18","no","white","no","yes","768","legacy","11","11","/Users/keelyn/Library/CloudStorage/OneDrive-Personal/KB-subject-2.csv","legacy","9 4 2","Lentiform Loewenfeld","3.3.12","1","y","0","left","right","right","left","NA","445","60545","38998","445","NA","2","legacy","3","1024","2","48000","-16","experiment","2","even","9","242124","238831","239891","865","174213","239897","232974","876","135214","244136","244581","240909","61438","244136","NA","Sternberg task","19","17561","24","yes","1024"
"80","80","726.76","726.76","black","experiment","legacy","legacy","legacy","0","uniform","1","undefined","1","right","24","24","24","0","0","24","24","0","0","24","24","24","0","24","0","Tue Oct 18 10:53:12 2022","The main experiment item","yes","Sternbergtask.osexp","/Users/keelyn/Library/CloudStorage/OneDrive-Personal","no","mono","no","18","no","white","no","yes","768","legacy","12","11","/Users/keelyn/Library/CloudStorage/OneDrive-Personal/KB-subject-2.csv","legacy","4 8 1 2","Lentiform Loewenfeld","3.3.12","0","n","0","right","right","right","right","NA","608","60545","38998","608","NA","2","legacy","4","1024","2","48000","-16","experiment","2","even","7","247885","244586","245649","865","174213","245655","232974","876","135214","249896","250505","246670","61438","249896","NA","Sternberg task","20","18169","25","yes","1024"
"80.76923076923077","80.76923076923077","723.5769230769231","723.5769230769231","black","experiment","legacy","legacy","legacy","0","uniform","1","undefined","1","right","25","25","25","0","0","25","25","0","0","25","25","25","0","25","0","Tue Oct 18 10:53:12 2022","The main experiment item","yes","Sternbergtask.osexp","/Users/keelyn/Library/CloudStorage/OneDrive-Personal","no","mono","no","18","no","white","no","yes","768","legacy","13","11","/Users/keelyn/Library/CloudStorage/OneDrive-Personal/KB-subject-2.csv","legacy","6 9 4 5 2","Lentiform Loewenfeld","3.3.12","0","n","0","right","right","right","right","NA","644","60545","38998","644","NA","2","legacy","5","1024","2","48000","-16","experiment","2","even","1","253810","250510","251574","865","174213","251580","232974","876","135214","255823","256468","252596","61438","255823","NA","Sternberg task","21","18813","26","yes","1024"
"81.48148148148148","81.48148148148148","717.8148148148148","717.8148148148148","black","experiment","legacy","legacy","legacy","0","uniform","1","undefined","1","right","26","26","26","0","0","26","26","0","0","26","26","26","0","26","0","Tue Oct 18 10:53:12 2022","The main experiment item","yes","Sternbergtask.osexp","/Users/keelyn/Library/CloudStorage/OneDrive-Personal","no","mono","no","18","no","white","no","yes","768","legacy","14","11","/Users/keelyn/Library/CloudStorage/OneDrive-Personal/KB-subject-2.csv","legacy","6 9 5","Lentiform Loewenfeld","3.3.12","0","n","0","right","right","right","right","NA","568","60545","38998","568","NA","2","legacy","3","1024","2","48000","-16","experiment","2","even","8","259774","256473","257541","865","174213","257546","232974","876","135214","261785","262354","258559","61438","261784","NA","Sternberg task","22","19381","27","yes","1024"
"82.14285714285714","82.14285714285714","711.1428571428571","711.1428571428571","black","experiment","legacy","legacy","legacy","0","uniform","1","undefined","1","right","27","27","27","0","0","27","27","0","0","27","27","27","0","27","0","Tue Oct 18 10:53:12 2022","The main experiment item","yes","Sternbergtask.osexp","/Users/keelyn/Library/CloudStorage/OneDrive-Personal","no","mono","no","18","no","white","no","yes","768","legacy","15","11","/Users/keelyn/Library/CloudStorage/OneDrive-Personal/KB-subject-2.csv","legacy","8 9","Lentiform Loewenfeld","3.3.12","0","n","0","right","right","right","right","NA","531","60545","38998","531","NA","2","legacy","2","1024","2","48000","-16","experiment","2","even","5","265651","262359","263417","865","174213","263422","232974","876","135214","267661","268192","264435","61438","267661","NA","Sternberg task","23","19912","28","yes","1024"
"82.75862068965517","82.75862068965517","708.7241379310345","708.7241379310345","black","experiment","legacy","legacy","legacy","0","uniform","1","undefined","1","right","28","28","28","0","0","28","28","0","0","28","28","28","0","28","0","Tue Oct 18 10:53:12 2022","The main experiment item","yes","Sternbergtask.osexp","/Users/keelyn/Library/CloudStorage/OneDrive-Personal","no","mono","no","18","no","white","no","yes","768","legacy","16","11","/Users/keelyn/Library/CloudStorage/OneDrive-Personal/KB-subject-2.csv","legacy","2 8 9","Lentiform Loewenfeld","3.3.12","0","n","0","right","right","right","right","NA","641","60545","38998","641","NA","2","legacy","3","1024","2","48000","-16","experiment","2","even","6","271490","268198","269257","865","174213","269263","232974","876","135214","273502","274144","270275","61438","273502","NA","Sternberg task","24","20553","29","yes","1024"
"83.33333333333333","83.33333333333333","707.2333333333333","707.2333333333333","black","experiment","legacy","legacy","legacy","0","uniform","1","undefined","1","left","29","29","29","0","0","29","29","0","0","29","29","29","0","29","0","Tue Oct 18 10:53:12 2022","The main experiment item","yes","Sternbergtask.osexp","/Users/keelyn/Library/CloudStorage/OneDrive-Personal","no","mono","no","18","no","white","no","yes","768","legacy","17","11","/Users/keelyn/Library/CloudStorage/OneDrive-Personal/KB-subject-2.csv","legacy","3 4 9 6 2 9","Lentiform Loewenfeld","3.3.12","5","y","0","left","right","right","left","NA","664","60545","38998","664","NA","2","legacy","6","1024","2","48000","-16","experiment","2","even","2","277448","274149","275214","865","174213","275220","232974","876","135214","279461","280126","276233","61438","279461","NA","Sternberg task","25","21217","30","yes","1024"
"83.87096774193549","83.87096774193549","702.5806451612904","702.5806451612904","black","experiment","legacy","legacy","legacy","0","uniform","1","undefined","1","right","30","30","30","0","0","30","30","0","0","30","30","30","0","30","0","Tue Oct 18 10:53:12 2022","The main experiment item","yes","Sternbergtask.osexp","/Users/keelyn/Library/CloudStorage/OneDrive-Personal","no","mono","no","18","no","white","no","yes","768","legacy","18","11","/Users/keelyn/Library/CloudStorage/OneDrive-Personal/KB-subject-2.csv","legacy","1 7 5 2","Lentiform Loewenfeld","3.3.12","0","n","0","right","right","right","right","NA","563","60545","38998","563","NA","2","legacy","4","1024","2","48000","-16","experiment","2","even","3","283415","280131","281183","865","174213","281188","232974","876","135214","285426","285990","282200","61438","285426","NA","Sternberg task","26","21780","31","yes","1024"
"84.375","84.375","698.375","698.375","black","experiment","legacy","legacy","legacy","0","uniform","1","undefined","1","right","31","31","31","0","0","31","31","0","0","31","31","31","0","31","0","Tue Oct 18 10:53:12 2022","The main experiment item","yes","Sternbergtask.osexp","/Users/keelyn/Library/CloudStorage/OneDrive-Personal","no","mono","no","18","no","white","no","yes","768","legacy","19","11","/Users/keelyn/Library/CloudStorage/OneDrive-Personal/KB-subject-2.csv","legacy","6 8 4","Lentiform Loewenfeld","3.3.12","0","n","0","right","right","right","right","NA","568","60545","38998","568","NA","2","legacy","3","1024","2","48000","-16","experiment","2","even","1","289278","285995","287045","865","174213","287050","232974","876","135214","291295","291863","288063","61438","291295","NA","Sternberg task","27","22348","32","yes","1024"
"84.84848484848484","84.84848484848484","695.0909090909091","695.0909090909091","black","experiment","legacy","legacy","legacy","0","uniform","1","undefined","1","left","32","32","32","0","0","32","32","0","0","32","32","32","0","32","0","Tue Oct 18 10:53:12 2022","The main experiment item","yes","Sternbergtask.osexp","/Users/keelyn/Library/CloudStorage/OneDrive-Personal","no","mono","no","18","no","white","no","yes","768","legacy","20","11","/Users/keelyn/Library/CloudStorage/OneDrive-Personal/KB-subject-2.csv","legacy","6 2","Lentiform Loewenfeld","3.3.12","1","y","0","left","right","right","left","NA","590","60545","38998","590","NA","2","legacy","2","1024","2","48000","-16","experiment","2","even","6","295164","291869","292929","865","174213","292934","232974","876","135214","297175","297766","293946","61438","297175","NA","Sternberg task","28","22938","33","yes","1024"
"82.3529411764706","82.3529411764706","688.0588235294117","688.0588235294117","black","experiment","legacy","legacy","legacy","0","uniform","0","undefined","0","left","33","33","33","0","0","33","33","0","0","33","33","33","0","33","0","Tue Oct 18 10:53:12 2022","The main experiment item","yes","Sternbergtask.osexp","/Users/keelyn/Library/CloudStorage/OneDrive-Personal","no","mono","no","18","no","white","no","yes","768","legacy","21","11","/Users/keelyn/Library/CloudStorage/OneDrive-Personal/KB-subject-2.csv","legacy","7 2 3","Lentiform Loewenfeld","3.3.12","3","y","0","right","right","right","right","NA","456","60545","38998","456","NA","2","legacy","3","1024","2","48000","-16","experiment","2","even","3","301064","297771","298830","865","174213","298836","232974","876","135214","303076","303533","299849","61438","303075","NA","Sternberg task","28","23394","34","yes","1024"
"82.85714285714286","82.85714285714286","699.0571428571428","699.0571428571428","black","experiment","legacy","legacy","legacy","0","uniform","1","undefined","1","left","34","34","34","0","0","34","34","0","0","34","34","34","0","34","0","Tue Oct 18 10:53:12 2022","The main experiment item","yes","Sternbergtask.osexp","/Users/keelyn/Library/CloudStorage/OneDrive-Personal","no","mono","no","18","no","white","no","yes","768","legacy","22","11","/Users/keelyn/Library/CloudStorage/OneDrive-Personal/KB-subject-2.csv","legacy","6 9 7 4 5 1","Lentiform Loewenfeld","3.3.12","2","y","0","left","right","right","left","NA","1073","60545","38998","1073","NA","2","legacy","6","1024","2","48000","-16","experiment","2","even","9","306836","297771","304600","865","174213","304605","303538","876","135214","308852","309925","305618","61438","308852","NA","Sternberg task","29","24467","35","yes","1024"
"83.33333333333333","83.33333333333333","706.3888888888889","706.3888888888889","black","experiment","legacy","legacy","legacy","0","uniform","1","undefined","1","right","35","35","35","0","0","35","35","0","0","35","35","35","0","35","0","Tue Oct 18 10:53:12 2022","The main experiment item","yes","Sternbergtask.osexp","/Users/keelyn/Library/CloudStorage/OneDrive-Personal","no","mono","no","18","no","white","no","yes","768","legacy","23","11","/Users/keelyn/Library/CloudStorage/OneDrive-Personal/KB-subject-2.csv","legacy","5 3 2 6 9 8","Lentiform Loewenfeld","3.3.12","0","n","0","right","right","right","right","NA","963","60545","38998","963","NA","2","legacy","6","1024","2","48000","-16","experiment","2","even","4","313219","309930","310985","865","174213","310991","303538","876","135214","315230","316194","312004","61438","315230","NA","Sternberg task","30","25430","36","yes","1024"
"83.78378378378379","83.78378378378379","698.4864864864865","698.4864864864865","black","experiment","legacy","legacy","legacy","0","uniform","1","undefined","1","left","36","36","36","0","0","36","36","0","0","36","36","36","0","36","0","Tue Oct 18 10:53:12 2022","The main experiment item","yes","Sternbergtask.osexp","/Users/keelyn/Library/CloudStorage/OneDrive-Personal","no","mono","no","18","no","white","no","yes","768","legacy","24","11","/Users/keelyn/Library/CloudStorage/OneDrive-Personal/KB-subject-2.csv","legacy","8","Lentiform Loewenfeld","3.3.12","1","y","0","left","right","right","left","NA","414","60545","38998","414","NA","2","legacy","1","1024","2","48000","-16","experiment","2","even","8","319507","316199","317265","865","174213","317270","303538","876","135214","321518","321933","318283","61438","321518","NA","Sternberg task","31","25844","37","yes","1024"
"81.57894736842105","81.57894736842105","696.6842105263158","696.6842105263158","black","experiment","legacy","legacy","legacy","0","uniform","0","undefined","0","left","37","37","37","0","0","37","37","0","0","37","37","37","0","37","0","Tue Oct 18 10:53:12 2022","The main experiment item","yes","Sternbergtask.osexp","/Users/keelyn/Library/CloudStorage/OneDrive-Personal","no","mono","no","18","no","white","no","yes","768","legacy","25","11","/Users/keelyn/Library/CloudStorage/OneDrive-Personal/KB-subject-2.csv","legacy","7 8 6 3 1","Lentiform Loewenfeld","3.3.12","5","y","0","right","right","right","right","NA","630","60545","38998","630","NA","2","legacy","5","1024","2","48000","-16","experiment","2","even","1","325230","321938","322997","865","174213","323003","303538","876","135214","327243","327874","324015","61438","327243","NA","Sternberg task","31","26474","38","yes","1024"
"82.05128205128206","82.05128205128206","697.2307692307693","697.2307692307693","black","experiment","legacy","legacy","legacy","0","uniform","1","undefined","1","left","38","38","38","0","0","38","38","0","0","38","38","38","0","38","0","Tue Oct 18 10:53:12 2022","The main experiment item","yes","Sternbergtask.osexp","/Users/keelyn/Library/CloudStorage/OneDrive-Personal","no","mono","no","18","no","white","no","yes","768","legacy","26","11","/Users/keelyn/Library/CloudStorage/OneDrive-Personal/KB-subject-2.csv","legacy","2 3 7 4","Lentiform Loewenfeld","3.3.12","1","y","0","left","right","right","left","NA","718","60545","38998","718","NA","2","legacy","4","1024","2","48000","-16","experiment","2","even","2","331173","321938","328939","865","174213","328944","327879","876","135214","333184","333902","329958","61438","333184","NA","Sternberg task","32","27192","39","yes","1024"
"82.5","82.5","691.95","691.95","black","experiment","legacy","legacy","legacy","0","uniform","1","undefined","1","left","39","39","39","0","0","39","39","0","0","39","39","39","0","39","0","Tue Oct 18 10:53:12 2022","The main experiment item","yes","Sternbergtask.osexp","/Users/keelyn/Library/CloudStorage/OneDrive-Personal","no","mono","no","18","no","white","no","yes","768","legacy","27","11","/Users/keelyn/Library/CloudStorage/OneDrive-Personal/KB-subject-2.csv","legacy","9 1 6 7 8","Lentiform Loewenfeld","3.3.12","1","y","0","left","right","right","left","NA","486","60545","38998","486","NA","2","legacy","5","1024","2","48000","-16","experiment","2","even","9","337203","333907","334969","865","174213","334975","327879","876","135214","339214","339701","335988","61438","339213","NA","Sternberg task","33","27678","40","yes","1024"
"80.48780487804878","80.48780487804878","687.609756097561","687.609756097561","black","experiment","legacy","legacy","legacy","0","uniform","0","undefined","0","right","40","40","40","0","0","40","40","0","0","40","40","40","0","40","0","Tue Oct 18 10:53:12 2022","The main experiment item","yes","Sternbergtask.osexp","/Users/keelyn/Library/CloudStorage/OneDrive-Personal","no","mono","no","18","no","white","no","yes","768","legacy","28","11","/Users/keelyn/Library/CloudStorage/OneDrive-Personal/KB-subject-2.csv","legacy","6 8","Lentiform Loewenfeld","3.3.12","0","n","0","left","right","right","left","NA","514","60545","38998","514","NA","2","legacy","2","1024","2","48000","-16","experiment","2","even","9","343001","339706","340767","865","174213","340772","327879","876","135214","345014","345529","341785","61438","345014","NA","Sternberg task","33","28192","41","yes","1024"
"80.95238095238095","80.95238095238095","688.2142857142857","688.2142857142857","black","experiment","legacy","legacy","legacy","0","uniform","1","undefined","1","right","41","41","41","0","0","41","41","0","0","41","41","41","0","41","0","Tue Oct 18 10:53:12 2022","The main experiment item","yes","Sternbergtask.osexp","/Users/keelyn/Library/CloudStorage/OneDrive-Personal","no","mono","no","18","no","white","no","yes","768","legacy","29","11","/Users/keelyn/Library/CloudStorage/OneDrive-Personal/KB-subject-2.csv","legacy","1 5 3 2 8","Lentiform Loewenfeld","3.3.12","0","n","0","right","right","right","right","NA","713","60545","38998","713","NA","2","legacy","5","1024","2","48000","-16","experiment","2","even","4","348831","339706","346597","865","174213","346603","345534","876","135214","350843","351556","347616","61438","350843","NA","Sternberg task","34","28905","42","yes","1024"
"81.3953488372093","81.3953488372093","690.2558139534884","690.2558139534884","black","experiment","legacy","legacy","legacy","0","uniform","1","undefined","1","right","42","42","42","0","0","42","42","0","0","42","42","42","0","42","0","Tue Oct 18 10:53:12 2022","The main experiment item","yes","Sternbergtask.osexp","/Users/keelyn/Library/CloudStorage/OneDrive-Personal","no","mono","no","18","no","white","no","yes","768","legacy","30","11","/Users/keelyn/Library/CloudStorage/OneDrive-Personal/KB-subject-2.csv","legacy","1 6 4","Lentiform Loewenfeld","3.3.12","0","n","0","right","right","right","right","NA","776","60545","38998","776","NA","2","legacy","3","1024","2","48000","-16","experiment","2","even","7","354858","351561","352623","865","174213","352629","345534","876","135214","356871","357648","353642","61438","356870","NA","Sternberg task","35","29681","43","yes","1024"
"81.81818181818181","81.81818181818181","692.5909090909091","692.5909090909091","black","experiment","legacy","legacy","legacy","0","uniform","1","undefined","1","left","43","43","43","0","0","43","43","0","0","43","43","43","0","43","0","Tue Oct 18 10:53:12 2022","The main experiment item","yes","Sternbergtask.osexp","/Users/keelyn/Library/CloudStorage/OneDrive-Personal","no","mono","no","18","no","white","no","yes","768","legacy","31","11","/Users/keelyn/Library/CloudStorage/OneDrive-Personal/KB-subject-2.csv","legacy","2 5 4 8 7","Lentiform Loewenfeld","3.3.12","3","y","0","left","right","right","left","NA","793","60545","38998","793","NA","2","legacy","5","1024","2","48000","-16","experiment","2","even","4","360948","357653","358714","865","174213","358719","345534","876","135214","362961","363754","359733","61438","362961","NA","Sternberg task","36","30474","44","yes","1024"
"80","80","700.1333333333333","700.1333333333333","black","experiment","legacy","legacy","legacy","0","uniform","0","undefined","0","right","44","44","44","0","0","44","44","0","0","44","44","44","0","44","0","Tue Oct 18 10:53:12 2022","The main experiment item","yes","Sternbergtask.osexp","/Users/keelyn/Library/CloudStorage/OneDrive-Personal","no","mono","no","18","no","white","no","yes","768","legacy","32","11","/Users/keelyn/Library/CloudStorage/OneDrive-Personal/KB-subject-2.csv","legacy","3 4 9 6 7 8","Lentiform Loewenfeld","3.3.12","0","n","0","left","right","right","left","NA","1032","60545","38998","1032","NA","2","legacy","6","1024","2","48000","-16","experiment","2","even","2","367066","363760","364829","865","174213","364835","345534","876","135214","369079","370112","365849","61438","369078","NA","Sternberg task","36","31506","45","yes","1024"
"80.43478260869566","80.43478260869566","701.4782608695652","701.4782608695652","black","experiment","legacy","legacy","legacy","0","uniform","1","undefined","1","left","45","45","45","0","0","45","45","0","0","45","45","45","0","45","0","Tue Oct 18 10:53:12 2022","The main experiment item","yes","Sternbergtask.osexp","/Users/keelyn/Library/CloudStorage/OneDrive-Personal","no","mono","no","18","no","white","no","yes","768","legacy","33","11","/Users/keelyn/Library/CloudStorage/OneDrive-Personal/KB-subject-2.csv","legacy","7 8 4 6 9 5","Lentiform Loewenfeld","3.3.12","4","y","0","left","right","right","left","NA","762","60545","38998","762","NA","2","legacy","6","1024","2","48000","-16","experiment","2","even","6","373407","363760","371173","865","174213","371179","370117","876","135214","375420","376183","372192","61438","375420","NA","Sternberg task","37","32268","46","yes","1024"
"78.72340425531915","78.72340425531915","707.0851063829788","707.0851063829788","black","experiment","legacy","legacy","legacy","0","uniform","0","undefined","0","left","46","46","46","0","0","46","46","0","0","46","46","46","0","46","0","Tue Oct 18 10:53:12 2022","The main experiment item","yes","Sternbergtask.osexp","/Users/keelyn/Library/CloudStorage/OneDrive-Personal","no","mono","no","18","no","white","no","yes","768","legacy","34","11","/Users/keelyn/Library/CloudStorage/OneDrive-Personal/KB-subject-2.csv","legacy","5 7 8 2 3 8","Lentiform Loewenfeld","3.3.12","5","y","0","right","right","right","right","NA","965","60545","38998","965","NA","2","legacy","6","1024","2","48000","-16","experiment","2","even","3","379485","376188","377246","865","174213","377251","370117","876","135214","381497","382462","378266","61438","381496","NA","Sternberg task","37","33233","47","yes","1024"
"79.16666666666667","79.16666666666667","704.8541666666666","704.8541666666666","black","experiment","legacy","legacy","legacy","0","uniform","1","undefined","1","right","47","47","47","0","0","47","47","0","0","47","47","47","0","47","0","Tue Oct 18 10:53:12 2022","The main experiment item","yes","Sternbergtask.osexp","/Users/keelyn/Library/CloudStorage/OneDrive-Personal","no","mono","no","18","no","white","no","yes","768","legacy","35","11","/Users/keelyn/Library/CloudStorage/OneDrive-Personal/KB-subject-2.csv","legacy","9","Lentiform Loewenfeld","3.3.12","0","n","0","right","right","right","right","NA","600","60545","38998","600","NA","2","legacy","1","1024","2","48000","-16","experiment","2","even","6","385754","376188","383521","865","174213","383527","382468","876","135214","387766","388367","384539","61438","387766","NA","Sternberg task","38","33833","48","yes","1024"
"79.59183673469387","79.59183673469387","699.0816326530612","699.0816326530612","black","experiment","legacy","legacy","legacy","0","uniform","1","undefined","1","left","48","48","48","0","0","48","48","0","0","48","48","48","0","48","0","Tue Oct 18 10:53:12 2022","The main experiment item","yes","Sternbergtask.osexp","/Users/keelyn/Library/CloudStorage/OneDrive-Personal","no","mono","no","18","no","white","no","yes","768","legacy","36","11","/Users/keelyn/Library/CloudStorage/OneDrive-Personal/KB-subject-2.csv","legacy","4","Lentiform Loewenfeld","3.3.12","1","y","0","left","right","right","left","NA","422","60545","38998","422","NA","2","legacy","1","1024","2","48000","-16","experiment","2","even","4","391669","388372","389434","865","174213","389440","382468","876","135214","393681","394103","390453","61438","393681","NA","Sternberg task","39","34255","49","yes","1024"
"80","80","696.14","696.14","black","experiment","legacy","legacy","legacy","0","uniform","1","undefined","1","left","49","49","49","0","0","49","49","0","0","49","49","49","0","49","0","Tue Oct 18 10:53:12 2022","The main experiment item","yes","Sternbergtask.osexp","/Users/keelyn/Library/CloudStorage/OneDrive-Personal","no","mono","no","18","no","white","no","yes","768","legacy","37","11","/Users/keelyn/Library/CloudStorage/OneDrive-Personal/KB-subject-2.csv","legacy","7 1 3","Lentiform Loewenfeld","3.3.12","2","y","0","left","right","right","left","NA","552","60545","38998","552","NA","2","legacy","3","1024","2","48000","-16","experiment","2","even","1","397400","394108","395167","865","174213","395173","382468","876","135214","399411","399963","396185","61438","399411","NA","Sternberg task","40","34807","50","yes","1024"
"78.43137254901961","78.43137254901961","721.7058823529412","721.7058823529412","black","experiment","legacy","legacy","legacy","0","uniform","0","undefined","0","left","50","50","50","0","0","50","50","0","0","50","50","50","0","50","0","Tue Oct 18 10:53:12 2022","The main experiment item","yes","Sternbergtask.osexp","/Users/keelyn/Library/CloudStorage/OneDrive-Personal","no","mono","no","18","no","white","no","yes","768","legacy","38","11","/Users/keelyn/Library/CloudStorage/OneDrive-Personal/KB-subject-2.csv","legacy","8 5 3 7 4 6","Lentiform Loewenfeld","3.3.12","6","y","0","None","right","right","None","NA","2000","60545","38998","2000","NA","2","legacy","6","1024","2","48000","-16","experiment","2","even","6","403258","399968","401026","865","174213","401031","382468","876","135214","405269","407269","402043","61438","405269","NA","Sternberg task","40","36807","51","yes","1024"
"78.84615384615384","78.84615384615384","726.0961538461538","726.0961538461538","black","experiment","legacy","legacy","legacy","0","uniform","1","undefined","1","right","51","51","51","0","0","51","51","0","0","51","51","51","0","51","0","Tue Oct 18 10:53:12 2022","The main experiment item","yes","Sternbergtask.osexp","/Users/keelyn/Library/CloudStorage/OneDrive-Personal","no","mono","no","18","no","white","no","yes","768","legacy","39","11","/Users/keelyn/Library/CloudStorage/OneDrive-Personal/KB-subject-2.csv","legacy","6 7 5 9","Lentiform Loewenfeld","3.3.12","0","n","0","right","right","right","right","NA","950","60545","38998","950","NA","2","legacy","4","1024","2","48000","-16","experiment","2","even","2","410565","399968","408331","865","174213","408337","407274","876","135214","412576","413527","409350","61438","412576","NA","Sternberg task","41","37757","52","yes","1024"
"79.24528301886792","79.24528301886792","727.5849056603773","727.5849056603773","black","experiment","legacy","legacy","legacy","0","uniform","1","undefined","1","right","52","52","52","0","0","52","52","0","0","52","52","52","0","52","0","Tue Oct 18 10:53:12 2022","The main experiment item","yes","Sternbergtask.osexp","/Users/keelyn/Library/CloudStorage/OneDrive-Personal","no","mono","no","18","no","white","no","yes","768","legacy","40","11","/Users/keelyn/Library/CloudStorage/OneDrive-Personal/KB-subject-2.csv","legacy","3 9 8 1 6 4","Lentiform Loewenfeld","3.3.12","0","n","0","right","right","right","right","NA","805","60545","38998","805","NA","2","legacy","6","1024","2","48000","-16","experiment","2","even","7","416831","413532","414597","865","174213","414603","407274","876","135214","418841","419647","415616","61438","418841","NA","Sternberg task","42","38562","53","yes","1024"
"79.62962962962963","79.62962962962963","727.4444444444445","727.4444444444445","black","experiment","legacy","legacy","legacy","0","uniform","1","undefined","1","left","53","53","53","0","0","53","53","0","0","53","53","53","0","53","0","Tue Oct 18 10:53:12 2022","The main experiment item","yes","Sternbergtask.osexp","/Users/keelyn/Library/CloudStorage/OneDrive-Personal","no","mono","no","18","no","white","no","yes","768","legacy","41","11","/Users/keelyn/Library/CloudStorage/OneDrive-Personal/KB-subject-2.csv","legacy","3 5 9 6 2 4","Lentiform Loewenfeld","3.3.12","1","y","0","left","right","right","left","NA","720","60545","38998","720","NA","2","legacy","6","1024","2","48000","-16","experiment","2","even","3","422947","419652","420712","865","174213","420717","407274","876","135214","424961","425682","421732","61438","424961","NA","Sternberg task","43","39282","54","yes","1024"
"80","80","730.8363636363637","730.8363636363637","black","experiment","legacy","legacy","legacy","0","uniform","1","undefined","1","left","54","54","54","0","0","54","54","0","0","54","54","54","0","54","0","Tue Oct 18 10:53:12 2022","The main experiment item","yes","Sternbergtask.osexp","/Users/keelyn/Library/CloudStorage/OneDrive-Personal","no","mono","no","18","no","white","no","yes","768","legacy","42","11","/Users/keelyn/Library/CloudStorage/OneDrive-Personal/KB-subject-2.csv","legacy","7 1 8 5 6 2","Lentiform Loewenfeld","3.3.12","2","y","0","left","right","right","left","NA","914","60545","38998","914","NA","2","legacy","6","1024","2","48000","-16","experiment","2","even","1","428983","425687","426748","865","174213","426754","407274","876","135214","430994","431909","427767","61438","430994","NA","Sternberg task","44","40196","55","yes","1024"
"80.35714285714286","80.35714285714286","730.9821428571429","730.9821428571429","black","experiment","legacy","legacy","legacy","0","uniform","1","undefined","1","right","55","55","55","0","0","55","55","0","0","55","55","55","0","55","0","Tue Oct 18 10:53:12 2022","The main experiment item","yes","Sternbergtask.osexp","/Users/keelyn/Library/CloudStorage/OneDrive-Personal","no","mono","no","18","no","white","no","yes","768","legacy","43","11","/Users/keelyn/Library/CloudStorage/OneDrive-Personal/KB-subject-2.csv","legacy","6 9 4 5 3 2","Lentiform Loewenfeld","3.3.12","0","n","0","right","right","right","right","NA","739","60545","38998","739","NA","2","legacy","6","1024","2","48000","-16","experiment","2","even","8","435210","431914","432976","865","174213","432982","407274","876","135214","437220","437959","433995","61438","437220","NA","Sternberg task","45","40935","56","yes","1024"
"80.70175438596492","80.70175438596492","729.6140350877193","729.6140350877193","black","experiment","legacy","legacy","legacy","0","uniform","1","undefined","1","left","56","56","56","0","0","56","56","0","0","56","56","56","0","56","0","Tue Oct 18 10:53:12 2022","The main experiment item","yes","Sternbergtask.osexp","/Users/keelyn/Library/CloudStorage/OneDrive-Personal","no","mono","no","18","no","white","no","yes","768","legacy","44","11","/Users/keelyn/Library/CloudStorage/OneDrive-Personal/KB-subject-2.csv","legacy","6 7 8 5","Lentiform Loewenfeld","3.3.12","3","y","0","left","right","right","left","NA","653","60545","38998","653","NA","2","legacy","4","1024","2","48000","-16","experiment","2","even","8","441259","437964","439025","865","174213","439031","407274","876","135214","443275","443929","440043","61438","443274","NA","Sternberg task","46","41588","57","yes","1024"
"81.03448275862068","81.03448275862068","738.1896551724138","738.1896551724138","black","experiment","legacy","legacy","legacy","0","uniform","1","undefined","1","right","57","57","57","0","0","57","57","0","0","57","57","57","0","57","0","Tue Oct 18 10:53:12 2022","The main experiment item","yes","Sternbergtask.osexp","/Users/keelyn/Library/CloudStorage/OneDrive-Personal","no","mono","no","18","no","white","no","yes","768","legacy","45","11","/Users/keelyn/Library/CloudStorage/OneDrive-Personal/KB-subject-2.csv","legacy","1 6 4 3 9 7","Lentiform Loewenfeld","3.3.12","0","n","0","right","right","right","right","NA","1227","60545","38998","1227","NA","2","legacy","6","1024","2","48000","-16","experiment","2","even","8","447230","443934","444996","865","174213","445002","407274","876","135214","449241","450469","446014","61438","449241","NA","Sternberg task","47","42815","58","yes","1024"
"81.35593220338983","81.35593220338983","740.1864406779661","740.1864406779661","black","experiment","legacy","legacy","legacy","0","uniform","1","undefined","1","left","58","58","58","0","0","58","58","0","0","58","58","58","0","58","0","Tue Oct 18 10:53:12 2022","The main experiment item","yes","Sternbergtask.osexp","/Users/keelyn/Library/CloudStorage/OneDrive-Personal","no","mono","no","18","no","white","no","yes","768","legacy","46","11","/Users/keelyn/Library/CloudStorage/OneDrive-Personal/KB-subject-2.csv","legacy","7 6","Lentiform Loewenfeld","3.3.12","2","y","0","left","right","right","left","NA","856","60545","38998","856","NA","2","legacy","2","1024","2","48000","-16","experiment","2","even","6","453770","450474","451535","865","174213","451541","407274","876","135214","455781","456638","452554","61438","455781","NA","Sternberg task","48","43671","59","yes","1024"
"80","80","742.6333333333333","742.6333333333333","black","experiment","legacy","legacy","legacy","0","uniform","0","undefined","0","left","59","59","59","0","0","59","59","0","0","59","59","59","0","59","0","Tue Oct 18 10:53:12 2022","The main experiment item","yes","Sternbergtask.osexp","/Users/keelyn/Library/CloudStorage/OneDrive-Personal","no","mono","no","18","no","white","no","yes","768","legacy","47","11","/Users/keelyn/Library/CloudStorage/OneDrive-Personal/KB-subject-2.csv","legacy","8 9 5 7 1 6","Lentiform Loewenfeld","3.3.12","4","y","0","right","right","right","right","NA","887","60545","38998","887","NA","2","legacy","6","1024","2","48000","-16","experiment","2","even","7","459934","456643","457701","865","174213","457706","407274","876","135214","461944","462832","458719","61438","461944","NA","Sternberg task","48","44558","60","yes","1024"
"80.32786885245902","80.32786885245902","744.688524590164","744.688524590164","black","experiment","legacy","legacy","legacy","0","uniform","1","undefined","1","left","60","60","60","0","0","60","60","0","0","60","60","60","0","60","0","Tue Oct 18 10:53:12 2022","The main experiment item","yes","Sternbergtask.osexp","/Users/keelyn/Library/CloudStorage/OneDrive-Personal","no","mono","no","18","no","white","no","yes","768","legacy","48","11","/Users/keelyn/Library/CloudStorage/OneDrive-Personal/KB-subject-2.csv","legacy","6 8 9 3 4 9","Lentiform Loewenfeld","3.3.12","5","y","0","left","right","right","left","NA","868","60545","38998","868","NA","2","legacy","6","1024","2","48000","-16","experiment","2","even","4","466133","456643","463898","865","174213","463904","462837","876","135214","468145","469013","464917","61438","468145","NA","Sternberg task","49","45426","61","yes","1024"
"80.64516129032258","80.64516129032258","743.8064516129032","743.8064516129032","black","experiment","legacy","legacy","legacy","0","uniform","1","undefined","1","right","61","61","61","0","0","61","61","0","0","61","61","61","0","61","0","Tue Oct 18 10:53:12 2022","The main experiment item","yes","Sternbergtask.osexp","/Users/keelyn/Library/CloudStorage/OneDrive-Personal","no","mono","no","18","no","white","no","yes","768","legacy","49","11","/Users/keelyn/Library/CloudStorage/OneDrive-Personal/KB-subject-2.csv","legacy","1 4 3 6 5","Lentiform Loewenfeld","3.3.12","0","n","0","right","right","right","right","NA","690","60545","38998","690","NA","2","legacy","5","1024","2","48000","-16","experiment","2","even","8","472314","469019","470080","865","174213","470086","462837","876","135214","474327","475018","471099","61438","474326","NA","Sternberg task","50","46116","62","yes","1024"
"80.95238095238095","80.95238095238095","748.6031746031746","748.6031746031746","black","experiment","legacy","legacy","legacy","0","uniform","1","undefined","1","right","62","62","62","0","0","62","62","0","0","62","62","62","0","62","0","Tue Oct 18 10:53:12 2022","The main experiment item","yes","Sternbergtask.osexp","/Users/keelyn/Library/CloudStorage/OneDrive-Personal","no","mono","no","18","no","white","no","yes","768","legacy","50","11","/Users/keelyn/Library/CloudStorage/OneDrive-Personal/KB-subject-2.csv","legacy","7 1 8 4 9 3","Lentiform Loewenfeld","3.3.12","0","n","0","right","right","right","right","NA","1046","60545","38998","1046","NA","2","legacy","6","1024","2","48000","-16","experiment","2","even","6","478322","475023","476089","865","174213","476094","462837","876","135214","480333","481380","477107","61438","480333","NA","Sternberg task","51","47162","63","yes","1024"
"81.25","81.25","747.96875","747.96875","black","experiment","legacy","legacy","legacy","0","uniform","1","undefined","1","left","63","63","63","0","0","63","63","0","0","63","63","63","0","63","0","Tue Oct 18 10:53:12 2022","The main experiment item","yes","Sternbergtask.osexp","/Users/keelyn/Library/CloudStorage/OneDrive-Personal","no","mono","no","18","no","white","no","yes","768","legacy","51","11","/Users/keelyn/Library/CloudStorage/OneDrive-Personal/KB-subject-2.csv","legacy","8 9 5 6 7","Lentiform Loewenfeld","3.3.12","1","y","0","left","right","right","left","NA","708","60545","38998","708","NA","2","legacy","5","1024","2","48000","-16","experiment","2","even","8","484682","481385","482447","865","174213","482453","462837","876","135214","486699","487408","483466","61438","486699","NA","Sternberg task","52","47870","64","yes","1024"
"81.53846153846153","81.53846153846153","751.123076923077","751.123076923077","black","experiment","legacy","legacy","legacy","0","uniform","1","undefined","1","left","64","64","64","0","0","64","64","0","0","64","64","64","0","64","0","Tue Oct 18 10:53:12 2022","The main experiment item","yes","Sternbergtask.osexp","/Users/keelyn/Library/CloudStorage/OneDrive-Personal","no","mono","no","18","no","white","no","yes","768","legacy","52","11","/Users/keelyn/Library/CloudStorage/OneDrive-Personal/KB-subject-2.csv","legacy","9 3 8 2 1 4","Lentiform Loewenfeld","3.3.12","3","y","0","left","right","right","left","NA","953","60545","38998","953","NA","2","legacy","6","1024","2","48000","-16","experiment","2","even","8","490709","487413","488474","865","174213","488480","462837","876","135214","492721","493674","489493","61438","492720","NA","Sternberg task","53","48823","65","yes","1024"
"81.81818181818181","81.81818181818181","748.0909090909091","748.0909090909091","black","experiment","legacy","legacy","legacy","0","uniform","1","undefined","1","right","65","65","65","0","0","65","65","0","0","65","65","65","0","65","0","Tue Oct 18 10:53:12 2022","The main experiment item","yes","Sternbergtask.osexp","/Users/keelyn/Library/CloudStorage/OneDrive-Personal","no","mono","no","18","no","white","no","yes","768","legacy","53","11","/Users/keelyn/Library/CloudStorage/OneDrive-Personal/KB-subject-2.csv","legacy","4 1","Lentiform Loewenfeld","3.3.12","0","n","0","right","right","right","right","NA","551","60545","38998","551","NA","2","legacy","2","1024","2","48000","-16","experiment","2","even","6","496977","493680","494739","865","174213","494744","462837","876","135214","498989","499541","495757","61438","498989","NA","Sternberg task","54","49374","66","yes","1024"
"82.08955223880596","82.08955223880596","746.9701492537314","746.9701492537314","black","experiment","legacy","legacy","legacy","0","uniform","1","undefined","1","right","66","66","66","0","0","66","66","0","0","66","66","66","0","66","0","Tue Oct 18 10:53:12 2022","The main experiment item","yes","Sternbergtask.osexp","/Users/keelyn/Library/CloudStorage/OneDrive-Personal","no","mono","no","18","no","white","no","yes","768","legacy","54","11","/Users/keelyn/Library/CloudStorage/OneDrive-Personal/KB-subject-2.csv","legacy","1 4 9 2 5","Lentiform Loewenfeld","3.3.12","0","n","0","right","right","right","right","NA","673","60545","38998","673","NA","2","legacy","5","1024","2","48000","-16","experiment","2","even","7","502847","499546","500609","865","174213","500614","462837","876","135214","504858","505532","501632","61438","504858","NA","Sternberg task","55","50047","67","yes","1024"
"82.3529411764706","82.3529411764706","745.9705882352941","745.9705882352941","black","experiment","legacy","legacy","legacy","0","uniform","1","undefined","1","left","67","67","67","0","0","67","67","0","0","67","67","67","0","67","0","Tue Oct 18 10:53:12 2022","The main experiment item","yes","Sternbergtask.osexp","/Users/keelyn/Library/CloudStorage/OneDrive-Personal","no","mono","no","18","no","white","no","yes","768","legacy","55","11","/Users/keelyn/Library/CloudStorage/OneDrive-Personal/KB-subject-2.csv","legacy","8 1 6","Lentiform Loewenfeld","3.3.12","3","y","0","left","right","right","left","NA","679","60545","38998","679","NA","2","legacy","3","1024","2","48000","-16","experiment","2","even","6","508833","505537","506598","865","174213","506604","462837","876","135214","510849","511528","507617","61438","510849","NA","Sternberg task","56","50726","68","yes","1024"
"82.6086956521739","82.6086956521739","744.2463768115942","744.2463768115942","black","experiment","legacy","legacy","legacy","0","uniform","1","undefined","1","right","68","68","68","0","0","68","68","0","0","68","68","68","0","68","0","Tue Oct 18 10:53:12 2022","The main experiment item","yes","Sternbergtask.osexp","/Users/keelyn/Library/CloudStorage/OneDrive-Personal","no","mono","no","18","no","white","no","yes","768","legacy","56","11","/Users/keelyn/Library/CloudStorage/OneDrive-Personal/KB-subject-2.csv","legacy","1 7 8 3 9","Lentiform Loewenfeld","3.3.12","0","n","0","right","right","right","right","NA","627","60545","38998","627","NA","2","legacy","5","1024","2","48000","-16","experiment","2","even","2","514820","511534","512588","865","174213","512593","462837","876","135214","516830","517458","513604","61438","516830","NA","Sternberg task","57","51353","69","yes","1024"
"82.85714285714286","82.85714285714286","741.6714285714286","741.6714285714286","black","experiment","legacy","legacy","legacy","0","uniform","1","undefined","1","right","69","69","69","0","0","69","69","0","0","69","69","69","0","69","0","Tue Oct 18 10:53:12 2022","The main experiment item","yes","Sternbergtask.osexp","/Users/keelyn/Library/CloudStorage/OneDrive-Personal","no","mono","no","18","no","white","no","yes","768","legacy","57","11","/Users/keelyn/Library/CloudStorage/OneDrive-Personal/KB-subject-2.csv","legacy","5 9 2 3","Lentiform Loewenfeld","3.3.12","0","n","0","right","right","right","right","NA","564","60545","38998","564","NA","2","legacy","4","1024","2","48000","-16","experiment","2","even","8","520759","517463","518526","865","174213","518532","462837","876","135214","522772","523337","519544","61438","522772","NA","Sternberg task","58","51917","70","yes","1024"
"83.09859154929578","83.09859154929578","738.2676056338029","738.2676056338029","black","experiment","legacy","legacy","legacy","0","uniform","1","undefined","1","right","70","70","70","0","0","70","70","0","0","70","70","70","0","70","0","Tue Oct 18 10:53:12 2022","The main experiment item","yes","Sternbergtask.osexp","/Users/keelyn/Library/CloudStorage/OneDrive-Personal","no","mono","no","18","no","white","no","yes","768","legacy","58","11","/Users/keelyn/Library/CloudStorage/OneDrive-Personal/KB-subject-2.csv","legacy","7 9","Lentiform Loewenfeld","3.3.12","0","n","0","right","right","right","right","NA","500","60545","38998","500","NA","2","legacy","2","1024","2","48000","-16","experiment","2","even","1","526632","523342","524399","865","174213","524404","462837","876","135214","528644","529145","525417","61438","528644","NA","Sternberg task","59","52417","71","yes","1024"
"83.33333333333333","83.33333333333333","736.6944444444445","736.6944444444445","black","experiment","legacy","legacy","legacy","0","uniform","1","undefined","1","right","71","71","71","0","0","71","71","0","0","71","71","71","0","71","0","Tue Oct 18 10:53:12 2022","The main experiment item","yes","Sternbergtask.osexp","/Users/keelyn/Library/CloudStorage/OneDrive-Personal","no","mono","no","18","no","white","no","yes","768","legacy","59","11","/Users/keelyn/Library/CloudStorage/OneDrive-Personal/KB-subject-2.csv","legacy","6 2 9 3 8 4","Lentiform Loewenfeld","3.3.12","0","n","0","right","right","right","right","NA","625","60545","38998","625","NA","2","legacy","6","1024","2","48000","-16","experiment","2","even","1","532442","529150","530209","865","174213","530214","462837","876","135214","534453","535079","531228","61438","534453","NA","Sternberg task","60","53042","72","yes","1024"
"83.56164383561644","83.56164383561644","737.068493150685","737.068493150685","black","experiment","legacy","legacy","legacy","0","uniform","1","undefined","1","left","72","72","72","0","0","72","72","0","0","72","72","72","0","72","0","Tue Oct 18 10:53:12 2022","The main experiment item","yes","Sternbergtask.osexp","/Users/keelyn/Library/CloudStorage/OneDrive-Personal","no","mono","no","18","no","white","no","yes","768","legacy","60","11","/Users/keelyn/Library/CloudStorage/OneDrive-Personal/KB-subject-2.csv","legacy","1 4 9 3 2 5","Lentiform Loewenfeld","3.3.12","3","y","0","left","right","right","left","NA","764","60545","38998","764","NA","2","legacy","6","1024","2","48000","-16","experiment","2","even","9","538376","535084","536142","865","174213","536147","462837","876","135214","540388","541153","537160","61438","540387","NA","Sternberg task","61","53806","73","yes","1024"
"83.78378378378379","83.78378378378379","736.8108108108108","736.8108108108108","black","experiment","legacy","legacy","legacy","0","uniform","1","undefined","1","left","73","73","73","0","0","73","73","0","0","73","73","73","0","73","0","Tue Oct 18 10:53:12 2022","The main experiment item","yes","Sternbergtask.osexp","/Users/keelyn/Library/CloudStorage/OneDrive-Personal","no","mono","no","18","no","white","no","yes","768","legacy","61","11","/Users/keelyn/Library/CloudStorage/OneDrive-Personal/KB-subject-2.csv","legacy","6 7 9 3 1 2","Lentiform Loewenfeld","3.3.12","1","y","0","left","right","right","left","NA","718","60545","38998","718","NA","2","legacy","6","1024","2","48000","-16","experiment","2","even","6","544456","541158","542221","865","174213","542227","462837","876","135214","546469","547188","543241","61438","546468","NA","Sternberg task","62","54524","74","yes","1024"
"84","84","737.76","737.76","black","experiment","legacy","legacy","legacy","0","uniform","1","undefined","1","right","74","74","74","0","0","74","74","0","0","74","74","74","0","74","0","Tue Oct 18 10:53:12 2022","The main experiment item","yes","Sternbergtask.osexp","/Users/keelyn/Library/CloudStorage/OneDrive-Personal","no","mono","no","18","no","white","no","yes","768","legacy","62","11","/Users/keelyn/Library/CloudStorage/OneDrive-Personal/KB-subject-2.csv","legacy","5 3 8 7 2 4","Lentiform Loewenfeld","3.3.12","0","n","0","right","right","right","right","NA","808","60545","38998","808","NA","2","legacy","6","1024","2","48000","-16","experiment","2","even","9","550477","547193","548244","865","174213","548249","462837","876","135214","552493","553302","549261","61438","552493","NA","Sternberg task","63","55332","75","yes","1024"
"84.21052631578948","84.21052631578948","739.9078947368421","739.9078947368421","black","experiment","legacy","legacy","legacy","0","uniform","1","undefined","1","left","75","75","75","0","0","75","75","0","0","75","75","75","0","75","0","Tue Oct 18 10:53:12 2022","The main experiment item","yes","Sternbergtask.osexp","/Users/keelyn/Library/CloudStorage/OneDrive-Personal","no","mono","no","18","no","white","no","yes","768","legacy","63","11","/Users/keelyn/Library/CloudStorage/OneDrive-Personal/KB-subject-2.csv","legacy","8 9 6 1","Lentiform Loewenfeld","3.3.12","2","y","0","left","right","right","left","NA","901","60545","38998","901","NA","2","legacy","4","1024","2","48000","-16","experiment","2","even","9","556598","553307","554363","865","174213","554369","462837","876","135214","558615","559516","555382","61438","558615","NA","Sternberg task","64","56233","76","yes","1024"
"84.41558441558442","84.41558441558442","738","738","black","experiment","legacy","legacy","legacy","0","uniform","1","undefined","1","right","76","76","76","0","0","76","76","0","0","76","76","76","0","76","0","Tue Oct 18 10:53:12 2022","The main experiment item","yes","Sternbergtask.osexp","/Users/keelyn/Library/CloudStorage/OneDrive-Personal","no","mono","no","18","no","white","no","yes","768","legacy","64","11","/Users/keelyn/Library/CloudStorage/OneDrive-Personal/KB-subject-2.csv","legacy","3 4 2","Lentiform Loewenfeld","3.3.12","0","n","0","right","right","right","right","NA","593","60545","38998","593","NA","2","legacy","3","1024","2","48000","-16","experiment","2","even","5","562818","559521","560584","865","174213","560589","462837","876","135214","564834","565428","561602","61438","564833","NA","Sternberg task","65","56826","77","yes","1024"
"84.61538461538461","84.61538461538461","736.7051282051282","736.7051282051282","black","experiment","legacy","legacy","legacy","0","uniform","1","undefined","1","right","77","77","77","0","0","77","77","0","0","77","77","77","0","77","0","Tue Oct 18 10:53:12 2022","The main experiment item","yes","Sternbergtask.osexp","/Users/keelyn/Library/CloudStorage/OneDrive-Personal","no","mono","no","18","no","white","no","yes","768","legacy","65","11","/Users/keelyn/Library/CloudStorage/OneDrive-Personal/KB-subject-2.csv","legacy","5 7 3","Lentiform Loewenfeld","3.3.12","0","n","0","right","right","right","right","NA","637","60545","38998","637","NA","2","legacy","3","1024","2","48000","-16","experiment","2","even","9","568727","565433","566494","865","174213","566499","462837","876","135214","570740","571378","567511","61438","570740","NA","Sternberg task","66","57463","78","yes","1024"
"84.81012658227849","84.81012658227849","733.6708860759494","733.6708860759494","black","experiment","legacy","legacy","legacy","0","uniform","1","undefined","1","right","78","78","78","0","0","78","78","0","0","78","78","78","0","78","0","Tue Oct 18 10:53:12 2022","The main experiment item","yes","Sternbergtask.osexp","/Users/keelyn/Library/CloudStorage/OneDrive-Personal","no","mono","no","18","no","white","no","yes","768","legacy","66","11","/Users/keelyn/Library/CloudStorage/OneDrive-Personal/KB-subject-2.csv","legacy","5","Lentiform Loewenfeld","3.3.12","0","n","0","right","right","right","right","NA","497","60545","38998","497","NA","2","legacy","1","1024","2","48000","-16","experiment","2","even","8","574680","571383","572444","865","174213","572450","462837","876","135214","576689","577187","573463","61438","576689","NA","Sternberg task","67","57960","79","yes","1024"
"85","85","731.8375","731.8375","black","experiment","legacy","legacy","legacy","0","uniform","1","undefined","1","right","79","79","79","0","0","79","79","0","0","79","79","79","0","79","0","Tue Oct 18 10:53:12 2022","The main experiment item","yes","Sternbergtask.osexp","/Users/keelyn/Library/CloudStorage/OneDrive-Personal","no","mono","no","18","no","white","no","yes","768","legacy","67","11","/Users/keelyn/Library/CloudStorage/OneDrive-Personal/KB-subject-2.csv","legacy","3 9 1","Lentiform Loewenfeld","3.3.12","0","n","0","right","right","right","right","NA","587","60545","38998","587","NA","2","legacy","3","1024","2","48000","-16","experiment","2","even","7","580481","577192","578248","865","174213","578253","462837","876","135214","582491","583078","579266","61438","582491","NA","Sternberg task","68","58547","80","yes","1024"
"85.18518518518519","85.18518518518519","729.5802469135803","729.5802469135803","black","experiment","legacy","legacy","legacy","0","uniform","1","undefined","1","right","80","80","80","0","0","80","80","0","0","80","80","80","0","80","0","Tue Oct 18 10:53:12 2022","The main experiment item","yes","Sternbergtask.osexp","/Users/keelyn/Library/CloudStorage/OneDrive-Personal","no","mono","no","18","no","white","no","yes","768","legacy","68","11","/Users/keelyn/Library/CloudStorage/OneDrive-Personal/KB-subject-2.csv","legacy","7 9 1 6","Lentiform Loewenfeld","3.3.12","0","n","0","right","right","right","right","NA","549","60545","38998","549","NA","2","legacy","4","1024","2","48000","-16","experiment","2","even","4","586379","583084","584145","865","174213","584151","462837","876","135214","588392","588941","585164","61438","588392","NA","Sternberg task","69","59096","81","yes","1024"
"85.36585365853658","85.36585365853658","727.6341463414634","727.6341463414634","black","experiment","legacy","legacy","legacy","0","uniform","1","undefined","1","left","81","81","81","0","0","81","81","0","0","81","81","81","0","81","0","Tue Oct 18 10:53:12 2022","The main experiment item","yes","Sternbergtask.osexp","/Users/keelyn/Library/CloudStorage/OneDrive-Personal","no","mono","no","18","no","white","no","yes","768","legacy","69","11","/Users/keelyn/Library/CloudStorage/OneDrive-Personal/KB-subject-2.csv","legacy","9 5 8 1","Lentiform Loewenfeld","3.3.12","2","y","0","left","right","right","left","NA","570","60545","38998","570","NA","2","legacy","4","1024","2","48000","-16","experiment","2","even","5","592247","588946","590008","865","174213","590014","462837","876","135214","594260","594831","591026","61438","594260","NA","Sternberg task","70","59666","82","yes","1024"
"85.5421686746988","85.5421686746988","727.7831325301205","727.7831325301205","black","experiment","legacy","legacy","legacy","0","uniform","1","undefined","1","left","82","82","82","0","0","82","82","0","0","82","82","82","0","82","0","Tue Oct 18 10:53:12 2022","The main experiment item","yes","Sternbergtask.osexp","/Users/keelyn/Library/CloudStorage/OneDrive-Personal","no","mono","no","18","no","white","no","yes","768","legacy","70","11","/Users/keelyn/Library/CloudStorage/OneDrive-Personal/KB-subject-2.csv","legacy","3 5 7 1","Lentiform Loewenfeld","3.3.12","3","y","0","left","right","right","left","NA","740","60545","38998","740","NA","2","legacy","4","1024","2","48000","-16","experiment","2","even","7","598125","594836","595893","865","174213","595899","462837","876","135214","600135","600876","596910","61438","600135","NA","Sternberg task","71","60406","83","yes","1024"
"85.71428571428571","85.71428571428571","727.0119047619048","727.0119047619048","black","experiment","legacy","legacy","legacy","0","uniform","1","undefined","1","right","83","83","83","0","0","83","83","0","0","83","83","83","0","83","0","Tue Oct 18 10:53:12 2022","The main experiment item","yes","Sternbergtask.osexp","/Users/keelyn/Library/CloudStorage/OneDrive-Personal","no","mono","no","18","no","white","no","yes","768","legacy","71","11","/Users/keelyn/Library/CloudStorage/OneDrive-Personal/KB-subject-2.csv","legacy","9 5 3 2 8 6","Lentiform Loewenfeld","3.3.12","0","n","0","right","right","right","right","NA","663","60545","38998","663","NA","2","legacy","6","1024","2","48000","-16","experiment","2","even","7","604184","600881","601943","865","174213","601949","462837","876","135214","606199","606862","602968","61438","606199","NA","Sternberg task","72","61069","84","yes","1024"
"85.88235294117646","85.88235294117646","723.2705882352941","723.2705882352941","black","experiment","legacy","legacy","legacy","0","uniform","1","undefined","1","left","84","84","84","0","0","84","84","0","0","84","84","84","0","84","0","Tue Oct 18 10:53:12 2022","The main experiment item","yes","Sternbergtask.osexp","/Users/keelyn/Library/CloudStorage/OneDrive-Personal","no","mono","no","18","no","white","no","yes","768","legacy","72","11","/Users/keelyn/Library/CloudStorage/OneDrive-Personal/KB-subject-2.csv","legacy","7","Lentiform Loewenfeld","3.3.12","1","y","0","left","right","right","left","NA","409","60545","38998","409","NA","2","legacy","1","1024","2","48000","-16","experiment","2","even","7","610159","606868","607925","865","174213","607931","462837","876","135214","612169","612579","608944","61438","612169","NA","Sternberg task","73","61478","85","yes","1024"
"86.04651162790698","86.04651162790698","726.8372093023256","726.8372093023256","black","experiment","legacy","legacy","legacy","0","uniform","1","undefined","1","right","85","85","85","0","0","85","85","0","0","85","85","85","0","85","0","Tue Oct 18 10:53:12 2022","The main experiment item","yes","Sternbergtask.osexp","/Users/keelyn/Library/CloudStorage/OneDrive-Personal","no","mono","no","18","no","white","no","yes","768","legacy","73","11","/Users/keelyn/Library/CloudStorage/OneDrive-Personal/KB-subject-2.csv","legacy","8 4 3 9","Lentiform Loewenfeld","3.3.12","0","n","0","right","right","right","right","NA","1030","60545","38998","1030","NA","2","legacy","4","1024","2","48000","-16","experiment","2","even","5","615879","612584","613645","865","174213","613651","462837","876","135214","617890","618921","614664","61438","617890","NA","Sternberg task","74","62508","86","yes","1024"
"86.20689655172414","86.20689655172414","725.1724137931035","725.1724137931035","black","experiment","legacy","legacy","legacy","0","uniform","1","undefined","1","right","86","86","86","0","0","86","86","0","0","86","86","86","0","86","0","Tue Oct 18 10:53:12 2022","The main experiment item","yes","Sternbergtask.osexp","/Users/keelyn/Library/CloudStorage/OneDrive-Personal","no","mono","no","18","no","white","no","yes","768","legacy","74","11","/Users/keelyn/Library/CloudStorage/OneDrive-Personal/KB-subject-2.csv","legacy","1","Lentiform Loewenfeld","3.3.12","0","n","0","right","right","right","right","NA","582","60545","38998","582","NA","2","legacy","1","1024","2","48000","-16","experiment","2","even","7","622214","618926","619982","865","174213","619987","462837","876","135214","624227","624810","620999","61438","624227","NA","Sternberg task","75","63090","87","yes","1024"
"86.36363636363636","86.36363636363636","724.4772727272727","724.4772727272727","black","experiment","legacy","legacy","legacy","0","uniform","1","undefined","1","left","87","87","87","0","0","87","87","0","0","87","87","87","0","87","0","Tue Oct 18 10:53:12 2022","The main experiment item","yes","Sternbergtask.osexp","/Users/keelyn/Library/CloudStorage/OneDrive-Personal","no","mono","no","18","no","white","no","yes","768","legacy","75","11","/Users/keelyn/Library/CloudStorage/OneDrive-Personal/KB-subject-2.csv","legacy","4 7 6 8 2 3","Lentiform Loewenfeld","3.3.12","6","y","0","left","right","right","left","NA","664","60545","38998","664","NA","2","legacy","6","1024","2","48000","-16","experiment","2","even","3","628105","624815","625872","865","174213","625878","462837","876","135214","630117","630782","626890","61438","630116","NA","Sternberg task","76","63754","88","yes","1024"
"86.51685393258427","86.51685393258427","725.4719101123595","725.4719101123595","black","experiment","legacy","legacy","legacy","0","uniform","1","undefined","1","left","88","88","88","0","0","88","88","0","0","88","88","88","0","88","0","Tue Oct 18 10:53:12 2022","The main experiment item","yes","Sternbergtask.osexp","/Users/keelyn/Library/CloudStorage/OneDrive-Personal","no","mono","no","18","no","white","no","yes","768","legacy","76","11","/Users/keelyn/Library/CloudStorage/OneDrive-Personal/KB-subject-2.csv","legacy","3 5 4 7","Lentiform Loewenfeld","3.3.12","1","y","0","left","right","right","left","NA","813","60545","38998","813","NA","2","legacy","4","1024","2","48000","-16","experiment","2","even","3","634078","630787","631845","865","174213","631850","462837","876","135214","636090","636904","632862","61438","636089","NA","Sternberg task","77","64567","89","yes","1024"
"86.66666666666667","86.66666666666667","722.8555555555556","722.8555555555556","black","experiment","legacy","legacy","legacy","0","uniform","1","undefined","1","left","89","89","89","0","0","89","89","0","0","89","89","89","0","89","0","Tue Oct 18 10:53:12 2022","The main experiment item","yes","Sternbergtask.osexp","/Users/keelyn/Library/CloudStorage/OneDrive-Personal","no","mono","no","18","no","white","no","yes","768","legacy","77","11","/Users/keelyn/Library/CloudStorage/OneDrive-Personal/KB-subject-2.csv","legacy","8 7 3","Lentiform Loewenfeld","3.3.12","1","y","0","left","right","right","left","NA","490","60545","38998","490","NA","2","legacy","3","1024","2","48000","-16","experiment","2","even","8","640209","636909","637972","865","174213","637978","462837","876","135214","642221","642711","638991","61438","642220","NA","Sternberg task","78","65057","90","yes","1024"
"86.81318681318682","86.81318681318682","719.9560439560439","719.9560439560439","black","experiment","legacy","legacy","legacy","0","uniform","1","undefined","1","right","90","90","90","0","0","90","90","0","0","90","90","90","0","90","0","Tue Oct 18 10:53:12 2022","The main experiment item","yes","Sternbergtask.osexp","/Users/keelyn/Library/CloudStorage/OneDrive-Personal","no","mono","no","18","no","white","no","yes","768","legacy","78","11","/Users/keelyn/Library/CloudStorage/OneDrive-Personal/KB-subject-2.csv","legacy","7 1","Lentiform Loewenfeld","3.3.12","0","n","0","right","right","right","right","NA","459","60545","38998","459","NA","2","legacy","2","1024","2","48000","-16","experiment","2","even","8","646017","642716","643777","865","174213","643783","462837","876","135214","648028","648487","644796","61438","648028","NA","Sternberg task","79","65516","91","yes","1024"
"86.95652173913044","86.95652173913044","718.1521739130435","718.1521739130435","black","experiment","legacy","legacy","legacy","0","uniform","1","undefined","1","left","91","91","91","0","0","91","91","0","0","91","91","91","0","91","0","Tue Oct 18 10:53:12 2022","The main experiment item","yes","Sternbergtask.osexp","/Users/keelyn/Library/CloudStorage/OneDrive-Personal","no","mono","no","18","no","white","no","yes","768","legacy","79","11","/Users/keelyn/Library/CloudStorage/OneDrive-Personal/KB-subject-2.csv","legacy","9 1 7 2","Lentiform Loewenfeld","3.3.12","2","y","0","left","right","right","left","NA","554","60545","38998","554","NA","2","legacy","4","1024","2","48000","-16","experiment","2","even","1","651789","648493","649555","865","174213","649560","462837","876","135214","653800","654355","650574","61438","653800","NA","Sternberg task","80","66070","92","yes","1024"
"87.09677419354838","87.09677419354838","715.247311827957","715.247311827957","black","experiment","legacy","legacy","legacy","0","uniform","1","undefined","1","left","92","92","92","0","0","92","92","0","0","92","92","92","0","92","0","Tue Oct 18 10:53:12 2022","The main experiment item","yes","Sternbergtask.osexp","/Users/keelyn/Library/CloudStorage/OneDrive-Personal","no","mono","no","18","no","white","no","yes","768","legacy","80","11","/Users/keelyn/Library/CloudStorage/OneDrive-Personal/KB-subject-2.csv","legacy","3 4","Lentiform Loewenfeld","3.3.12","1","y","0","left","right","right","left","NA","448","60545","38998","448","NA","2","legacy","2","1024","2","48000","-16","experiment","2","even","3","657656","654360","655420","865","174213","655425","462837","876","135214","659667","660116","656439","61438","659667","NA","Sternberg task","81","66518","93","yes","1024"
"87.23404255319149","87.23404255319149","714.063829787234","714.063829787234","black","experiment","legacy","legacy","legacy","0","uniform","1","undefined","1","right","93","93","93","0","0","93","93","0","0","93","93","93","0","93","0","Tue Oct 18 10:53:12 2022","The main experiment item","yes","Sternbergtask.osexp","/Users/keelyn/Library/CloudStorage/OneDrive-Personal","no","mono","no","18","no","white","no","yes","768","legacy","81","11","/Users/keelyn/Library/CloudStorage/OneDrive-Personal/KB-subject-2.csv","legacy","7 1 5 6 3","Lentiform Loewenfeld","3.3.12","0","n","0","right","right","right","right","NA","604","60545","38998","604","NA","2","legacy","5","1024","2","48000","-16","experiment","2","even","8","663421","660121","661184","865","174213","661189","462837","876","135214","665433","666038","662205","61438","665433","NA","Sternberg task","82","67122","94","yes","1024"
"87.36842105263158","87.36842105263158","714.8947368421053","714.8947368421053","black","experiment","legacy","legacy","legacy","0","uniform","1","undefined","1","right","94","94","94","0","0","94","94","0","0","94","94","94","0","94","0","Tue Oct 18 10:53:12 2022","The main experiment item","yes","Sternbergtask.osexp","/Users/keelyn/Library/CloudStorage/OneDrive-Personal","no","mono","no","18","no","white","no","yes","768","legacy","82","11","/Users/keelyn/Library/CloudStorage/OneDrive-Personal/KB-subject-2.csv","legacy","8 5 4 2 9 6","Lentiform Loewenfeld","3.3.12","0","n","0","right","right","right","right","NA","793","60545","38998","793","NA","2","legacy","6","1024","2","48000","-16","experiment","2","even","3","669337","666043","667102","865","174213","667108","462837","876","135214","671352","672146","668121","61438","671352","NA","Sternberg task","83","67915","95","yes","1024"
"87.5","87.5","716","716","black","experiment","legacy","legacy","legacy","0","uniform","1","undefined","1","right","95","95","95","0","0","95","95","0","0","95","95","95","0","95","0","Tue Oct 18 10:53:12 2022","The main experiment item","yes","Sternbergtask.osexp","/Users/keelyn/Library/CloudStorage/OneDrive-Personal","no","mono","no","18","no","white","no","yes","768","legacy","83","11","/Users/keelyn/Library/CloudStorage/OneDrive-Personal/KB-subject-2.csv","legacy","2 5 1 4","Lentiform Loewenfeld","3.3.12","0","n","0","right","right","right","right","NA","821","60545","38998","821","NA","2","legacy","4","1024","2","48000","-16","experiment","2","even","6","675445","672151","673212","865","174213","673217","462837","876","135214","677457","678279","674230","61438","677457","NA","Sternberg task","84","68736","96","yes","1024"
"87.62886597938144","87.62886597938144","719.1443298969073","719.1443298969073","black","experiment","legacy","legacy","legacy","0","uniform","1","undefined","1","right","96","96","96","0","0","96","96","0","0","96","96","96","0","96","0","Tue Oct 18 10:53:12 2022","The main experiment item","yes","Sternbergtask.osexp","/Users/keelyn/Library/CloudStorage/OneDrive-Personal","no","mono","no","18","no","white","no","yes","768","legacy","84","11","/Users/keelyn/Library/CloudStorage/OneDrive-Personal/KB-subject-2.csv","legacy","7 8 6 1","Lentiform Loewenfeld","3.3.12","0","n","0","right","right","right","right","NA","1021","60545","38998","1021","NA","2","legacy","4","1024","2","48000","-16","experiment","2","even","3","681582","678284","679343","865","174213","679349","462837","876","135214","683594","684616","680366","61438","683594","NA","Sternberg task","85","69757","97","yes","1024"
"87.75510204081633","87.75510204081633","717.734693877551","717.734693877551","black","experiment","legacy","legacy","legacy","0","uniform","1","undefined","1","left","97","97","97","0","0","97","97","0","0","97","97","97","0","97","0","Tue Oct 18 10:53:12 2022","The main experiment item","yes","Sternbergtask.osexp","/Users/keelyn/Library/CloudStorage/OneDrive-Personal","no","mono","no","18","no","white","no","yes","768","legacy","85","11","/Users/keelyn/Library/CloudStorage/OneDrive-Personal/KB-subject-2.csv","legacy","3 9 7 6 4","Lentiform Loewenfeld","3.3.12","3","y","0","left","right","right","left","NA","581","60545","38998","581","NA","2","legacy","5","1024","2","48000","-16","experiment","2","even","7","687919","684621","685683","865","174213","685689","462837","876","135214","689928","690510","686703","61438","689927","NA","Sternberg task","86","70338","98","yes","1024"
"87.87878787878788","87.87878787878788","715.10101010101","715.10101010101","black","experiment","legacy","legacy","legacy","0","uniform","1","undefined","1","left","98","98","98","0","0","98","98","0","0","98","98","98","0","98","0","Tue Oct 18 10:53:12 2022","The main experiment item","yes","Sternbergtask.osexp","/Users/keelyn/Library/CloudStorage/OneDrive-Personal","no","mono","no","18","no","white","no","yes","768","legacy","86","11","/Users/keelyn/Library/CloudStorage/OneDrive-Personal/KB-subject-2.csv","legacy","8 3","Lentiform Loewenfeld","3.3.12","2","y","0","left","right","right","left","NA","457","60545","38998","457","NA","2","legacy","2","1024","2","48000","-16","experiment","2","even","3","693801","690515","691569","865","174213","691574","462837","876","135214","695813","696271","692586","61438","695813","NA","Sternberg task","87","70795","99","yes","1024"
"88","88","714.65","714.65","black","experiment","legacy","legacy","legacy","0","uniform","1","undefined","1","left","99","99","99","0","0","99","99","0","0","99","99","99","0","99","0","Tue Oct 18 10:53:12 2022","The main experiment item","yes","Sternbergtask.osexp","/Users/keelyn/Library/CloudStorage/OneDrive-Personal","no","mono","no","18","no","white","no","yes","768","legacy","87","11","/Users/keelyn/Library/CloudStorage/OneDrive-Personal/KB-subject-2.csv","legacy","6 5","Lentiform Loewenfeld","3.3.12","2","y","0","left","right","right","left","NA","670","60545","38998","670","NA","2","legacy","2","1024","2","48000","-16","experiment","2","even","5","699574","696276","697337","865","174213","697343","462837","876","135214","701583","702254","698359","61438","701583","NA","Sternberg task","88","71465","100","yes","1024"
"88.11881188118812","88.11881188118812","715.2772277227723","715.2772277227723","black","experiment","legacy","legacy","legacy","0","uniform","1","undefined","1","right","100","100","100","0","0","100","100","0","0","100","100","100","0","100","0","Tue Oct 18 10:53:12 2022","The main experiment item","yes","Sternbergtask.osexp","/Users/keelyn/Library/CloudStorage/OneDrive-Personal","no","mono","no","18","no","white","no","yes","768","legacy","88","11","/Users/keelyn/Library/CloudStorage/OneDrive-Personal/KB-subject-2.csv","legacy","9 8 2 7 4","Lentiform Loewenfeld","3.3.12","0","n","0","right","right","right","right","NA","778","60545","38998","778","NA","2","legacy","5","1024","2","48000","-16","experiment","2","even","5","705555","702259","703320","865","174213","703326","462837","876","135214","707566","708345","704339","61438","707566","NA","Sternberg task","89","72243","101","yes","1024"
"88.23529411764706","88.23529411764706","719.1274509803922","719.1274509803922","black","experiment","legacy","legacy","legacy","0","uniform","1","undefined","1","right","101","101","101","0","0","101","101","0","0","101","101","101","0","101","0","Tue Oct 18 10:53:12 2022","The main experiment item","yes","Sternbergtask.osexp","/Users/keelyn/Library/CloudStorage/OneDrive-Personal","no","mono","no","18","no","white","no","yes","768","legacy","89","11","/Users/keelyn/Library/CloudStorage/OneDrive-Personal/KB-subject-2.csv","legacy","2 8 9 4 1","Lentiform Loewenfeld","3.3.12","0","n","0","right","right","right","right","NA","1108","60545","38998","1108","NA","2","legacy","5","1024","2","48000","-16","experiment","2","even","5","711641","708350","709404","865","174213","709409","462837","876","135214","713655","714764","710425","61438","713655","NA","Sternberg task","90","73351","102","yes","1024"
"88.3495145631068","88.3495145631068","716.8058252427185","716.8058252427185","black","experiment","legacy","legacy","legacy","0","uniform","1","undefined","1","right","102","102","102","0","0","102","102","0","0","102","102","102","0","102","0","Tue Oct 18 10:53:12 2022","The main experiment item","yes","Sternbergtask.osexp","/Users/keelyn/Library/CloudStorage/OneDrive-Personal","no","mono","no","18","no","white","no","yes","768","legacy","90","11","/Users/keelyn/Library/CloudStorage/OneDrive-Personal/KB-subject-2.csv","legacy","5 2","Lentiform Loewenfeld","3.3.12","0","n","0","right","right","right","right","NA","480","60545","38998","480","NA","2","legacy","2","1024","2","48000","-16","experiment","2","even","7","718067","714769","715834","865","174213","715840","462837","876","135214","720078","720559","716852","61438","720078","NA","Sternberg task","91","73831","103","yes","1024"
"88.46153846153847","88.46153846153847","715.6730769230769","715.6730769230769","black","experiment","legacy","legacy","legacy","0","uniform","1","undefined","1","left","103","103","103","0","0","103","103","0","0","103","103","103","0","103","0","Tue Oct 18 10:53:12 2022","The main experiment item","yes","Sternbergtask.osexp","/Users/keelyn/Library/CloudStorage/OneDrive-Personal","no","mono","no","18","no","white","no","yes","768","legacy","91","11","/Users/keelyn/Library/CloudStorage/OneDrive-Personal/KB-subject-2.csv","legacy","9 5 3 8 4","Lentiform Loewenfeld","3.3.12","1","y","0","left","right","right","left","NA","599","60545","38998","599","NA","2","legacy","5","1024","2","48000","-16","experiment","2","even","9","723858","720564","721623","865","174213","721629","462837","876","135214","725870","726470","722643","61438","725870","NA","Sternberg task","92","74430","104","yes","1024"
"88.57142857142857","88.57142857142857","714.1809523809524","714.1809523809524","black","experiment","legacy","legacy","legacy","0","uniform","1","undefined","1","right","104","104","104","0","0","104","104","0","0","104","104","104","0","104","0","Tue Oct 18 10:53:12 2022","The main experiment item","yes","Sternbergtask.osexp","/Users/keelyn/Library/CloudStorage/OneDrive-Personal","no","mono","no","18","no","white","no","yes","768","legacy","92","11","/Users/keelyn/Library/CloudStorage/OneDrive-Personal/KB-subject-2.csv","legacy","2 8 7 9 5 3","Lentiform Loewenfeld","3.3.12","0","n","0","right","right","right","right","NA","559","60545","38998","559","NA","2","legacy","6","1024","2","48000","-16","experiment","2","even","6","729768","726475","727534","865","174213","727540","462837","876","135214","731779","732339","728551","61438","731779","NA","Sternberg task","93","74989","105","yes","1024"
"88.67924528301887","88.67924528301887","714.3679245283018","714.3679245283018","black","experiment","legacy","legacy","legacy","0","uniform","1","undefined","1","right","105","105","105","0","0","105","105","0","0","105","105","105","0","105","0","Tue Oct 18 10:53:12 2022","The main experiment item","yes","Sternbergtask.osexp","/Users/keelyn/Library/CloudStorage/OneDrive-Personal","no","mono","no","18","no","white","no","yes","768","legacy","93","11","/Users/keelyn/Library/CloudStorage/OneDrive-Personal/KB-subject-2.csv","legacy","7 6 4 8 1 2","Lentiform Loewenfeld","3.3.12","0","n","0","right","right","right","right","NA","734","60545","38998","734","NA","2","legacy","6","1024","2","48000","-16","experiment","2","even","9","735642","732345","733407","865","174213","733413","462837","876","135214","737655","738390","734426","61438","737655","NA","Sternberg task","94","75723","106","yes","1024"
"88.78504672897196","88.78504672897196","717.2429906542056","717.2429906542056","black","experiment","legacy","legacy","legacy","0","uniform","1","undefined","1","left","106","106","106","0","0","106","106","0","0","106","106","106","0","106","0","Tue Oct 18 10:53:12 2022","The main experiment item","yes","Sternbergtask.osexp","/Users/keelyn/Library/CloudStorage/OneDrive-Personal","no","mono","no","18","no","white","no","yes","768","legacy","94","11","/Users/keelyn/Library/CloudStorage/OneDrive-Personal/KB-subject-2.csv","legacy","2 6 1 7 4","Lentiform Loewenfeld","3.3.12","2","y","0","left","right","right","left","NA","1022","60545","38998","1022","NA","2","legacy","5","1024","2","48000","-16","experiment","2","even","6","741678","738395","739446","865","174213","739451","462837","876","135214","743689","744712","740463","61438","743689","NA","Sternberg task","95","76745","107","yes","1024"
"88.88888888888889","88.88888888888889","715.8425925925926","715.8425925925926","black","experiment","legacy","legacy","legacy","0","uniform","1","undefined","1","left","107","107","107","0","0","107","107","0","0","107","107","107","0","107","0","Tue Oct 18 10:53:12 2022","The main experiment item","yes","Sternbergtask.osexp","/Users/keelyn/Library/CloudStorage/OneDrive-Personal","no","mono","no","18","no","white","no","yes","768","legacy","95","11","/Users/keelyn/Library/CloudStorage/OneDrive-Personal/KB-subject-2.csv","legacy","4 1 5","Lentiform Loewenfeld","3.3.12","2","y","0","left","right","right","left","NA","566","60545","38998","566","NA","2","legacy","3","1024","2","48000","-16","experiment","2","even","1","748014","744717","745780","865","174213","745786","462837","876","135214","750030","750597","746799","61438","750030","NA","Sternberg task","96","77311","108","yes","1024"
"88.9908256880734","88.9908256880734","715.4128440366973","715.4128440366973","black","experiment","legacy","legacy","legacy","0","uniform","1","undefined","1","left","108","108","108","0","0","108","108","0","0","108","108","108","0","108","0","Tue Oct 18 10:53:12 2022","The main experiment item","yes","Sternbergtask.osexp","/Users/keelyn/Library/CloudStorage/OneDrive-Personal","no","mono","no","18","no","white","no","yes","768","legacy","96","11","/Users/keelyn/Library/CloudStorage/OneDrive-Personal/KB-subject-2.csv","legacy","2 8 5 1","Lentiform Loewenfeld","3.3.12","4","y","0","left","right","right","left","NA","669","60545","38998","669","NA","2","legacy","4","1024","2","48000","-16","experiment","2","even","1","753902","750602","751663","865","174213","751669","462837","876","135214","755915","756585","752687","61438","755915","NA","Sternberg task","97","77980","109","yes","1024"
"89.0909090909091","89.0909090909091","720.3181818181819","720.3181818181819","black","experiment","legacy","legacy","legacy","0","uniform","1","undefined","1","left","109","109","109","0","0","109","109","0","0","109","109","109","0","109","0","Tue Oct 18 10:53:12 2022","The main experiment item","yes","Sternbergtask.osexp","/Users/keelyn/Library/CloudStorage/OneDrive-Personal","no","mono","no","18","no","white","no","yes","768","legacy","97","11","/Users/keelyn/Library/CloudStorage/OneDrive-Personal/KB-subject-2.csv","legacy","8 5 4 7 3 1","Lentiform Loewenfeld","3.3.12","2","y","0","left","right","right","left","NA","1255","60545","38998","1255","NA","2","legacy","6","1024","2","48000","-16","experiment","2","even","5","759887","756590","757652","865","174213","757658","462837","876","135214","761901","763157","758671","61438","761900","NA","Sternberg task","98","79235","110","yes","1024"
"89.1891891891892","89.1891891891892","721.4864864864865","721.4864864864865","black","experiment","legacy","legacy","legacy","0","uniform","1","undefined","1","right","110","110","110","0","0","110","110","0","0","110","110","110","0","110","0","Tue Oct 18 10:53:12 2022","The main experiment item","yes","Sternbergtask.osexp","/Users/keelyn/Library/CloudStorage/OneDrive-Personal","no","mono","no","18","no","white","no","yes","768","legacy","98","11","/Users/keelyn/Library/CloudStorage/OneDrive-Personal/KB-subject-2.csv","legacy","4 2 7 6 1 3","Lentiform Loewenfeld","3.3.12","0","n","0","right","right","right","right","NA","850","60545","38998","850","NA","2","legacy","6","1024","2","48000","-16","experiment","2","even","8","766460","763162","764225","865","174213","764231","462837","876","135214","768472","769323","765244","61438","768471","NA","Sternberg task","99","80085","111","yes","1024"
