"acc","accuracy","average_response_time","avg_rt","background","block","canvas_backend","clock_backend","color_backend","compensation","coordinates","correct","correct_instruction1","correct_keyboard_response","correct_response","count_ISI","count_correctFeedback","count_experiment","count_experimentalLoop","count_expsequence","count_fixation","count_incorrectFeedback","count_instruction1","count_instruction2","count_instruction3","count_keyboard_response","count_logger","count_memoryset","count_practiceloop","count_probe","datetime","description","disable_garbage_collection","experiment_file","experiment_path","font_bold","font_family","font_italic","font_size","font_underline","foreground","form_clicks","fullscreen","height","keyboard_backend","live_row","live_row_practiceloop","logfile","mouse_backend","numberSet","opensesame_codename","opensesame_version","posInSet","present","repeat_cycle","response","response_instruction1","response_instruction2","response_instruction3","response_keyboard_response","response_time","response_time_instruction1","response_time_instruction2","response_time_instruction3","response_time_keyboard_response","round_decimals","sampler_backend","setSize","sound_buf_size","sound_channels","sound_freq","sound_sample_size","start","subject_nr","subject_parity","target","time_ISI","time_correctFeedback","time_experiment","time_experimentalLoop","time_expsequence","time_fixation","time_incorrectFeedback","time_instruction1","time_instruction2","time_instruction3","time_keyboard_response","time_logger","time_memoryset","time_practiceloop","time_probe","title","total_correct","total_response_time","total_responses","uniform_coordinates","width"
"100","100","687","687","black","practice","legacy","legacy","legacy","0","uniform","1","undefined","1","right","0","0","0","0","0","0","0","0","0","0","0","0","0","0","0","10/15/22 17:05:43","The main experiment item","yes","SternbergTask.osexp","C:/Users/casme/OneDrive/Desktop/Fall 2022","no","mono","no","18","no","white","no","yes","768","legacy","0","0","C:/Users/casme/OneDrive/Desktop/Fall 2022/IC-subjectx-1.csv","legacy","4 1 5","Lentiform Loewenfeld","3.3.12","0","n","0","right","left","NA","NA","right","687","29376","NA","NA","687","2","legacy","3","1024","2","48000","-16","experiment","1","odd","2","34961","NA","2618","NA","32751","32755","NA","2621","NA","NA","36965","37653","33756","31998","36965","Sternberg Task","1","687","1","yes","1024"
"100","100","811","811","black","practice","legacy","legacy","legacy","0","uniform","1","undefined","1","left","1","1","0","0","1","1","1","0","0","0","1","1","1","0","1","10/15/22 17:05:43","The main experiment item","yes","SternbergTask.osexp","C:/Users/casme/OneDrive/Desktop/Fall 2022","no","mono","no","18","no","white","no","yes","768","legacy","1","1","C:/Users/casme/OneDrive/Desktop/Fall 2022/IC-subjectx-1.csv","legacy","1 7 9 8 5","Lentiform Loewenfeld","3.3.12","4","y","0","left","left","NA","NA","left","935","29376","NA","NA","935","2","legacy","5","1024","2","48000","-16","experiment","1","odd","8","40992","37694","2618","NA","38782","38784","NA","2621","NA","NA","42997","43932","39788","31998","42996","Sternberg Task","2","1622","2","yes","1024"
"100","100","1017.33333333","1017.33333333","black","practice","legacy","legacy","legacy","0","uniform","1","undefined","1","left","2","2","0","0","2","2","2","0","0","0","2","2","2","0","2","10/15/22 17:05:43","The main experiment item","yes","SternbergTask.osexp","C:/Users/casme/OneDrive/Desktop/Fall 2022","no","mono","no","18","no","white","no","yes","768","legacy","2","2","C:/Users/casme/OneDrive/Desktop/Fall 2022/IC-subjectx-1.csv","legacy","1 5 2 9","Lentiform Loewenfeld","3.3.12","2","y","0","left","left","NA","NA","left","1430","29376","NA","NA","1430","2","legacy","4","1024","2","48000","-16","experiment","1","odd","5","47210","43938","2618","NA","45000","45002","NA","2621","NA","NA","49213","50644","46006","31998","49213","Sternberg Task","3","3052","3","yes","1024"
"100","100","995.25","995.25","black","practice","legacy","legacy","legacy","0","uniform","1","undefined","1","left","3","3","0","0","3","3","3","0","0","0","3","3","3","0","3","10/15/22 17:05:43","The main experiment item","yes","SternbergTask.osexp","C:/Users/casme/OneDrive/Desktop/Fall 2022","no","mono","no","18","no","white","no","yes","768","legacy","3","3","C:/Users/casme/OneDrive/Desktop/Fall 2022/IC-subjectx-1.csv","legacy","2 9 4","Lentiform Loewenfeld","3.3.12","3","y","0","left","left","NA","NA","left","929","29376","NA","NA","929","2","legacy","3","1024","2","48000","-16","experiment","1","odd","4","53940","50650","2618","NA","51733","51734","NA","2621","NA","NA","55945","56875","52736","31998","55944","Sternberg Task","4","3981","4","yes","1024"
"100","100","919","919","black","practice","legacy","legacy","legacy","0","uniform","1","undefined","1","right","4","4","0","0","4","4","4","0","0","0","4","4","4","0","4","10/15/22 17:05:43","The main experiment item","yes","SternbergTask.osexp","C:/Users/casme/OneDrive/Desktop/Fall 2022","no","mono","no","18","no","white","no","yes","768","legacy","4","4","C:/Users/casme/OneDrive/Desktop/Fall 2022/IC-subjectx-1.csv","legacy","3 1 9 4","Lentiform Loewenfeld","3.3.12","0","n","0","right","left","NA","NA","right","614","29376","NA","NA","614","2","legacy","4","1024","2","48000","-16","experiment","1","odd","6","60173","56881","2618","NA","57962","57964","NA","2621","NA","NA","62177","62791","58968","31998","62177","Sternberg Task","5","4595","5","yes","1024"
"100","100","1046.83333333","1046.83333333","black","practice","legacy","legacy","legacy","0","uniform","1","undefined","1","right","5","5","0","0","5","5","5","0","0","0","5","5","5","0","5","10/15/22 17:05:43","The main experiment item","yes","SternbergTask.osexp","C:/Users/casme/OneDrive/Desktop/Fall 2022","no","mono","no","18","no","white","no","yes","768","legacy","5","5","C:/Users/casme/OneDrive/Desktop/Fall 2022/IC-subjectx-1.csv","legacy","5 7 8 4 1 2","Lentiform Loewenfeld","3.3.12","0","n","0","right","left","NA","NA","right","1686","29376","NA","NA","1686","2","legacy","6","1024","2","48000","-16","experiment","1","odd","6","66090","62798","2618","NA","63881","63882","NA","2621","NA","NA","68093","69780","64886","31998","68092","Sternberg Task","6","6281","6","yes","1024"
"100","100","1012.42857143","1012.42857143","black","practice","legacy","legacy","legacy","0","uniform","1","undefined","1","right","6","6","0","0","6","6","6","0","0","0","6","6","6","0","6","10/15/22 17:05:43","The main experiment item","yes","SternbergTask.osexp","C:/Users/casme/OneDrive/Desktop/Fall 2022","no","mono","no","18","no","white","no","yes","768","legacy","6","6","C:/Users/casme/OneDrive/Desktop/Fall 2022/IC-subjectx-1.csv","legacy","2 1","Lentiform Loewenfeld","3.3.12","0","n","0","right","left","NA","NA","right","806","29376","NA","NA","806","2","legacy","2","1024","2","48000","-16","experiment","1","odd","5","73067","69788","2618","NA","70858","70859","NA","2621","NA","NA","75070","75877","71863","31998","75070","Sternberg Task","7","7087","7","yes","1024"
"100","100","1125.625","1125.625","black","practice","legacy","legacy","legacy","0","uniform","1","undefined","1","right","7","7","0","0","7","7","7","0","0","0","7","7","7","0","7","10/15/22 17:05:43","The main experiment item","yes","SternbergTask.osexp","C:/Users/casme/OneDrive/Desktop/Fall 2022","no","mono","no","18","no","white","no","yes","768","legacy","7","7","C:/Users/casme/OneDrive/Desktop/Fall 2022/IC-subjectx-1.csv","legacy","5","Lentiform Loewenfeld","3.3.12","0","n","0","right","left","NA","NA","right","1918","29376","NA","NA","1918","2","legacy","1","1024","2","48000","-16","experiment","1","odd","3","79178","75883","2618","NA","76968","76969","NA","2621","NA","NA","81182","83100","77973","31998","81182","Sternberg Task","8","9005","8","yes","1024"
"100","100","1054.44444444","1054.44444444","black","practice","legacy","legacy","legacy","0","uniform","1","undefined","1","left","8","8","0","0","8","8","8","0","0","0","8","8","8","0","8","10/15/22 17:05:43","The main experiment item","yes","SternbergTask.osexp","C:/Users/casme/OneDrive/Desktop/Fall 2022","no","mono","no","18","no","white","no","yes","768","legacy","8","8","C:/Users/casme/OneDrive/Desktop/Fall 2022/IC-subjectx-1.csv","legacy","6","Lentiform Loewenfeld","3.3.12","1","y","0","left","left","NA","NA","left","485","29376","NA","NA","485","2","legacy","1","1024","2","48000","-16","experiment","1","odd","6","86399","83107","2618","NA","84189","84191","NA","2621","NA","NA","88404","88889","85195","31998","88404","Sternberg Task","9","9490","9","yes","1024"
"100","100","995.2","995.2","black","practice","legacy","legacy","legacy","0","uniform","1","undefined","1","left","9","9","0","0","9","9","9","0","0","0","9","9","9","0","9","10/15/22 17:05:43","The main experiment item","yes","SternbergTask.osexp","C:/Users/casme/OneDrive/Desktop/Fall 2022","no","mono","no","18","no","white","no","yes","768","legacy","9","9","C:/Users/casme/OneDrive/Desktop/Fall 2022/IC-subjectx-1.csv","legacy","4 8","Lentiform Loewenfeld","3.3.12","1","y","0","left","left","NA","NA","left","462","29376","NA","NA","462","2","legacy","2","1024","2","48000","-16","experiment","1","odd","4","92192","88896","2618","NA","89982","89984","NA","2621","NA","NA","94198","94660","90988","31998","94196","Sternberg Task","10","9952","10","yes","1024"
"100","100","975.636363636","975.636363636","black","practice","legacy","legacy","legacy","0","uniform","1","undefined","1","left","10","10","0","0","10","10","10","0","0","0","10","10","10","0","10","10/15/22 17:05:43","The main experiment item","yes","SternbergTask.osexp","C:/Users/casme/OneDrive/Desktop/Fall 2022","no","mono","no","18","no","white","no","yes","768","legacy","10","10","C:/Users/casme/OneDrive/Desktop/Fall 2022/IC-subjectx-1.csv","legacy","4 3 1 7 9 8","Lentiform Loewenfeld","3.3.12","1","y","0","left","left","NA","NA","left","780","29376","NA","NA","780","2","legacy","6","1024","2","48000","-16","experiment","1","odd","4","97956","94668","2618","NA","95745","95746","NA","2621","NA","NA","99960","100740","96751","31998","99960","Sternberg Task","11","10732","11","yes","1024"
"100","100","987.666666667","987.666666667","black","practice","legacy","legacy","legacy","0","uniform","1","undefined","1","right","11","11","0","0","11","11","11","0","0","0","11","11","11","0","11","10/15/22 17:05:43","The main experiment item","yes","SternbergTask.osexp","C:/Users/casme/OneDrive/Desktop/Fall 2022","no","mono","no","18","no","white","no","yes","768","legacy","11","11","C:/Users/casme/OneDrive/Desktop/Fall 2022/IC-subjectx-1.csv","legacy","9 6 7 4 5","Lentiform Loewenfeld","3.3.12","0","n","0","right","left","NA","NA","right","1120","29376","NA","NA","1120","2","legacy","5","1024","2","48000","-16","experiment","1","odd","3","104042","100748","2618","NA","101830","101832","NA","2621","NA","NA","106046","107167","102836","31998","106046","Sternberg Task","12","11852","12","yes","1024"
"100","100","975.769230769","975.769230769","black","experiment","legacy","legacy","legacy","0","uniform","1","undefined","1","left","12","12","0","0","12","12","12","0","0","0","12","12","12","0","12","10/15/22 17:05:43","The main experiment item","yes","SternbergTask.osexp","C:/Users/casme/OneDrive/Desktop/Fall 2022","no","mono","no","18","no","white","no","yes","768","legacy","0","11","C:/Users/casme/OneDrive/Desktop/Fall 2022/IC-subjectx-1.csv","legacy","4 3 2 5 8","Lentiform Loewenfeld","3.3.12","2","y","0","left","left","left","NA","left","833","29376","31659","NA","833","2","legacy","5","1024","2","48000","-16","experiment","1","odd","3","142141","107173","2618","139855","139933","139935","NA","2621","108196","NA","144147","144981","140936","31998","144145","Sternberg Task","13","12685","13","yes","1024"
"100","100","976","976","black","experiment","legacy","legacy","legacy","0","uniform","1","undefined","1","left","13","13","0","0","13","13","13","0","0","0","13","13","13","0","13","10/15/22 17:05:43","The main experiment item","yes","SternbergTask.osexp","C:/Users/casme/OneDrive/Desktop/Fall 2022","no","mono","no","18","no","white","no","yes","768","legacy","1","11","C:/Users/casme/OneDrive/Desktop/Fall 2022/IC-subjectx-1.csv","legacy","8 9 5 7 1 6","Lentiform Loewenfeld","3.3.12","4","y","0","left","left","left","NA","left","979","29376","31659","NA","979","2","legacy","6","1024","2","48000","-16","experiment","1","odd","7","148283","144989","2618","139855","146073","146075","NA","2621","108196","NA","150288","151267","147079","31998","150287","Sternberg Task","14","13664","14","yes","1024"
"100","100","960.6","960.6","black","experiment","legacy","legacy","legacy","0","uniform","1","undefined","1","right","14","14","0","0","14","14","14","0","0","0","14","14","14","0","14","10/15/22 17:05:43","The main experiment item","yes","SternbergTask.osexp","C:/Users/casme/OneDrive/Desktop/Fall 2022","no","mono","no","18","no","white","no","yes","768","legacy","2","11","C:/Users/casme/OneDrive/Desktop/Fall 2022/IC-subjectx-1.csv","legacy","8 5 4 2 9 6","Lentiform Loewenfeld","3.3.12","0","n","0","right","left","left","NA","right","745","29376","31659","NA","745","2","legacy","6","1024","2","48000","-16","experiment","1","odd","3","154568","151272","2618","139855","152357","152359","NA","2621","108196","NA","156574","157319","153363","31998","156573","Sternberg Task","15","14409","15","yes","1024"
"93.75","93.75","1025.625","1025.625","black","experiment","legacy","legacy","legacy","0","uniform","0","undefined","0","right","15","15","0","0","15","15","15","0","0","0","15","15","15","0","15","10/15/22 17:05:43","The main experiment item","yes","SternbergTask.osexp","C:/Users/casme/OneDrive/Desktop/Fall 2022","no","mono","no","18","no","white","no","yes","768","legacy","3","11","C:/Users/casme/OneDrive/Desktop/Fall 2022/IC-subjectx-1.csv","legacy","2 8 9","Lentiform Loewenfeld","3.3.12","0","n","0","None","left","left","NA","None","2001","29376","31659","NA","2001","2","legacy","3","1024","2","48000","-16","experiment","1","odd","6","160610","157326","2618","139855","158398","158399","NA","2621","108196","NA","162613","164614","159404","31998","162613","Sternberg Task","15","16410","16","yes","1024"
"88.2352941176","88.2352941176","1024.52941176","1024.52941176","black","experiment","legacy","legacy","legacy","0","uniform","0","undefined","0","right","16","16","0","0","16","16","16","0","0","0","16","16","16","0","16","10/15/22 17:05:43","The main experiment item","yes","SternbergTask.osexp","C:/Users/casme/OneDrive/Desktop/Fall 2022","no","mono","no","18","no","white","no","yes","768","legacy","4","11","C:/Users/casme/OneDrive/Desktop/Fall 2022/IC-subjectx-1.csv","legacy","4 2 6 9","Lentiform Loewenfeld","3.3.12","0","n","0","left","left","left","NA","left","1007","29376","31659","NA","1007","2","legacy","4","1024","2","48000","-16","experiment","1","odd","7","167910","157326","2618","139855","165701","165703","164620","2621","108196","NA","169915","170922","166706","31998","169915","Sternberg Task","15","17417","17","yes","1024"
"88.8888888889","88.8888888889","1053.38888889","1053.38888889","black","experiment","legacy","legacy","legacy","0","uniform","1","undefined","1","right","17","17","0","0","17","17","17","0","0","0","17","17","17","0","17","10/15/22 17:05:43","The main experiment item","yes","SternbergTask.osexp","C:/Users/casme/OneDrive/Desktop/Fall 2022","no","mono","no","18","no","white","no","yes","768","legacy","5","11","C:/Users/casme/OneDrive/Desktop/Fall 2022/IC-subjectx-1.csv","legacy","2 8 7 9 5 3","Lentiform Loewenfeld","3.3.12","0","n","0","right","left","left","NA","right","1544","29376","31659","NA","1544","2","legacy","6","1024","2","48000","-16","experiment","1","odd","6","174204","157326","2618","139855","171995","171996","170930","2621","108196","NA","176209","177753","173000","31998","176209","Sternberg Task","16","18961","18","yes","1024"
"89.4736842105","89.4736842105","1029.78947368","1029.78947368","black","experiment","legacy","legacy","legacy","0","uniform","1","undefined","1","left","18","18","0","0","18","18","18","0","0","0","18","18","18","0","18","10/15/22 17:05:43","The main experiment item","yes","SternbergTask.osexp","C:/Users/casme/OneDrive/Desktop/Fall 2022","no","mono","no","18","no","white","no","yes","768","legacy","6","11","C:/Users/casme/OneDrive/Desktop/Fall 2022/IC-subjectx-1.csv","legacy","4 1 8 7 5","Lentiform Loewenfeld","3.3.12","3","y","0","left","left","left","NA","left","605","29376","31659","NA","605","2","legacy","5","1024","2","48000","-16","experiment","1","odd","8","181052","177759","2618","139855","178841","178843","170930","2621","108196","NA","183056","183661","179847","31998","183056","Sternberg Task","17","19566","19","yes","1024"
"90","90","1059.85","1059.85","black","experiment","legacy","legacy","legacy","0","uniform","1","undefined","1","left","19","19","0","0","19","19","19","0","0","0","19","19","19","0","19","10/15/22 17:05:43","The main experiment item","yes","SternbergTask.osexp","C:/Users/casme/OneDrive/Desktop/Fall 2022","no","mono","no","18","no","white","no","yes","768","legacy","7","11","C:/Users/casme/OneDrive/Desktop/Fall 2022/IC-subjectx-1.csv","legacy","4 6 2 5 1","Lentiform Loewenfeld","3.3.12","5","y","0","left","left","left","NA","left","1631","29376","31659","NA","1631","2","legacy","5","1024","2","48000","-16","experiment","1","odd","1","186956","183666","2618","139855","184745","184746","170930","2621","108196","NA","188961","190592","185751","31998","188960","Sternberg Task","18","21197","20","yes","1024"
"90.4761904762","90.4761904762","1053.38095238","1053.38095238","black","experiment","legacy","legacy","legacy","0","uniform","1","undefined","1","right","20","20","0","0","20","20","20","0","0","0","20","20","20","0","20","10/15/22 17:05:43","The main experiment item","yes","SternbergTask.osexp","C:/Users/casme/OneDrive/Desktop/Fall 2022","no","mono","no","18","no","white","no","yes","768","legacy","8","11","C:/Users/casme/OneDrive/Desktop/Fall 2022/IC-subjectx-1.csv","legacy","7 8 6 1","Lentiform Loewenfeld","3.3.12","0","n","0","right","left","left","NA","right","924","29376","31659","NA","924","2","legacy","4","1024","2","48000","-16","experiment","1","odd","3","193892","190599","2618","139855","191682","191684","170930","2621","108196","NA","195896","196821","192687","31998","195896","Sternberg Task","19","22121","21","yes","1024"
"90.9090909091","90.9090909091","1039.63636364","1039.63636364","black","experiment","legacy","legacy","legacy","0","uniform","1","undefined","1","right","21","21","0","0","21","21","21","0","0","0","21","21","21","0","21","10/15/22 17:05:43","The main experiment item","yes","SternbergTask.osexp","C:/Users/casme/OneDrive/Desktop/Fall 2022","no","mono","no","18","no","white","no","yes","768","legacy","9","11","C:/Users/casme/OneDrive/Desktop/Fall 2022/IC-subjectx-1.csv","legacy","4 8 1 2","Lentiform Loewenfeld","3.3.12","0","n","0","right","left","left","NA","right","751","29376","31659","NA","751","2","legacy","4","1024","2","48000","-16","experiment","1","odd","7","200101","196828","2618","139855","197893","197895","170930","2621","108196","NA","202106","202858","198896","31998","202105","Sternberg Task","20","22872","22","yes","1024"
"91.3043478261","91.3043478261","1040.2173913","1040.2173913","black","experiment","legacy","legacy","legacy","0","uniform","1","undefined","1","right","22","22","0","0","22","22","22","0","0","0","22","22","22","0","22","10/15/22 17:05:43","The main experiment item","yes","SternbergTask.osexp","C:/Users/casme/OneDrive/Desktop/Fall 2022","no","mono","no","18","no","white","no","yes","768","legacy","10","11","C:/Users/casme/OneDrive/Desktop/Fall 2022/IC-subjectx-1.csv","legacy","3 4 2","Lentiform Loewenfeld","3.3.12","0","n","0","right","left","left","NA","right","1053","29376","31659","NA","1053","2","legacy","3","1024","2","48000","-16","experiment","1","odd","5","206162","202864","2618","139855","203954","203956","170930","2621","108196","NA","208168","209222","204958","31998","208167","Sternberg Task","21","23925","23","yes","1024"
"91.6666666667","91.6666666667","1014.20833333","1014.20833333","black","experiment","legacy","legacy","legacy","0","uniform","1","undefined","1","left","23","23","0","0","23","23","23","0","0","0","23","23","23","0","23","10/15/22 17:05:43","The main experiment item","yes","SternbergTask.osexp","C:/Users/casme/OneDrive/Desktop/Fall 2022","no","mono","no","18","no","white","no","yes","768","legacy","11","11","C:/Users/casme/OneDrive/Desktop/Fall 2022/IC-subjectx-1.csv","legacy","7 1 3","Lentiform Loewenfeld","3.3.12","2","y","0","left","left","left","NA","left","416","29376","31659","NA","416","2","legacy","3","1024","2","48000","-16","experiment","1","odd","1","212514","209228","2618","139855","210304","210306","170930","2621","108196","NA","214519","214936","211310","31998","214519","Sternberg Task","22","24341","24","yes","1024"
"92","92","1006.52","1006.52","black","experiment","legacy","legacy","legacy","0","uniform","1","undefined","1","left","24","24","0","0","24","24","24","0","0","0","24","24","24","0","24","10/15/22 17:05:43","The main experiment item","yes","SternbergTask.osexp","C:/Users/casme/OneDrive/Desktop/Fall 2022","no","mono","no","18","no","white","no","yes","768","legacy","12","11","C:/Users/casme/OneDrive/Desktop/Fall 2022/IC-subjectx-1.csv","legacy","3 2 1 4 7","Lentiform Loewenfeld","3.3.12","2","y","0","left","left","left","NA","left","822","29376","31659","NA","822","2","legacy","5","1024","2","48000","-16","experiment","1","odd","2","218232","214943","2618","139855","216020","216021","170930","2621","108196","NA","220237","221059","217026","31998","220237","Sternberg Task","23","25163","25","yes","1024"
"92.3076923077","92.3076923077","995","995","black","experiment","legacy","legacy","legacy","0","uniform","1","undefined","1","left","25","25","0","0","25","25","25","0","0","0","25","25","25","0","25","10/15/22 17:05:43","The main experiment item","yes","SternbergTask.osexp","C:/Users/casme/OneDrive/Desktop/Fall 2022","no","mono","no","18","no","white","no","yes","768","legacy","13","11","C:/Users/casme/OneDrive/Desktop/Fall 2022/IC-subjectx-1.csv","legacy","8 7 3","Lentiform Loewenfeld","3.3.12","1","y","0","left","left","left","NA","left","707","29376","31659","NA","707","2","legacy","3","1024","2","48000","-16","experiment","1","odd","8","224357","221066","2618","139855","222144","222147","170930","2621","108196","NA","226361","227069","223152","31998","226361","Sternberg Task","24","25870","26","yes","1024"
"92.5925925926","92.5925925926","984.222222222","984.222222222","black","experiment","legacy","legacy","legacy","0","uniform","1","undefined","1","left","26","26","0","0","26","26","26","0","0","0","26","26","26","0","26","10/15/22 17:05:43","The main experiment item","yes","SternbergTask.osexp","C:/Users/casme/OneDrive/Desktop/Fall 2022","no","mono","no","18","no","white","no","yes","768","legacy","14","11","C:/Users/casme/OneDrive/Desktop/Fall 2022/IC-subjectx-1.csv","legacy","2 5 4 8 7","Lentiform Loewenfeld","3.3.12","3","y","0","left","left","left","NA","left","704","29376","31659","NA","704","2","legacy","5","1024","2","48000","-16","experiment","1","odd","4","230351","227074","2618","139855","228139","228141","170930","2621","108196","NA","232353","233057","229145","31998","232352","Sternberg Task","25","26574","27","yes","1024"
"89.2857142857","89.2857142857","991.142857143","991.142857143","black","experiment","legacy","legacy","legacy","0","uniform","0","undefined","0","right","27","27","0","0","27","27","27","0","0","0","27","27","27","0","27","10/15/22 17:05:43","The main experiment item","yes","SternbergTask.osexp","C:/Users/casme/OneDrive/Desktop/Fall 2022","no","mono","no","18","no","white","no","yes","768","legacy","15","11","C:/Users/casme/OneDrive/Desktop/Fall 2022/IC-subjectx-1.csv","legacy","1 6 4 3 9 7","Lentiform Loewenfeld","3.3.12","0","n","0","left","left","left","NA","left","1178","29376","31659","NA","1178","2","legacy","6","1024","2","48000","-16","experiment","1","odd","8","236363","233063","2618","139855","234152","234154","170930","2621","108196","NA","238369","239548","235159","31998","238369","Sternberg Task","25","27752","28","yes","1024"
"89.6551724138","89.6551724138","975.379310345","975.379310345","black","experiment","legacy","legacy","legacy","0","uniform","1","undefined","1","left","28","28","0","0","28","28","28","0","0","0","28","28","28","0","28","10/15/22 17:05:43","The main experiment item","yes","SternbergTask.osexp","C:/Users/casme/OneDrive/Desktop/Fall 2022","no","mono","no","18","no","white","no","yes","768","legacy","16","11","C:/Users/casme/OneDrive/Desktop/Fall 2022/IC-subjectx-1.csv","legacy","3 4","Lentiform Loewenfeld","3.3.12","1","y","0","left","left","left","NA","left","534","29376","31659","NA","534","2","legacy","2","1024","2","48000","-16","experiment","1","odd","3","242854","233063","2618","139855","240645","240646","239554","2621","108196","NA","244858","245393","241649","31998","244858","Sternberg Task","26","28286","29","yes","1024"
"90","90","978.466666667","978.466666667","black","experiment","legacy","legacy","legacy","0","uniform","1","undefined","1","right","29","29","0","0","29","29","29","0","0","0","29","29","29","0","29","10/15/22 17:05:43","The main experiment item","yes","SternbergTask.osexp","C:/Users/casme/OneDrive/Desktop/Fall 2022","no","mono","no","18","no","white","no","yes","768","legacy","17","11","C:/Users/casme/OneDrive/Desktop/Fall 2022/IC-subjectx-1.csv","legacy","8 4 3 9","Lentiform Loewenfeld","3.3.12","0","n","0","right","left","left","NA","right","1068","29376","31659","NA","1068","2","legacy","4","1024","2","48000","-16","experiment","1","odd","5","248688","245399","2618","139855","246481","246483","239554","2621","108196","NA","250692","251760","247486","31998","250692","Sternberg Task","27","29354","30","yes","1024"
"90.3225806452","90.3225806452","970.451612903","970.451612903","black","experiment","legacy","legacy","legacy","0","uniform","1","undefined","1","right","30","30","0","0","30","30","30","0","0","0","30","30","30","0","30","10/15/22 17:05:43","The main experiment item","yes","SternbergTask.osexp","C:/Users/casme/OneDrive/Desktop/Fall 2022","no","mono","no","18","no","white","no","yes","768","legacy","18","11","C:/Users/casme/OneDrive/Desktop/Fall 2022/IC-subjectx-1.csv","legacy","9","Lentiform Loewenfeld","3.3.12","0","n","0","right","left","left","NA","right","730","29376","31659","NA","730","2","legacy","1","1024","2","48000","-16","experiment","1","odd","6","255062","251768","2618","139855","252851","252853","239554","2621","108196","NA","257068","257799","253857","31998","257067","Sternberg Task","28","30084","31","yes","1024"
"90.625","90.625","969.96875","969.96875","black","experiment","legacy","legacy","legacy","0","uniform","1","undefined","1","left","31","31","0","0","31","31","31","0","0","0","31","31","31","0","31","10/15/22 17:05:43","The main experiment item","yes","SternbergTask.osexp","C:/Users/casme/OneDrive/Desktop/Fall 2022","no","mono","no","18","no","white","no","yes","768","legacy","19","11","C:/Users/casme/OneDrive/Desktop/Fall 2022/IC-subjectx-1.csv","legacy","3 5 7 1","Lentiform Loewenfeld","3.3.12","3","y","0","left","left","left","NA","left","955","29376","31659","NA","955","2","legacy","4","1024","2","48000","-16","experiment","1","odd","7","261099","257804","2618","139855","258888","258890","239554","2621","108196","NA","263103","264059","259894","31998","263103","Sternberg Task","29","31039","32","yes","1024"
"90.9090909091","90.9090909091","963.545454545","963.545454545","black","experiment","legacy","legacy","legacy","0","uniform","1","undefined","1","right","32","32","0","0","32","32","32","0","0","0","32","32","32","0","32","10/15/22 17:05:43","The main experiment item","yes","SternbergTask.osexp","C:/Users/casme/OneDrive/Desktop/Fall 2022","no","mono","no","18","no","white","no","yes","768","legacy","20","11","C:/Users/casme/OneDrive/Desktop/Fall 2022/IC-subjectx-1.csv","legacy","6 7 5 9","Lentiform Loewenfeld","3.3.12","0","n","0","right","left","left","NA","right","758","29376","31659","NA","758","2","legacy","4","1024","2","48000","-16","experiment","1","odd","2","267362","264065","2618","139855","265151","265153","239554","2621","108196","NA","269368","270126","266157","31998","269367","Sternberg Task","30","31797","33","yes","1024"
"91.1764705882","91.1764705882","974.352941176","974.352941176","black","experiment","legacy","legacy","legacy","0","uniform","1","undefined","1","left","33","33","0","0","33","33","33","0","0","0","33","33","33","0","33","10/15/22 17:05:43","The main experiment item","yes","SternbergTask.osexp","C:/Users/casme/OneDrive/Desktop/Fall 2022","no","mono","no","18","no","white","no","yes","768","legacy","21","11","C:/Users/casme/OneDrive/Desktop/Fall 2022/IC-subjectx-1.csv","legacy","8 1 6","Lentiform Loewenfeld","3.3.12","3","y","0","left","left","left","NA","left","1331","29376","31659","NA","1331","2","legacy","3","1024","2","48000","-16","experiment","1","odd","6","273420","270133","2618","139855","271209","271211","239554","2621","108196","NA","275424","276755","272215","31998","275424","Sternberg Task","31","33128","34","yes","1024"
"91.4285714286","91.4285714286","971.571428571","971.571428571","black","experiment","legacy","legacy","legacy","0","uniform","1","undefined","1","right","34","34","0","0","34","34","34","0","0","0","34","34","34","0","34","10/15/22 17:05:43","The main experiment item","yes","SternbergTask.osexp","C:/Users/casme/OneDrive/Desktop/Fall 2022","no","mono","no","18","no","white","no","yes","768","legacy","22","11","C:/Users/casme/OneDrive/Desktop/Fall 2022/IC-subjectx-1.csv","legacy","6 8 4","Lentiform Loewenfeld","3.3.12","0","n","0","right","left","left","NA","right","877","29376","31659","NA","877","2","legacy","3","1024","2","48000","-16","experiment","1","odd","1","280056","276761","2618","139855","277847","277849","239554","2621","108196","NA","282059","282936","278852","31998","282059","Sternberg Task","32","34005","35","yes","1024"
"91.6666666667","91.6666666667","967.305555556","967.305555556","black","experiment","legacy","legacy","legacy","0","uniform","1","undefined","1","right","35","35","0","0","35","35","35","0","0","0","35","35","35","0","35","10/15/22 17:05:43","The main experiment item","yes","SternbergTask.osexp","C:/Users/casme/OneDrive/Desktop/Fall 2022","no","mono","no","18","no","white","no","yes","768","legacy","23","11","C:/Users/casme/OneDrive/Desktop/Fall 2022/IC-subjectx-1.csv","legacy","1 4 9 2 5","Lentiform Loewenfeld","3.3.12","0","n","0","right","left","left","NA","right","818","29376","31659","NA","818","2","legacy","5","1024","2","48000","-16","experiment","1","odd","7","286238","282942","2618","139855","284028","284030","239554","2621","108196","NA","288242","289061","285034","31998","288242","Sternberg Task","33","34823","36","yes","1024"
"91.8918918919","91.8918918919","974.459459459","974.459459459","black","experiment","legacy","legacy","legacy","0","uniform","1","undefined","1","left","36","36","0","0","36","36","36","0","0","0","36","36","36","0","36","10/15/22 17:05:43","The main experiment item","yes","SternbergTask.osexp","C:/Users/casme/OneDrive/Desktop/Fall 2022","no","mono","no","18","no","white","no","yes","768","legacy","24","11","C:/Users/casme/OneDrive/Desktop/Fall 2022/IC-subjectx-1.csv","legacy","5 2 9 6 1 7","Lentiform Loewenfeld","3.3.12","3","y","0","left","left","left","NA","left","1232","29376","31659","NA","1232","2","legacy","6","1024","2","48000","-16","experiment","1","odd","9","292359","289072","2618","139855","290148","290150","239554","2621","108196","NA","294364","295596","291154","31998","294363","Sternberg Task","34","36055","37","yes","1024"
"92.1052631579","92.1052631579","969.421052632","969.421052632","black","experiment","legacy","legacy","legacy","0","uniform","1","undefined","1","left","37","37","0","0","37","37","37","0","0","0","37","37","37","0","37","10/15/22 17:05:43","The main experiment item","yes","SternbergTask.osexp","C:/Users/casme/OneDrive/Desktop/Fall 2022","no","mono","no","18","no","white","no","yes","768","legacy","25","11","C:/Users/casme/OneDrive/Desktop/Fall 2022/IC-subjectx-1.csv","legacy","8 9 5 6 7","Lentiform Loewenfeld","3.3.12","1","y","0","left","left","left","NA","left","783","29376","31659","NA","783","2","legacy","5","1024","2","48000","-16","experiment","1","odd","8","298896","295602","2618","139855","296685","296687","239554","2621","108196","NA","300901","301684","297692","31998","300901","Sternberg Task","35","36838","38","yes","1024"
"92.3076923077","92.3076923077","970.435897436","970.435897436","black","experiment","legacy","legacy","legacy","0","uniform","1","undefined","1","right","38","38","0","0","38","38","38","0","0","0","38","38","38","0","38","10/15/22 17:05:43","The main experiment item","yes","SternbergTask.osexp","C:/Users/casme/OneDrive/Desktop/Fall 2022","no","mono","no","18","no","white","no","yes","768","legacy","26","11","C:/Users/casme/OneDrive/Desktop/Fall 2022/IC-subjectx-1.csv","legacy","1","Lentiform Loewenfeld","3.3.12","0","n","0","right","left","left","NA","right","1009","29376","31659","NA","1009","2","legacy","1","1024","2","48000","-16","experiment","1","odd","7","304974","301690","2618","139855","302763","302765","239554","2621","108196","NA","306978","307987","303770","31998","306978","Sternberg Task","36","37847","39","yes","1024"
"92.5","92.5","962.675","962.675","black","experiment","legacy","legacy","legacy","0","uniform","1","undefined","1","left","39","39","0","0","39","39","39","0","0","0","39","39","39","0","39","10/15/22 17:05:43","The main experiment item","yes","SternbergTask.osexp","C:/Users/casme/OneDrive/Desktop/Fall 2022","no","mono","no","18","no","white","no","yes","768","legacy","27","11","C:/Users/casme/OneDrive/Desktop/Fall 2022/IC-subjectx-1.csv","legacy","2 6 1 7 4","Lentiform Loewenfeld","3.3.12","2","y","0","left","left","left","NA","left","660","29376","31659","NA","660","2","legacy","5","1024","2","48000","-16","experiment","1","odd","6","311281","307993","2618","139855","309073","309074","239554","2621","108196","NA","313286","313947","310079","31998","313286","Sternberg Task","37","38507","40","yes","1024"
"92.6829268293","92.6829268293","963.634146341","963.634146341","black","experiment","legacy","legacy","legacy","0","uniform","1","undefined","1","left","40","40","0","0","40","40","40","0","0","0","40","40","40","0","40","10/15/22 17:05:43","The main experiment item","yes","SternbergTask.osexp","C:/Users/casme/OneDrive/Desktop/Fall 2022","no","mono","no","18","no","white","no","yes","768","legacy","28","11","C:/Users/casme/OneDrive/Desktop/Fall 2022/IC-subjectx-1.csv","legacy","3 5 9 6 2 4","Lentiform Loewenfeld","3.3.12","1","y","0","left","left","left","NA","left","1002","29376","31659","NA","1002","2","legacy","6","1024","2","48000","-16","experiment","1","odd","3","317231","313954","2618","139855","315019","315021","239554","2621","108196","NA","319236","320238","316025","31998","319236","Sternberg Task","38","39509","41","yes","1024"
"92.8571428571","92.8571428571","958.095238095","958.095238095","black","experiment","legacy","legacy","legacy","0","uniform","1","undefined","1","left","41","41","0","0","41","41","41","0","0","0","41","41","41","0","41","10/15/22 17:05:43","The main experiment item","yes","SternbergTask.osexp","C:/Users/casme/OneDrive/Desktop/Fall 2022","no","mono","no","18","no","white","no","yes","768","legacy","29","11","C:/Users/casme/OneDrive/Desktop/Fall 2022/IC-subjectx-1.csv","legacy","5 2 6","Lentiform Loewenfeld","3.3.12","2","y","0","left","left","left","NA","left","731","29376","31659","NA","731","2","legacy","3","1024","2","48000","-16","experiment","1","odd","2","323542","320243","2618","139855","321331","321333","239554","2621","108196","NA","325547","326279","322338","31998","325546","Sternberg Task","39","40240","42","yes","1024"
"93.023255814","93.023255814","954.906976744","954.906976744","black","experiment","legacy","legacy","legacy","0","uniform","1","undefined","1","right","42","42","0","0","42","42","42","0","0","0","42","42","42","0","42","10/15/22 17:05:43","The main experiment item","yes","SternbergTask.osexp","C:/Users/casme/OneDrive/Desktop/Fall 2022","no","mono","no","18","no","white","no","yes","768","legacy","30","11","C:/Users/casme/OneDrive/Desktop/Fall 2022/IC-subjectx-1.csv","legacy","8 2 1 4 5 9","Lentiform Loewenfeld","3.3.12","0","n","0","right","left","left","NA","right","821","29376","31659","NA","821","2","legacy","6","1024","2","48000","-16","experiment","1","odd","7","329572","326287","2618","139855","327363","327365","239554","2621","108196","NA","331578","332399","328368","31998","331577","Sternberg Task","40","41061","43","yes","1024"
"93.1818181818","93.1818181818","955.159090909","955.159090909","black","experiment","legacy","legacy","legacy","0","uniform","1","undefined","1","right","43","43","0","0","43","43","43","0","0","0","43","43","43","0","43","10/15/22 17:05:43","The main experiment item","yes","SternbergTask.osexp","C:/Users/casme/OneDrive/Desktop/Fall 2022","no","mono","no","18","no","white","no","yes","768","legacy","31","11","C:/Users/casme/OneDrive/Desktop/Fall 2022/IC-subjectx-1.csv","legacy","1 7 5 2 9","Lentiform Loewenfeld","3.3.12","0","n","0","right","left","left","NA","right","966","29376","31659","NA","966","2","legacy","5","1024","2","48000","-16","experiment","1","odd","3","335702","332406","2618","139855","333493","333495","239554","2621","108196","NA","337705","338672","334497","31998","337705","Sternberg Task","41","42027","44","yes","1024"
"93.3333333333","93.3333333333","954.644444444","954.644444444","black","experiment","legacy","legacy","legacy","0","uniform","1","undefined","1","right","44","44","0","0","44","44","44","0","0","0","44","44","44","0","44","10/15/22 17:05:43","The main experiment item","yes","SternbergTask.osexp","C:/Users/casme/OneDrive/Desktop/Fall 2022","no","mono","no","18","no","white","no","yes","768","legacy","32","11","C:/Users/casme/OneDrive/Desktop/Fall 2022/IC-subjectx-1.csv","legacy","8 5 7 3 6","Lentiform Loewenfeld","3.3.12","0","n","0","right","left","left","NA","right","932","29376","31659","NA","932","2","legacy","5","1024","2","48000","-16","experiment","1","odd","9","341966","338680","2618","139855","339756","339757","239554","2621","108196","NA","343972","344904","340762","31998","343972","Sternberg Task","42","42959","45","yes","1024"
"93.4782608696","93.4782608696","953.586956522","953.586956522","black","experiment","legacy","legacy","legacy","0","uniform","1","undefined","1","left","45","45","0","0","45","45","45","0","0","0","45","45","45","0","45","10/15/22 17:05:43","The main experiment item","yes","SternbergTask.osexp","C:/Users/casme/OneDrive/Desktop/Fall 2022","no","mono","no","18","no","white","no","yes","768","legacy","33","11","C:/Users/casme/OneDrive/Desktop/Fall 2022/IC-subjectx-1.csv","legacy","8 3","Lentiform Loewenfeld","3.3.12","2","y","0","left","left","left","NA","left","906","29376","31659","NA","906","2","legacy","2","1024","2","48000","-16","experiment","1","odd","3","348206","344911","2618","139855","345995","345997","239554","2621","108196","NA","350210","351117","347002","31998","350210","Sternberg Task","43","43865","46","yes","1024"
"93.6170212766","93.6170212766","948.70212766","948.70212766","black","experiment","legacy","legacy","legacy","0","uniform","1","undefined","1","right","46","46","0","0","46","46","46","0","0","0","46","46","46","0","46","10/15/22 17:05:43","The main experiment item","yes","SternbergTask.osexp","C:/Users/casme/OneDrive/Desktop/Fall 2022","no","mono","no","18","no","white","no","yes","768","legacy","34","11","C:/Users/casme/OneDrive/Desktop/Fall 2022/IC-subjectx-1.csv","legacy","1 7 8 3 9","Lentiform Loewenfeld","3.3.12","0","n","0","right","left","left","NA","right","724","29376","31659","NA","724","2","legacy","5","1024","2","48000","-16","experiment","1","odd","2","354406","351124","2618","139855","352198","352199","239554","2621","108196","NA","356411","357136","353204","31998","356411","Sternberg Task","44","44589","47","yes","1024"
"93.75","93.75","947.083333333","947.083333333","black","experiment","legacy","legacy","legacy","0","uniform","1","undefined","1","right","47","47","0","0","47","47","47","0","0","0","47","47","47","0","47","10/15/22 17:05:43","The main experiment item","yes","SternbergTask.osexp","C:/Users/casme/OneDrive/Desktop/Fall 2022","no","mono","no","18","no","white","no","yes","768","legacy","35","11","C:/Users/casme/OneDrive/Desktop/Fall 2022/IC-subjectx-1.csv","legacy","6 2 9 3 8 4","Lentiform Loewenfeld","3.3.12","0","n","0","right","left","left","NA","right","871","29376","31659","NA","871","2","legacy","6","1024","2","48000","-16","experiment","1","odd","1","360445","357142","2618","139855","358237","358239","239554","2621","108196","NA","362451","363322","359241","31998","362451","Sternberg Task","45","45460","48","yes","1024"
"93.8775510204","93.8775510204","936.897959184","936.897959184","black","experiment","legacy","legacy","legacy","0","uniform","1","undefined","1","left","48","48","0","0","48","48","48","0","0","0","48","48","48","0","48","10/15/22 17:05:43","The main experiment item","yes","SternbergTask.osexp","C:/Users/casme/OneDrive/Desktop/Fall 2022","no","mono","no","18","no","white","no","yes","768","legacy","36","11","C:/Users/casme/OneDrive/Desktop/Fall 2022/IC-subjectx-1.csv","legacy","4","Lentiform Loewenfeld","3.3.12","1","y","0","left","left","left","NA","left","448","29376","31659","NA","448","2","legacy","1","1024","2","48000","-16","experiment","1","odd","4","366622","363328","2618","139855","364411","364413","239554","2621","108196","NA","368627","369076","365418","31998","368626","Sternberg Task","46","45908","49","yes","1024"
"94","94","932.14","932.14","black","experiment","legacy","legacy","legacy","0","uniform","1","undefined","1","right","49","49","0","0","49","49","49","0","0","0","49","49","49","0","49","10/15/22 17:05:43","The main experiment item","yes","SternbergTask.osexp","C:/Users/casme/OneDrive/Desktop/Fall 2022","no","mono","no","18","no","white","no","yes","768","legacy","37","11","C:/Users/casme/OneDrive/Desktop/Fall 2022/IC-subjectx-1.csv","legacy","2 6 4 3 9","Lentiform Loewenfeld","3.3.12","0","n","0","right","left","left","NA","right","699","29376","31659","NA","699","2","legacy","5","1024","2","48000","-16","experiment","1","odd","1","372378","369082","2618","139855","370166","370168","239554","2621","108196","NA","374383","375082","371172","31998","374382","Sternberg Task","47","46607","50","yes","1024"
"94.1176470588","94.1176470588","926.31372549","926.31372549","black","experiment","legacy","legacy","legacy","0","uniform","1","undefined","1","right","50","50","0","0","50","50","50","0","0","0","50","50","50","0","50","10/15/22 17:05:43","The main experiment item","yes","SternbergTask.osexp","C:/Users/casme/OneDrive/Desktop/Fall 2022","no","mono","no","18","no","white","no","yes","768","legacy","38","11","C:/Users/casme/OneDrive/Desktop/Fall 2022/IC-subjectx-1.csv","legacy","7 3 2 8","Lentiform Loewenfeld","3.3.12","0","n","0","right","left","left","NA","right","635","29376","31659","NA","635","2","legacy","4","1024","2","48000","-16","experiment","1","odd","4","378384","375087","2618","139855","376172","376174","239554","2621","108196","NA","380389","381024","377179","31998","380388","Sternberg Task","48","47242","51","yes","1024"
"94.2307692308","94.2307692308","933.730769231","933.730769231","black","experiment","legacy","legacy","legacy","0","uniform","1","undefined","1","right","51","51","0","0","51","51","51","0","0","0","51","51","51","0","51","10/15/22 17:05:43","The main experiment item","yes","SternbergTask.osexp","C:/Users/casme/OneDrive/Desktop/Fall 2022","no","mono","no","18","no","white","no","yes","768","legacy","39","11","C:/Users/casme/OneDrive/Desktop/Fall 2022/IC-subjectx-1.csv","legacy","9 5 3 2 8 6","Lentiform Loewenfeld","3.3.12","0","n","0","right","left","left","NA","right","1312","29376","31659","NA","1312","2","legacy","6","1024","2","48000","-16","experiment","1","odd","7","384329","381032","2618","139855","382118","382120","239554","2621","108196","NA","386335","387647","383124","31998","386334","Sternberg Task","49","48554","52","yes","1024"
"94.3396226415","94.3396226415","933.603773585","933.603773585","black","experiment","legacy","legacy","legacy","0","uniform","1","undefined","1","left","52","52","0","0","52","52","52","0","0","0","52","52","52","0","52","10/15/22 17:05:43","The main experiment item","yes","SternbergTask.osexp","C:/Users/casme/OneDrive/Desktop/Fall 2022","no","mono","no","18","no","white","no","yes","768","legacy","40","11","C:/Users/casme/OneDrive/Desktop/Fall 2022/IC-subjectx-1.csv","legacy","9 6 2 4 1","Lentiform Loewenfeld","3.3.12","4","y","0","left","left","left","NA","left","927","29376","31659","NA","927","2","legacy","5","1024","2","48000","-16","experiment","1","odd","4","390940","387652","2618","139855","388731","388731","239554","2621","108196","NA","392945","393873","389736","31998","392944","Sternberg Task","50","49481","53","yes","1024"
"94.4444444444","94.4444444444","927.925925926","927.925925926","black","experiment","legacy","legacy","legacy","0","uniform","1","undefined","1","left","53","53","0","0","53","53","53","0","0","0","53","53","53","0","53","10/15/22 17:05:43","The main experiment item","yes","SternbergTask.osexp","C:/Users/casme/OneDrive/Desktop/Fall 2022","no","mono","no","18","no","white","no","yes","768","legacy","41","11","C:/Users/casme/OneDrive/Desktop/Fall 2022/IC-subjectx-1.csv","legacy","3 5 4 7","Lentiform Loewenfeld","3.3.12","1","y","0","left","left","left","NA","left","627","29376","31659","NA","627","2","legacy","4","1024","2","48000","-16","experiment","1","odd","3","397178","393880","2618","139855","394966","394968","239554","2621","108196","NA","399182","399809","395972","31998","399182","Sternberg Task","51","50108","54","yes","1024"
"94.5454545455","94.5454545455","925.236363636","925.236363636","black","experiment","legacy","legacy","legacy","0","uniform","1","undefined","1","right","54","54","0","0","54","54","54","0","0","0","54","54","54","0","54","10/15/22 17:05:43","The main experiment item","yes","SternbergTask.osexp","C:/Users/casme/OneDrive/Desktop/Fall 2022","no","mono","no","18","no","white","no","yes","768","legacy","42","11","C:/Users/casme/OneDrive/Desktop/Fall 2022/IC-subjectx-1.csv","legacy","5 3 2 6 9 8","Lentiform Loewenfeld","3.3.12","0","n","0","right","left","left","NA","right","780","29376","31659","NA","780","2","legacy","6","1024","2","48000","-16","experiment","1","odd","4","403107","399816","2618","139855","400895","400896","239554","2621","108196","NA","405112","405893","401902","31998","405111","Sternberg Task","52","50888","55","yes","1024"
"94.6428571429","94.6428571429","917.232142857","917.232142857","black","experiment","legacy","legacy","legacy","0","uniform","1","undefined","1","right","55","55","0","0","55","55","55","0","0","0","55","55","55","0","55","10/15/22 17:05:43","The main experiment item","yes","SternbergTask.osexp","C:/Users/casme/OneDrive/Desktop/Fall 2022","no","mono","no","18","no","white","no","yes","768","legacy","43","11","C:/Users/casme/OneDrive/Desktop/Fall 2022/IC-subjectx-1.csv","legacy","7 1","Lentiform Loewenfeld","3.3.12","0","n","0","right","left","left","NA","right","477","29376","31659","NA","477","2","legacy","2","1024","2","48000","-16","experiment","1","odd","8","409192","405899","2618","139855","406985","406986","239554","2621","108196","NA","411197","411675","407988","31998","411196","Sternberg Task","53","51365","56","yes","1024"
"94.7368421053","94.7368421053","914.01754386","914.01754386","black","experiment","legacy","legacy","legacy","0","uniform","1","undefined","1","right","56","56","0","0","56","56","56","0","0","0","56","56","56","0","56","10/15/22 17:05:43","The main experiment item","yes","SternbergTask.osexp","C:/Users/casme/OneDrive/Desktop/Fall 2022","no","mono","no","18","no","white","no","yes","768","legacy","44","11","C:/Users/casme/OneDrive/Desktop/Fall 2022/IC-subjectx-1.csv","legacy","6 3 1 7 9 8","Lentiform Loewenfeld","3.3.12","0","n","0","right","left","left","NA","right","734","29376","31659","NA","734","2","legacy","6","1024","2","48000","-16","experiment","1","odd","4","414978","411682","2618","139855","412766","412768","239554","2621","108196","NA","416980","417715","413772","31998","416979","Sternberg Task","54","52099","57","yes","1024"
"94.8275862069","94.8275862069","905.293103448","905.293103448","black","experiment","legacy","legacy","legacy","0","uniform","1","undefined","1","right","57","57","0","0","57","57","57","0","0","0","57","57","57","0","57","10/15/22 17:05:43","The main experiment item","yes","SternbergTask.osexp","C:/Users/casme/OneDrive/Desktop/Fall 2022","no","mono","no","18","no","white","no","yes","768","legacy","45","11","C:/Users/casme/OneDrive/Desktop/Fall 2022/IC-subjectx-1.csv","legacy","4 1","Lentiform Loewenfeld","3.3.12","0","n","0","right","left","left","NA","right","408","29376","31659","NA","408","2","legacy","2","1024","2","48000","-16","experiment","1","odd","6","420999","417722","2618","139855","418792","418794","239554","2621","108196","NA","423002","423411","419796","31998","423002","Sternberg Task","55","52507","58","yes","1024"
"94.9152542373","94.9152542373","902.169491525","902.169491525","black","experiment","legacy","legacy","legacy","0","uniform","1","undefined","1","right","58","58","0","0","58","58","58","0","0","0","58","58","58","0","58","10/15/22 17:05:43","The main experiment item","yes","SternbergTask.osexp","C:/Users/casme/OneDrive/Desktop/Fall 2022","no","mono","no","18","no","white","no","yes","768","legacy","46","11","C:/Users/casme/OneDrive/Desktop/Fall 2022/IC-subjectx-1.csv","legacy","6 9 5","Lentiform Loewenfeld","3.3.12","0","n","0","right","left","left","NA","right","721","29376","31659","NA","721","2","legacy","3","1024","2","48000","-16","experiment","1","odd","8","426715","423419","2618","139855","424505","424507","239554","2621","108196","NA","428721","429442","425511","31998","428721","Sternberg Task","56","53228","59","yes","1024"
"95","95","904.666666667","904.666666667","black","experiment","legacy","legacy","legacy","0","uniform","1","undefined","1","right","59","59","0","0","59","59","59","0","0","0","59","59","59","0","59","10/15/22 17:05:43","The main experiment item","yes","SternbergTask.osexp","C:/Users/casme/OneDrive/Desktop/Fall 2022","no","mono","no","18","no","white","no","yes","768","legacy","47","11","C:/Users/casme/OneDrive/Desktop/Fall 2022/IC-subjectx-1.csv","legacy","9 8 2 7 4","Lentiform Loewenfeld","3.3.12","0","n","0","right","left","left","NA","right","1052","29376","31659","NA","1052","2","legacy","5","1024","2","48000","-16","experiment","1","odd","5","432725","429449","2618","139855","430514","430516","239554","2621","108196","NA","434730","435783","431520","31998","434730","Sternberg Task","57","54280","60","yes","1024"
"93.4426229508","93.4426229508","912.229508197","912.229508197","black","experiment","legacy","legacy","legacy","0","uniform","0","undefined","0","left","60","60","0","0","60","60","60","0","0","0","60","60","60","0","60","10/15/22 17:05:43","The main experiment item","yes","SternbergTask.osexp","C:/Users/casme/OneDrive/Desktop/Fall 2022","no","mono","no","18","no","white","no","yes","768","legacy","48","11","C:/Users/casme/OneDrive/Desktop/Fall 2022/IC-subjectx-1.csv","legacy","3 4 9 6 2 9","Lentiform Loewenfeld","3.3.12","5","y","0","right","left","left","NA","right","1366","29376","31659","NA","1366","2","legacy","6","1024","2","48000","-16","experiment","1","odd","2","439065","435789","2618","139855","436854","436856","239554","2621","108196","NA","441070","442437","437860","31998","441069","Sternberg Task","57","55646","61","yes","1024"
"93.5483870968","93.5483870968","909.838709677","909.838709677","black","experiment","legacy","legacy","legacy","0","uniform","1","undefined","1","right","61","61","0","0","61","61","61","0","0","0","61","61","61","0","61","10/15/22 17:05:43","The main experiment item","yes","SternbergTask.osexp","C:/Users/casme/OneDrive/Desktop/Fall 2022","no","mono","no","18","no","white","no","yes","768","legacy","49","11","C:/Users/casme/OneDrive/Desktop/Fall 2022/IC-subjectx-1.csv","legacy","2 3 8 5 6 7","Lentiform Loewenfeld","3.3.12","0","n","0","right","left","left","NA","right","764","29376","31659","NA","764","2","legacy","6","1024","2","48000","-16","experiment","1","odd","1","445734","435789","2618","139855","443526","443528","442443","2621","108196","NA","447739","448504","444530","31998","447739","Sternberg Task","58","56410","62","yes","1024"
"93.6507936508","93.6507936508","904.53968254","904.53968254","black","experiment","legacy","legacy","legacy","0","uniform","1","undefined","1","right","62","62","0","0","62","62","62","0","0","0","62","62","62","0","62","10/15/22 17:05:43","The main experiment item","yes","SternbergTask.osexp","C:/Users/casme/OneDrive/Desktop/Fall 2022","no","mono","no","18","no","white","no","yes","768","legacy","50","11","C:/Users/casme/OneDrive/Desktop/Fall 2022/IC-subjectx-1.csv","legacy","5 7 3","Lentiform Loewenfeld","3.3.12","0","n","0","right","left","left","NA","right","576","29376","31659","NA","576","2","legacy","3","1024","2","48000","-16","experiment","1","odd","9","451789","448514","2618","139855","449578","449580","442443","2621","108196","NA","453794","454371","450584","31998","453794","Sternberg Task","59","56986","63","yes","1024"
"93.75","93.75","907.3125","907.3125","black","experiment","legacy","legacy","legacy","0","uniform","1","undefined","1","left","63","63","0","0","63","63","63","0","0","0","63","63","63","0","63","10/15/22 17:05:43","The main experiment item","yes","SternbergTask.osexp","C:/Users/casme/OneDrive/Desktop/Fall 2022","no","mono","no","18","no","white","no","yes","768","legacy","51","11","C:/Users/casme/OneDrive/Desktop/Fall 2022/IC-subjectx-1.csv","legacy","6 1 2","Lentiform Loewenfeld","3.3.12","3","y","0","left","left","left","NA","left","1082","29376","31659","NA","1082","2","legacy","3","1024","2","48000","-16","experiment","1","odd","2","457658","454379","2618","139855","455448","455450","442443","2621","108196","NA","459662","460744","456454","31998","459662","Sternberg Task","60","58068","64","yes","1024"
"93.8461538462","93.8461538462","906.553846154","906.553846154","black","experiment","legacy","legacy","legacy","0","uniform","1","undefined","1","left","64","64","0","0","64","64","64","0","0","0","64","64","64","0","64","10/15/22 17:05:43","The main experiment item","yes","SternbergTask.osexp","C:/Users/casme/OneDrive/Desktop/Fall 2022","no","mono","no","18","no","white","no","yes","768","legacy","52","11","C:/Users/casme/OneDrive/Desktop/Fall 2022/IC-subjectx-1.csv","legacy","9 1 6 7 8","Lentiform Loewenfeld","3.3.12","1","y","0","left","left","left","NA","left","858","29376","31659","NA","858","2","legacy","5","1024","2","48000","-16","experiment","1","odd","9","464037","460751","2618","139855","461828","461830","442443","2621","108196","NA","466041","466899","462834","31998","466040","Sternberg Task","61","58926","65","yes","1024"
"93.9393939394","93.9393939394","903.848484848","903.848484848","black","experiment","legacy","legacy","legacy","0","uniform","1","undefined","1","left","65","65","0","0","65","65","65","0","0","0","65","65","65","0","65","10/15/22 17:05:43","The main experiment item","yes","SternbergTask.osexp","C:/Users/casme/OneDrive/Desktop/Fall 2022","no","mono","no","18","no","white","no","yes","768","legacy","53","11","C:/Users/casme/OneDrive/Desktop/Fall 2022/IC-subjectx-1.csv","legacy","4 6 5 8","Lentiform Loewenfeld","3.3.12","1","y","0","left","left","left","NA","left","728","29376","31659","NA","728","2","legacy","4","1024","2","48000","-16","experiment","1","odd","4","470202","466907","2618","139855","467992","467994","442443","2621","108196","NA","472208","472937","468998","31998","472207","Sternberg Task","62","59654","66","yes","1024"
"94.0298507463","94.0298507463","906.447761194","906.447761194","black","experiment","legacy","legacy","legacy","0","uniform","1","undefined","1","left","66","66","0","0","66","66","66","0","0","0","66","66","66","0","66","10/15/22 17:05:43","The main experiment item","yes","SternbergTask.osexp","C:/Users/casme/OneDrive/Desktop/Fall 2022","no","mono","no","18","no","white","no","yes","768","legacy","54","11","C:/Users/casme/OneDrive/Desktop/Fall 2022/IC-subjectx-1.csv","legacy","5 7 8 2 3 8","Lentiform Loewenfeld","3.3.12","5","y","0","left","left","left","NA","left","1078","29376","31659","NA","1078","2","legacy","6","1024","2","48000","-16","experiment","1","odd","3","476241","472942","2618","139855","474029","474031","442443","2621","108196","NA","478244","479323","475035","31998","478244","Sternberg Task","63","60732","67","yes","1024"
"94.1176470588","94.1176470588","905.588235294","905.588235294","black","experiment","legacy","legacy","legacy","0","uniform","1","undefined","1","left","67","67","0","0","67","67","67","0","0","0","67","67","67","0","67","10/15/22 17:05:43","The main experiment item","yes","SternbergTask.osexp","C:/Users/casme/OneDrive/Desktop/Fall 2022","no","mono","no","18","no","white","no","yes","768","legacy","55","11","C:/Users/casme/OneDrive/Desktop/Fall 2022/IC-subjectx-1.csv","legacy","9 1 7 2","Lentiform Loewenfeld","3.3.12","2","y","0","left","left","left","NA","left","848","29376","31659","NA","848","2","legacy","4","1024","2","48000","-16","experiment","1","odd","1","482622","479330","2618","139855","480412","480414","442443","2621","108196","NA","484627","485476","481418","31998","484626","Sternberg Task","64","61580","68","yes","1024"
"94.2028985507","94.2028985507","902.217391304","902.217391304","black","experiment","legacy","legacy","legacy","0","uniform","1","undefined","1","right","68","68","0","0","68","68","68","0","0","0","68","68","68","0","68","10/15/22 17:05:43","The main experiment item","yes","SternbergTask.osexp","C:/Users/casme/OneDrive/Desktop/Fall 2022","no","mono","no","18","no","white","no","yes","768","legacy","56","11","C:/Users/casme/OneDrive/Desktop/Fall 2022/IC-subjectx-1.csv","legacy","2 5 1 4","Lentiform Loewenfeld","3.3.12","0","n","0","right","left","left","NA","right","673","29376","31659","NA","673","2","legacy","4","1024","2","48000","-16","experiment","1","odd","6","488758","485482","2618","139855","486548","486550","442443","2621","108196","NA","490763","491437","487553","31998","490762","Sternberg Task","65","62253","69","yes","1024"
"94.2857142857","94.2857142857","897.314285714","897.314285714","black","experiment","legacy","legacy","legacy","0","uniform","1","undefined","1","right","69","69","0","0","69","69","69","0","0","0","69","69","69","0","69","10/15/22 17:05:43","The main experiment item","yes","SternbergTask.osexp","C:/Users/casme/OneDrive/Desktop/Fall 2022","no","mono","no","18","no","white","no","yes","768","legacy","57","11","C:/Users/casme/OneDrive/Desktop/Fall 2022/IC-subjectx-1.csv","legacy","5","Lentiform Loewenfeld","3.3.12","0","n","0","right","left","left","NA","right","559","29376","31659","NA","559","2","legacy","1","1024","2","48000","-16","experiment","1","odd","8","494718","491443","2618","139855","492507","492509","442443","2621","108196","NA","496723","497282","493513","31998","496723","Sternberg Task","66","62812","70","yes","1024"
"94.3661971831","94.3661971831","905.112676056","905.112676056","black","experiment","legacy","legacy","legacy","0","uniform","1","undefined","1","right","70","70","0","0","70","70","70","0","0","0","70","70","70","0","70","10/15/22 17:05:43","The main experiment item","yes","SternbergTask.osexp","C:/Users/casme/OneDrive/Desktop/Fall 2022","no","mono","no","18","no","white","no","yes","768","legacy","58","11","C:/Users/casme/OneDrive/Desktop/Fall 2022/IC-subjectx-1.csv","legacy","7 6 4 8 1 2","Lentiform Loewenfeld","3.3.12","0","n","0","right","left","left","NA","right","1451","29376","31659","NA","1451","2","legacy","6","1024","2","48000","-16","experiment","1","odd","9","500584","497289","2618","139855","498374","498376","442443","2621","108196","NA","502588","504039","499380","31998","502588","Sternberg Task","67","64263","71","yes","1024"
"94.4444444444","94.4444444444","904.069444444","904.069444444","black","experiment","legacy","legacy","legacy","0","uniform","1","undefined","1","left","71","71","0","0","71","71","71","0","0","0","71","71","71","0","71","10/15/22 17:05:43","The main experiment item","yes","SternbergTask.osexp","C:/Users/casme/OneDrive/Desktop/Fall 2022","no","mono","no","18","no","white","no","yes","768","legacy","59","11","C:/Users/casme/OneDrive/Desktop/Fall 2022/IC-subjectx-1.csv","legacy","7 2 3","Lentiform Loewenfeld","3.3.12","3","y","0","left","left","left","NA","left","830","29376","31659","NA","830","2","legacy","3","1024","2","48000","-16","experiment","1","odd","3","507335","504045","2618","139855","505127","505128","442443","2621","108196","NA","509340","510171","506130","31998","509340","Sternberg Task","68","65093","72","yes","1024"
"94.5205479452","94.5205479452","905.01369863","905.01369863","black","experiment","legacy","legacy","legacy","0","uniform","1","undefined","1","left","72","72","0","0","72","72","72","0","0","0","72","72","72","0","72","10/15/22 17:05:43","The main experiment item","yes","SternbergTask.osexp","C:/Users/casme/OneDrive/Desktop/Fall 2022","no","mono","no","18","no","white","no","yes","768","legacy","60","11","C:/Users/casme/OneDrive/Desktop/Fall 2022/IC-subjectx-1.csv","legacy","6 7 8 5","Lentiform Loewenfeld","3.3.12","3","y","0","left","left","left","NA","left","973","29376","31659","NA","973","2","legacy","4","1024","2","48000","-16","experiment","1","odd","8","513465","510176","2618","139855","511255","511257","442443","2621","108196","NA","515467","516441","512262","31998","515466","Sternberg Task","69","66066","73","yes","1024"
"94.5945945946","94.5945945946","904.472972973","904.472972973","black","experiment","legacy","legacy","legacy","0","uniform","1","undefined","1","left","73","73","0","0","73","73","73","0","0","0","73","73","73","0","73","10/15/22 17:05:43","The main experiment item","yes","SternbergTask.osexp","C:/Users/casme/OneDrive/Desktop/Fall 2022","no","mono","no","18","no","white","no","yes","768","legacy","61","11","C:/Users/casme/OneDrive/Desktop/Fall 2022/IC-subjectx-1.csv","legacy","2 4 8 5 1 3","Lentiform Loewenfeld","3.3.12","1","y","0","left","left","left","NA","left","865","29376","31659","NA","865","2","legacy","6","1024","2","48000","-16","experiment","1","odd","2","519722","516448","2618","139855","517511","517513","442443","2621","108196","NA","521728","522594","518517","31998","521727","Sternberg Task","70","66931","74","yes","1024"
"94.6666666667","94.6666666667","900.84","900.84","black","experiment","legacy","legacy","legacy","0","uniform","1","undefined","1","left","74","74","0","0","74","74","74","0","0","0","74","74","74","0","74","10/15/22 17:05:43","The main experiment item","yes","SternbergTask.osexp","C:/Users/casme/OneDrive/Desktop/Fall 2022","no","mono","no","18","no","white","no","yes","768","legacy","62","11","C:/Users/casme/OneDrive/Desktop/Fall 2022/IC-subjectx-1.csv","legacy","9 5 3 8 4","Lentiform Loewenfeld","3.3.12","1","y","0","left","left","left","NA","left","632","29376","31659","NA","632","2","legacy","5","1024","2","48000","-16","experiment","1","odd","9","525874","522600","2618","139855","523663","523665","442443","2621","108196","NA","527879","528512","524669","31998","527879","Sternberg Task","71","67563","75","yes","1024"
"94.7368421053","94.7368421053","904.078947368","904.078947368","black","experiment","legacy","legacy","legacy","0","uniform","1","undefined","1","right","75","75","0","0","75","75","75","0","0","0","75","75","75","0","75","10/15/22 17:05:43","The main experiment item","yes","SternbergTask.osexp","C:/Users/casme/OneDrive/Desktop/Fall 2022","no","mono","no","18","no","white","no","yes","768","legacy","63","11","C:/Users/casme/OneDrive/Desktop/Fall 2022/IC-subjectx-1.csv","legacy","1 4 3 6 5","Lentiform Loewenfeld","3.3.12","0","n","0","right","left","left","NA","right","1147","29376","31659","NA","1147","2","legacy","5","1024","2","48000","-16","experiment","1","odd","8","531816","528519","2618","139855","529606","529607","442443","2621","108196","NA","533821","534969","530612","31998","533820","Sternberg Task","72","68710","76","yes","1024"
"94.8051948052","94.8051948052","898.25974026","898.25974026","black","experiment","legacy","legacy","legacy","0","uniform","1","undefined","1","left","76","76","0","0","76","76","76","0","0","0","76","76","76","0","76","10/15/22 17:05:43","The main experiment item","yes","SternbergTask.osexp","C:/Users/casme/OneDrive/Desktop/Fall 2022","no","mono","no","18","no","white","no","yes","768","legacy","64","11","C:/Users/casme/OneDrive/Desktop/Fall 2022/IC-subjectx-1.csv","legacy","2 3","Lentiform Loewenfeld","3.3.12","1","y","0","left","left","left","NA","left","456","29376","31659","NA","456","2","legacy","2","1024","2","48000","-16","experiment","1","odd","2","538269","534978","2618","139855","536057","536060","442443","2621","108196","NA","540272","540729","537064","31998","540272","Sternberg Task","73","69166","77","yes","1024"
"94.8717948718","94.8717948718","900.602564103","900.602564103","black","experiment","legacy","legacy","legacy","0","uniform","1","undefined","1","left","77","77","0","0","77","77","77","0","0","0","77","77","77","0","77","10/15/22 17:05:43","The main experiment item","yes","SternbergTask.osexp","C:/Users/casme/OneDrive/Desktop/Fall 2022","no","mono","no","18","no","white","no","yes","768","legacy","65","11","C:/Users/casme/OneDrive/Desktop/Fall 2022/IC-subjectx-1.csv","legacy","7 8 4 6 9 5","Lentiform Loewenfeld","3.3.12","4","y","0","left","left","left","NA","left","1081","29376","31659","NA","1081","2","legacy","6","1024","2","48000","-16","experiment","1","odd","6","544032","540734","2618","139855","541820","541822","442443","2621","108196","NA","546037","547118","542826","31998","546036","Sternberg Task","74","70247","78","yes","1024"
"94.9367088608","94.9367088608","894.64556962","894.64556962","black","experiment","legacy","legacy","legacy","0","uniform","1","undefined","1","left","78","78","0","0","78","78","78","0","0","0","78","78","78","0","78","10/15/22 17:05:43","The main experiment item","yes","SternbergTask.osexp","C:/Users/casme/OneDrive/Desktop/Fall 2022","no","mono","no","18","no","white","no","yes","768","legacy","66","11","C:/Users/casme/OneDrive/Desktop/Fall 2022/IC-subjectx-1.csv","legacy","7","Lentiform Loewenfeld","3.3.12","1","y","0","left","left","left","NA","left","430","29376","31659","NA","430","2","legacy","1","1024","2","48000","-16","experiment","1","odd","7","550422","547124","2618","139855","548211","548213","442443","2621","108196","NA","552428","552859","549217","31998","552427","Sternberg Task","75","70677","79","yes","1024"
"95","95","897.225","897.225","black","experiment","legacy","legacy","legacy","0","uniform","1","undefined","1","left","79","79","0","0","79","79","79","0","0","0","79","79","79","0","79","10/15/22 17:05:43","The main experiment item","yes","SternbergTask.osexp","C:/Users/casme/OneDrive/Desktop/Fall 2022","no","mono","no","18","no","white","no","yes","768","legacy","67","11","C:/Users/casme/OneDrive/Desktop/Fall 2022/IC-subjectx-1.csv","legacy","6 9 3 1","Lentiform Loewenfeld","3.3.12","4","y","0","left","left","left","NA","left","1101","29376","31659","NA","1101","2","legacy","4","1024","2","48000","-16","experiment","1","odd","1","556161","552864","2618","139855","553949","553951","442443","2621","108196","NA","558166","559268","554955","31998","558165","Sternberg Task","76","71778","80","yes","1024"
"95.0617283951","95.0617283951","896","896","black","experiment","legacy","legacy","legacy","0","uniform","1","undefined","1","left","80","80","0","0","80","80","80","0","0","0","80","80","80","0","80","10/15/22 17:05:43","The main experiment item","yes","SternbergTask.osexp","C:/Users/casme/OneDrive/Desktop/Fall 2022","no","mono","no","18","no","white","no","yes","768","legacy","68","11","C:/Users/casme/OneDrive/Desktop/Fall 2022/IC-subjectx-1.csv","legacy","8 5 1 3 9","Lentiform Loewenfeld","3.3.12","4","y","0","left","left","left","NA","left","798","29376","31659","NA","798","2","legacy","5","1024","2","48000","-16","experiment","1","odd","3","562568","559274","2618","139855","560357","560359","442443","2621","108196","NA","564573","565372","561363","31998","564573","Sternberg Task","77","72576","81","yes","1024"
"95.1219512195","95.1219512195","891.512195122","891.512195122","black","experiment","legacy","legacy","legacy","0","uniform","1","undefined","1","right","81","81","0","0","81","81","81","0","0","0","81","81","81","0","81","10/15/22 17:05:43","The main experiment item","yes","SternbergTask.osexp","C:/Users/casme/OneDrive/Desktop/Fall 2022","no","mono","no","18","no","white","no","yes","768","legacy","69","11","C:/Users/casme/OneDrive/Desktop/Fall 2022/IC-subjectx-1.csv","legacy","1 6 4","Lentiform Loewenfeld","3.3.12","0","n","0","right","left","left","NA","right","528","29376","31659","NA","528","2","legacy","3","1024","2","48000","-16","experiment","1","odd","7","568674","565379","2618","139855","566463","566465","442443","2621","108196","NA","570678","571207","567469","31998","570678","Sternberg Task","78","73104","82","yes","1024"
"95.1807228916","95.1807228916","898.795180723","898.795180723","black","experiment","legacy","legacy","legacy","0","uniform","1","undefined","1","right","82","82","0","0","82","82","82","0","0","0","82","82","82","0","82","10/15/22 17:05:43","The main experiment item","yes","SternbergTask.osexp","C:/Users/casme/OneDrive/Desktop/Fall 2022","no","mono","no","18","no","white","no","yes","768","legacy","70","11","C:/Users/casme/OneDrive/Desktop/Fall 2022/IC-subjectx-1.csv","legacy","2 8 6 3 1","Lentiform Loewenfeld","3.3.12","0","n","0","right","left","left","NA","right","1496","29376","31659","NA","1496","2","legacy","5","1024","2","48000","-16","experiment","1","odd","7","574512","571213","2618","139855","572301","572303","442443","2621","108196","NA","576517","578013","573308","31998","576516","Sternberg Task","79","74600","83","yes","1024"
"95.2380952381","95.2380952381","899.380952381","899.380952381","black","experiment","legacy","legacy","legacy","0","uniform","1","undefined","1","left","83","83","0","0","83","83","83","0","0","0","83","83","83","0","83","10/15/22 17:05:43","The main experiment item","yes","SternbergTask.osexp","C:/Users/casme/OneDrive/Desktop/Fall 2022","no","mono","no","18","no","white","no","yes","768","legacy","71","11","C:/Users/casme/OneDrive/Desktop/Fall 2022/IC-subjectx-1.csv","legacy","5 7 3 6 2","Lentiform Loewenfeld","3.3.12","5","y","0","left","left","left","NA","left","948","29376","31659","NA","948","2","legacy","5","1024","2","48000","-16","experiment","1","odd","2","581308","578020","2618","139855","579099","579101","442443","2621","108196","NA","583313","584262","580104","31998","583313","Sternberg Task","80","75548","84","yes","1024"
"95.2941176471","95.2941176471","911.317647059","911.317647059","black","experiment","legacy","legacy","legacy","0","uniform","1","undefined","1","right","84","84","0","0","84","84","84","0","0","0","84","84","84","0","84","10/15/22 17:05:43","The main experiment item","yes","SternbergTask.osexp","C:/Users/casme/OneDrive/Desktop/Fall 2022","no","mono","no","18","no","white","no","yes","768","legacy","72","11","C:/Users/casme/OneDrive/Desktop/Fall 2022/IC-subjectx-1.csv","legacy","1 7 5 2","Lentiform Loewenfeld","3.3.12","0","n","0","right","left","left","NA","right","1914","29376","31659","NA","1914","2","legacy","4","1024","2","48000","-16","experiment","1","odd","3","587553","584268","2618","139855","585343","585345","442443","2621","108196","NA","589558","591472","586349","31998","589558","Sternberg Task","81","77462","85","yes","1024"
"95.3488372093","95.3488372093","911","911","black","experiment","legacy","legacy","legacy","0","uniform","1","undefined","1","left","85","85","0","0","85","85","85","0","0","0","85","85","85","0","85","10/15/22 17:05:43","The main experiment item","yes","SternbergTask.osexp","C:/Users/casme/OneDrive/Desktop/Fall 2022","no","mono","no","18","no","white","no","yes","768","legacy","73","11","C:/Users/casme/OneDrive/Desktop/Fall 2022/IC-subjectx-1.csv","legacy","8 5 4 7 3 1","Lentiform Loewenfeld","3.3.12","2","y","0","left","left","left","NA","left","884","29376","31659","NA","884","2","legacy","6","1024","2","48000","-16","experiment","1","odd","5","594768","591478","2618","139855","592556","592559","442443","2621","108196","NA","596773","597658","593563","31998","596772","Sternberg Task","82","78346","86","yes","1024"
"95.4022988506","95.4022988506","908.804597701","908.804597701","black","experiment","legacy","legacy","legacy","0","uniform","1","undefined","1","right","86","86","0","0","86","86","86","0","0","0","86","86","86","0","86","10/15/22 17:05:43","The main experiment item","yes","SternbergTask.osexp","C:/Users/casme/OneDrive/Desktop/Fall 2022","no","mono","no","18","no","white","no","yes","768","legacy","74","11","C:/Users/casme/OneDrive/Desktop/Fall 2022/IC-subjectx-1.csv","legacy","6 9 4 5 3 2","Lentiform Loewenfeld","3.3.12","0","n","0","right","left","left","NA","right","720","29376","31659","NA","720","2","legacy","6","1024","2","48000","-16","experiment","1","odd","8","600953","597664","2618","139855","598743","598745","442443","2621","108196","NA","602958","603679","599748","31998","602958","Sternberg Task","83","79066","87","yes","1024"
"95.4545454545","95.4545454545","906.261363636","906.261363636","black","experiment","legacy","legacy","legacy","0","uniform","1","undefined","1","right","87","87","0","0","87","87","87","0","0","0","87","87","87","0","87","10/15/22 17:05:43","The main experiment item","yes","SternbergTask.osexp","C:/Users/casme/OneDrive/Desktop/Fall 2022","no","mono","no","18","no","white","no","yes","768","legacy","75","11","C:/Users/casme/OneDrive/Desktop/Fall 2022/IC-subjectx-1.csv","legacy","7 9 1 6","Lentiform Loewenfeld","3.3.12","0","n","0","right","left","left","NA","right","685","29376","31659","NA","685","2","legacy","4","1024","2","48000","-16","experiment","1","odd","4","606959","603685","2618","139855","604749","604751","442443","2621","108196","NA","608964","609649","605754","31998","608964","Sternberg Task","84","79751","88","yes","1024"
"95.5056179775","95.5056179775","903.247191011","903.247191011","black","experiment","legacy","legacy","legacy","0","uniform","1","undefined","1","left","88","88","0","0","88","88","88","0","0","0","88","88","88","0","88","10/15/22 17:05:43","The main experiment item","yes","SternbergTask.osexp","C:/Users/casme/OneDrive/Desktop/Fall 2022","no","mono","no","18","no","white","no","yes","768","legacy","76","11","C:/Users/casme/OneDrive/Desktop/Fall 2022/IC-subjectx-1.csv","legacy","6 2","Lentiform Loewenfeld","3.3.12","1","y","0","left","left","left","NA","left","638","29376","31659","NA","638","2","legacy","2","1024","2","48000","-16","experiment","1","odd","6","612942","609655","2618","139855","610731","610733","442443","2621","108196","NA","614948","615587","611738","31998","614948","Sternberg Task","85","80389","89","yes","1024"
"95.5555555556","95.5555555556","902.611111111","902.611111111","black","experiment","legacy","legacy","legacy","0","uniform","1","undefined","1","left","89","89","0","0","89","89","89","0","0","0","89","89","89","0","89","10/15/22 17:05:43","The main experiment item","yes","SternbergTask.osexp","C:/Users/casme/OneDrive/Desktop/Fall 2022","no","mono","no","18","no","white","no","yes","768","legacy","77","11","C:/Users/casme/OneDrive/Desktop/Fall 2022/IC-subjectx-1.csv","legacy","7 8 6 3 1","Lentiform Loewenfeld","3.3.12","5","y","0","left","left","left","NA","left","846","29376","31659","NA","846","2","legacy","5","1024","2","48000","-16","experiment","1","odd","1","618878","615593","2618","139855","616667","616669","442443","2621","108196","NA","620881","621728","617673","31998","620881","Sternberg Task","86","81235","90","yes","1024"
"95.6043956044","95.6043956044","899.714285714","899.714285714","black","experiment","legacy","legacy","legacy","0","uniform","1","undefined","1","right","90","90","0","0","90","90","90","0","0","0","90","90","90","0","90","10/15/22 17:05:43","The main experiment item","yes","SternbergTask.osexp","C:/Users/casme/OneDrive/Desktop/Fall 2022","no","mono","no","18","no","white","no","yes","768","legacy","78","11","C:/Users/casme/OneDrive/Desktop/Fall 2022/IC-subjectx-1.csv","legacy","2 7 5","Lentiform Loewenfeld","3.3.12","0","n","0","right","left","left","NA","right","639","29376","31659","NA","639","2","legacy","3","1024","2","48000","-16","experiment","1","odd","8","625010","621733","2618","139855","622799","622801","442443","2621","108196","NA","627016","627656","623805","31998","627015","Sternberg Task","87","81874","91","yes","1024"
"95.652173913","95.652173913","898.510869565","898.510869565","black","experiment","legacy","legacy","legacy","0","uniform","1","undefined","1","right","91","91","0","0","91","91","91","0","0","0","91","91","91","0","91","10/15/22 17:05:43","The main experiment item","yes","SternbergTask.osexp","C:/Users/casme/OneDrive/Desktop/Fall 2022","no","mono","no","18","no","white","no","yes","768","legacy","79","11","C:/Users/casme/OneDrive/Desktop/Fall 2022/IC-subjectx-1.csv","legacy","1 4 9 3","Lentiform Loewenfeld","3.3.12","0","n","0","right","left","left","NA","right","789","29376","31659","NA","789","2","legacy","4","1024","2","48000","-16","experiment","1","odd","5","630955","627662","2618","139855","628745","628746","442443","2621","108196","NA","632960","633750","629750","31998","632960","Sternberg Task","88","82663","92","yes","1024"
"95.6989247312","95.6989247312","895.795698925","895.795698925","black","experiment","legacy","legacy","legacy","0","uniform","1","undefined","1","left","92","92","0","0","92","92","92","0","0","0","92","92","92","0","92","10/15/22 17:05:43","The main experiment item","yes","SternbergTask.osexp","C:/Users/casme/OneDrive/Desktop/Fall 2022","no","mono","no","18","no","white","no","yes","768","legacy","80","11","C:/Users/casme/OneDrive/Desktop/Fall 2022/IC-subjectx-1.csv","legacy","9 4 2","Lentiform Loewenfeld","3.3.12","1","y","0","left","left","left","NA","left","646","29376","31659","NA","646","2","legacy","3","1024","2","48000","-16","experiment","1","odd","9","637029","633757","2618","139855","634821","634823","442443","2621","108196","NA","639034","639681","635825","31998","639033","Sternberg Task","89","83309","93","yes","1024"
"95.7446808511","95.7446808511","897.106382979","897.106382979","black","experiment","legacy","legacy","legacy","0","uniform","1","undefined","1","right","93","93","0","0","93","93","93","0","0","0","93","93","93","0","93","10/15/22 17:05:43","The main experiment item","yes","SternbergTask.osexp","C:/Users/casme/OneDrive/Desktop/Fall 2022","no","mono","no","18","no","white","no","yes","768","legacy","81","11","C:/Users/casme/OneDrive/Desktop/Fall 2022/IC-subjectx-1.csv","legacy","5 9 2 3","Lentiform Loewenfeld","3.3.12","0","n","0","right","left","left","NA","right","1019","29376","31659","NA","1019","2","legacy","4","1024","2","48000","-16","experiment","1","odd","8","642981","639688","2618","139855","640774","640775","442443","2621","108196","NA","644987","646007","641777","31998","644987","Sternberg Task","90","84328","94","yes","1024"
"95.7894736842","95.7894736842","897.831578947","897.831578947","black","experiment","legacy","legacy","legacy","0","uniform","1","undefined","1","left","94","94","0","0","94","94","94","0","0","0","94","94","94","0","94","10/15/22 17:05:43","The main experiment item","yes","SternbergTask.osexp","C:/Users/casme/OneDrive/Desktop/Fall 2022","no","mono","no","18","no","white","no","yes","768","legacy","82","11","C:/Users/casme/OneDrive/Desktop/Fall 2022/IC-subjectx-1.csv","legacy","8 9 6 1","Lentiform Loewenfeld","3.3.12","2","y","0","left","left","left","NA","left","966","29376","31659","NA","966","2","legacy","4","1024","2","48000","-16","experiment","1","odd","9","649307","646012","2618","139855","647098","647099","442443","2621","108196","NA","651312","652279","648103","31998","651312","Sternberg Task","91","85294","95","yes","1024"
"95.8333333333","95.8333333333","894.291666667","894.291666667","black","experiment","legacy","legacy","legacy","0","uniform","1","undefined","1","right","95","95","0","0","95","95","95","0","0","0","95","95","95","0","95","10/15/22 17:05:43","The main experiment item","yes","SternbergTask.osexp","C:/Users/casme/OneDrive/Desktop/Fall 2022","no","mono","no","18","no","white","no","yes","768","legacy","83","11","C:/Users/casme/OneDrive/Desktop/Fall 2022/IC-subjectx-1.csv","legacy","2 8 9 4 1","Lentiform Loewenfeld","3.3.12","0","n","0","right","left","left","NA","right","558","29376","31659","NA","558","2","legacy","5","1024","2","48000","-16","experiment","1","odd","5","655559","652285","2618","139855","653349","653351","442443","2621","108196","NA","657562","658120","654355","31998","657562","Sternberg Task","92","85852","96","yes","1024"
"95.8762886598","95.8762886598","895.927835052","895.927835052","black","experiment","legacy","legacy","legacy","0","uniform","1","undefined","1","left","96","96","0","0","96","96","96","0","0","0","96","96","96","0","96","10/15/22 17:05:43","The main experiment item","yes","SternbergTask.osexp","C:/Users/casme/OneDrive/Desktop/Fall 2022","no","mono","no","18","no","white","no","yes","768","legacy","84","11","C:/Users/casme/OneDrive/Desktop/Fall 2022/IC-subjectx-1.csv","legacy","4 9 7 8 5 3","Lentiform Loewenfeld","3.3.12","4","y","0","left","left","left","NA","left","1053","29376","31659","NA","1053","2","legacy","6","1024","2","48000","-16","experiment","1","odd","8","661420","658128","2618","139855","659209","659211","442443","2621","108196","NA","663426","664480","660215","31998","663425","Sternberg Task","93","86905","97","yes","1024"
"95.9183673469","95.9183673469","895.142857143","895.142857143","black","experiment","legacy","legacy","legacy","0","uniform","1","undefined","1","left","97","97","0","0","97","97","97","0","0","0","97","97","97","0","97","10/15/22 17:05:43","The main experiment item","yes","SternbergTask.osexp","C:/Users/casme/OneDrive/Desktop/Fall 2022","no","mono","no","18","no","white","no","yes","768","legacy","85","11","C:/Users/casme/OneDrive/Desktop/Fall 2022/IC-subjectx-1.csv","legacy","2 4 6 9","Lentiform Loewenfeld","3.3.12","3","y","0","left","left","left","NA","left","819","29376","31659","NA","819","2","legacy","4","1024","2","48000","-16","experiment","1","odd","6","667764","664488","2618","139855","665554","665556","442443","2621","108196","NA","669770","670589","666560","31998","669769","Sternberg Task","94","87724","98","yes","1024"
"95.9595959596","95.9595959596","898.676767677","898.676767677","black","experiment","legacy","legacy","legacy","0","uniform","1","undefined","1","left","98","98","0","0","98","98","98","0","0","0","98","98","98","0","98","10/15/22 17:05:43","The main experiment item","yes","SternbergTask.osexp","C:/Users/casme/OneDrive/Desktop/Fall 2022","no","mono","no","18","no","white","no","yes","768","legacy","86","11","C:/Users/casme/OneDrive/Desktop/Fall 2022/IC-subjectx-1.csv","legacy","9 3 1 2 5","Lentiform Loewenfeld","3.3.12","4","y","0","left","left","left","NA","left","1245","29376","31659","NA","1245","2","legacy","5","1024","2","48000","-16","experiment","1","odd","2","673889","670595","2618","139855","671678","671679","442443","2621","108196","NA","675893","677139","672684","31998","675893","Sternberg Task","95","88969","99","yes","1024"
"96","96","897.64","897.64","black","experiment","legacy","legacy","legacy","0","uniform","1","undefined","1","left","99","99","0","0","99","99","99","0","0","0","99","99","99","0","99","10/15/22 17:05:43","The main experiment item","yes","SternbergTask.osexp","C:/Users/casme/OneDrive/Desktop/Fall 2022","no","mono","no","18","no","white","no","yes","768","legacy","87","11","C:/Users/casme/OneDrive/Desktop/Fall 2022/IC-subjectx-1.csv","legacy","1 4 9 3 2 5","Lentiform Loewenfeld","3.3.12","3","y","0","left","left","left","NA","left","795","29376","31659","NA","795","2","legacy","6","1024","2","48000","-16","experiment","1","odd","9","680422","677144","2618","139855","678211","678213","442443","2621","108196","NA","682427","683223","679218","31998","682426","Sternberg Task","96","89764","100","yes","1024"
"96.0396039604","96.0396039604","895.861386139","895.861386139","black","experiment","legacy","legacy","legacy","0","uniform","1","undefined","1","left","100","100","0","0","100","100","100","0","0","0","100","100","100","0","100","10/15/22 17:05:43","The main experiment item","yes","SternbergTask.osexp","C:/Users/casme/OneDrive/Desktop/Fall 2022","no","mono","no","18","no","white","no","yes","768","legacy","88","11","C:/Users/casme/OneDrive/Desktop/Fall 2022/IC-subjectx-1.csv","legacy","4 1 5","Lentiform Loewenfeld","3.3.12","2","y","0","left","left","left","NA","left","718","29376","31659","NA","718","2","legacy","3","1024","2","48000","-16","experiment","1","odd","1","686522","683229","2618","139855","684311","684313","442443","2621","108196","NA","688528","689247","685318","31998","688527","Sternberg Task","97","90482","101","yes","1024"
"96.0784313725","96.0784313725","894.529411765","894.529411765","black","experiment","legacy","legacy","legacy","0","uniform","1","undefined","1","left","101","101","0","0","101","101","101","0","0","0","101","101","101","0","101","10/15/22 17:05:43","The main experiment item","yes","SternbergTask.osexp","C:/Users/casme/OneDrive/Desktop/Fall 2022","no","mono","no","18","no","white","no","yes","768","legacy","89","11","C:/Users/casme/OneDrive/Desktop/Fall 2022/IC-subjectx-1.csv","legacy","3 9 6 2","Lentiform Loewenfeld","3.3.12","4","y","0","left","left","left","NA","left","760","29376","31659","NA","760","2","legacy","4","1024","2","48000","-16","experiment","1","odd","2","692526","689252","2618","139855","690316","690317","442443","2621","108196","NA","694530","695291","691322","31998","694530","Sternberg Task","98","91242","102","yes","1024"
"96.1165048544","96.1165048544","891.873786408","891.873786408","black","experiment","legacy","legacy","legacy","0","uniform","1","undefined","1","left","102","102","0","0","102","102","102","0","0","0","102","102","102","0","102","10/15/22 17:05:43","The main experiment item","yes","SternbergTask.osexp","C:/Users/casme/OneDrive/Desktop/Fall 2022","no","mono","no","18","no","white","no","yes","768","legacy","90","11","C:/Users/casme/OneDrive/Desktop/Fall 2022/IC-subjectx-1.csv","legacy","6 5","Lentiform Loewenfeld","3.3.12","2","y","0","left","left","left","NA","left","621","29376","31659","NA","621","2","legacy","2","1024","2","48000","-16","experiment","1","odd","5","698585","695298","2618","139855","696374","696376","442443","2621","108196","NA","700588","701210","697381","31998","700588","Sternberg Task","99","91863","103","yes","1024"
"96.1538461538","96.1538461538","890.548076923","890.548076923","black","experiment","legacy","legacy","legacy","0","uniform","1","undefined","1","right","103","103","0","0","103","103","103","0","0","0","103","103","103","0","103","10/15/22 17:05:43","The main experiment item","yes","SternbergTask.osexp","C:/Users/casme/OneDrive/Desktop/Fall 2022","no","mono","no","18","no","white","no","yes","768","legacy","91","11","C:/Users/casme/OneDrive/Desktop/Fall 2022/IC-subjectx-1.csv","legacy","1 3 2 6 9","Lentiform Loewenfeld","3.3.12","0","n","0","right","left","left","NA","right","754","29376","31659","NA","754","2","legacy","5","1024","2","48000","-16","experiment","1","odd","5","704490","701216","2618","139855","702281","702283","442443","2621","108196","NA","706495","707250","703287","31998","706494","Sternberg Task","100","92617","104","yes","1024"
"96.1904761905","96.1904761905","887.39047619","887.39047619","black","experiment","legacy","legacy","legacy","0","uniform","1","undefined","1","right","104","104","0","0","104","104","104","0","0","0","104","104","104","0","104","10/15/22 17:05:43","The main experiment item","yes","SternbergTask.osexp","C:/Users/casme/OneDrive/Desktop/Fall 2022","no","mono","no","18","no","white","no","yes","768","legacy","92","11","C:/Users/casme/OneDrive/Desktop/Fall 2022/IC-subjectx-1.csv","legacy","8 9","Lentiform Loewenfeld","3.3.12","0","n","0","right","left","left","NA","right","559","29376","31659","NA","559","2","legacy","2","1024","2","48000","-16","experiment","1","odd","5","710551","707256","2618","139855","708341","708342","442443","2621","108196","NA","712556","713116","709346","31998","712555","Sternberg Task","101","93176","105","yes","1024"
"96.2264150943","96.2264150943","884.867924528","884.867924528","black","experiment","legacy","legacy","legacy","0","uniform","1","undefined","1","left","105","105","0","0","105","105","105","0","0","0","105","105","105","0","105","10/15/22 17:05:43","The main experiment item","yes","SternbergTask.osexp","C:/Users/casme/OneDrive/Desktop/Fall 2022","no","mono","no","18","no","white","no","yes","768","legacy","93","11","C:/Users/casme/OneDrive/Desktop/Fall 2022/IC-subjectx-1.csv","legacy","8","Lentiform Loewenfeld","3.3.12","1","y","0","left","left","left","NA","left","620","29376","31659","NA","620","2","legacy","1","1024","2","48000","-16","experiment","1","odd","8","716402","713123","2618","139855","714191","714193","442443","2621","108196","NA","718408","719029","715197","31998","718407","Sternberg Task","102","93796","106","yes","1024"
"96.261682243","96.261682243","886.869158879","886.869158879","black","experiment","legacy","legacy","legacy","0","uniform","1","undefined","1","left","106","106","0","0","106","106","106","0","0","0","106","106","106","0","106","10/15/22 17:05:43","The main experiment item","yes","SternbergTask.osexp","C:/Users/casme/OneDrive/Desktop/Fall 2022","no","mono","no","18","no","white","no","yes","768","legacy","94","11","C:/Users/casme/OneDrive/Desktop/Fall 2022/IC-subjectx-1.csv","legacy","2 8 5 1","Lentiform Loewenfeld","3.3.12","4","y","0","left","left","left","NA","left","1099","29376","31659","NA","1099","2","legacy","4","1024","2","48000","-16","experiment","1","odd","1","722323","719036","2618","139855","720112","720113","442443","2621","108196","NA","724326","725426","721118","31998","724326","Sternberg Task","103","94895","107","yes","1024"
"96.2962962963","96.2962962963","886.972222222","886.972222222","black","experiment","legacy","legacy","legacy","0","uniform","1","undefined","1","right","107","107","0","0","107","107","107","0","0","0","107","107","107","0","107","10/15/22 17:05:43","The main experiment item","yes","SternbergTask.osexp","C:/Users/casme/OneDrive/Desktop/Fall 2022","no","mono","no","18","no","white","no","yes","768","legacy","95","11","C:/Users/casme/OneDrive/Desktop/Fall 2022/IC-subjectx-1.csv","legacy","6 9 4 5 2","Lentiform Loewenfeld","3.3.12","0","n","0","right","left","left","NA","right","898","29376","31659","NA","898","2","legacy","5","1024","2","48000","-16","experiment","1","odd","1","728709","725434","2618","139855","726497","726499","442443","2621","108196","NA","730712","731611","727504","31998","730712","Sternberg Task","104","95793","108","yes","1024"
"96.3302752294","96.3302752294","888.412844037","888.412844037","black","experiment","legacy","legacy","legacy","0","uniform","1","undefined","1","right","108","108","0","0","108","108","108","0","0","0","108","108","108","0","108","10/15/22 17:05:43","The main experiment item","yes","SternbergTask.osexp","C:/Users/casme/OneDrive/Desktop/Fall 2022","no","mono","no","18","no","white","no","yes","768","legacy","96","11","C:/Users/casme/OneDrive/Desktop/Fall 2022/IC-subjectx-1.csv","legacy","3 9 8 1 6 4","Lentiform Loewenfeld","3.3.12","0","n","0","right","left","left","NA","right","1044","29376","31659","NA","1044","2","legacy","6","1024","2","48000","-16","experiment","1","odd","7","734912","731616","2618","139855","732701","732703","442443","2621","108196","NA","736918","737963","733708","31998","736918","Sternberg Task","105","96837","109","yes","1024"
"96.3636363636","96.3636363636","886.781818182","886.781818182","black","experiment","legacy","legacy","legacy","0","uniform","1","undefined","1","right","109","109","0","0","109","109","109","0","0","0","109","109","109","0","109","10/15/22 17:05:43","The main experiment item","yes","SternbergTask.osexp","C:/Users/casme/OneDrive/Desktop/Fall 2022","no","mono","no","18","no","white","no","yes","768","legacy","97","11","C:/Users/casme/OneDrive/Desktop/Fall 2022/IC-subjectx-1.csv","legacy","5 2","Lentiform Loewenfeld","3.3.12","0","n","0","right","left","left","NA","right","709","29376","31659","NA","709","2","legacy","2","1024","2","48000","-16","experiment","1","odd","7","741264","737969","2618","139855","739052","739055","442443","2621","108196","NA","743266","743976","740059","31998","743266","Sternberg Task","106","97546","110","yes","1024"
"95.4954954955","95.4954954955","885.738738739","885.738738739","black","experiment","legacy","legacy","legacy","0","uniform","0","undefined","0","left","110","110","0","0","110","110","110","0","0","0","110","110","110","0","110","10/15/22 17:05:43","The main experiment item","yes","SternbergTask.osexp","C:/Users/casme/OneDrive/Desktop/Fall 2022","no","mono","no","18","no","white","no","yes","768","legacy","98","11","C:/Users/casme/OneDrive/Desktop/Fall 2022/IC-subjectx-1.csv","legacy","7 1 8 5 6 2","Lentiform Loewenfeld","3.3.12","2","y","0","right","left","left","NA","right","771","29376","31659","NA","771","2","legacy","6","1024","2","48000","-16","experiment","1","odd","1","747271","743983","2618","139855","745061","745062","442443","2621","108196","NA","749276","750048","746066","31998","749276","Sternberg Task","106","98317","111","yes","1024"
"95.5357142857","95.5357142857","886.410714286","886.410714286","black","experiment","legacy","legacy","legacy","0","uniform","1","undefined","1","right","111","111","0","0","111","111","111","0","0","0","111","111","111","0","111","10/15/22 17:05:43","The main experiment item","yes","SternbergTask.osexp","C:/Users/casme/OneDrive/Desktop/Fall 2022","no","mono","no","18","no","white","no","yes","768","legacy","99","11","C:/Users/casme/OneDrive/Desktop/Fall 2022/IC-subjectx-1.csv","legacy","9 7 4 5 8","Lentiform Loewenfeld","3.3.12","0","n","0","right","left","left","NA","right","961","29376","31659","NA","961","2","legacy","5","1024","2","48000","-16","experiment","1","odd","6","753328","743983","2618","139855","751119","751121","750054","2621","108196","NA","755329","756290","752124","31998","755329","Sternberg Task","107","99278","112","yes","1024"
"95.5752212389","95.5752212389","887.982300885","887.982300885","black","experiment","legacy","legacy","legacy","0","uniform","1","undefined","1","right","112","112","0","0","112","112","112","0","0","0","112","112","112","0","112","10/15/22 17:05:43","The main experiment item","yes","SternbergTask.osexp","C:/Users/casme/OneDrive/Desktop/Fall 2022","no","mono","no","18","no","white","no","yes","768","legacy","100","11","C:/Users/casme/OneDrive/Desktop/Fall 2022/IC-subjectx-1.csv","legacy","5 3 8 7 2 4","Lentiform Loewenfeld","3.3.12","0","n","0","right","left","left","NA","right","1064","29376","31659","NA","1064","2","legacy","6","1024","2","48000","-16","experiment","1","odd","9","759596","756297","2618","139855","757386","757388","750054","2621","108196","NA","761602","762666","758392","31998","761602","Sternberg Task","108","100342","113","yes","1024"
"95.6140350877","95.6140350877","885.473684211","885.473684211","black","experiment","legacy","legacy","legacy","0","uniform","1","undefined","1","right","113","113","0","0","113","113","113","0","0","0","113","113","113","0","113","10/15/22 17:05:43","The main experiment item","yes","SternbergTask.osexp","C:/Users/casme/OneDrive/Desktop/Fall 2022","no","mono","no","18","no","white","no","yes","768","legacy","101","11","C:/Users/casme/OneDrive/Desktop/Fall 2022/IC-subjectx-1.csv","legacy","8 6 3 4 7","Lentiform Loewenfeld","3.3.12","0","n","0","right","left","left","NA","right","602","29376","31659","NA","602","2","legacy","5","1024","2","48000","-16","experiment","1","odd","1","765968","762673","2618","139855","763759","763760","750054","2621","108196","NA","767972","768575","764765","31998","767972","Sternberg Task","109","100944","114","yes","1024"
"95.652173913","95.652173913","886.182608696","886.182608696","black","experiment","legacy","legacy","legacy","0","uniform","1","undefined","1","left","114","114","0","0","114","114","114","0","0","0","114","114","114","0","114","10/15/22 17:05:43","The main experiment item","yes","SternbergTask.osexp","C:/Users/casme/OneDrive/Desktop/Fall 2022","no","mono","no","18","no","white","no","yes","768","legacy","102","11","C:/Users/casme/OneDrive/Desktop/Fall 2022/IC-subjectx-1.csv","legacy","4 7 6 8 2 3","Lentiform Loewenfeld","3.3.12","6","y","0","left","left","left","NA","left","967","29376","31659","NA","967","2","legacy","6","1024","2","48000","-16","experiment","1","odd","3","771875","768582","2618","139855","769665","769666","750054","2621","108196","NA","773879","774846","770671","31998","773879","Sternberg Task","110","101911","115","yes","1024"
"95.6896551724","95.6896551724","885.482758621","885.482758621","black","experiment","legacy","legacy","legacy","0","uniform","1","undefined","1","left","115","115","0","0","115","115","115","0","0","0","115","115","115","0","115","10/15/22 17:05:43","The main experiment item","yes","SternbergTask.osexp","C:/Users/casme/OneDrive/Desktop/Fall 2022","no","mono","no","18","no","white","no","yes","768","legacy","103","11","C:/Users/casme/OneDrive/Desktop/Fall 2022/IC-subjectx-1.csv","legacy","6 8 9 3 4 9","Lentiform Loewenfeld","3.3.12","5","y","0","left","left","left","NA","left","805","29376","31659","NA","805","2","legacy","6","1024","2","48000","-16","experiment","1","odd","4","778129","774853","2618","139855","775920","775922","750054","2621","108196","NA","780133","780939","776926","31998","780133","Sternberg Task","111","102716","116","yes","1024"
"95.7264957265","95.7264957265","882.034188034","882.034188034","black","experiment","legacy","legacy","legacy","0","uniform","1","undefined","1","right","116","116","0","0","116","116","116","0","0","0","116","116","116","0","116","10/15/22 17:05:43","The main experiment item","yes","SternbergTask.osexp","C:/Users/casme/OneDrive/Desktop/Fall 2022","no","mono","no","18","no","white","no","yes","768","legacy","104","11","C:/Users/casme/OneDrive/Desktop/Fall 2022/IC-subjectx-1.csv","legacy","6 8","Lentiform Loewenfeld","3.3.12","0","n","0","right","left","left","NA","right","482","29376","31659","NA","482","2","legacy","2","1024","2","48000","-16","experiment","1","odd","9","784244","780945","2618","139855","782032","782035","750054","2621","108196","NA","786250","786733","783040","31998","786250","Sternberg Task","112","103198","117","yes","1024"
