"acc","accuracy","average_response_time","avg_rt","background","block","canvas_backend","clock_backend","color_backend","compensation","coordinates","correct","correct_instruction1","correct_keyboard_response","correct_response","count_ExpSequence","count_Fixation","count_ISI","count_MemorySet","count_PracticeLoop","count_Probe","count_correctFeedback","count_experiment","count_experimentLoop","count_getting_started","count_incorrectFeedback","count_instruction1","count_instructions2","count_keyboard_response","count_logger","count_thankYou","count_welcome","datetime","description","disable_garbage_collection","experiment_file","experiment_path","font_bold","font_family","font_italic","font_size","font_underline","foreground","form_clicks","fullscreen","height","keyboard_backend","live_row","live_row_PracticeLoop","logfile","mouse_backend","numberSet","opensesame_codename","opensesame_version","posInSet","present","repeat_cycle","response","response_instruction1","response_instructions2","response_keyboard_response","response_thankYou","response_time","response_time_instruction1","response_time_instructions2","response_time_keyboard_response","response_time_thankYou","response_time_welcome","response_welcome","round_decimals","sampler_backend","setSize","sound_buf_size","sound_channels","sound_freq","sound_sample_size","start","subject_nr","subject_parity","target","time_ExpSequence","time_Fixation","time_ISI","time_MemorySet","time_PracticeLoop","time_Probe","time_correctFeedback","time_experiment","time_experimentLoop","time_getting_started","time_incorrectFeedback","time_instruction1","time_instructions2","time_keyboard_response","time_logger","time_thankYou","time_welcome","title","total_correct","total_response_time","total_responses","uniform_coordinates","width"
"0","0","939","939","black","practice","legacy","legacy","legacy","0","uniform","0","undefined","0","left","0","0","0","0","0","0","0","0","0","NA","0","0","0","0","0","0","NA","Sat Oct 15 15:54:13 2022","The main experiment item","yes","Lab_3.1.osexp","C:\Users\Owner\Downloads","no","mono","no","18","no","white","no","yes","768","legacy","0","0","C:/Users/Owner/Downloads/subject-1.csv","legacy","4 3 1 7 9 8","Lentiform Loewenfeld","3.3.12","1","y","0","right","right","NA","right","NA","939","11443","NA","939","NA","NA","NA","2","legacy","6","1024","2","48000","-16","experiment","1","odd","4","15199","15203","17405","16204","14360","19406","NA","2911","NA","NA","NA","2915","NA","19406","20345","NA","NA","Sternberg Task","0","939","1","yes","1024"
"50","50","805.5","805.5","black","practice","legacy","legacy","legacy","0","uniform","1","undefined","1","left","1","1","1","1","0","1","1","0","0","NA","1","0","0","1","1","0","NA","Sat Oct 15 15:54:13 2022","The main experiment item","yes","Lab_3.1.osexp","C:\Users\Owner\Downloads","no","mono","no","18","no","white","no","yes","768","legacy","1","1","C:/Users/Owner/Downloads/subject-1.csv","legacy","1 5 2 9","Lentiform Loewenfeld","3.3.12","2","y","0","left","right","NA","left","NA","672","11443","NA","672","NA","NA","NA","2","legacy","4","1024","2","48000","-16","experiment","1","odd","5","21448","21450","23652","22451","14360","25652","NA","2911","NA","NA","20379","2915","NA","25652","26325","NA","NA","Sternberg Task","1","1611","2","yes","1024"
"66.66666666666667","66.66666666666667","853.3333333333334","853.3333333333334","black","practice","legacy","legacy","legacy","0","uniform","1","undefined","1","left","2","2","2","2","0","2","2","0","0","NA","2","0","0","2","2","0","NA","Sat Oct 15 15:54:13 2022","The main experiment item","yes","Lab_3.1.osexp","C:\Users\Owner\Downloads","no","mono","no","18","no","white","no","yes","768","legacy","2","2","C:/Users/Owner/Downloads/subject-1.csv","legacy","6","Lentiform Loewenfeld","3.3.12","1","y","0","left","right","NA","left","NA","949","11443","NA","949","NA","NA","NA","2","legacy","1","1024","2","48000","-16","experiment","1","odd","6","27397","27398","29600","28399","14360","31601","26329","2911","NA","NA","20379","2915","NA","31602","32552","NA","NA","Sternberg Task","2","2560","3","yes","1024"
"75","75","843.25","843.25","black","practice","legacy","legacy","legacy","0","uniform","1","undefined","1","left","3","3","3","3","0","3","3","0","0","NA","3","0","0","3","3","0","NA","Sat Oct 15 15:54:13 2022","The main experiment item","yes","Lab_3.1.osexp","C:\Users\Owner\Downloads","no","mono","no","18","no","white","no","yes","768","legacy","3","3","C:/Users/Owner/Downloads/subject-1.csv","legacy","2 9 4","Lentiform Loewenfeld","3.3.12","3","y","0","left","right","NA","left","NA","813","11443","NA","813","NA","NA","NA","2","legacy","3","1024","2","48000","-16","experiment","1","odd","4","33630","33632","35835","34633","14360","37836","32557","2911","NA","NA","20379","2915","NA","37836","38650","NA","NA","Sternberg Task","3","3373","4","yes","1024"
"80","80","754.4","754.4","black","practice","legacy","legacy","legacy","0","uniform","1","undefined","1","right","4","4","4","4","0","4","4","0","0","NA","4","0","0","4","4","0","NA","Sat Oct 15 15:54:13 2022","The main experiment item","yes","Lab_3.1.osexp","C:\Users\Owner\Downloads","no","mono","no","18","no","white","no","yes","768","legacy","4","4","C:/Users/Owner/Downloads/subject-1.csv","legacy","2 1","Lentiform Loewenfeld","3.3.12","0","n","0","right","right","NA","right","NA","399","11443","NA","399","NA","NA","NA","2","legacy","2","1024","2","48000","-16","experiment","1","odd","5","39724","39726","41928","40727","14360","43929","38657","2911","NA","NA","20379","2915","NA","43929","44329","NA","NA","Sternberg Task","4","3772","5","yes","1024"
"66.66666666666667","66.66666666666667","771.8333333333334","771.8333333333334","black","practice","legacy","legacy","legacy","0","uniform","0","undefined","0","left","5","5","5","5","0","5","5","0","0","NA","5","0","0","5","5","0","NA","Sat Oct 15 15:54:13 2022","The main experiment item","yes","Lab_3.1.osexp","C:\Users\Owner\Downloads","no","mono","no","18","no","white","no","yes","768","legacy","5","5","C:/Users/Owner/Downloads/subject-1.csv","legacy","1 7 9 8 5","Lentiform Loewenfeld","3.3.12","4","y","0","right","right","NA","right","NA","859","11443","NA","859","NA","NA","NA","2","legacy","5","1024","2","48000","-16","experiment","1","odd","8","45404","45407","47609","46408","14360","49610","44336","2911","NA","NA","20379","2915","NA","49610","50470","NA","NA","Sternberg Task","4","4631","6","yes","1024"
"71.42857142857143","71.42857142857143","758.2857142857143","758.2857142857143","black","practice","legacy","legacy","legacy","0","uniform","1","undefined","1","right","6","6","6","6","0","6","6","0","0","NA","6","0","0","6","6","0","NA","Sat Oct 15 15:54:13 2022","The main experiment item","yes","Lab_3.1.osexp","C:\Users\Owner\Downloads","no","mono","no","18","no","white","no","yes","768","legacy","6","6","C:/Users/Owner/Downloads/subject-1.csv","legacy","3 1 9 4","Lentiform Loewenfeld","3.3.12","0","n","0","right","right","NA","right","NA","677","11443","NA","677","NA","NA","NA","2","legacy","4","1024","2","48000","-16","experiment","1","odd","6","51547","51549","53751","52550","14360","55752","44336","2911","NA","NA","50477","2915","NA","55752","56430","NA","NA","Sternberg Task","5","5308","7","yes","1024"
"62.5","62.5","755.875","755.875","black","practice","legacy","legacy","legacy","0","uniform","0","undefined","0","right","7","7","7","7","0","7","7","0","0","NA","7","0","0","7","7","0","NA","Sat Oct 15 15:54:13 2022","The main experiment item","yes","Lab_3.1.osexp","C:\Users\Owner\Downloads","no","mono","no","18","no","white","no","yes","768","legacy","7","7","C:/Users/Owner/Downloads/subject-1.csv","legacy","5 7 8 4 1 2","Lentiform Loewenfeld","3.3.12","0","n","0","left","right","NA","left","NA","739","11443","NA","739","NA","NA","NA","2","legacy","6","1024","2","48000","-16","experiment","1","odd","6","57506","57507","59710","58509","14360","61712","56437","2911","NA","NA","50477","2915","NA","61712","62453","NA","NA","Sternberg Task","5","6047","8","yes","1024"
"66.66666666666667","66.66666666666667","752","752","black","practice","legacy","legacy","legacy","0","uniform","1","undefined","1","left","8","8","8","8","0","8","8","0","0","NA","8","0","0","8","8","0","NA","Sat Oct 15 15:54:13 2022","The main experiment item","yes","Lab_3.1.osexp","C:\Users\Owner\Downloads","no","mono","no","18","no","white","no","yes","768","legacy","8","8","C:/Users/Owner/Downloads/subject-1.csv","legacy","4 8","Lentiform Loewenfeld","3.3.12","1","y","0","left","right","NA","left","NA","721","11443","NA","721","NA","NA","NA","2","legacy","2","1024","2","48000","-16","experiment","1","odd","4","63535","63537","65739","64538","14360","67740","56437","2911","NA","NA","62457","2915","NA","67740","68462","NA","NA","Sternberg Task","6","6768","9","yes","1024"
"70","70","746","746","black","practice","legacy","legacy","legacy","0","uniform","1","undefined","1","right","9","9","9","9","0","9","9","0","0","NA","9","0","0","9","9","0","NA","Sat Oct 15 15:54:13 2022","The main experiment item","yes","Lab_3.1.osexp","C:\Users\Owner\Downloads","no","mono","no","18","no","white","no","yes","768","legacy","9","9","C:/Users/Owner/Downloads/subject-1.csv","legacy","9 6 7 4 5","Lentiform Loewenfeld","3.3.12","0","n","0","right","right","NA","right","NA","692","11443","NA","692","NA","NA","NA","2","legacy","5","1024","2","48000","-16","experiment","1","odd","3","69550","69552","71754","70553","14360","73755","68466","2911","NA","NA","62457","2915","NA","73755","74448","NA","NA","Sternberg Task","7","7460","10","yes","1024"
"63.63636363636363","63.63636363636363","759.6363636363636","759.6363636363636","black","practice","legacy","legacy","legacy","0","uniform","0","undefined","0","right","10","10","10","10","0","10","10","0","0","NA","10","0","0","10","10","0","NA","Sat Oct 15 15:54:13 2022","The main experiment item","yes","Lab_3.1.osexp","C:\Users\Owner\Downloads","no","mono","no","18","no","white","no","yes","768","legacy","10","10","C:/Users/Owner/Downloads/subject-1.csv","legacy","5","Lentiform Loewenfeld","3.3.12","0","n","0","left","right","NA","left","NA","896","11443","NA","896","NA","NA","NA","2","legacy","1","1024","2","48000","-16","experiment","1","odd","3","75519","75521","77724","76523","14360","79725","74452","2911","NA","NA","62457","2915","NA","79727","80625","NA","NA","Sternberg Task","7","8356","11","yes","1024"
"58.333333333333336","58.333333333333336","774.9166666666666","774.9166666666666","black","practice","legacy","legacy","legacy","0","uniform","0","undefined","0","right","11","11","11","11","0","11","11","0","0","NA","11","0","0","11","11","0","NA","Sat Oct 15 15:54:13 2022","The main experiment item","yes","Lab_3.1.osexp","C:\Users\Owner\Downloads","no","mono","no","18","no","white","no","yes","768","legacy","11","11","C:/Users/Owner/Downloads/subject-1.csv","legacy","4 1 5","Lentiform Loewenfeld","3.3.12","0","n","0","left","right","NA","left","NA","943","11443","NA","943","NA","NA","NA","2","legacy","3","1024","2","48000","-16","experiment","1","odd","2","81698","81701","83903","82702","14360","85904","74452","2911","NA","NA","80632","2915","NA","85904","86848","NA","NA","Sternberg Task","7","9299","12","yes","1024"
"61.53846153846154","61.53846153846154","778.7692307692307","778.7692307692307","black","experiment","legacy","legacy","legacy","0","uniform","1","undefined","1","left","12","12","12","12","0","12","12","0","0","NA","12","0","0","12","12","0","NA","Sat Oct 15 15:54:13 2022","The main experiment item","yes","Lab_3.1.osexp","C:\Users\Owner\Downloads","no","mono","no","18","no","white","no","yes","768","legacy","0","11","C:/Users/Owner/Downloads/subject-1.csv","legacy","8 7 3","Lentiform Loewenfeld","3.3.12","1","y","0","left","right","right","left","NA","825","11443","17137","825","NA","NA","NA","2","legacy","3","1024","2","48000","-16","experiment","1","odd","8","105079","105081","107283","106082","14360","109284","74452","2911","105010","NA","86852","2915","87873","109285","110111","NA","NA","Sternberg Task","8","10124","13","yes","1024"
"64.28571428571429","64.28571428571429","773.2142857142857","773.2142857142857","black","experiment","legacy","legacy","legacy","0","uniform","1","undefined","1","left","13","13","13","13","0","13","13","0","0","NA","13","0","0","13","13","0","NA","Sat Oct 15 15:54:13 2022","The main experiment item","yes","Lab_3.1.osexp","C:\Users\Owner\Downloads","no","mono","no","18","no","white","no","yes","768","legacy","1","11","C:/Users/Owner/Downloads/subject-1.csv","legacy","2 3","Lentiform Loewenfeld","3.3.12","1","y","0","left","right","right","left","NA","701","11443","17137","701","NA","NA","NA","2","legacy","2","1024","2","48000","-16","experiment","1","odd","2","111185","111187","113390","112188","14360","115391","110116","2911","105010","NA","86852","2915","87873","115391","116093","NA","NA","Sternberg Task","9","10825","14","yes","1024"
"66.66666666666667","66.66666666666667","779.6","779.6","black","experiment","legacy","legacy","legacy","0","uniform","1","undefined","1","left","14","14","14","14","0","14","14","0","0","NA","14","0","0","14","14","0","NA","Sat Oct 15 15:54:13 2022","The main experiment item","yes","Lab_3.1.osexp","C:\Users\Owner\Downloads","no","mono","no","18","no","white","no","yes","768","legacy","2","11","C:/Users/Owner/Downloads/subject-1.csv","legacy","6 7 8 5","Lentiform Loewenfeld","3.3.12","3","y","0","left","right","right","left","NA","869","11443","17137","869","NA","NA","NA","2","legacy","4","1024","2","48000","-16","experiment","1","odd","8","117163","117165","119367","118166","14360","121369","116098","2911","105010","NA","86852","2915","87873","121369","122240","NA","NA","Sternberg Task","10","11694","15","yes","1024"
"68.75","68.75","784","784","black","experiment","legacy","legacy","legacy","0","uniform","1","undefined","1","left","15","15","15","15","0","15","15","0","0","NA","15","0","0","15","15","0","NA","Sat Oct 15 15:54:13 2022","The main experiment item","yes","Lab_3.1.osexp","C:\Users\Owner\Downloads","no","mono","no","18","no","white","no","yes","768","legacy","3","11","C:/Users/Owner/Downloads/subject-1.csv","legacy","2 4 6 9","Lentiform Loewenfeld","3.3.12","3","y","0","left","right","right","left","NA","850","11443","17137","850","NA","NA","NA","2","legacy","4","1024","2","48000","-16","experiment","1","odd","6","123323","123325","125527","124326","14360","127528","122246","2911","105010","NA","86852","2915","87873","127528","128379","NA","NA","Sternberg Task","11","12544","16","yes","1024"
"70.58823529411765","70.58823529411765","779.7058823529412","779.7058823529412","black","experiment","legacy","legacy","legacy","0","uniform","1","undefined","1","left","16","16","16","16","0","16","16","0","0","NA","16","0","0","16","16","0","NA","Sat Oct 15 15:54:13 2022","The main experiment item","yes","Lab_3.1.osexp","C:\Users\Owner\Downloads","no","mono","no","18","no","white","no","yes","768","legacy","4","11","C:/Users/Owner/Downloads/subject-1.csv","legacy","9 1 6 7 8","Lentiform Loewenfeld","3.3.12","1","y","0","left","right","right","left","NA","711","11443","17137","711","NA","NA","NA","2","legacy","5","1024","2","48000","-16","experiment","1","odd","9","129450","129451","131653","130452","14360","133654","128383","2911","105010","NA","86852","2915","87873","133654","134366","NA","NA","Sternberg Task","12","13255","17","yes","1024"
"72.22222222222223","72.22222222222223","767","767","black","experiment","legacy","legacy","legacy","0","uniform","1","undefined","1","right","17","17","17","17","0","17","17","0","0","NA","17","0","0","17","17","0","NA","Sat Oct 15 15:54:13 2022","The main experiment item","yes","Lab_3.1.osexp","C:\Users\Owner\Downloads","no","mono","no","18","no","white","no","yes","768","legacy","5","11","C:/Users/Owner/Downloads/subject-1.csv","legacy","6 9 5","Lentiform Loewenfeld","3.3.12","0","n","0","right","right","right","right","NA","551","11443","17137","551","NA","NA","NA","2","legacy","3","1024","2","48000","-16","experiment","1","odd","8","135441","135443","137645","136444","14360","139646","134373","2911","105010","NA","86852","2915","87873","139646","140199","NA","NA","Sternberg Task","13","13806","18","yes","1024"
"73.6842105263158","73.6842105263158","779.4736842105264","779.4736842105264","black","experiment","legacy","legacy","legacy","0","uniform","1","undefined","1","right","18","18","18","18","0","18","18","0","0","NA","18","0","0","18","18","0","NA","Sat Oct 15 15:54:13 2022","The main experiment item","yes","Lab_3.1.osexp","C:\Users\Owner\Downloads","no","mono","no","18","no","white","no","yes","768","legacy","6","11","C:/Users/Owner/Downloads/subject-1.csv","legacy","4 2 6 9","Lentiform Loewenfeld","3.3.12","0","n","0","right","right","right","right","NA","1004","11443","17137","1004","NA","NA","NA","2","legacy","4","1024","2","48000","-16","experiment","1","odd","7","141280","141281","143483","142282","14360","145484","140205","2911","105010","NA","86852","2915","87873","145484","146490","NA","NA","Sternberg Task","14","14810","19","yes","1024"
"75","75","785.5","785.5","black","experiment","legacy","legacy","legacy","0","uniform","1","undefined","1","left","19","19","19","19","0","19","19","0","0","NA","19","0","0","19","19","0","NA","Sat Oct 15 15:54:13 2022","The main experiment item","yes","Lab_3.1.osexp","C:\Users\Owner\Downloads","no","mono","no","18","no","white","no","yes","768","legacy","7","11","C:/Users/Owner/Downloads/subject-1.csv","legacy","1 4 9 3 2 5","Lentiform Loewenfeld","3.3.12","3","y","0","left","right","right","left","NA","900","11443","17137","900","NA","NA","NA","2","legacy","6","1024","2","48000","-16","experiment","1","odd","9","147561","147563","149765","148564","14360","151766","146494","2911","105010","NA","86852","2915","87873","151766","152667","NA","NA","Sternberg Task","15","15710","20","yes","1024"
"76.19047619047619","76.19047619047619","783.1428571428571","783.1428571428571","black","experiment","legacy","legacy","legacy","0","uniform","1","undefined","1","left","20","20","20","20","0","20","20","0","0","NA","20","0","0","20","20","0","NA","Sat Oct 15 15:54:13 2022","The main experiment item","yes","Lab_3.1.osexp","C:\Users\Owner\Downloads","no","mono","no","18","no","white","no","yes","768","legacy","8","11","C:/Users/Owner/Downloads/subject-1.csv","legacy","4","Lentiform Loewenfeld","3.3.12","1","y","0","left","right","right","left","NA","736","11443","17137","736","NA","NA","NA","2","legacy","1","1024","2","48000","-16","experiment","1","odd","4","153747","153749","155951","154750","14360","157952","152672","2911","105010","NA","86852","2915","87873","157952","158689","NA","NA","Sternberg Task","16","16446","21","yes","1024"
"77.27272727272727","77.27272727272727","779.4090909090909","779.4090909090909","black","experiment","legacy","legacy","legacy","0","uniform","1","undefined","1","right","21","21","21","21","0","21","21","0","0","NA","21","0","0","21","21","0","NA","Sat Oct 15 15:54:13 2022","The main experiment item","yes","Lab_3.1.osexp","C:\Users\Owner\Downloads","no","mono","no","18","no","white","no","yes","768","legacy","9","11","C:/Users/Owner/Downloads/subject-1.csv","legacy","8 4 3 5","Lentiform Loewenfeld","3.3.12","0","n","0","right","right","right","right","NA","701","11443","17137","701","NA","NA","NA","2","legacy","4","1024","2","48000","-16","experiment","1","odd","6","159774","159776","161978","160777","14360","163979","158693","2911","105010","NA","86852","2915","87873","163979","164681","NA","NA","Sternberg Task","17","17147","22","yes","1024"
"78.26086956521739","78.26086956521739","782.1304347826087","782.1304347826087","black","experiment","legacy","legacy","legacy","0","uniform","1","undefined","1","left","22","22","22","22","0","22","22","0","0","NA","22","0","0","22","22","0","NA","Sat Oct 15 15:54:13 2022","The main experiment item","yes","Lab_3.1.osexp","C:\Users\Owner\Downloads","no","mono","no","18","no","white","no","yes","768","legacy","10","11","C:/Users/Owner/Downloads/subject-1.csv","legacy","4 1 8 7 5","Lentiform Loewenfeld","3.3.12","3","y","0","left","right","right","left","NA","842","11443","17137","842","NA","NA","NA","2","legacy","5","1024","2","48000","-16","experiment","1","odd","8","165753","165755","167958","166756","14360","169959","164686","2911","105010","NA","86852","2915","87873","169959","170803","NA","NA","Sternberg Task","18","17989","23","yes","1024"
"79.16666666666667","79.16666666666667","786.375","786.375","black","experiment","legacy","legacy","legacy","0","uniform","1","undefined","1","right","23","23","23","23","0","23","23","0","0","NA","23","0","0","23","23","0","NA","Sat Oct 15 15:54:13 2022","The main experiment item","yes","Lab_3.1.osexp","C:\Users\Owner\Downloads","no","mono","no","18","no","white","no","yes","768","legacy","11","11","C:/Users/Owner/Downloads/subject-1.csv","legacy","1 7 8 3 9","Lentiform Loewenfeld","3.3.12","0","n","0","right","right","right","right","NA","884","11443","17137","884","NA","NA","NA","2","legacy","5","1024","2","48000","-16","experiment","1","odd","2","171876","171878","174080","172879","14360","176081","170807","2911","105010","NA","86852","2915","87873","176081","176966","NA","NA","Sternberg Task","19","18873","24","yes","1024"
"80","80","784.52","784.52","black","experiment","legacy","legacy","legacy","0","uniform","1","undefined","1","left","24","24","24","24","0","24","24","0","0","NA","24","0","0","24","24","0","NA","Sat Oct 15 15:54:13 2022","The main experiment item","yes","Lab_3.1.osexp","C:\Users\Owner\Downloads","no","mono","no","18","no","white","no","yes","768","legacy","12","11","C:/Users/Owner/Downloads/subject-1.csv","legacy","7 1 8 5 6 2","Lentiform Loewenfeld","3.3.12","2","y","0","left","right","right","left","NA","740","11443","17137","740","NA","NA","NA","2","legacy","6","1024","2","48000","-16","experiment","1","odd","1","178044","178046","180248","179047","14360","182249","176974","2911","105010","NA","86852","2915","87873","182249","182990","NA","NA","Sternberg Task","20","19613","25","yes","1024"
"80.76923076923077","80.76923076923077","793.7692307692307","793.7692307692307","black","experiment","legacy","legacy","legacy","0","uniform","1","undefined","1","right","25","25","25","25","0","25","25","0","0","NA","25","0","0","25","25","0","NA","Sat Oct 15 15:54:13 2022","The main experiment item","yes","Lab_3.1.osexp","C:\Users\Owner\Downloads","no","mono","no","18","no","white","no","yes","768","legacy","13","11","C:/Users/Owner/Downloads/subject-1.csv","legacy","5 3 2 6 9 8","Lentiform Loewenfeld","3.3.12","0","n","0","right","right","right","right","NA","1025","11443","17137","1025","NA","NA","NA","2","legacy","6","1024","2","48000","-16","experiment","1","odd","4","184065","184067","186269","185068","14360","188270","182997","2911","105010","NA","86852","2915","87873","188270","189297","NA","NA","Sternberg Task","21","20638","26","yes","1024"
"81.48148148148148","81.48148148148148","790.7037037037037","790.7037037037037","black","experiment","legacy","legacy","legacy","0","uniform","1","undefined","1","right","26","26","26","26","0","26","26","0","0","NA","26","0","0","26","26","0","NA","Sat Oct 15 15:54:13 2022","The main experiment item","yes","Lab_3.1.osexp","C:\Users\Owner\Downloads","no","mono","no","18","no","white","no","yes","768","legacy","14","11","C:/Users/Owner/Downloads/subject-1.csv","legacy","5","Lentiform Loewenfeld","3.3.12","0","n","0","right","right","right","right","NA","711","11443","17137","711","NA","NA","NA","2","legacy","1","1024","2","48000","-16","experiment","1","odd","8","190367","190369","192571","191370","14360","194572","189301","2911","105010","NA","86852","2915","87873","194572","195284","NA","NA","Sternberg Task","22","21349","27","yes","1024"
"82.14285714285714","82.14285714285714","786.1785714285714","786.1785714285714","black","experiment","legacy","legacy","legacy","0","uniform","1","undefined","1","left","27","27","27","27","0","27","27","0","0","NA","27","0","0","27","27","0","NA","Sat Oct 15 15:54:13 2022","The main experiment item","yes","Lab_3.1.osexp","C:\Users\Owner\Downloads","no","mono","no","18","no","white","no","yes","768","legacy","15","11","C:/Users/Owner/Downloads/subject-1.csv","legacy","8 9 5 6 7","Lentiform Loewenfeld","3.3.12","1","y","0","left","right","right","left","NA","664","11443","17137","664","NA","NA","NA","2","legacy","5","1024","2","48000","-16","experiment","1","odd","8","196356","196358","198560","197359","14360","200561","195289","2911","105010","NA","86852","2915","87873","200561","201226","NA","NA","Sternberg Task","23","22013","28","yes","1024"
"82.75862068965517","82.75862068965517","787.0689655172414","787.0689655172414","black","experiment","legacy","legacy","legacy","0","uniform","1","undefined","1","left","28","28","28","28","0","28","28","0","0","NA","28","0","0","28","28","0","NA","Sat Oct 15 15:54:13 2022","The main experiment item","yes","Lab_3.1.osexp","C:\Users\Owner\Downloads","no","mono","no","18","no","white","no","yes","768","legacy","16","11","C:/Users/Owner/Downloads/subject-1.csv","legacy","7 4 2 6 3 5","Lentiform Loewenfeld","3.3.12","6","y","0","left","right","right","left","NA","812","11443","17137","812","NA","NA","NA","2","legacy","6","1024","2","48000","-16","experiment","1","odd","5","202301","202303","204505","203304","14360","206506","201231","2911","105010","NA","86852","2915","87873","206506","207319","NA","NA","Sternberg Task","24","22825","29","yes","1024"
"83.33333333333333","83.33333333333333","784.8666666666667","784.8666666666667","black","experiment","legacy","legacy","legacy","0","uniform","1","undefined","1","left","29","29","29","29","0","29","29","0","0","NA","29","0","0","29","29","0","NA","Sat Oct 15 15:54:13 2022","The main experiment item","yes","Lab_3.1.osexp","C:\Users\Owner\Downloads","no","mono","no","18","no","white","no","yes","768","legacy","17","11","C:/Users/Owner/Downloads/subject-1.csv","legacy","3 4 9 6 2 9","Lentiform Loewenfeld","3.3.12","5","y","0","left","right","right","left","NA","721","11443","17137","721","NA","NA","NA","2","legacy","6","1024","2","48000","-16","experiment","1","odd","2","208394","208396","210598","209397","14360","212599","207324","2911","105010","NA","86852","2915","87873","212599","213321","NA","NA","Sternberg Task","25","23546","30","yes","1024"
"83.87096774193549","83.87096774193549","785.9677419354839","785.9677419354839","black","experiment","legacy","legacy","legacy","0","uniform","1","undefined","1","right","30","30","30","30","0","30","30","0","0","NA","30","0","0","30","30","0","NA","Sat Oct 15 15:54:13 2022","The main experiment item","yes","Lab_3.1.osexp","C:\Users\Owner\Downloads","no","mono","no","18","no","white","no","yes","768","legacy","18","11","C:/Users/Owner/Downloads/subject-1.csv","legacy","6 9 4 5 2","Lentiform Loewenfeld","3.3.12","0","n","0","right","right","right","right","NA","819","11443","17137","819","NA","NA","NA","2","legacy","5","1024","2","48000","-16","experiment","1","odd","1","214396","214397","216600","215399","14360","218601","213328","2911","105010","NA","86852","2915","87873","218601","219421","NA","NA","Sternberg Task","26","24365","31","yes","1024"
"84.375","84.375","788.78125","788.78125","black","experiment","legacy","legacy","legacy","0","uniform","1","undefined","1","left","31","31","31","31","0","31","31","0","0","NA","31","0","0","31","31","0","NA","Sat Oct 15 15:54:13 2022","The main experiment item","yes","Lab_3.1.osexp","C:\Users\Owner\Downloads","no","mono","no","18","no","white","no","yes","768","legacy","19","11","C:/Users/Owner/Downloads/subject-1.csv","legacy","4 6 5 8","Lentiform Loewenfeld","3.3.12","1","y","0","left","right","right","left","NA","876","11443","17137","876","NA","NA","NA","2","legacy","4","1024","2","48000","-16","experiment","1","odd","4","220492","220494","222696","221495","14360","224697","219425","2911","105010","NA","86852","2915","87873","224697","225575","NA","NA","Sternberg Task","27","25241","32","yes","1024"
"84.84848484848484","84.84848484848484","781.4545454545455","781.4545454545455","black","experiment","legacy","legacy","legacy","0","uniform","1","undefined","1","left","32","32","32","32","0","32","32","0","0","NA","32","0","0","32","32","0","NA","Sat Oct 15 15:54:13 2022","The main experiment item","yes","Lab_3.1.osexp","C:\Users\Owner\Downloads","no","mono","no","18","no","white","no","yes","768","legacy","20","11","C:/Users/Owner/Downloads/subject-1.csv","legacy","3 4","Lentiform Loewenfeld","3.3.12","1","y","0","left","right","right","left","NA","547","11443","17137","547","NA","NA","NA","2","legacy","2","1024","2","48000","-16","experiment","1","odd","3","226662","226663","228866","227665","14360","230867","225582","2911","105010","NA","86852","2915","87873","230867","231415","NA","NA","Sternberg Task","28","25788","33","yes","1024"
"85.29411764705883","85.29411764705883","781.2352941176471","781.2352941176471","black","experiment","legacy","legacy","legacy","0","uniform","1","undefined","1","right","33","33","33","33","0","33","33","0","0","NA","33","0","0","33","33","0","NA","Sat Oct 15 15:54:13 2022","The main experiment item","yes","Lab_3.1.osexp","C:\Users\Owner\Downloads","no","mono","no","18","no","white","no","yes","768","legacy","21","11","C:/Users/Owner/Downloads/subject-1.csv","legacy","7 8 6 1","Lentiform Loewenfeld","3.3.12","0","n","0","right","right","right","right","NA","774","11443","17137","774","NA","NA","NA","2","legacy","4","1024","2","48000","-16","experiment","1","odd","3","232489","232490","234692","233491","14360","236693","231422","2911","105010","NA","86852","2915","87873","236693","237468","NA","NA","Sternberg Task","29","26562","34","yes","1024"
"85.71428571428571","85.71428571428571","777.1714285714286","777.1714285714286","black","experiment","legacy","legacy","legacy","0","uniform","1","undefined","1","left","34","34","34","34","0","34","34","0","0","NA","34","0","0","34","34","0","NA","Sat Oct 15 15:54:13 2022","The main experiment item","yes","Lab_3.1.osexp","C:\Users\Owner\Downloads","no","mono","no","18","no","white","no","yes","768","legacy","22","11","C:/Users/Owner/Downloads/subject-1.csv","legacy","4 3 2 5 8","Lentiform Loewenfeld","3.3.12","2","y","0","left","right","right","left","NA","639","11443","17137","639","NA","NA","NA","2","legacy","5","1024","2","48000","-16","experiment","1","odd","3","238558","238561","240765","239564","14360","242766","237472","2911","105010","NA","86852","2915","87873","242766","243407","NA","NA","Sternberg Task","30","27201","35","yes","1024"
"86.11111111111111","86.11111111111111","798.7777777777778","798.7777777777778","black","experiment","legacy","legacy","legacy","0","uniform","1","undefined","1","right","35","35","35","35","0","35","35","0","0","NA","35","0","0","35","35","0","NA","Sat Oct 15 15:54:13 2022","The main experiment item","yes","Lab_3.1.osexp","C:\Users\Owner\Downloads","no","mono","no","18","no","white","no","yes","768","legacy","23","11","C:/Users/Owner/Downloads/subject-1.csv","legacy","4 8 1 2","Lentiform Loewenfeld","3.3.12","0","n","0","right","right","right","right","NA","1555","11443","17137","1555","NA","NA","NA","2","legacy","4","1024","2","48000","-16","experiment","1","odd","7","244478","244480","246682","245481","14360","248683","243411","2911","105010","NA","86852","2915","87873","248683","250240","NA","NA","Sternberg Task","31","28756","36","yes","1024"
"86.48648648648648","86.48648648648648","799.5675675675676","799.5675675675676","black","experiment","legacy","legacy","legacy","0","uniform","1","undefined","1","right","36","36","36","36","0","36","36","0","0","NA","36","0","0","36","36","0","NA","Sat Oct 15 15:54:13 2022","The main experiment item","yes","Lab_3.1.osexp","C:\Users\Owner\Downloads","no","mono","no","18","no","white","no","yes","768","legacy","24","11","C:/Users/Owner/Downloads/subject-1.csv","legacy","2 8 9","Lentiform Loewenfeld","3.3.12","0","n","0","right","right","right","right","NA","828","11443","17137","828","NA","NA","NA","2","legacy","3","1024","2","48000","-16","experiment","1","odd","6","251311","251313","253515","252314","14360","255516","250244","2911","105010","NA","86852","2915","87873","255516","256345","NA","NA","Sternberg Task","32","29584","37","yes","1024"
"84.21052631578948","84.21052631578948","791.3157894736842","791.3157894736842","black","experiment","legacy","legacy","legacy","0","uniform","0","undefined","0","left","37","37","37","37","0","37","37","0","0","NA","37","0","0","37","37","0","NA","Sat Oct 15 15:54:13 2022","The main experiment item","yes","Lab_3.1.osexp","C:\Users\Owner\Downloads","no","mono","no","18","no","white","no","yes","768","legacy","25","11","C:/Users/Owner/Downloads/subject-1.csv","legacy","7 6","Lentiform Loewenfeld","3.3.12","2","y","0","right","right","right","right","NA","486","11443","17137","486","NA","NA","NA","2","legacy","2","1024","2","48000","-16","experiment","1","odd","6","257427","257429","259631","258430","14360","261632","256350","2911","105010","NA","86852","2915","87873","261632","262120","NA","NA","Sternberg Task","32","30070","38","yes","1024"
"84.61538461538461","84.61538461538461","794.1282051282051","794.1282051282051","black","experiment","legacy","legacy","legacy","0","uniform","1","undefined","1","right","38","38","38","38","0","38","38","0","0","NA","38","0","0","38","38","0","NA","Sat Oct 15 15:54:13 2022","The main experiment item","yes","Lab_3.1.osexp","C:\Users\Owner\Downloads","no","mono","no","18","no","white","no","yes","768","legacy","26","11","C:/Users/Owner/Downloads/subject-1.csv","legacy","1 3 2 6 9","Lentiform Loewenfeld","3.3.12","0","n","0","right","right","right","right","NA","901","11443","17137","901","NA","NA","NA","2","legacy","5","1024","2","48000","-16","experiment","1","odd","5","263190","263192","265394","264193","14360","267395","256350","2911","105010","NA","262124","2915","87873","267395","268297","NA","NA","Sternberg Task","33","30971","39","yes","1024"
"85","85","800.275","800.275","black","experiment","legacy","legacy","legacy","0","uniform","1","undefined","1","right","39","39","39","39","0","39","39","0","0","NA","39","0","0","39","39","0","NA","Sat Oct 15 15:54:13 2022","The main experiment item","yes","Lab_3.1.osexp","C:\Users\Owner\Downloads","no","mono","no","18","no","white","no","yes","768","legacy","27","11","C:/Users/Owner/Downloads/subject-1.csv","legacy","6 7 5 9","Lentiform Loewenfeld","3.3.12","0","n","0","right","right","right","right","NA","1040","11443","17137","1040","NA","NA","NA","2","legacy","4","1024","2","48000","-16","experiment","1","odd","2","269369","269370","271572","270371","14360","273573","268302","2911","105010","NA","262124","2915","87873","273573","274615","NA","NA","Sternberg Task","34","32011","40","yes","1024"
"85.36585365853658","85.36585365853658","799.0243902439024","799.0243902439024","black","experiment","legacy","legacy","legacy","0","uniform","1","undefined","1","right","40","40","40","40","0","40","40","0","0","NA","40","0","0","40","40","0","NA","Sat Oct 15 15:54:13 2022","The main experiment item","yes","Lab_3.1.osexp","C:\Users\Owner\Downloads","no","mono","no","18","no","white","no","yes","768","legacy","28","11","C:/Users/Owner/Downloads/subject-1.csv","legacy","5 3 8 7 2 4","Lentiform Loewenfeld","3.3.12","0","n","0","right","right","right","right","NA","749","11443","17137","749","NA","NA","NA","2","legacy","6","1024","2","48000","-16","experiment","1","odd","9","275687","275689","277891","276690","14360","279892","274619","2911","105010","NA","262124","2915","87873","279892","280642","NA","NA","Sternberg Task","35","32760","41","yes","1024"
"85.71428571428571","85.71428571428571","793.047619047619","793.047619047619","black","experiment","legacy","legacy","legacy","0","uniform","1","undefined","1","left","41","41","41","41","0","41","41","0","0","NA","41","0","0","41","41","0","NA","Sat Oct 15 15:54:13 2022","The main experiment item","yes","Lab_3.1.osexp","C:\Users\Owner\Downloads","no","mono","no","18","no","white","no","yes","768","legacy","29","11","C:/Users/Owner/Downloads/subject-1.csv","legacy","2 4 8 5 1 3","Lentiform Loewenfeld","3.3.12","1","y","0","left","right","right","left","NA","548","11443","17137","548","NA","NA","NA","2","legacy","6","1024","2","48000","-16","experiment","1","odd","2","281720","281723","283925","282724","14360","285926","280649","2911","105010","NA","262124","2915","87873","285926","286475","NA","NA","Sternberg Task","36","33308","42","yes","1024"
"86.04651162790698","86.04651162790698","793","793","black","experiment","legacy","legacy","legacy","0","uniform","1","undefined","1","right","42","42","42","42","0","42","42","0","0","NA","42","0","0","42","42","0","NA","Sat Oct 15 15:54:13 2022","The main experiment item","yes","Lab_3.1.osexp","C:\Users\Owner\Downloads","no","mono","no","18","no","white","no","yes","768","legacy","30","11","C:/Users/Owner/Downloads/subject-1.csv","legacy","2 5 1 4","Lentiform Loewenfeld","3.3.12","0","n","0","right","right","right","right","NA","791","11443","17137","791","NA","NA","NA","2","legacy","4","1024","2","48000","-16","experiment","1","odd","6","287545","287548","289750","288549","14360","291751","286479","2911","105010","NA","262124","2915","87873","291751","292543","NA","NA","Sternberg Task","37","34099","43","yes","1024"
"86.36363636363636","86.36363636363636","806.8636363636364","806.8636363636364","black","experiment","legacy","legacy","legacy","0","uniform","1","undefined","1","right","43","43","43","43","0","43","43","0","0","NA","43","0","0","43","43","0","NA","Sat Oct 15 15:54:13 2022","The main experiment item","yes","Lab_3.1.osexp","C:\Users\Owner\Downloads","no","mono","no","18","no","white","no","yes","768","legacy","31","11","C:/Users/Owner/Downloads/subject-1.csv","legacy","9 7 4 5 8","Lentiform Loewenfeld","3.3.12","0","n","0","right","right","right","right","NA","1403","11443","17137","1403","NA","NA","NA","2","legacy","5","1024","2","48000","-16","experiment","1","odd","6","293643","293646","295848","294647","14360","297849","292548","2911","105010","NA","262124","2915","87873","297849","299254","NA","NA","Sternberg Task","38","35502","44","yes","1024"
"86.66666666666667","86.66666666666667","810.3111111111111","810.3111111111111","black","experiment","legacy","legacy","legacy","0","uniform","1","undefined","1","left","44","44","44","44","0","44","44","0","0","NA","44","0","0","44","44","0","NA","Sat Oct 15 15:54:13 2022","The main experiment item","yes","Lab_3.1.osexp","C:\Users\Owner\Downloads","no","mono","no","18","no","white","no","yes","768","legacy","32","11","C:/Users/Owner/Downloads/subject-1.csv","legacy","8 5 1 3 9","Lentiform Loewenfeld","3.3.12","4","y","0","left","right","right","left","NA","962","11443","17137","962","NA","NA","NA","2","legacy","5","1024","2","48000","-16","experiment","1","odd","3","300335","300337","302539","301338","14360","304540","299258","2911","105010","NA","262124","2915","87873","304540","305503","NA","NA","Sternberg Task","39","36464","45","yes","1024"
"86.95652173913044","86.95652173913044","808.8913043478261","808.8913043478261","black","experiment","legacy","legacy","legacy","0","uniform","1","undefined","1","right","45","45","45","45","0","45","45","0","0","NA","45","0","0","45","45","0","NA","Sat Oct 15 15:54:13 2022","The main experiment item","yes","Lab_3.1.osexp","C:\Users\Owner\Downloads","no","mono","no","18","no","white","no","yes","768","legacy","33","11","C:/Users/Owner/Downloads/subject-1.csv","legacy","1 7 5 2 9","Lentiform Loewenfeld","3.3.12","0","n","0","right","right","right","right","NA","745","11443","17137","745","NA","NA","NA","2","legacy","5","1024","2","48000","-16","experiment","1","odd","3","306587","306589","308791","307590","14360","310792","305510","2911","105010","NA","262124","2915","87873","310792","311538","NA","NA","Sternberg Task","40","37209","46","yes","1024"
"87.23404255319149","87.23404255319149","807.6382978723404","807.6382978723404","black","experiment","legacy","legacy","legacy","0","uniform","1","undefined","1","right","46","46","46","46","0","46","46","0","0","NA","46","0","0","46","46","0","NA","Sat Oct 15 15:54:13 2022","The main experiment item","yes","Lab_3.1.osexp","C:\Users\Owner\Downloads","no","mono","no","18","no","white","no","yes","768","legacy","34","11","C:/Users/Owner/Downloads/subject-1.csv","legacy","2 7 5","Lentiform Loewenfeld","3.3.12","0","n","0","right","right","right","right","NA","750","11443","17137","750","NA","NA","NA","2","legacy","3","1024","2","48000","-16","experiment","1","odd","8","312609","312611","314813","313612","14360","316814","311542","2911","105010","NA","262124","2915","87873","316814","317565","NA","NA","Sternberg Task","41","37959","47","yes","1024"
"87.5","87.5","804.3333333333334","804.3333333333334","black","experiment","legacy","legacy","legacy","0","uniform","1","undefined","1","right","47","47","47","47","0","47","47","0","0","NA","47","0","0","47","47","0","NA","Sat Oct 15 15:54:13 2022","The main experiment item","yes","Lab_3.1.osexp","C:\Users\Owner\Downloads","no","mono","no","18","no","white","no","yes","768","legacy","35","11","C:/Users/Owner/Downloads/subject-1.csv","legacy","5 7 3","Lentiform Loewenfeld","3.3.12","0","n","0","right","right","right","right","NA","649","11443","17137","649","NA","NA","NA","2","legacy","3","1024","2","48000","-16","experiment","1","odd","9","318635","318637","320838","319637","14360","322839","317569","2911","105010","NA","262124","2915","87873","322839","323489","NA","NA","Sternberg Task","42","38608","48","yes","1024"
"87.75510204081633","87.75510204081633","803.7755102040817","803.7755102040817","black","experiment","legacy","legacy","legacy","0","uniform","1","undefined","1","left","48","48","48","48","0","48","48","0","0","NA","48","0","0","48","48","0","NA","Sat Oct 15 15:54:13 2022","The main experiment item","yes","Lab_3.1.osexp","C:\Users\Owner\Downloads","no","mono","no","18","no","white","no","yes","768","legacy","36","11","C:/Users/Owner/Downloads/subject-1.csv","legacy","7 2 3","Lentiform Loewenfeld","3.3.12","3","y","0","left","right","right","left","NA","777","11443","17137","777","NA","NA","NA","2","legacy","3","1024","2","48000","-16","experiment","1","odd","3","324558","324560","326762","325561","14360","328763","323493","2911","105010","NA","262124","2915","87873","328763","329541","NA","NA","Sternberg Task","43","39385","49","yes","1024"
"88","88","802.64","802.64","black","experiment","legacy","legacy","legacy","0","uniform","1","undefined","1","right","49","49","49","49","0","49","49","0","0","NA","49","0","0","49","49","0","NA","Sat Oct 15 15:54:13 2022","The main experiment item","yes","Lab_3.1.osexp","C:\Users\Owner\Downloads","no","mono","no","18","no","white","no","yes","768","legacy","37","11","C:/Users/Owner/Downloads/subject-1.csv","legacy","7 9 1 6","Lentiform Loewenfeld","3.3.12","0","n","0","right","right","right","right","NA","747","11443","17137","747","NA","NA","NA","2","legacy","4","1024","2","48000","-16","experiment","1","odd","4","330630","330631","332833","331632","14360","334834","329546","2911","105010","NA","262124","2915","87873","334834","335582","NA","NA","Sternberg Task","44","40132","50","yes","1024"
"88.23529411764706","88.23529411764706","801.3137254901961","801.3137254901961","black","experiment","legacy","legacy","legacy","0","uniform","1","undefined","1","right","50","50","50","50","0","50","50","0","0","NA","50","0","0","50","50","0","NA","Sat Oct 15 15:54:13 2022","The main experiment item","yes","Lab_3.1.osexp","C:\Users\Owner\Downloads","no","mono","no","18","no","white","no","yes","768","legacy","38","11","C:/Users/Owner/Downloads/subject-1.csv","legacy","7 1 5 6 3","Lentiform Loewenfeld","3.3.12","0","n","0","right","right","right","right","NA","735","11443","17137","735","NA","NA","NA","2","legacy","5","1024","2","48000","-16","experiment","1","odd","8","336654","336656","338858","337657","14360","340859","335586","2911","105010","NA","262124","2915","87873","340859","341596","NA","NA","Sternberg Task","45","40867","51","yes","1024"
"86.53846153846153","86.53846153846153","803.6730769230769","803.6730769230769","black","experiment","legacy","legacy","legacy","0","uniform","0","undefined","0","right","51","51","51","51","0","51","51","0","0","NA","51","0","0","51","51","0","NA","Sat Oct 15 15:54:13 2022","The main experiment item","yes","Lab_3.1.osexp","C:\Users\Owner\Downloads","no","mono","no","18","no","white","no","yes","768","legacy","39","11","C:/Users/Owner/Downloads/subject-1.csv","legacy","3 4 9 6 7 8","Lentiform Loewenfeld","3.3.12","0","n","0","left","right","right","left","NA","924","11443","17137","924","NA","NA","NA","2","legacy","6","1024","2","48000","-16","experiment","1","odd","2","342667","342669","344871","343670","14360","346872","341600","2911","105010","NA","262124","2915","87873","346872","347798","NA","NA","Sternberg Task","45","41791","52","yes","1024"
"86.79245283018868","86.79245283018868","810.5283018867924","810.5283018867924","black","experiment","legacy","legacy","legacy","0","uniform","1","undefined","1","left","52","52","52","52","0","52","52","0","0","NA","52","0","0","52","52","0","NA","Sat Oct 15 15:54:13 2022","The main experiment item","yes","Lab_3.1.osexp","C:\Users\Owner\Downloads","no","mono","no","18","no","white","no","yes","768","legacy","40","11","C:/Users/Owner/Downloads/subject-1.csv","legacy","3 5 7 1","Lentiform Loewenfeld","3.3.12","3","y","0","left","right","right","left","NA","1167","11443","17137","1167","NA","NA","NA","2","legacy","4","1024","2","48000","-16","experiment","1","odd","7","348877","348879","351081","349880","14360","353082","341600","2911","105010","NA","347802","2915","87873","353082","354250","NA","NA","Sternberg Task","46","42958","53","yes","1024"
"87.03703703703704","87.03703703703704","807.5185185185185","807.5185185185185","black","experiment","legacy","legacy","legacy","0","uniform","1","undefined","1","right","53","53","53","53","0","53","53","0","0","NA","53","0","0","53","53","0","NA","Sat Oct 15 15:54:13 2022","The main experiment item","yes","Lab_3.1.osexp","C:\Users\Owner\Downloads","no","mono","no","18","no","white","no","yes","768","legacy","41","11","C:/Users/Owner/Downloads/subject-1.csv","legacy","4 1","Lentiform Loewenfeld","3.3.12","0","n","0","right","right","right","right","NA","648","11443","17137","648","NA","NA","NA","2","legacy","2","1024","2","48000","-16","experiment","1","odd","6","355323","355326","357528","356327","14360","359529","354257","2911","105010","NA","347802","2915","87873","359529","360178","NA","NA","Sternberg Task","47","43606","54","yes","1024"
"85.45454545454545","85.45454545454545","813.2545454545455","813.2545454545455","black","experiment","legacy","legacy","legacy","0","uniform","0","undefined","0","right","54","54","54","54","0","54","54","0","0","NA","54","0","0","54","54","0","NA","Sat Oct 15 15:54:13 2022","The main experiment item","yes","Lab_3.1.osexp","C:\Users\Owner\Downloads","no","mono","no","18","no","white","no","yes","768","legacy","42","11","C:/Users/Owner/Downloads/subject-1.csv","legacy","8 2 1 4 5 9","Lentiform Loewenfeld","3.3.12","0","n","0","left","right","right","left","NA","1123","11443","17137","1123","NA","NA","NA","2","legacy","6","1024","2","48000","-16","experiment","1","odd","7","361252","361254","363456","362255","14360","365457","360183","2911","105010","NA","347802","2915","87873","365457","366581","NA","NA","Sternberg Task","47","44729","55","yes","1024"
"85.71428571428571","85.71428571428571","813.6071428571429","813.6071428571429","black","experiment","legacy","legacy","legacy","0","uniform","1","undefined","1","right","55","55","55","55","0","55","55","0","0","NA","55","0","0","55","55","0","NA","Sat Oct 15 15:54:13 2022","The main experiment item","yes","Lab_3.1.osexp","C:\Users\Owner\Downloads","no","mono","no","18","no","white","no","yes","768","legacy","43","11","C:/Users/Owner/Downloads/subject-1.csv","legacy","7 3 2 8","Lentiform Loewenfeld","3.3.12","0","n","0","right","right","right","right","NA","833","11443","17137","833","NA","NA","NA","2","legacy","4","1024","2","48000","-16","experiment","1","odd","4","367684","367686","369888","368687","14360","371889","360183","2911","105010","NA","366589","2915","87873","371889","372723","NA","NA","Sternberg Task","48","45562","56","yes","1024"
"85.96491228070175","85.96491228070175","811.7894736842105","811.7894736842105","black","experiment","legacy","legacy","legacy","0","uniform","1","undefined","1","left","56","56","56","56","0","56","56","0","0","NA","56","0","0","56","56","0","NA","Sat Oct 15 15:54:13 2022","The main experiment item","yes","Lab_3.1.osexp","C:\Users\Owner\Downloads","no","mono","no","18","no","white","no","yes","768","legacy","44","11","C:/Users/Owner/Downloads/subject-1.csv","legacy","7 1 3","Lentiform Loewenfeld","3.3.12","2","y","0","left","right","right","left","NA","710","11443","17137","710","NA","NA","NA","2","legacy","3","1024","2","48000","-16","experiment","1","odd","1","373794","373795","375998","374797","14360","377999","372727","2911","105010","NA","366589","2915","87873","377999","378711","NA","NA","Sternberg Task","49","46272","57","yes","1024"
"86.20689655172414","86.20689655172414","810.948275862069","810.948275862069","black","experiment","legacy","legacy","legacy","0","uniform","1","undefined","1","left","57","57","57","57","0","57","57","0","0","NA","57","0","0","57","57","0","NA","Sat Oct 15 15:54:13 2022","The main experiment item","yes","Lab_3.1.osexp","C:\Users\Owner\Downloads","no","mono","no","18","no","white","no","yes","768","legacy","45","11","C:/Users/Owner/Downloads/subject-1.csv","legacy","8 9 5 7 1 6","Lentiform Loewenfeld","3.3.12","4","y","0","left","right","right","left","NA","763","11443","17137","763","NA","NA","NA","2","legacy","6","1024","2","48000","-16","experiment","1","odd","7","379786","379788","381990","380789","14360","383991","378715","2911","105010","NA","366589","2915","87873","383991","384755","NA","NA","Sternberg Task","50","47035","58","yes","1024"
"86.44067796610169","86.44067796610169","807.0508474576271","807.0508474576271","black","experiment","legacy","legacy","legacy","0","uniform","1","undefined","1","left","58","58","58","58","0","58","58","0","0","NA","58","0","0","58","58","0","NA","Sat Oct 15 15:54:13 2022","The main experiment item","yes","Lab_3.1.osexp","C:\Users\Owner\Downloads","no","mono","no","18","no","white","no","yes","768","legacy","46","11","C:/Users/Owner/Downloads/subject-1.csv","legacy","2 3 7 4","Lentiform Loewenfeld","3.3.12","1","y","0","left","right","right","left","NA","581","11443","17137","581","NA","NA","NA","2","legacy","4","1024","2","48000","-16","experiment","1","odd","2","385825","385827","388029","386828","14360","390030","384759","2911","105010","NA","366589","2915","87873","390030","390613","NA","NA","Sternberg Task","51","47616","59","yes","1024"
"86.66666666666667","86.66666666666667","812.5166666666667","812.5166666666667","black","experiment","legacy","legacy","legacy","0","uniform","1","undefined","1","left","59","59","59","59","0","59","59","0","0","NA","59","0","0","59","59","0","NA","Sat Oct 15 15:54:13 2022","The main experiment item","yes","Lab_3.1.osexp","C:\Users\Owner\Downloads","no","mono","no","18","no","white","no","yes","768","legacy","47","11","C:/Users/Owner/Downloads/subject-1.csv","legacy","3 5 9 6 2 4","Lentiform Loewenfeld","3.3.12","1","y","0","left","right","right","left","NA","1135","11443","17137","1135","NA","NA","NA","2","legacy","6","1024","2","48000","-16","experiment","1","odd","3","391683","391685","393887","392686","14360","395888","390617","2911","105010","NA","366589","2915","87873","395888","397024","NA","NA","Sternberg Task","52","48751","60","yes","1024"
"86.88524590163935","86.88524590163935","811.2950819672132","811.2950819672132","black","experiment","legacy","legacy","legacy","0","uniform","1","undefined","1","left","60","60","60","60","0","60","60","0","0","NA","60","0","0","60","60","0","NA","Sat Oct 15 15:54:13 2022","The main experiment item","yes","Lab_3.1.osexp","C:\Users\Owner\Downloads","no","mono","no","18","no","white","no","yes","768","legacy","48","11","C:/Users/Owner/Downloads/subject-1.csv","legacy","4 7 6 8 2 3","Lentiform Loewenfeld","3.3.12","6","y","0","left","right","right","left","NA","738","11443","17137","738","NA","NA","NA","2","legacy","6","1024","2","48000","-16","experiment","1","odd","3","398100","398101","400304","399103","14360","402305","397031","2911","105010","NA","366589","2915","87873","402305","403044","NA","NA","Sternberg Task","53","49489","61","yes","1024"
"87.09677419354838","87.09677419354838","807.483870967742","807.483870967742","black","experiment","legacy","legacy","legacy","0","uniform","1","undefined","1","left","61","61","61","61","0","61","61","0","0","NA","61","0","0","61","61","0","NA","Sat Oct 15 15:54:13 2022","The main experiment item","yes","Lab_3.1.osexp","C:\Users\Owner\Downloads","no","mono","no","18","no","white","no","yes","768","legacy","49","11","C:/Users/Owner/Downloads/subject-1.csv","legacy","8 3","Lentiform Loewenfeld","3.3.12","2","y","0","left","right","right","left","NA","575","11443","17137","575","NA","NA","NA","2","legacy","2","1024","2","48000","-16","experiment","1","odd","3","404115","404117","406319","405118","14360","408320","403049","2911","105010","NA","366589","2915","87873","408320","408897","NA","NA","Sternberg Task","54","50064","62","yes","1024"
"87.3015873015873","87.3015873015873","803.7777777777778","803.7777777777778","black","experiment","legacy","legacy","legacy","0","uniform","1","undefined","1","right","62","62","62","62","0","62","62","0","0","NA","62","0","0","62","62","0","NA","Sat Oct 15 15:54:13 2022","The main experiment item","yes","Lab_3.1.osexp","C:\Users\Owner\Downloads","no","mono","no","18","no","white","no","yes","768","legacy","50","11","C:/Users/Owner/Downloads/subject-1.csv","legacy","6 9 4 5 3 2","Lentiform Loewenfeld","3.3.12","0","n","0","right","right","right","right","NA","574","11443","17137","574","NA","NA","NA","2","legacy","6","1024","2","48000","-16","experiment","1","odd","8","409969","409971","412174","410973","14360","414175","408901","2911","105010","NA","366589","2915","87873","414175","414750","NA","NA","Sternberg Task","55","50638","63","yes","1024"
"85.9375","85.9375","806.84375","806.84375","black","experiment","legacy","legacy","legacy","0","uniform","0","undefined","0","right","63","63","63","63","0","63","63","0","0","NA","63","0","0","63","63","0","NA","Sat Oct 15 15:54:13 2022","The main experiment item","yes","Lab_3.1.osexp","C:\Users\Owner\Downloads","no","mono","no","18","no","white","no","yes","768","legacy","51","11","C:/Users/Owner/Downloads/subject-1.csv","legacy","1 6 4","Lentiform Loewenfeld","3.3.12","0","n","0","left","right","right","left","NA","1000","11443","17137","1000","NA","NA","NA","2","legacy","3","1024","2","48000","-16","experiment","1","odd","7","415821","415823","418025","416824","14360","420026","414755","2911","105010","NA","366589","2915","87873","420026","421027","NA","NA","Sternberg Task","55","51638","64","yes","1024"
"86.15384615384616","86.15384615384616","806.3846153846154","806.3846153846154","black","experiment","legacy","legacy","legacy","0","uniform","1","undefined","1","left","64","64","64","64","0","64","64","0","0","NA","64","0","0","64","64","0","NA","Sat Oct 15 15:54:13 2022","The main experiment item","yes","Lab_3.1.osexp","C:\Users\Owner\Downloads","no","mono","no","18","no","white","no","yes","768","legacy","52","11","C:/Users/Owner/Downloads/subject-1.csv","legacy","5 7 8 2 3 8","Lentiform Loewenfeld","3.3.12","5","y","0","left","right","right","left","NA","777","11443","17137","777","NA","NA","NA","2","legacy","6","1024","2","48000","-16","experiment","1","odd","3","422117","422119","424321","423120","14360","426322","414755","2911","105010","NA","421034","2915","87873","426322","427100","NA","NA","Sternberg Task","56","52415","65","yes","1024"
"86.36363636363636","86.36363636363636","805.6363636363636","805.6363636363636","black","experiment","legacy","legacy","legacy","0","uniform","1","undefined","1","right","65","65","65","65","0","65","65","0","0","NA","65","0","0","65","65","0","NA","Sat Oct 15 15:54:13 2022","The main experiment item","yes","Lab_3.1.osexp","C:\Users\Owner\Downloads","no","mono","no","18","no","white","no","yes","768","legacy","53","11","C:/Users/Owner/Downloads/subject-1.csv","legacy","1 4 9 2 5","Lentiform Loewenfeld","3.3.12","0","n","0","right","right","right","right","NA","757","11443","17137","757","NA","NA","NA","2","legacy","5","1024","2","48000","-16","experiment","1","odd","7","428183","428185","430387","429186","14360","432388","427105","2911","105010","NA","421034","2915","87873","432388","433146","NA","NA","Sternberg Task","57","53172","66","yes","1024"
"86.56716417910448","86.56716417910448","803.8358208955224","803.8358208955224","black","experiment","legacy","legacy","legacy","0","uniform","1","undefined","1","right","66","66","66","66","0","66","66","0","0","NA","66","0","0","66","66","0","NA","Sat Oct 15 15:54:13 2022","The main experiment item","yes","Lab_3.1.osexp","C:\Users\Owner\Downloads","no","mono","no","18","no","white","no","yes","768","legacy","54","11","C:/Users/Owner/Downloads/subject-1.csv","legacy","2 8 6 3 1","Lentiform Loewenfeld","3.3.12","0","n","0","right","right","right","right","NA","685","11443","17137","685","NA","NA","NA","2","legacy","5","1024","2","48000","-16","experiment","1","odd","7","434219","434221","436423","435222","14360","438424","433153","2911","105010","NA","421034","2915","87873","438424","439111","NA","NA","Sternberg Task","58","53857","67","yes","1024"
"86.76470588235294","86.76470588235294","804.9852941176471","804.9852941176471","black","experiment","legacy","legacy","legacy","0","uniform","1","undefined","1","left","67","67","67","67","0","67","67","0","0","NA","67","0","0","67","67","0","NA","Sat Oct 15 15:54:13 2022","The main experiment item","yes","Lab_3.1.osexp","C:\Users\Owner\Downloads","no","mono","no","18","no","white","no","yes","768","legacy","55","11","C:/Users/Owner/Downloads/subject-1.csv","legacy","7 8 6 3 1","Lentiform Loewenfeld","3.3.12","5","y","0","left","right","right","left","NA","882","11443","17137","882","NA","NA","NA","2","legacy","5","1024","2","48000","-16","experiment","1","odd","1","440182","440184","442386","441185","14360","444387","439115","2911","105010","NA","421034","2915","87873","444387","445271","NA","NA","Sternberg Task","59","54739","68","yes","1024"
"85.5072463768116","85.5072463768116","809.8985507246376","809.8985507246376","black","experiment","legacy","legacy","legacy","0","uniform","0","undefined","0","left","68","68","68","68","0","68","68","0","0","NA","68","0","0","68","68","0","NA","Sat Oct 15 15:54:13 2022","The main experiment item","yes","Lab_3.1.osexp","C:\Users\Owner\Downloads","no","mono","no","18","no","white","no","yes","768","legacy","56","11","C:/Users/Owner/Downloads/subject-1.csv","legacy","8 9 6 1","Lentiform Loewenfeld","3.3.12","2","y","0","right","right","right","right","NA","1144","11443","17137","1144","NA","NA","NA","2","legacy","4","1024","2","48000","-16","experiment","1","odd","9","446342","446345","448547","447346","14360","450548","445275","2911","105010","NA","421034","2915","87873","450548","451694","NA","NA","Sternberg Task","59","55883","69","yes","1024"
"85.71428571428571","85.71428571428571","807.9857142857143","807.9857142857143","black","experiment","legacy","legacy","legacy","0","uniform","1","undefined","1","right","69","69","69","69","0","69","69","0","0","NA","69","0","0","69","69","0","NA","Sat Oct 15 15:54:13 2022","The main experiment item","yes","Lab_3.1.osexp","C:\Users\Owner\Downloads","no","mono","no","18","no","white","no","yes","768","legacy","57","11","C:/Users/Owner/Downloads/subject-1.csv","legacy","3 9 1","Lentiform Loewenfeld","3.3.12","0","n","0","right","right","right","right","NA","676","11443","17137","676","NA","NA","NA","2","legacy","3","1024","2","48000","-16","experiment","1","odd","7","452770","452773","454975","453774","14360","456976","445275","2911","105010","NA","451701","2915","87873","456976","457654","NA","NA","Sternberg Task","60","56559","70","yes","1024"
"85.91549295774648","85.91549295774648","809.7887323943662","809.7887323943662","black","experiment","legacy","legacy","legacy","0","uniform","1","undefined","1","right","70","70","70","70","0","70","70","0","0","NA","70","0","0","70","70","0","NA","Sat Oct 15 15:54:13 2022","The main experiment item","yes","Lab_3.1.osexp","C:\Users\Owner\Downloads","no","mono","no","18","no","white","no","yes","768","legacy","58","11","C:/Users/Owner/Downloads/subject-1.csv","legacy","8 5 7 3 6","Lentiform Loewenfeld","3.3.12","0","n","0","right","right","right","right","NA","936","11443","17137","936","NA","NA","NA","2","legacy","5","1024","2","48000","-16","experiment","1","odd","9","458727","458729","460931","459730","14360","462932","457658","2911","105010","NA","451701","2915","87873","462933","463870","NA","NA","Sternberg Task","61","57495","71","yes","1024"
"84.72222222222223","84.72222222222223","819.2916666666666","819.2916666666666","black","experiment","legacy","legacy","legacy","0","uniform","0","undefined","0","right","71","71","71","71","0","71","71","0","0","NA","71","0","0","71","71","0","NA","Sat Oct 15 15:54:13 2022","The main experiment item","yes","Lab_3.1.osexp","C:\Users\Owner\Downloads","no","mono","no","18","no","white","no","yes","768","legacy","59","11","C:/Users/Owner/Downloads/subject-1.csv","legacy","2 6 4 3 9","Lentiform Loewenfeld","3.3.12","0","n","0","left","right","right","left","NA","1494","11443","17137","1494","NA","NA","NA","2","legacy","5","1024","2","48000","-16","experiment","1","odd","1","464954","464956","467158","465957","14360","469159","463874","2911","105010","NA","451701","2915","87873","469159","470654","NA","NA","Sternberg Task","61","58989","72","yes","1024"
"84.93150684931507","84.93150684931507","815.8630136986301","815.8630136986301","black","experiment","legacy","legacy","legacy","0","uniform","1","undefined","1","right","72","72","72","72","0","72","72","0","0","NA","72","0","0","72","72","0","NA","Sat Oct 15 15:54:13 2022","The main experiment item","yes","Lab_3.1.osexp","C:\Users\Owner\Downloads","no","mono","no","18","no","white","no","yes","768","legacy","60","11","C:/Users/Owner/Downloads/subject-1.csv","legacy","7 6 4 8 1 2","Lentiform Loewenfeld","3.3.12","0","n","0","right","right","right","right","NA","569","11443","17137","569","NA","NA","NA","2","legacy","6","1024","2","48000","-16","experiment","1","odd","9","471725","471727","473929","472728","14360","475930","463874","2911","105010","NA","470659","2915","87873","475930","476501","NA","NA","Sternberg Task","62","59558","73","yes","1024"
"83.78378378378379","83.78378378378379","815.2432432432432","815.2432432432432","black","experiment","legacy","legacy","legacy","0","uniform","0","undefined","0","left","73","73","73","73","0","73","73","0","0","NA","73","0","0","73","73","0","NA","Sat Oct 15 15:54:13 2022","The main experiment item","yes","Lab_3.1.osexp","C:\Users\Owner\Downloads","no","mono","no","18","no","white","no","yes","768","legacy","61","11","C:/Users/Owner/Downloads/subject-1.csv","legacy","6 7 9 3 1 2","Lentiform Loewenfeld","3.3.12","1","y","0","right","right","right","right","NA","770","11443","17137","770","NA","NA","NA","2","legacy","6","1024","2","48000","-16","experiment","1","odd","6","477577","477579","479782","478581","14360","481783","476508","2911","105010","NA","470659","2915","87873","481783","482554","NA","NA","Sternberg Task","62","60328","74","yes","1024"
"84","84","819.32","819.32","black","experiment","legacy","legacy","legacy","0","uniform","1","undefined","1","left","74","74","74","74","0","74","74","0","0","NA","74","0","0","74","74","0","NA","Sat Oct 15 15:54:13 2022","The main experiment item","yes","Lab_3.1.osexp","C:\Users\Owner\Downloads","no","mono","no","18","no","white","no","yes","768","legacy","62","11","C:/Users/Owner/Downloads/subject-1.csv","legacy","9 3 1 2 5","Lentiform Loewenfeld","3.3.12","4","y","0","left","right","right","left","NA","1121","11443","17137","1121","NA","NA","NA","2","legacy","5","1024","2","48000","-16","experiment","1","odd","2","483637","483639","485841","484640","14360","487842","476508","2911","105010","NA","482559","2915","87873","487842","488964","NA","NA","Sternberg Task","63","61449","75","yes","1024"
"84.21052631578948","84.21052631578948","821.3684210526316","821.3684210526316","black","experiment","legacy","legacy","legacy","0","uniform","1","undefined","1","left","75","75","75","75","0","75","75","0","0","NA","75","0","0","75","75","0","NA","Sat Oct 15 15:54:13 2022","The main experiment item","yes","Lab_3.1.osexp","C:\Users\Owner\Downloads","no","mono","no","18","no","white","no","yes","768","legacy","63","11","C:/Users/Owner/Downloads/subject-1.csv","legacy","6 5","Lentiform Loewenfeld","3.3.12","2","y","0","left","right","right","left","NA","975","11443","17137","975","NA","NA","NA","2","legacy","2","1024","2","48000","-16","experiment","1","odd","5","490047","490050","492252","491051","14360","494253","488969","2911","105010","NA","482559","2915","87873","494253","495229","NA","NA","Sternberg Task","64","62424","76","yes","1024"
"83.11688311688312","83.11688311688312","820.974025974026","820.974025974026","black","experiment","legacy","legacy","legacy","0","uniform","0","undefined","0","right","76","76","76","76","0","76","76","0","0","NA","76","0","0","76","76","0","NA","Sat Oct 15 15:54:13 2022","The main experiment item","yes","Lab_3.1.osexp","C:\Users\Owner\Downloads","no","mono","no","18","no","white","no","yes","768","legacy","64","11","C:/Users/Owner/Downloads/subject-1.csv","legacy","1 7 5 2","Lentiform Loewenfeld","3.3.12","0","n","0","left","right","right","left","NA","791","11443","17137","791","NA","NA","NA","2","legacy","4","1024","2","48000","-16","experiment","1","odd","3","496301","496303","498505","497304","14360","500506","495234","2911","105010","NA","482559","2915","87873","500506","501298","NA","NA","Sternberg Task","64","63215","77","yes","1024"
"83.33333333333333","83.33333333333333","820.9230769230769","820.9230769230769","black","experiment","legacy","legacy","legacy","0","uniform","1","undefined","1","right","77","77","77","77","0","77","77","0","0","NA","77","0","0","77","77","0","NA","Sat Oct 15 15:54:13 2022","The main experiment item","yes","Lab_3.1.osexp","C:\Users\Owner\Downloads","no","mono","no","18","no","white","no","yes","768","legacy","65","11","C:/Users/Owner/Downloads/subject-1.csv","legacy","6 3 1 7 9 8","Lentiform Loewenfeld","3.3.12","0","n","0","right","right","right","right","NA","817","11443","17137","817","NA","NA","NA","2","legacy","6","1024","2","48000","-16","experiment","1","odd","4","502372","502374","504576","503375","14360","506577","495234","2911","105010","NA","501303","2915","87873","506577","507395","NA","NA","Sternberg Task","65","64032","78","yes","1024"
"83.54430379746836","83.54430379746836","821.0253164556962","821.0253164556962","black","experiment","legacy","legacy","legacy","0","uniform","1","undefined","1","left","78","78","78","78","0","78","78","0","0","NA","78","0","0","78","78","0","NA","Sat Oct 15 15:54:13 2022","The main experiment item","yes","Lab_3.1.osexp","C:\Users\Owner\Downloads","no","mono","no","18","no","white","no","yes","768","legacy","66","11","C:/Users/Owner/Downloads/subject-1.csv","legacy","9 5 3 8 4","Lentiform Loewenfeld","3.3.12","1","y","0","left","right","right","left","NA","829","11443","17137","829","NA","NA","NA","2","legacy","5","1024","2","48000","-16","experiment","1","odd","9","508470","508472","510674","509473","14360","512675","507402","2911","105010","NA","501303","2915","87873","512675","513505","NA","NA","Sternberg Task","66","64861","79","yes","1024"
"83.75","83.75","820.6","820.6","black","experiment","legacy","legacy","legacy","0","uniform","1","undefined","1","right","79","79","79","79","0","79","79","0","0","NA","79","0","0","79","79","0","NA","Sat Oct 15 15:54:13 2022","The main experiment item","yes","Lab_3.1.osexp","C:\Users\Owner\Downloads","no","mono","no","18","no","white","no","yes","768","legacy","67","11","C:/Users/Owner/Downloads/subject-1.csv","legacy","4 2 7 6 1 3","Lentiform Loewenfeld","3.3.12","0","n","0","right","right","right","right","NA","787","11443","17137","787","NA","NA","NA","2","legacy","6","1024","2","48000","-16","experiment","1","odd","8","514583","514585","516787","515586","14360","518788","513510","2911","105010","NA","501303","2915","87873","518788","519577","NA","NA","Sternberg Task","67","65648","80","yes","1024"
"83.95061728395062","83.95061728395062","824.9506172839506","824.9506172839506","black","experiment","legacy","legacy","legacy","0","uniform","1","undefined","1","right","80","80","80","80","0","80","80","0","0","NA","80","0","0","80","80","0","NA","Sat Oct 15 15:54:13 2022","The main experiment item","yes","Lab_3.1.osexp","C:\Users\Owner\Downloads","no","mono","no","18","no","white","no","yes","768","legacy","68","11","C:/Users/Owner/Downloads/subject-1.csv","legacy","7 4 2 8 1 9","Lentiform Loewenfeld","3.3.12","0","n","0","right","right","right","right","NA","1173","11443","17137","1173","NA","NA","NA","2","legacy","6","1024","2","48000","-16","experiment","1","odd","5","520649","520650","522852","521651","14360","524854","519581","2911","105010","NA","501303","2915","87873","524854","526029","NA","NA","Sternberg Task","68","66821","81","yes","1024"
"84.14634146341463","84.14634146341463","823.439024390244","823.439024390244","black","experiment","legacy","legacy","legacy","0","uniform","1","undefined","1","right","81","81","81","81","0","81","81","0","0","NA","81","0","0","81","81","0","NA","Sat Oct 15 15:54:13 2022","The main experiment item","yes","Lab_3.1.osexp","C:\Users\Owner\Downloads","no","mono","no","18","no","white","no","yes","768","legacy","69","11","C:/Users/Owner/Downloads/subject-1.csv","legacy","6 8","Lentiform Loewenfeld","3.3.12","0","n","0","right","right","right","right","NA","701","11443","17137","701","NA","NA","NA","2","legacy","2","1024","2","48000","-16","experiment","1","odd","9","527100","527102","529304","528103","14360","531305","526034","2911","105010","NA","501303","2915","87873","531305","532008","NA","NA","Sternberg Task","69","67522","82","yes","1024"
"84.33734939759036","84.33734939759036","825.433734939759","825.433734939759","black","experiment","legacy","legacy","legacy","0","uniform","1","undefined","1","right","82","82","82","82","0","82","82","0","0","NA","82","0","0","82","82","0","NA","Sat Oct 15 15:54:13 2022","The main experiment item","yes","Lab_3.1.osexp","C:\Users\Owner\Downloads","no","mono","no","18","no","white","no","yes","768","legacy","70","11","C:/Users/Owner/Downloads/subject-1.csv","legacy","7 1","Lentiform Loewenfeld","3.3.12","0","n","0","right","right","right","right","NA","989","11443","17137","989","NA","NA","NA","2","legacy","2","1024","2","48000","-16","experiment","1","odd","8","533079","533081","535283","534082","14360","537284","532012","2911","105010","NA","501303","2915","87873","537284","538275","NA","NA","Sternberg Task","70","68511","83","yes","1024"
"83.33333333333333","83.33333333333333","823.75","823.75","black","experiment","legacy","legacy","legacy","0","uniform","0","undefined","0","left","83","83","83","83","0","83","83","0","0","NA","83","0","0","83","83","0","NA","Sat Oct 15 15:54:13 2022","The main experiment item","yes","Lab_3.1.osexp","C:\Users\Owner\Downloads","no","mono","no","18","no","white","no","yes","768","legacy","71","11","C:/Users/Owner/Downloads/subject-1.csv","legacy","6 8 9 3 4 9","Lentiform Loewenfeld","3.3.12","5","y","0","right","right","right","right","NA","684","11443","17137","684","NA","NA","NA","2","legacy","6","1024","2","48000","-16","experiment","1","odd","4","539345","539347","541549","540348","14360","543550","538279","2911","105010","NA","501303","2915","87873","543550","544235","NA","NA","Sternberg Task","70","69195","84","yes","1024"
"83.52941176470588","83.52941176470588","824.1176470588235","824.1176470588235","black","experiment","legacy","legacy","legacy","0","uniform","1","undefined","1","right","84","84","84","84","0","84","84","0","0","NA","84","0","0","84","84","0","NA","Sat Oct 15 15:54:13 2022","The main experiment item","yes","Lab_3.1.osexp","C:\Users\Owner\Downloads","no","mono","no","18","no","white","no","yes","768","legacy","72","11","C:/Users/Owner/Downloads/subject-1.csv","legacy","7 9","Lentiform Loewenfeld","3.3.12","0","n","0","right","right","right","right","NA","855","11443","17137","855","NA","NA","NA","2","legacy","2","1024","2","48000","-16","experiment","1","odd","1","545317","545319","547521","546320","14360","549522","538279","2911","105010","NA","544240","2915","87873","549522","550378","NA","NA","Sternberg Task","71","70050","85","yes","1024"
"83.72093023255815","83.72093023255815","824.6627906976744","824.6627906976744","black","experiment","legacy","legacy","legacy","0","uniform","1","undefined","1","left","85","85","85","85","0","85","85","0","0","NA","85","0","0","85","85","0","NA","Sat Oct 15 15:54:13 2022","The main experiment item","yes","Lab_3.1.osexp","C:\Users\Owner\Downloads","no","mono","no","18","no","white","no","yes","768","legacy","73","11","C:/Users/Owner/Downloads/subject-1.csv","legacy","7","Lentiform Loewenfeld","3.3.12","1","y","0","left","right","right","left","NA","871","11443","17137","871","NA","NA","NA","2","legacy","1","1024","2","48000","-16","experiment","1","odd","7","551465","551467","553669","552468","14360","555670","550385","2911","105010","NA","544240","2915","87873","555670","556543","NA","NA","Sternberg Task","72","70921","86","yes","1024"
"83.9080459770115","83.9080459770115","825.4942528735633","825.4942528735633","black","experiment","legacy","legacy","legacy","0","uniform","1","undefined","1","left","86","86","86","86","0","86","86","0","0","NA","86","0","0","86","86","0","NA","Sat Oct 15 15:54:13 2022","The main experiment item","yes","Lab_3.1.osexp","C:\Users\Owner\Downloads","no","mono","no","18","no","white","no","yes","768","legacy","74","11","C:/Users/Owner/Downloads/subject-1.csv","legacy","2 5 4 8 7","Lentiform Loewenfeld","3.3.12","3","y","0","left","right","right","left","NA","897","11443","17137","897","NA","NA","NA","2","legacy","5","1024","2","48000","-16","experiment","1","odd","4","557615","557617","559819","558618","14360","561820","556547","2911","105010","NA","544240","2915","87873","561820","562718","NA","NA","Sternberg Task","73","71818","87","yes","1024"
"84.0909090909091","84.0909090909091","824.8863636363636","824.8863636363636","black","experiment","legacy","legacy","legacy","0","uniform","1","undefined","1","left","87","87","87","87","0","87","87","0","0","NA","87","0","0","87","87","0","NA","Sat Oct 15 15:54:13 2022","The main experiment item","yes","Lab_3.1.osexp","C:\Users\Owner\Downloads","no","mono","no","18","no","white","no","yes","768","legacy","75","11","C:/Users/Owner/Downloads/subject-1.csv","legacy","3 5 4 7","Lentiform Loewenfeld","3.3.12","1","y","0","left","right","right","left","NA","772","11443","17137","772","NA","NA","NA","2","legacy","4","1024","2","48000","-16","experiment","1","odd","3","563797","563799","566002","564801","14360","568003","562723","2911","105010","NA","544240","2915","87873","568003","568776","NA","NA","Sternberg Task","74","72590","88","yes","1024"
"84.26966292134831","84.26966292134831","825.4044943820224","825.4044943820224","black","experiment","legacy","legacy","legacy","0","uniform","1","undefined","1","right","88","88","88","88","0","88","88","0","0","NA","88","0","0","88","88","0","NA","Sat Oct 15 15:54:13 2022","The main experiment item","yes","Lab_3.1.osexp","C:\Users\Owner\Downloads","no","mono","no","18","no","white","no","yes","768","legacy","76","11","C:/Users/Owner/Downloads/subject-1.csv","legacy","1 5 3 2 8","Lentiform Loewenfeld","3.3.12","0","n","0","right","right","right","right","NA","871","11443","17137","871","NA","NA","NA","2","legacy","5","1024","2","48000","-16","experiment","1","odd","4","569848","569850","572052","570851","14360","574053","568780","2911","105010","NA","544240","2915","87873","574053","574925","NA","NA","Sternberg Task","75","73461","89","yes","1024"
"84.44444444444444","84.44444444444444","828.9","828.9","black","experiment","legacy","legacy","legacy","0","uniform","1","undefined","1","left","89","89","89","89","0","89","89","0","0","NA","89","0","0","89","89","0","NA","Sat Oct 15 15:54:13 2022","The main experiment item","yes","Lab_3.1.osexp","C:\Users\Owner\Downloads","no","mono","no","18","no","white","no","yes","768","legacy","77","11","C:/Users/Owner/Downloads/subject-1.csv","legacy","2 6 1 7 4","Lentiform Loewenfeld","3.3.12","2","y","0","left","right","right","left","NA","1140","11443","17137","1140","NA","NA","NA","2","legacy","5","1024","2","48000","-16","experiment","1","odd","6","575998","576001","578203","577002","14360","580204","574932","2911","105010","NA","544240","2915","87873","580204","581346","NA","NA","Sternberg Task","76","74601","90","yes","1024"
"84.61538461538461","84.61538461538461","828.3516483516484","828.3516483516484","black","experiment","legacy","legacy","legacy","0","uniform","1","undefined","1","right","90","90","90","90","0","90","90","0","0","NA","90","0","0","90","90","0","NA","Sat Oct 15 15:54:13 2022","The main experiment item","yes","Lab_3.1.osexp","C:\Users\Owner\Downloads","no","mono","no","18","no","white","no","yes","768","legacy","78","11","C:/Users/Owner/Downloads/subject-1.csv","legacy","5 9 2 3","Lentiform Loewenfeld","3.3.12","0","n","0","right","right","right","right","NA","779","11443","17137","779","NA","NA","NA","2","legacy","4","1024","2","48000","-16","experiment","1","odd","8","582419","582422","584624","583423","14360","586625","581352","2911","105010","NA","544240","2915","87873","586625","587405","NA","NA","Sternberg Task","77","75380","91","yes","1024"
"83.69565217391305","83.69565217391305","830.6630434782609","830.6630434782609","black","experiment","legacy","legacy","legacy","0","uniform","0","undefined","0","right","91","91","91","91","0","91","91","0","0","NA","91","0","0","91","91","0","NA","Sat Oct 15 15:54:13 2022","The main experiment item","yes","Lab_3.1.osexp","C:\Users\Owner\Downloads","no","mono","no","18","no","white","no","yes","768","legacy","79","11","C:/Users/Owner/Downloads/subject-1.csv","legacy","8 9","Lentiform Loewenfeld","3.3.12","0","n","0","left","right","right","left","NA","1041","11443","17137","1041","NA","NA","NA","2","legacy","2","1024","2","48000","-16","experiment","1","odd","5","588478","588481","590683","589482","14360","592684","587409","2911","105010","NA","544240","2915","87873","592684","593727","NA","NA","Sternberg Task","77","76421","92","yes","1024"
"83.87096774193549","83.87096774193549","834.3010752688172","834.3010752688172","black","experiment","legacy","legacy","legacy","0","uniform","1","undefined","1","right","92","92","92","92","0","92","92","0","0","NA","92","0","0","92","92","0","NA","Sat Oct 15 15:54:13 2022","The main experiment item","yes","Lab_3.1.osexp","C:\Users\Owner\Downloads","no","mono","no","18","no","white","no","yes","768","legacy","80","11","C:/Users/Owner/Downloads/subject-1.csv","legacy","8 5 4 2 9 6","Lentiform Loewenfeld","3.3.12","0","n","0","right","right","right","right","NA","1169","11443","17137","1169","NA","NA","NA","2","legacy","6","1024","2","48000","-16","experiment","1","odd","3","594798","594800","597002","595801","14360","599003","587409","2911","105010","NA","593731","2915","87873","599003","600174","NA","NA","Sternberg Task","78","77590","93","yes","1024"
"84.04255319148936","84.04255319148936","833.3617021276596","833.3617021276596","black","experiment","legacy","legacy","legacy","0","uniform","1","undefined","1","left","93","93","93","93","0","93","93","0","0","NA","93","0","0","93","93","0","NA","Sat Oct 15 15:54:13 2022","The main experiment item","yes","Lab_3.1.osexp","C:\Users\Owner\Downloads","no","mono","no","18","no","white","no","yes","768","legacy","81","11","C:/Users/Owner/Downloads/subject-1.csv","legacy","6 9 3 1","Lentiform Loewenfeld","3.3.12","4","y","0","left","right","right","left","NA","746","11443","17137","746","NA","NA","NA","2","legacy","4","1024","2","48000","-16","experiment","1","odd","1","601245","601247","603449","602248","14360","605450","600178","2911","105010","NA","593731","2915","87873","605450","606197","NA","NA","Sternberg Task","79","78336","94","yes","1024"
"84.21052631578948","84.21052631578948","832.6210526315789","832.6210526315789","black","experiment","legacy","legacy","legacy","0","uniform","1","undefined","1","left","94","94","94","94","0","94","94","0","0","NA","94","0","0","94","94","0","NA","Sat Oct 15 15:54:13 2022","The main experiment item","yes","Lab_3.1.osexp","C:\Users\Owner\Downloads","no","mono","no","18","no","white","no","yes","768","legacy","82","11","C:/Users/Owner/Downloads/subject-1.csv","legacy","9 4 2","Lentiform Loewenfeld","3.3.12","1","y","0","left","right","right","left","NA","763","11443","17137","763","NA","NA","NA","2","legacy","3","1024","2","48000","-16","experiment","1","odd","9","607281","607283","609485","608284","14360","611485","606204","2911","105010","NA","593731","2915","87873","611485","612250","NA","NA","Sternberg Task","80","79099","95","yes","1024"
"84.375","84.375","834.0520833333334","834.0520833333334","black","experiment","legacy","legacy","legacy","0","uniform","1","undefined","1","left","95","95","95","95","0","95","95","0","0","NA","95","0","0","95","95","0","NA","Sat Oct 15 15:54:13 2022","The main experiment item","yes","Lab_3.1.osexp","C:\Users\Owner\Downloads","no","mono","no","18","no","white","no","yes","768","legacy","83","11","C:/Users/Owner/Downloads/subject-1.csv","legacy","8 5 3 7 4 6","Lentiform Loewenfeld","3.3.12","6","y","0","left","right","right","left","NA","970","11443","17137","970","NA","NA","NA","2","legacy","6","1024","2","48000","-16","experiment","1","odd","6","613324","613325","615527","614326","14360","617528","612256","2911","105010","NA","593731","2915","87873","617528","618500","NA","NA","Sternberg Task","81","80069","96","yes","1024"
"84.5360824742268","84.5360824742268","834.1649484536083","834.1649484536083","black","experiment","legacy","legacy","legacy","0","uniform","1","undefined","1","left","96","96","96","96","0","96","96","0","0","NA","96","0","0","96","96","0","NA","Sat Oct 15 15:54:13 2022","The main experiment item","yes","Lab_3.1.osexp","C:\Users\Owner\Downloads","no","mono","no","18","no","white","no","yes","768","legacy","84","11","C:/Users/Owner/Downloads/subject-1.csv","legacy","8 1 6","Lentiform Loewenfeld","3.3.12","3","y","0","left","right","right","left","NA","845","11443","17137","845","NA","NA","NA","2","legacy","3","1024","2","48000","-16","experiment","1","odd","6","619571","619573","621775","620574","14360","623776","618504","2911","105010","NA","593731","2915","87873","623776","624623","NA","NA","Sternberg Task","82","80914","97","yes","1024"
"84.6938775510204","84.6938775510204","835.6428571428571","835.6428571428571","black","experiment","legacy","legacy","legacy","0","uniform","1","undefined","1","left","97","97","97","97","0","97","97","0","0","NA","97","0","0","97","97","0","NA","Sat Oct 15 15:54:13 2022","The main experiment item","yes","Lab_3.1.osexp","C:\Users\Owner\Downloads","no","mono","no","18","no","white","no","yes","768","legacy","85","11","C:/Users/Owner/Downloads/subject-1.csv","legacy","3 9 6 2","Lentiform Loewenfeld","3.3.12","4","y","0","left","right","right","left","NA","979","11443","17137","979","NA","NA","NA","2","legacy","4","1024","2","48000","-16","experiment","1","odd","2","625692","625694","627896","626695","14360","629897","624627","2911","105010","NA","593731","2915","87873","629897","630878","NA","NA","Sternberg Task","83","81893","98","yes","1024"
"84.84848484848484","84.84848484848484","834.3535353535353","834.3535353535353","black","experiment","legacy","legacy","legacy","0","uniform","1","undefined","1","left","98","98","98","98","0","98","98","0","0","NA","98","0","0","98","98","0","NA","Sat Oct 15 15:54:13 2022","The main experiment item","yes","Lab_3.1.osexp","C:\Users\Owner\Downloads","no","mono","no","18","no","white","no","yes","768","legacy","86","11","C:/Users/Owner/Downloads/subject-1.csv","legacy","6 9 7 4 5 1","Lentiform Loewenfeld","3.3.12","2","y","0","left","right","right","left","NA","708","11443","17137","708","NA","NA","NA","2","legacy","6","1024","2","48000","-16","experiment","1","odd","9","631970","631971","634173","632972","14360","636174","630884","2911","105010","NA","593731","2915","87873","636174","636883","NA","NA","Sternberg Task","84","82601","99","yes","1024"
"85","85","840.55","840.55","black","experiment","legacy","legacy","legacy","0","uniform","1","undefined","1","right","99","99","99","99","0","99","99","0","0","NA","99","0","0","99","99","0","NA","Sat Oct 15 15:54:13 2022","The main experiment item","yes","Lab_3.1.osexp","C:\Users\Owner\Downloads","no","mono","no","18","no","white","no","yes","768","legacy","87","11","C:/Users/Owner/Downloads/subject-1.csv","legacy","1","Lentiform Loewenfeld","3.3.12","0","n","0","right","right","right","right","NA","1454","11443","17137","1454","NA","NA","NA","2","legacy","1","1024","2","48000","-16","experiment","1","odd","7","637956","637958","640160","638959","14360","642161","636888","2911","105010","NA","593731","2915","87873","642161","643616","NA","NA","Sternberg Task","85","84055","100","yes","1024"
"85.14851485148515","85.14851485148515","836.980198019802","836.980198019802","black","experiment","legacy","legacy","legacy","0","uniform","1","undefined","1","left","100","100","100","100","0","100","100","0","0","NA","100","0","0","100","100","0","NA","Sat Oct 15 15:54:13 2022","The main experiment item","yes","Lab_3.1.osexp","C:\Users\Owner\Downloads","no","mono","no","18","no","white","no","yes","768","legacy","88","11","C:/Users/Owner/Downloads/subject-1.csv","legacy","8","Lentiform Loewenfeld","3.3.12","1","y","0","left","right","right","left","NA","480","11443","17137","480","NA","NA","NA","2","legacy","1","1024","2","48000","-16","experiment","1","odd","8","644688","644690","646893","645692","14360","648894","643621","2911","105010","NA","593731","2915","87873","648894","649376","NA","NA","Sternberg Task","86","84535","101","yes","1024"
"85.29411764705883","85.29411764705883","836.3921568627451","836.3921568627451","black","experiment","legacy","legacy","legacy","0","uniform","1","undefined","1","right","101","101","101","101","0","101","101","0","0","NA","101","0","0","101","101","0","NA","Sat Oct 15 15:54:13 2022","The main experiment item","yes","Lab_3.1.osexp","C:\Users\Owner\Downloads","no","mono","no","18","no","white","no","yes","768","legacy","89","11","C:/Users/Owner/Downloads/subject-1.csv","legacy","9 5 3 2 8 6","Lentiform Loewenfeld","3.3.12","0","n","0","right","right","right","right","NA","777","11443","17137","777","NA","NA","NA","2","legacy","6","1024","2","48000","-16","experiment","1","odd","7","650448","650450","652654","651453","14360","654655","649382","2911","105010","NA","593731","2915","87873","654655","655433","NA","NA","Sternberg Task","87","85312","102","yes","1024"
"85.4368932038835","85.4368932038835","839.1456310679612","839.1456310679612","black","experiment","legacy","legacy","legacy","0","uniform","1","undefined","1","left","102","102","102","102","0","102","102","0","0","NA","102","0","0","102","102","0","NA","Sat Oct 15 15:54:13 2022","The main experiment item","yes","Lab_3.1.osexp","C:\Users\Owner\Downloads","no","mono","no","18","no","white","no","yes","768","legacy","90","11","C:/Users/Owner/Downloads/subject-1.csv","legacy","5 2 6","Lentiform Loewenfeld","3.3.12","2","y","0","left","right","right","left","NA","1120","11443","17137","1120","NA","NA","NA","2","legacy","3","1024","2","48000","-16","experiment","1","odd","2","656505","656507","658709","657508","14360","660710","655439","2911","105010","NA","593731","2915","87873","660710","661832","NA","NA","Sternberg Task","88","86432","103","yes","1024"
"85.57692307692308","85.57692307692308","839.3653846153846","839.3653846153846","black","experiment","legacy","legacy","legacy","0","uniform","1","undefined","1","right","103","103","103","103","0","103","103","0","0","NA","103","0","0","103","103","0","NA","Sat Oct 15 15:54:13 2022","The main experiment item","yes","Lab_3.1.osexp","C:\Users\Owner\Downloads","no","mono","no","18","no","white","no","yes","768","legacy","91","11","C:/Users/Owner/Downloads/subject-1.csv","legacy","9","Lentiform Loewenfeld","3.3.12","0","n","0","right","right","right","right","NA","862","11443","17137","862","NA","NA","NA","2","legacy","1","1024","2","48000","-16","experiment","1","odd","6","662904","662907","665110","663909","14360","667111","661836","2911","105010","NA","593731","2915","87873","667111","667974","NA","NA","Sternberg Task","89","87294","104","yes","1024"
"84.76190476190476","84.76190476190476","850.4190476190477","850.4190476190477","black","experiment","legacy","legacy","legacy","0","uniform","0","undefined","0","right","104","104","104","104","0","104","104","0","0","NA","104","0","0","104","104","0","NA","Sat Oct 15 15:54:13 2022","The main experiment item","yes","Lab_3.1.osexp","C:\Users\Owner\Downloads","no","mono","no","18","no","white","no","yes","768","legacy","92","11","C:/Users/Owner/Downloads/subject-1.csv","legacy","8 4 3 9","Lentiform Loewenfeld","3.3.12","0","n","0","None","right","right","None","NA","2000","11443","17137","2000","NA","NA","NA","2","legacy","4","1024","2","48000","-16","experiment","1","odd","5","669055","669057","671259","670058","14360","673259","667981","2911","105010","NA","593731","2915","87873","673259","675259","NA","NA","Sternberg Task","89","89294","105","yes","1024"
"84.90566037735849","84.90566037735849","849.2830188679245","849.2830188679245","black","experiment","legacy","legacy","legacy","0","uniform","1","undefined","1","left","105","105","105","105","0","105","105","0","0","NA","105","0","0","105","105","0","NA","Sat Oct 15 15:54:13 2022","The main experiment item","yes","Lab_3.1.osexp","C:\Users\Owner\Downloads","no","mono","no","18","no","white","no","yes","768","legacy","93","11","C:/Users/Owner/Downloads/subject-1.csv","legacy","3 2 1 4 7","Lentiform Loewenfeld","3.3.12","2","y","0","left","right","right","left","NA","730","11443","17137","730","NA","NA","NA","2","legacy","5","1024","2","48000","-16","experiment","1","odd","2","676330","676331","678533","677332","14360","680534","667981","2911","105010","NA","675264","2915","87873","680534","681266","NA","NA","Sternberg Task","90","90024","106","yes","1024"
"84.11214953271028","84.11214953271028","850.0093457943925","850.0093457943925","black","experiment","legacy","legacy","legacy","0","uniform","0","undefined","0","right","106","106","106","106","0","106","106","0","0","NA","106","0","0","106","106","0","NA","Sat Oct 15 15:54:13 2022","The main experiment item","yes","Lab_3.1.osexp","C:\Users\Owner\Downloads","no","mono","no","18","no","white","no","yes","768","legacy","94","11","C:/Users/Owner/Downloads/subject-1.csv","legacy","6 9 7 3 8 2","Lentiform Loewenfeld","3.3.12","0","n","0","left","right","right","left","NA","927","11443","17137","927","NA","NA","NA","2","legacy","6","1024","2","48000","-16","experiment","1","odd","5","682348","682350","684552","683351","14360","686553","681270","2911","105010","NA","675264","2915","87873","686553","687483","NA","NA","Sternberg Task","90","90951","107","yes","1024"
"84.25925925925925","84.25925925925925","846.5","846.5","black","experiment","legacy","legacy","legacy","0","uniform","1","undefined","1","right","107","107","107","107","0","107","107","0","0","NA","107","0","0","107","107","0","NA","Sat Oct 15 15:54:13 2022","The main experiment item","yes","Lab_3.1.osexp","C:\Users\Owner\Downloads","no","mono","no","18","no","white","no","yes","768","legacy","95","11","C:/Users/Owner/Downloads/subject-1.csv","legacy","2 8 7 9 5 3","Lentiform Loewenfeld","3.3.12","0","n","0","right","right","right","right","NA","471","11443","17137","471","NA","NA","NA","2","legacy","6","1024","2","48000","-16","experiment","1","odd","6","688565","688568","690770","689569","14360","692771","681270","2911","105010","NA","687487","2915","87873","692771","693244","NA","NA","Sternberg Task","91","91422","108","yes","1024"
"84.40366972477064","84.40366972477064","845.2293577981651","845.2293577981651","black","experiment","legacy","legacy","legacy","0","uniform","1","undefined","1","left","108","108","108","108","0","108","108","0","0","NA","108","0","0","108","108","0","NA","Sat Oct 15 15:54:13 2022","The main experiment item","yes","Lab_3.1.osexp","C:\Users\Owner\Downloads","no","mono","no","18","no","white","no","yes","768","legacy","96","11","C:/Users/Owner/Downloads/subject-1.csv","legacy","2 8 5 1","Lentiform Loewenfeld","3.3.12","4","y","0","left","right","right","left","NA","708","11443","17137","708","NA","NA","NA","2","legacy","4","1024","2","48000","-16","experiment","1","odd","1","694315","694317","696519","695318","14360","698520","693249","2911","105010","NA","687487","2915","87873","698520","699230","NA","NA","Sternberg Task","92","92130","109","yes","1024"
"84.54545454545455","84.54545454545455","843.2181818181818","843.2181818181818","black","experiment","legacy","legacy","legacy","0","uniform","1","undefined","1","left","109","109","109","109","0","109","109","0","0","NA","109","0","0","109","109","0","NA","Sat Oct 15 15:54:13 2022","The main experiment item","yes","Lab_3.1.osexp","C:\Users\Owner\Downloads","no","mono","no","18","no","white","no","yes","768","legacy","97","11","C:/Users/Owner/Downloads/subject-1.csv","legacy","4 9 7 8 5 3","Lentiform Loewenfeld","3.3.12","4","y","0","left","right","right","left","NA","624","11443","17137","624","NA","NA","NA","2","legacy","6","1024","2","48000","-16","experiment","1","odd","8","700301","700303","702505","701304","14360","704506","699234","2911","105010","NA","687487","2915","87873","704506","705131","NA","NA","Sternberg Task","93","92754","110","yes","1024"
"84.68468468468468","84.68468468468468","842.3693693693693","842.3693693693693","black","experiment","legacy","legacy","legacy","0","uniform","1","undefined","1","left","110","110","110","110","0","110","110","0","0","NA","110","0","0","110","110","0","NA","Sat Oct 15 15:54:13 2022","The main experiment item","yes","Lab_3.1.osexp","C:\Users\Owner\Downloads","no","mono","no","18","no","white","no","yes","768","legacy","98","11","C:/Users/Owner/Downloads/subject-1.csv","legacy","9 8 4","Lentiform Loewenfeld","3.3.12","1","y","0","left","right","right","left","NA","749","11443","17137","749","NA","NA","NA","2","legacy","3","1024","2","48000","-16","experiment","1","odd","9","706205","706207","708410","707209","14360","710411","705136","2911","105010","NA","687487","2915","87873","710411","711161","NA","NA","Sternberg Task","94","93503","111","yes","1024"
"84.82142857142857","84.82142857142857","840.7410714285714","840.7410714285714","black","experiment","legacy","legacy","legacy","0","uniform","1","undefined","1","right","111","111","111","111","0","111","111","0","0","NA","111","0","0","111","111","0","NA","Sat Oct 15 15:54:13 2022","The main experiment item","yes","Lab_3.1.osexp","C:\Users\Owner\Downloads","no","mono","no","18","no","white","no","yes","768","legacy","99","11","C:/Users/Owner/Downloads/subject-1.csv","legacy","5 2","Lentiform Loewenfeld","3.3.12","0","n","0","right","right","right","right","NA","660","11443","17137","660","NA","NA","NA","2","legacy","2","1024","2","48000","-16","experiment","1","odd","7","712233","712235","714437","713236","14360","716438","711166","2911","105010","NA","687487","2915","87873","716438","717100","NA","NA","Sternberg Task","95","94163","112","yes","1024"
"84.070796460177","84.070796460177","841.0884955752213","841.0884955752213","black","experiment","legacy","legacy","legacy","0","uniform","0","undefined","0","right","112","112","112","112","0","112","112","0","0","NA","112","0","0","112","112","0","NA","Sat Oct 15 15:54:13 2022","The main experiment item","yes","Lab_3.1.osexp","C:\Users\Owner\Downloads","no","mono","no","18","no","white","no","yes","768","legacy","100","11","C:/Users/Owner/Downloads/subject-1.csv","legacy","1 6 4 3 9 7","Lentiform Loewenfeld","3.3.12","0","n","0","left","right","right","left","NA","880","11443","17137","880","NA","NA","NA","2","legacy","6","1024","2","48000","-16","experiment","1","odd","8","718194","718196","720399","719198","14360","722400","717104","2911","105010","NA","687487","2915","87873","722401","723283","NA","NA","Sternberg Task","95","95043","113","yes","1024"
"84.21052631578948","84.21052631578948","841.0438596491229","841.0438596491229","black","experiment","legacy","legacy","legacy","0","uniform","1","undefined","1","left","113","113","113","113","0","113","113","0","0","NA","113","0","0","113","113","0","NA","Sat Oct 15 15:54:13 2022","The main experiment item","yes","Lab_3.1.osexp","C:\Users\Owner\Downloads","no","mono","no","18","no","white","no","yes","768","legacy","101","11","C:/Users/Owner/Downloads/subject-1.csv","legacy","9 5 8 1","Lentiform Loewenfeld","3.3.12","2","y","0","left","right","right","left","NA","836","11443","17137","836","NA","NA","NA","2","legacy","4","1024","2","48000","-16","experiment","1","odd","5","724356","724358","726561","725360","14360","728562","717104","2911","105010","NA","723288","2915","87873","728562","729400","NA","NA","Sternberg Task","96","95879","114","yes","1024"
"84.34782608695652","84.34782608695652","842.295652173913","842.295652173913","black","experiment","legacy","legacy","legacy","0","uniform","1","undefined","1","right","114","114","114","114","0","114","114","0","0","NA","114","0","0","114","114","0","NA","Sat Oct 15 15:54:13 2022","The main experiment item","yes","Lab_3.1.osexp","C:\Users\Owner\Downloads","no","mono","no","18","no","white","no","yes","768","legacy","102","11","C:/Users/Owner/Downloads/subject-1.csv","legacy","3 4 2","Lentiform Loewenfeld","3.3.12","0","n","0","right","right","right","right","NA","985","11443","17137","985","NA","NA","NA","2","legacy","3","1024","2","48000","-16","experiment","1","odd","5","730472","730473","732675","731474","14360","734676","729405","2911","105010","NA","723288","2915","87873","734676","735662","NA","NA","Sternberg Task","97","96864","115","yes","1024"
