"acc","accuracy","average_response_time","avg_rt","background","block","canvas_backend","clock_backend","color_backend","compensation","coordinates","correct","correct_instruction1","correct_keyboard_response_1","correct_response","count_ISI_1","count_PracticeLoop","count_correctFeedback_1","count_expSequence_1","count_experiment","count_experimentLoop","count_fixation_1","count_incorrectFeedback_1","count_instruction1","count_instruction2","count_keyboard_response_1","count_logger_1","count_memorySet_1","count_probe_1","count_thankYou","datetime","description","disable_garbage_collection","experiment_file","experiment_path","font_bold","font_family","font_italic","font_size","font_underline","foreground","form_clicks","fullscreen","height","keyboard_backend","live_row","live_row_PracticeLoop","logfile","mouse_backend","numberSet","opensesame_codename","opensesame_version","posInSet","present","psychopy_waitblanking","repeat_cycle","response","response_instruction1","response_instruction2","response_keyboard_response_1","response_thankYou","response_time","response_time_instruction1","response_time_instruction2","response_time_keyboard_response_1","response_time_thankYou","round_decimals","sampler_backend","setSize","sound_buf_size","sound_channels","sound_freq","sound_sample_size","start","subject_nr","subject_parity","target","time_ISI_1","time_PracticeLoop","time_correctFeedback_1","time_expSequence_1","time_experiment","time_experimentLoop","time_fixation_1","time_incorrectFeedback_1","time_instruction1","time_instruction2","time_keyboard_response_1","time_logger_1","time_memorySet_1","time_probe_1","time_thankYou","title","total_correct","total_response_time","total_responses","uniform_coordinates","width"
"0","0","1199","1199","black","practice","legacy","legacy","legacy","0","uniform","0","undefined","0","left","0","0","0","0","0","0","0","0","0","0","0","0","0","0","0","Wed Oct 19 20:42:56 2022","The main experiment item","yes","SternbergTask.osexp","C:/Users/lil_p/OneDrive/Documents/School/Advanced Quantitative Analysis/Lab 3.1","no","mono","no","18","no","white","no","yes","768","legacy","0","0","C:/Users/lil_p/OneDrive/Documents/School/Advanced Quantitative Analysis/Lab 3.1/dm-subject-4.csv","legacy","1 7 9 8 5","Lentiform Loewenfeld","3.3.12","4","y","yes","0","right","right","NA","right","NA","1199","50640","NA","1199","NA","2","legacy","5","1024","2","48000","-16","experiment","4","even","8","57171","54028","NA","54967","3377","NA","54969","NA","3385","NA","59172","60372","55970","59172","NA","Sternberg Task","0","1199","1","yes","1024"
"0","0","1331","1331","black","practice","legacy","legacy","legacy","0","uniform","0","undefined","0","right","1","0","1","1","0","0","1","1","0","0","1","1","1","1","0","Wed Oct 19 20:42:56 2022","The main experiment item","yes","SternbergTask.osexp","C:/Users/lil_p/OneDrive/Documents/School/Advanced Quantitative Analysis/Lab 3.1","no","mono","no","18","no","white","no","yes","768","legacy","1","1","C:/Users/lil_p/OneDrive/Documents/School/Advanced Quantitative Analysis/Lab 3.1/dm-subject-4.csv","legacy","2 1","Lentiform Loewenfeld","3.3.12","0","n","yes","0","left","right","NA","left","NA","1463","50640","NA","1463","NA","2","legacy","2","1024","2","48000","-16","experiment","4","even","5","63779","54028","NA","61574","3377","NA","61577","60451","3385","NA","65780","67244","62578","65780","NA","Sternberg Task","0","2662","2","yes","1024"
"33.333333333333336","33.333333333333336","1315","1315","black","practice","legacy","legacy","legacy","0","uniform","1","undefined","1","left","2","0","2","2","0","0","2","2","0","0","2","2","2","2","0","Wed Oct 19 20:42:56 2022","The main experiment item","yes","SternbergTask.osexp","C:/Users/lil_p/OneDrive/Documents/School/Advanced Quantitative Analysis/Lab 3.1","no","mono","no","18","no","white","no","yes","768","legacy","2","2","C:/Users/lil_p/OneDrive/Documents/School/Advanced Quantitative Analysis/Lab 3.1/dm-subject-4.csv","legacy","4 3 1 7 9 8","Lentiform Loewenfeld","3.3.12","1","y","yes","0","left","right","NA","left","NA","1283","50640","NA","1283","NA","2","legacy","6","1024","2","48000","-16","experiment","4","even","4","70573","54028","NA","68367","3377","NA","68370","67250","3385","NA","72574","73858","69371","72574","NA","Sternberg Task","1","3945","3","yes","1024"
"50","50","1191.75","1191.75","black","practice","legacy","legacy","legacy","0","uniform","1","undefined","1","left","3","0","3","3","0","0","3","3","0","0","3","3","3","3","0","Wed Oct 19 20:42:56 2022","The main experiment item","yes","SternbergTask.osexp","C:/Users/lil_p/OneDrive/Documents/School/Advanced Quantitative Analysis/Lab 3.1","no","mono","no","18","no","white","no","yes","768","legacy","3","3","C:/Users/lil_p/OneDrive/Documents/School/Advanced Quantitative Analysis/Lab 3.1/dm-subject-4.csv","legacy","4 8","Lentiform Loewenfeld","3.3.12","1","y","yes","0","left","right","NA","left","NA","822","50640","NA","822","NA","2","legacy","2","1024","2","48000","-16","experiment","4","even","4","77182","54028","73864","74977","3377","NA","74978","67250","3385","NA","79183","80006","75980","79183","NA","Sternberg Task","2","4767","4","yes","1024"
"60","60","1065.6","1065.6","black","practice","legacy","legacy","legacy","0","uniform","1","undefined","1","left","4","0","4","4","0","0","4","4","0","0","4","4","4","4","0","Wed Oct 19 20:42:56 2022","The main experiment item","yes","SternbergTask.osexp","C:/Users/lil_p/OneDrive/Documents/School/Advanced Quantitative Analysis/Lab 3.1","no","mono","no","18","no","white","no","yes","768","legacy","4","4","C:/Users/lil_p/OneDrive/Documents/School/Advanced Quantitative Analysis/Lab 3.1/dm-subject-4.csv","legacy","1 5 2 9","Lentiform Loewenfeld","3.3.12","2","y","yes","0","left","right","NA","left","NA","561","50640","NA","561","NA","2","legacy","4","1024","2","48000","-16","experiment","4","even","5","83333","54028","80013","81128","3377","NA","81131","67250","3385","NA","85334","85896","82132","85334","NA","Sternberg Task","3","5328","5","yes","1024"
"66.66666666666667","66.66666666666667","1003.6666666666666","1003.6666666666666","black","practice","legacy","legacy","legacy","0","uniform","1","undefined","1","right","5","0","5","5","0","0","5","5","0","0","5","5","5","5","0","Wed Oct 19 20:42:56 2022","The main experiment item","yes","SternbergTask.osexp","C:/Users/lil_p/OneDrive/Documents/School/Advanced Quantitative Analysis/Lab 3.1","no","mono","no","18","no","white","no","yes","768","legacy","5","5","C:/Users/lil_p/OneDrive/Documents/School/Advanced Quantitative Analysis/Lab 3.1/dm-subject-4.csv","legacy","5","Lentiform Loewenfeld","3.3.12","0","n","yes","0","right","right","NA","right","NA","694","50640","NA","694","NA","2","legacy","1","1024","2","48000","-16","experiment","4","even","3","89216","54028","85900","87011","3377","NA","87014","67250","3385","NA","91217","91911","88015","91217","NA","Sternberg Task","4","6022","6","yes","1024"
"71.42857142857143","71.42857142857143","964.7142857142857","964.7142857142857","black","practice","legacy","legacy","legacy","0","uniform","1","undefined","1","left","6","0","6","6","0","0","6","6","0","0","6","6","6","6","0","Wed Oct 19 20:42:56 2022","The main experiment item","yes","SternbergTask.osexp","C:/Users/lil_p/OneDrive/Documents/School/Advanced Quantitative Analysis/Lab 3.1","no","mono","no","18","no","white","no","yes","768","legacy","6","6","C:/Users/lil_p/OneDrive/Documents/School/Advanced Quantitative Analysis/Lab 3.1/dm-subject-4.csv","legacy","2 9 4","Lentiform Loewenfeld","3.3.12","3","y","yes","0","left","right","NA","left","NA","731","50640","NA","731","NA","2","legacy","3","1024","2","48000","-16","experiment","4","even","4","95236","54028","91918","93031","3377","NA","93034","67250","3385","NA","97237","97969","94035","97237","NA","Sternberg Task","5","6753","7","yes","1024"
"75","75","932.25","932.25","black","practice","legacy","legacy","legacy","0","uniform","1","undefined","1","right","7","0","7","7","0","0","7","7","0","0","7","7","7","7","0","Wed Oct 19 20:42:56 2022","The main experiment item","yes","SternbergTask.osexp","C:/Users/lil_p/OneDrive/Documents/School/Advanced Quantitative Analysis/Lab 3.1","no","mono","no","18","no","white","no","yes","768","legacy","7","7","C:/Users/lil_p/OneDrive/Documents/School/Advanced Quantitative Analysis/Lab 3.1/dm-subject-4.csv","legacy","4 1 5","Lentiform Loewenfeld","3.3.12","0","n","yes","0","right","right","NA","right","NA","705","50640","NA","705","NA","2","legacy","3","1024","2","48000","-16","experiment","4","even","2","101290","54028","97973","99085","3377","NA","99087","67250","3385","NA","103291","103997","100089","103291","NA","Sternberg Task","6","7458","8","yes","1024"
"77.77777777777777","77.77777777777777","909.3333333333334","909.3333333333334","black","practice","legacy","legacy","legacy","0","uniform","1","undefined","1","left","8","0","8","8","0","0","8","8","0","0","8","8","8","8","0","Wed Oct 19 20:42:56 2022","The main experiment item","yes","SternbergTask.osexp","C:/Users/lil_p/OneDrive/Documents/School/Advanced Quantitative Analysis/Lab 3.1","no","mono","no","18","no","white","no","yes","768","legacy","8","8","C:/Users/lil_p/OneDrive/Documents/School/Advanced Quantitative Analysis/Lab 3.1/dm-subject-4.csv","legacy","6","Lentiform Loewenfeld","3.3.12","1","y","yes","0","left","right","NA","left","NA","726","50640","NA","726","NA","2","legacy","1","1024","2","48000","-16","experiment","4","even","6","107319","54028","104001","105114","3377","NA","105116","67250","3385","NA","109320","110047","106117","109320","NA","Sternberg Task","7","8184","9","yes","1024"
"80","80","881.3","881.3","black","practice","legacy","legacy","legacy","0","uniform","1","undefined","1","right","9","0","9","9","0","0","9","9","0","0","9","9","9","9","0","Wed Oct 19 20:42:56 2022","The main experiment item","yes","SternbergTask.osexp","C:/Users/lil_p/OneDrive/Documents/School/Advanced Quantitative Analysis/Lab 3.1","no","mono","no","18","no","white","no","yes","768","legacy","9","9","C:/Users/lil_p/OneDrive/Documents/School/Advanced Quantitative Analysis/Lab 3.1/dm-subject-4.csv","legacy","3 1 9 4","Lentiform Loewenfeld","3.3.12","0","n","yes","0","right","right","NA","right","NA","629","50640","NA","629","NA","2","legacy","4","1024","2","48000","-16","experiment","4","even","6","113372","54028","110052","111166","3377","NA","111169","67250","3385","NA","115373","116003","112170","115373","NA","Sternberg Task","8","8813","10","yes","1024"
"72.72727272727273","72.72727272727273","861.1818181818181","861.1818181818181","black","practice","legacy","legacy","legacy","0","uniform","0","undefined","0","right","10","0","10","10","0","0","10","10","0","0","10","10","10","10","0","Wed Oct 19 20:42:56 2022","The main experiment item","yes","SternbergTask.osexp","C:/Users/lil_p/OneDrive/Documents/School/Advanced Quantitative Analysis/Lab 3.1","no","mono","no","18","no","white","no","yes","768","legacy","10","10","C:/Users/lil_p/OneDrive/Documents/School/Advanced Quantitative Analysis/Lab 3.1/dm-subject-4.csv","legacy","9 6 7 4 5","Lentiform Loewenfeld","3.3.12","0","n","yes","0","left","right","NA","left","NA","660","50640","NA","660","NA","2","legacy","5","1024","2","48000","-16","experiment","4","even","3","119334","54028","116009","117127","3377","NA","117131","67250","3385","NA","121335","121996","118132","121335","NA","Sternberg Task","8","9473","11","yes","1024"
"75","75","876","876","black","practice","legacy","legacy","legacy","0","uniform","1","undefined","1","right","11","0","11","11","0","0","11","11","0","0","11","11","11","11","0","Wed Oct 19 20:42:56 2022","The main experiment item","yes","SternbergTask.osexp","C:/Users/lil_p/OneDrive/Documents/School/Advanced Quantitative Analysis/Lab 3.1","no","mono","no","18","no","white","no","yes","768","legacy","11","11","C:/Users/lil_p/OneDrive/Documents/School/Advanced Quantitative Analysis/Lab 3.1/dm-subject-4.csv","legacy","5 7 8 4 1 2","Lentiform Loewenfeld","3.3.12","0","n","yes","0","right","right","NA","right","NA","1039","50640","NA","1039","NA","2","legacy","6","1024","2","48000","-16","experiment","4","even","6","125331","54028","116009","123127","3377","NA","123129","122003","3385","NA","127332","128372","124130","127332","NA","Sternberg Task","9","10512","12","yes","1024"
"76.92307692307692","76.92307692307692","850.6923076923077","850.6923076923077","black","experiment","legacy","legacy","legacy","0","uniform","1","undefined","1","left","12","0","12","12","0","0","12","12","0","0","12","12","12","12","0","Wed Oct 19 20:42:56 2022","The main experiment item","yes","SternbergTask.osexp","C:/Users/lil_p/OneDrive/Documents/School/Advanced Quantitative Analysis/Lab 3.1","no","mono","no","18","no","white","no","yes","768","legacy","0","11","C:/Users/lil_p/OneDrive/Documents/School/Advanced Quantitative Analysis/Lab 3.1/dm-subject-4.csv","legacy","8","Lentiform Loewenfeld","3.3.12","1","y","yes","0","left","right","right","left","NA","547","50640","4665","547","NA","2","legacy","1","1024","2","48000","-16","experiment","4","even","8","136404","54028","128378","134199","3377","134080","134202","122003","3385","129414","138405","138952","135203","138405","NA","Sternberg Task","10","11059","13","yes","1024"
"78.57142857142857","78.57142857142857","858.3571428571429","858.3571428571429","black","experiment","legacy","legacy","legacy","0","uniform","1","undefined","1","left","13","0","13","13","0","0","13","13","0","0","13","13","13","13","0","Wed Oct 19 20:42:56 2022","The main experiment item","yes","SternbergTask.osexp","C:/Users/lil_p/OneDrive/Documents/School/Advanced Quantitative Analysis/Lab 3.1","no","mono","no","18","no","white","no","yes","768","legacy","1","11","C:/Users/lil_p/OneDrive/Documents/School/Advanced Quantitative Analysis/Lab 3.1/dm-subject-4.csv","legacy","8 9 5 7 1 6","Lentiform Loewenfeld","3.3.12","4","y","yes","0","left","right","right","left","NA","958","50640","4665","958","NA","2","legacy","6","1024","2","48000","-16","experiment","4","even","7","142280","54028","138958","140074","3377","134080","140077","122003","3385","129414","144281","145240","141078","144281","NA","Sternberg Task","11","12017","14","yes","1024"
"80","80","883.7333333333333","883.7333333333333","black","experiment","legacy","legacy","legacy","0","uniform","1","undefined","1","left","14","0","14","14","0","0","14","14","0","0","14","14","14","14","0","Wed Oct 19 20:42:56 2022","The main experiment item","yes","SternbergTask.osexp","C:/Users/lil_p/OneDrive/Documents/School/Advanced Quantitative Analysis/Lab 3.1","no","mono","no","18","no","white","no","yes","768","legacy","2","11","C:/Users/lil_p/OneDrive/Documents/School/Advanced Quantitative Analysis/Lab 3.1/dm-subject-4.csv","legacy","3 9 6 2","Lentiform Loewenfeld","3.3.12","4","y","yes","0","left","right","right","left","NA","1239","50640","4665","1239","NA","2","legacy","4","1024","2","48000","-16","experiment","4","even","2","148569","54028","145247","146364","3377","134080","146367","122003","3385","129414","150570","151810","147368","150570","NA","Sternberg Task","12","13256","15","yes","1024"
"81.25","81.25","872.375","872.375","black","experiment","legacy","legacy","legacy","0","uniform","1","undefined","1","left","15","0","15","15","0","0","15","15","0","0","15","15","15","15","0","Wed Oct 19 20:42:56 2022","The main experiment item","yes","SternbergTask.osexp","C:/Users/lil_p/OneDrive/Documents/School/Advanced Quantitative Analysis/Lab 3.1","no","mono","no","18","no","white","no","yes","768","legacy","3","11","C:/Users/lil_p/OneDrive/Documents/School/Advanced Quantitative Analysis/Lab 3.1/dm-subject-4.csv","legacy","4 1 8 7 5","Lentiform Loewenfeld","3.3.12","3","y","yes","0","left","right","right","left","NA","702","50640","4665","702","NA","2","legacy","5","1024","2","48000","-16","experiment","4","even","8","155132","54028","151815","152927","3377","134080","152929","122003","3385","129414","157133","157836","153931","157133","NA","Sternberg Task","13","13958","16","yes","1024"
"82.3529411764706","82.3529411764706","856.1176470588235","856.1176470588235","black","experiment","legacy","legacy","legacy","0","uniform","1","undefined","1","right","16","0","16","16","0","0","16","16","0","0","16","16","16","16","0","Wed Oct 19 20:42:56 2022","The main experiment item","yes","SternbergTask.osexp","C:/Users/lil_p/OneDrive/Documents/School/Advanced Quantitative Analysis/Lab 3.1","no","mono","no","18","no","white","no","yes","768","legacy","4","11","C:/Users/lil_p/OneDrive/Documents/School/Advanced Quantitative Analysis/Lab 3.1/dm-subject-4.csv","legacy","1 7 5 2 9","Lentiform Loewenfeld","3.3.12","0","n","yes","0","right","right","right","right","NA","596","50640","4665","596","NA","2","legacy","5","1024","2","48000","-16","experiment","4","even","3","161157","54028","157841","158952","3377","134080","158955","122003","3385","129414","163158","163755","159956","163158","NA","Sternberg Task","14","14554","17","yes","1024"
"83.33333333333333","83.33333333333333","852.7222222222222","852.7222222222222","black","experiment","legacy","legacy","legacy","0","uniform","1","undefined","1","right","17","0","17","17","0","0","17","17","0","0","17","17","17","17","0","Wed Oct 19 20:42:56 2022","The main experiment item","yes","SternbergTask.osexp","C:/Users/lil_p/OneDrive/Documents/School/Advanced Quantitative Analysis/Lab 3.1","no","mono","no","18","no","white","no","yes","768","legacy","5","11","C:/Users/lil_p/OneDrive/Documents/School/Advanced Quantitative Analysis/Lab 3.1/dm-subject-4.csv","legacy","5 3 2 6 9 8","Lentiform Loewenfeld","3.3.12","0","n","yes","0","right","right","right","right","NA","795","50640","4665","795","NA","2","legacy","6","1024","2","48000","-16","experiment","4","even","4","167082","54028","163762","164878","3377","134080","164880","122003","3385","129414","169083","169879","165881","169083","NA","Sternberg Task","15","15349","18","yes","1024"
"84.21052631578948","84.21052631578948","846.2631578947369","846.2631578947369","black","experiment","legacy","legacy","legacy","0","uniform","1","undefined","1","right","18","0","18","18","0","0","18","18","0","0","18","18","18","18","0","Wed Oct 19 20:42:56 2022","The main experiment item","yes","SternbergTask.osexp","C:/Users/lil_p/OneDrive/Documents/School/Advanced Quantitative Analysis/Lab 3.1","no","mono","no","18","no","white","no","yes","768","legacy","6","11","C:/Users/lil_p/OneDrive/Documents/School/Advanced Quantitative Analysis/Lab 3.1/dm-subject-4.csv","legacy","1 6 4","Lentiform Loewenfeld","3.3.12","0","n","yes","0","right","right","right","right","NA","730","50640","4665","730","NA","2","legacy","3","1024","2","48000","-16","experiment","4","even","7","173203","54028","169885","170998","3377","134080","171001","122003","3385","129414","175204","175935","172002","175204","NA","Sternberg Task","16","16079","19","yes","1024"
"85","85","846.8","846.8","black","experiment","legacy","legacy","legacy","0","uniform","1","undefined","1","left","19","0","19","19","0","0","19","19","0","0","19","19","19","19","0","Wed Oct 19 20:42:56 2022","The main experiment item","yes","SternbergTask.osexp","C:/Users/lil_p/OneDrive/Documents/School/Advanced Quantitative Analysis/Lab 3.1","no","mono","no","18","no","white","no","yes","768","legacy","7","11","C:/Users/lil_p/OneDrive/Documents/School/Advanced Quantitative Analysis/Lab 3.1/dm-subject-4.csv","legacy","6 5","Lentiform Loewenfeld","3.3.12","2","y","yes","0","left","right","right","left","NA","857","50640","4665","857","NA","2","legacy","2","1024","2","48000","-16","experiment","4","even","5","179255","54028","175939","177050","3377","134080","177053","122003","3385","129414","181256","182114","178054","181256","NA","Sternberg Task","17","16936","20","yes","1024"
"85.71428571428571","85.71428571428571","841.2380952380952","841.2380952380952","black","experiment","legacy","legacy","legacy","0","uniform","1","undefined","1","right","20","0","20","20","0","0","20","20","0","0","20","20","20","20","0","Wed Oct 19 20:42:56 2022","The main experiment item","yes","SternbergTask.osexp","C:/Users/lil_p/OneDrive/Documents/School/Advanced Quantitative Analysis/Lab 3.1","no","mono","no","18","no","white","no","yes","768","legacy","8","11","C:/Users/lil_p/OneDrive/Documents/School/Advanced Quantitative Analysis/Lab 3.1/dm-subject-4.csv","legacy","1 6 4 3 9 7","Lentiform Loewenfeld","3.3.12","0","n","yes","0","right","right","right","right","NA","730","50640","4665","730","NA","2","legacy","6","1024","2","48000","-16","experiment","4","even","8","185450","54028","182120","183244","3377","134080","183247","122003","3385","129414","187451","188182","184248","187451","NA","Sternberg Task","18","17666","21","yes","1024"
"86.36363636363636","86.36363636363636","831.5","831.5","black","experiment","legacy","legacy","legacy","0","uniform","1","undefined","1","left","21","0","21","21","0","0","21","21","0","0","21","21","21","21","0","Wed Oct 19 20:42:56 2022","The main experiment item","yes","SternbergTask.osexp","C:/Users/lil_p/OneDrive/Documents/School/Advanced Quantitative Analysis/Lab 3.1","no","mono","no","18","no","white","no","yes","768","legacy","9","11","C:/Users/lil_p/OneDrive/Documents/School/Advanced Quantitative Analysis/Lab 3.1/dm-subject-4.csv","legacy","4 1 5","Lentiform Loewenfeld","3.3.12","2","y","yes","0","left","right","right","left","NA","627","50640","4665","627","NA","2","legacy","3","1024","2","48000","-16","experiment","4","even","1","191503","54028","188187","189299","3377","134080","189300","122003","3385","129414","193504","194132","190302","193504","NA","Sternberg Task","19","18293","22","yes","1024"
"86.95652173913044","86.95652173913044","823.1304347826087","823.1304347826087","black","experiment","legacy","legacy","legacy","0","uniform","1","undefined","1","right","22","0","22","22","0","0","22","22","0","0","22","22","22","22","0","Wed Oct 19 20:42:56 2022","The main experiment item","yes","SternbergTask.osexp","C:/Users/lil_p/OneDrive/Documents/School/Advanced Quantitative Analysis/Lab 3.1","no","mono","no","18","no","white","no","yes","768","legacy","10","11","C:/Users/lil_p/OneDrive/Documents/School/Advanced Quantitative Analysis/Lab 3.1/dm-subject-4.csv","legacy","5 9 2 3","Lentiform Loewenfeld","3.3.12","0","n","yes","0","right","right","right","right","NA","639","50640","4665","639","NA","2","legacy","4","1024","2","48000","-16","experiment","4","even","8","197455","54028","194139","195251","3377","134080","195253","122003","3385","129414","199456","200096","196254","199456","NA","Sternberg Task","20","18932","23","yes","1024"
"87.5","87.5","820.75","820.75","black","experiment","legacy","legacy","legacy","0","uniform","1","undefined","1","right","23","0","23","23","0","0","23","23","0","0","23","23","23","23","0","Wed Oct 19 20:42:56 2022","The main experiment item","yes","SternbergTask.osexp","C:/Users/lil_p/OneDrive/Documents/School/Advanced Quantitative Analysis/Lab 3.1","no","mono","no","18","no","white","no","yes","768","legacy","11","11","C:/Users/lil_p/OneDrive/Documents/School/Advanced Quantitative Analysis/Lab 3.1/dm-subject-4.csv","legacy","6 9 5","Lentiform Loewenfeld","3.3.12","0","n","yes","0","right","right","right","right","NA","766","50640","4665","766","NA","2","legacy","3","1024","2","48000","-16","experiment","4","even","8","203417","54028","200101","201212","3377","134080","201214","122003","3385","129414","205418","206185","202215","205418","NA","Sternberg Task","21","19698","24","yes","1024"
"88","88","809.88","809.88","black","experiment","legacy","legacy","legacy","0","uniform","1","undefined","1","right","24","0","24","24","0","0","24","24","0","0","24","24","24","24","0","Wed Oct 19 20:42:56 2022","The main experiment item","yes","SternbergTask.osexp","C:/Users/lil_p/OneDrive/Documents/School/Advanced Quantitative Analysis/Lab 3.1","no","mono","no","18","no","white","no","yes","768","legacy","12","11","C:/Users/lil_p/OneDrive/Documents/School/Advanced Quantitative Analysis/Lab 3.1/dm-subject-4.csv","legacy","2 7 5","Lentiform Loewenfeld","3.3.12","0","n","yes","0","right","right","right","right","NA","549","50640","4665","549","NA","2","legacy","3","1024","2","48000","-16","experiment","4","even","8","209510","54028","206191","207305","3377","134080","207308","122003","3385","129414","211511","212061","208309","211511","NA","Sternberg Task","22","20247","25","yes","1024"
"84.61538461538461","84.61538461538461","828.9615384615385","828.9615384615385","black","experiment","legacy","legacy","legacy","0","uniform","0","undefined","0","left","25","0","25","25","0","0","25","25","0","0","25","25","25","25","0","Wed Oct 19 20:42:56 2022","The main experiment item","yes","SternbergTask.osexp","C:/Users/lil_p/OneDrive/Documents/School/Advanced Quantitative Analysis/Lab 3.1","no","mono","no","18","no","white","no","yes","768","legacy","13","11","C:/Users/lil_p/OneDrive/Documents/School/Advanced Quantitative Analysis/Lab 3.1/dm-subject-4.csv","legacy","3 4","Lentiform Loewenfeld","3.3.12","1","y","yes","0","right","right","right","right","NA","1306","50640","4665","1306","NA","2","legacy","2","1024","2","48000","-16","experiment","4","even","3","215388","54028","212065","213184","3377","134080","213186","122003","3385","129414","217389","218696","214187","217389","NA","Sternberg Task","22","21553","26","yes","1024"
"85.18518518518519","85.18518518518519","824.074074074074","824.074074074074","black","experiment","legacy","legacy","legacy","0","uniform","1","undefined","1","right","26","0","26","26","0","0","26","26","0","0","26","26","26","26","0","Wed Oct 19 20:42:56 2022","The main experiment item","yes","SternbergTask.osexp","C:/Users/lil_p/OneDrive/Documents/School/Advanced Quantitative Analysis/Lab 3.1","no","mono","no","18","no","white","no","yes","768","legacy","14","11","C:/Users/lil_p/OneDrive/Documents/School/Advanced Quantitative Analysis/Lab 3.1/dm-subject-4.csv","legacy","8 9","Lentiform Loewenfeld","3.3.12","0","n","yes","0","right","right","right","right","NA","697","50640","4665","697","NA","2","legacy","2","1024","2","48000","-16","experiment","4","even","5","222015","54028","212065","219810","3377","134080","219813","218701","3385","129414","224016","224714","220814","224016","NA","Sternberg Task","23","22250","27","yes","1024"
"85.71428571428571","85.71428571428571","818.3928571428571","818.3928571428571","black","experiment","legacy","legacy","legacy","0","uniform","1","undefined","1","right","27","0","27","27","0","0","27","27","0","0","27","27","27","27","0","Wed Oct 19 20:42:56 2022","The main experiment item","yes","SternbergTask.osexp","C:/Users/lil_p/OneDrive/Documents/School/Advanced Quantitative Analysis/Lab 3.1","no","mono","no","18","no","white","no","yes","768","legacy","15","11","C:/Users/lil_p/OneDrive/Documents/School/Advanced Quantitative Analysis/Lab 3.1/dm-subject-4.csv","legacy","1 4 9 2 5","Lentiform Loewenfeld","3.3.12","0","n","yes","0","right","right","right","right","NA","665","50640","4665","665","NA","2","legacy","5","1024","2","48000","-16","experiment","4","even","7","228036","54028","224718","225832","3377","134080","225834","218701","3385","129414","230037","230703","226835","230037","NA","Sternberg Task","24","22915","28","yes","1024"
"86.20689655172414","86.20689655172414","818.0689655172414","818.0689655172414","black","experiment","legacy","legacy","legacy","0","uniform","1","undefined","1","right","28","0","28","28","0","0","28","28","0","0","28","28","28","28","0","Wed Oct 19 20:42:56 2022","The main experiment item","yes","SternbergTask.osexp","C:/Users/lil_p/OneDrive/Documents/School/Advanced Quantitative Analysis/Lab 3.1","no","mono","no","18","no","white","no","yes","768","legacy","16","11","C:/Users/lil_p/OneDrive/Documents/School/Advanced Quantitative Analysis/Lab 3.1/dm-subject-4.csv","legacy","2 8 9","Lentiform Loewenfeld","3.3.12","0","n","yes","0","right","right","right","right","NA","809","50640","4665","809","NA","2","legacy","3","1024","2","48000","-16","experiment","4","even","6","234026","54028","230710","231821","3377","134080","231824","218701","3385","129414","236027","236837","232825","236027","NA","Sternberg Task","25","23724","29","yes","1024"
"86.66666666666667","86.66666666666667","810.8333333333334","810.8333333333334","black","experiment","legacy","legacy","legacy","0","uniform","1","undefined","1","left","29","0","29","29","0","0","29","29","0","0","29","29","29","29","0","Wed Oct 19 20:42:56 2022","The main experiment item","yes","SternbergTask.osexp","C:/Users/lil_p/OneDrive/Documents/School/Advanced Quantitative Analysis/Lab 3.1","no","mono","no","18","no","white","no","yes","768","legacy","17","11","C:/Users/lil_p/OneDrive/Documents/School/Advanced Quantitative Analysis/Lab 3.1/dm-subject-4.csv","legacy","4 6 2 5 1","Lentiform Loewenfeld","3.3.12","5","y","yes","0","left","right","right","left","NA","601","50640","4665","601","NA","2","legacy","5","1024","2","48000","-16","experiment","4","even","1","240160","54028","236843","237955","3377","134080","237958","218701","3385","129414","242161","242763","238959","242161","NA","Sternberg Task","26","24325","30","yes","1024"
"87.09677419354838","87.09677419354838","804.1935483870968","804.1935483870968","black","experiment","legacy","legacy","legacy","0","uniform","1","undefined","1","right","30","0","30","30","0","0","30","30","0","0","30","30","30","30","0","Wed Oct 19 20:42:56 2022","The main experiment item","yes","SternbergTask.osexp","C:/Users/lil_p/OneDrive/Documents/School/Advanced Quantitative Analysis/Lab 3.1","no","mono","no","18","no","white","no","yes","768","legacy","18","11","C:/Users/lil_p/OneDrive/Documents/School/Advanced Quantitative Analysis/Lab 3.1/dm-subject-4.csv","legacy","7 1 5 6 3","Lentiform Loewenfeld","3.3.12","0","n","yes","0","right","right","right","right","NA","605","50640","4665","605","NA","2","legacy","5","1024","2","48000","-16","experiment","4","even","8","246087","54028","242769","243882","3377","134080","243885","218701","3385","129414","248088","248694","244886","248088","NA","Sternberg Task","27","24930","31","yes","1024"
"87.5","87.5","800.3125","800.3125","black","experiment","legacy","legacy","legacy","0","uniform","1","undefined","1","left","31","0","31","31","0","0","31","31","0","0","31","31","31","31","0","Wed Oct 19 20:42:56 2022","The main experiment item","yes","SternbergTask.osexp","C:/Users/lil_p/OneDrive/Documents/School/Advanced Quantitative Analysis/Lab 3.1","no","mono","no","18","no","white","no","yes","768","legacy","19","11","C:/Users/lil_p/OneDrive/Documents/School/Advanced Quantitative Analysis/Lab 3.1/dm-subject-4.csv","legacy","7 8 6 3 1","Lentiform Loewenfeld","3.3.12","5","y","yes","0","left","right","right","left","NA","680","50640","4665","680","NA","2","legacy","5","1024","2","48000","-16","experiment","4","even","1","252016","54028","248699","249810","3377","134080","249813","218701","3385","129414","254017","254698","250815","254017","NA","Sternberg Task","28","25610","32","yes","1024"
"87.87878787878788","87.87878787878788","793.4242424242424","793.4242424242424","black","experiment","legacy","legacy","legacy","0","uniform","1","undefined","1","right","32","0","32","32","0","0","32","32","0","0","32","32","32","32","0","Wed Oct 19 20:42:56 2022","The main experiment item","yes","SternbergTask.osexp","C:/Users/lil_p/OneDrive/Documents/School/Advanced Quantitative Analysis/Lab 3.1","no","mono","no","18","no","white","no","yes","768","legacy","20","11","C:/Users/lil_p/OneDrive/Documents/School/Advanced Quantitative Analysis/Lab 3.1/dm-subject-4.csv","legacy","4 1","Lentiform Loewenfeld","3.3.12","0","n","yes","0","right","right","right","right","NA","573","50640","4665","573","NA","2","legacy","2","1024","2","48000","-16","experiment","4","even","6","258018","54028","254702","255813","3377","134080","255816","218701","3385","129414","260019","260593","256817","260019","NA","Sternberg Task","29","26183","33","yes","1024"
"88.23529411764706","88.23529411764706","786","786","black","experiment","legacy","legacy","legacy","0","uniform","1","undefined","1","right","33","0","33","33","0","0","33","33","0","0","33","33","33","33","0","Wed Oct 19 20:42:56 2022","The main experiment item","yes","SternbergTask.osexp","C:/Users/lil_p/OneDrive/Documents/School/Advanced Quantitative Analysis/Lab 3.1","no","mono","no","18","no","white","no","yes","768","legacy","21","11","C:/Users/lil_p/OneDrive/Documents/School/Advanced Quantitative Analysis/Lab 3.1/dm-subject-4.csv","legacy","3 9 1","Lentiform Loewenfeld","3.3.12","0","n","yes","0","right","right","right","right","NA","541","50640","4665","541","NA","2","legacy","3","1024","2","48000","-16","experiment","4","even","7","263916","54028","260600","261710","3377","134080","261713","218701","3385","129414","265917","266459","262714","265917","NA","Sternberg Task","30","26724","34","yes","1024"
"88.57142857142857","88.57142857142857","778.3714285714286","778.3714285714286","black","experiment","legacy","legacy","legacy","0","uniform","1","undefined","1","left","34","0","34","34","0","0","34","34","0","0","34","34","34","34","0","Wed Oct 19 20:42:56 2022","The main experiment item","yes","SternbergTask.osexp","C:/Users/lil_p/OneDrive/Documents/School/Advanced Quantitative Analysis/Lab 3.1","no","mono","no","18","no","white","no","yes","768","legacy","22","11","C:/Users/lil_p/OneDrive/Documents/School/Advanced Quantitative Analysis/Lab 3.1/dm-subject-4.csv","legacy","8 3","Lentiform Loewenfeld","3.3.12","2","y","yes","0","left","right","right","left","NA","519","50640","4665","519","NA","2","legacy","2","1024","2","48000","-16","experiment","4","even","3","269786","54028","266466","267582","3377","134080","267584","218701","3385","129414","271787","272307","268585","271787","NA","Sternberg Task","31","27243","35","yes","1024"
"88.88888888888889","88.88888888888889","778","778","black","experiment","legacy","legacy","legacy","0","uniform","1","undefined","1","right","35","0","35","35","0","0","35","35","0","0","35","35","35","35","0","Wed Oct 19 20:42:56 2022","The main experiment item","yes","SternbergTask.osexp","C:/Users/lil_p/OneDrive/Documents/School/Advanced Quantitative Analysis/Lab 3.1","no","mono","no","18","no","white","no","yes","768","legacy","23","11","C:/Users/lil_p/OneDrive/Documents/School/Advanced Quantitative Analysis/Lab 3.1/dm-subject-4.csv","legacy","6 9 4 5 2","Lentiform Loewenfeld","3.3.12","0","n","yes","0","right","right","right","right","NA","765","50640","4665","765","NA","2","legacy","5","1024","2","48000","-16","experiment","4","even","1","275629","54028","272313","273423","3377","134080","273426","218701","3385","129414","277630","278396","274427","277630","NA","Sternberg Task","32","28008","36","yes","1024"
"89.1891891891892","89.1891891891892","769.6216216216217","769.6216216216217","black","experiment","legacy","legacy","legacy","0","uniform","1","undefined","1","right","36","0","36","36","0","0","36","36","0","0","36","36","36","36","0","Wed Oct 19 20:42:56 2022","The main experiment item","yes","SternbergTask.osexp","C:/Users/lil_p/OneDrive/Documents/School/Advanced Quantitative Analysis/Lab 3.1","no","mono","no","18","no","white","no","yes","768","legacy","24","11","C:/Users/lil_p/OneDrive/Documents/School/Advanced Quantitative Analysis/Lab 3.1/dm-subject-4.csv","legacy","5 2","Lentiform Loewenfeld","3.3.12","0","n","yes","0","right","right","right","right","NA","468","50640","4665","468","NA","2","legacy","2","1024","2","48000","-16","experiment","4","even","7","281723","54028","278403","279519","3377","134080","279521","218701","3385","129414","283724","284192","280522","283724","NA","Sternberg Task","33","28476","37","yes","1024"
"89.47368421052632","89.47368421052632","776.1578947368421","776.1578947368421","black","experiment","legacy","legacy","legacy","0","uniform","1","undefined","1","right","37","0","37","37","0","0","37","37","0","0","37","37","37","37","0","Wed Oct 19 20:42:56 2022","The main experiment item","yes","SternbergTask.osexp","C:/Users/lil_p/OneDrive/Documents/School/Advanced Quantitative Analysis/Lab 3.1","no","mono","no","18","no","white","no","yes","768","legacy","25","11","C:/Users/lil_p/OneDrive/Documents/School/Advanced Quantitative Analysis/Lab 3.1/dm-subject-4.csv","legacy","2 3 8 5 6 7","Lentiform Loewenfeld","3.3.12","0","n","yes","0","right","right","right","right","NA","1018","50640","4665","1018","NA","2","legacy","6","1024","2","48000","-16","experiment","4","even","1","287512","54028","284196","285307","3377","134080","285310","218701","3385","129414","289513","290532","286311","289513","NA","Sternberg Task","34","29494","38","yes","1024"
"89.74358974358974","89.74358974358974","778.7692307692307","778.7692307692307","black","experiment","legacy","legacy","legacy","0","uniform","1","undefined","1","right","38","0","38","38","0","0","38","38","0","0","38","38","38","38","0","Wed Oct 19 20:42:56 2022","The main experiment item","yes","SternbergTask.osexp","C:/Users/lil_p/OneDrive/Documents/School/Advanced Quantitative Analysis/Lab 3.1","no","mono","no","18","no","white","no","yes","768","legacy","26","11","C:/Users/lil_p/OneDrive/Documents/School/Advanced Quantitative Analysis/Lab 3.1/dm-subject-4.csv","legacy","4 8 1 2","Lentiform Loewenfeld","3.3.12","0","n","yes","0","right","right","right","right","NA","878","50640","4665","878","NA","2","legacy","4","1024","2","48000","-16","experiment","4","even","7","293860","54028","290538","291654","3377","134080","291657","218701","3385","129414","295861","296741","292658","295861","NA","Sternberg Task","35","30372","39","yes","1024"
"90","90","777.425","777.425","black","experiment","legacy","legacy","legacy","0","uniform","1","undefined","1","right","39","0","39","39","0","0","39","39","0","0","39","39","39","39","0","Wed Oct 19 20:42:56 2022","The main experiment item","yes","SternbergTask.osexp","C:/Users/lil_p/OneDrive/Documents/School/Advanced Quantitative Analysis/Lab 3.1","no","mono","no","18","no","white","no","yes","768","legacy","27","11","C:/Users/lil_p/OneDrive/Documents/School/Advanced Quantitative Analysis/Lab 3.1/dm-subject-4.csv","legacy","8 4 3 9","Lentiform Loewenfeld","3.3.12","0","n","yes","0","right","right","right","right","NA","725","50640","4665","725","NA","2","legacy","4","1024","2","48000","-16","experiment","4","even","5","300063","54028","296747","297858","3377","134080","297861","218701","3385","129414","302064","302790","298862","302064","NA","Sternberg Task","36","31097","40","yes","1024"
"90.2439024390244","90.2439024390244","782.780487804878","782.780487804878","black","experiment","legacy","legacy","legacy","0","uniform","1","undefined","1","left","40","0","40","40","0","0","40","40","0","0","40","40","40","40","0","Wed Oct 19 20:42:56 2022","The main experiment item","yes","SternbergTask.osexp","C:/Users/lil_p/OneDrive/Documents/School/Advanced Quantitative Analysis/Lab 3.1","no","mono","no","18","no","white","no","yes","768","legacy","28","11","C:/Users/lil_p/OneDrive/Documents/School/Advanced Quantitative Analysis/Lab 3.1/dm-subject-4.csv","legacy","9 3 8 2 1 4","Lentiform Loewenfeld","3.3.12","3","y","yes","0","left","right","right","left","NA","997","50640","4665","997","NA","2","legacy","6","1024","2","48000","-16","experiment","4","even","8","306116","54028","302796","303912","3377","134080","303914","218701","3385","129414","308117","309115","304915","308117","NA","Sternberg Task","37","32094","41","yes","1024"
"90.47619047619048","90.47619047619048","794.5","794.5","black","experiment","legacy","legacy","legacy","0","uniform","1","undefined","1","right","41","0","41","41","0","0","41","41","0","0","41","41","41","41","0","Wed Oct 19 20:42:56 2022","The main experiment item","yes","SternbergTask.osexp","C:/Users/lil_p/OneDrive/Documents/School/Advanced Quantitative Analysis/Lab 3.1","no","mono","no","18","no","white","no","yes","768","legacy","29","11","C:/Users/lil_p/OneDrive/Documents/School/Advanced Quantitative Analysis/Lab 3.1/dm-subject-4.csv","legacy","4 2 7 6 1 3","Lentiform Loewenfeld","3.3.12","0","n","yes","0","right","right","right","right","NA","1275","50640","4665","1275","NA","2","legacy","6","1024","2","48000","-16","experiment","4","even","8","312439","54028","309121","310234","3377","134080","310236","218701","3385","129414","314440","315716","311238","314440","NA","Sternberg Task","38","33369","42","yes","1024"
"90.69767441860465","90.69767441860465","787.4186046511628","787.4186046511628","black","experiment","legacy","legacy","legacy","0","uniform","1","undefined","1","left","42","0","42","42","0","0","42","42","0","0","42","42","42","42","0","Wed Oct 19 20:42:56 2022","The main experiment item","yes","SternbergTask.osexp","C:/Users/lil_p/OneDrive/Documents/School/Advanced Quantitative Analysis/Lab 3.1","no","mono","no","18","no","white","no","yes","768","legacy","30","11","C:/Users/lil_p/OneDrive/Documents/School/Advanced Quantitative Analysis/Lab 3.1/dm-subject-4.csv","legacy","7 1 3","Lentiform Loewenfeld","3.3.12","2","y","yes","0","left","right","right","left","NA","490","50640","4665","490","NA","2","legacy","3","1024","2","48000","-16","experiment","4","even","1","319041","54028","315722","316836","3377","134080","316838","218701","3385","129414","321042","321533","317840","321042","NA","Sternberg Task","39","33859","43","yes","1024"
"90.9090909090909","90.9090909090909","785.3863636363636","785.3863636363636","black","experiment","legacy","legacy","legacy","0","uniform","1","undefined","1","left","43","0","43","43","0","0","43","43","0","0","43","43","43","43","0","Wed Oct 19 20:42:56 2022","The main experiment item","yes","SternbergTask.osexp","C:/Users/lil_p/OneDrive/Documents/School/Advanced Quantitative Analysis/Lab 3.1","no","mono","no","18","no","white","no","yes","768","legacy","31","11","C:/Users/lil_p/OneDrive/Documents/School/Advanced Quantitative Analysis/Lab 3.1/dm-subject-4.csv","legacy","7 2 3","Lentiform Loewenfeld","3.3.12","3","y","yes","0","left","right","right","left","NA","698","50640","4665","698","NA","2","legacy","3","1024","2","48000","-16","experiment","4","even","3","324854","54028","321538","322649","3377","134080","322652","218701","3385","129414","326855","327554","323653","326855","NA","Sternberg Task","40","34557","44","yes","1024"
"91.11111111111111","91.11111111111111","782.9111111111112","782.9111111111112","black","experiment","legacy","legacy","legacy","0","uniform","1","undefined","1","right","44","0","44","44","0","0","44","44","0","0","44","44","44","44","0","Wed Oct 19 20:42:56 2022","The main experiment item","yes","SternbergTask.osexp","C:/Users/lil_p/OneDrive/Documents/School/Advanced Quantitative Analysis/Lab 3.1","no","mono","no","18","no","white","no","yes","768","legacy","32","11","C:/Users/lil_p/OneDrive/Documents/School/Advanced Quantitative Analysis/Lab 3.1/dm-subject-4.csv","legacy","8 2 1 4 5 9","Lentiform Loewenfeld","3.3.12","0","n","yes","0","right","right","right","right","NA","674","50640","4665","674","NA","2","legacy","6","1024","2","48000","-16","experiment","4","even","7","330878","54028","327561","328673","3377","134080","328676","218701","3385","129414","332879","333554","329677","332879","NA","Sternberg Task","41","35231","45","yes","1024"
"91.30434782608695","91.30434782608695","782.0652173913044","782.0652173913044","black","experiment","legacy","legacy","legacy","0","uniform","1","undefined","1","left","45","0","45","45","0","0","45","45","0","0","45","45","45","45","0","Wed Oct 19 20:42:56 2022","The main experiment item","yes","SternbergTask.osexp","C:/Users/lil_p/OneDrive/Documents/School/Advanced Quantitative Analysis/Lab 3.1","no","mono","no","18","no","white","no","yes","768","legacy","33","11","C:/Users/lil_p/OneDrive/Documents/School/Advanced Quantitative Analysis/Lab 3.1/dm-subject-4.csv","legacy","6 9 3 1","Lentiform Loewenfeld","3.3.12","4","y","yes","0","left","right","right","left","NA","744","50640","4665","744","NA","2","legacy","4","1024","2","48000","-16","experiment","4","even","1","336877","54028","333560","334671","3377","134080","334674","218701","3385","129414","338878","339623","335675","338878","NA","Sternberg Task","42","35975","46","yes","1024"
"91.48936170212765","91.48936170212765","778.8936170212766","778.8936170212766","black","experiment","legacy","legacy","legacy","0","uniform","1","undefined","1","right","46","0","46","46","0","0","46","46","0","0","46","46","46","46","0","Wed Oct 19 20:42:56 2022","The main experiment item","yes","SternbergTask.osexp","C:/Users/lil_p/OneDrive/Documents/School/Advanced Quantitative Analysis/Lab 3.1","no","mono","no","18","no","white","no","yes","768","legacy","34","11","C:/Users/lil_p/OneDrive/Documents/School/Advanced Quantitative Analysis/Lab 3.1/dm-subject-4.csv","legacy","8 6 3 4 7","Lentiform Loewenfeld","3.3.12","0","n","yes","0","right","right","right","right","NA","633","50640","4665","633","NA","2","legacy","5","1024","2","48000","-16","experiment","4","even","1","342944","54028","339629","340739","3377","134080","340742","218701","3385","129414","344945","345580","341743","344945","NA","Sternberg Task","43","36608","47","yes","1024"
"91.66666666666667","91.66666666666667","782.6666666666666","782.6666666666666","black","experiment","legacy","legacy","legacy","0","uniform","1","undefined","1","left","47","0","47","47","0","0","47","47","0","0","47","47","47","47","0","Wed Oct 19 20:42:56 2022","The main experiment item","yes","SternbergTask.osexp","C:/Users/lil_p/OneDrive/Documents/School/Advanced Quantitative Analysis/Lab 3.1","no","mono","no","18","no","white","no","yes","768","legacy","35","11","C:/Users/lil_p/OneDrive/Documents/School/Advanced Quantitative Analysis/Lab 3.1/dm-subject-4.csv","legacy","9 3 1 2 5","Lentiform Loewenfeld","3.3.12","4","y","yes","0","left","right","right","left","NA","960","50640","4665","960","NA","2","legacy","5","1024","2","48000","-16","experiment","4","even","2","348901","54028","345585","346696","3377","134080","346699","218701","3385","129414","350902","351864","347700","350902","NA","Sternberg Task","44","37568","48","yes","1024"
"91.83673469387755","91.83673469387755","778.0612244897959","778.0612244897959","black","experiment","legacy","legacy","legacy","0","uniform","1","undefined","1","right","48","0","48","48","0","0","48","48","0","0","48","48","48","48","0","Wed Oct 19 20:42:56 2022","The main experiment item","yes","SternbergTask.osexp","C:/Users/lil_p/OneDrive/Documents/School/Advanced Quantitative Analysis/Lab 3.1","no","mono","no","18","no","white","no","yes","768","legacy","36","11","C:/Users/lil_p/OneDrive/Documents/School/Advanced Quantitative Analysis/Lab 3.1/dm-subject-4.csv","legacy","6 7 5 9","Lentiform Loewenfeld","3.3.12","0","n","yes","0","right","right","right","right","NA","557","50640","4665","557","NA","2","legacy","4","1024","2","48000","-16","experiment","4","even","2","355195","54028","351869","352990","3377","134080","352992","218701","3385","129414","357196","357755","353994","357196","NA","Sternberg Task","45","38125","49","yes","1024"
"92","92","779.82","779.82","black","experiment","legacy","legacy","legacy","0","uniform","1","undefined","1","left","49","0","49","49","0","0","49","49","0","0","49","49","49","49","0","Wed Oct 19 20:42:56 2022","The main experiment item","yes","SternbergTask.osexp","C:/Users/lil_p/OneDrive/Documents/School/Advanced Quantitative Analysis/Lab 3.1","no","mono","no","18","no","white","no","yes","768","legacy","37","11","C:/Users/lil_p/OneDrive/Documents/School/Advanced Quantitative Analysis/Lab 3.1/dm-subject-4.csv","legacy","2 4 8 5 1 3","Lentiform Loewenfeld","3.3.12","1","y","yes","0","left","right","right","left","NA","866","50640","4665","866","NA","2","legacy","6","1024","2","48000","-16","experiment","4","even","2","361075","54028","357759","358870","3377","134080","358873","218701","3385","129414","363076","363944","359874","363076","NA","Sternberg Task","46","38991","50","yes","1024"
"92.15686274509804","92.15686274509804","775.5490196078431","775.5490196078431","black","experiment","legacy","legacy","legacy","0","uniform","1","undefined","1","left","50","0","50","50","0","0","50","50","0","0","50","50","50","50","0","Wed Oct 19 20:42:56 2022","The main experiment item","yes","SternbergTask.osexp","C:/Users/lil_p/OneDrive/Documents/School/Advanced Quantitative Analysis/Lab 3.1","no","mono","no","18","no","white","no","yes","768","legacy","38","11","C:/Users/lil_p/OneDrive/Documents/School/Advanced Quantitative Analysis/Lab 3.1/dm-subject-4.csv","legacy","5 2 6","Lentiform Loewenfeld","3.3.12","2","y","yes","0","left","right","right","left","NA","562","50640","4665","562","NA","2","legacy","3","1024","2","48000","-16","experiment","4","even","2","367279","54028","363950","365073","3377","134080","365076","218701","3385","129414","369280","369844","366077","369280","NA","Sternberg Task","47","39553","51","yes","1024"
"92.3076923076923","92.3076923076923","777.3461538461538","777.3461538461538","black","experiment","legacy","legacy","legacy","0","uniform","1","undefined","1","left","51","0","51","51","0","0","51","51","0","0","51","51","51","51","0","Wed Oct 19 20:42:56 2022","The main experiment item","yes","SternbergTask.osexp","C:/Users/lil_p/OneDrive/Documents/School/Advanced Quantitative Analysis/Lab 3.1","no","mono","no","18","no","white","no","yes","768","legacy","39","11","C:/Users/lil_p/OneDrive/Documents/School/Advanced Quantitative Analysis/Lab 3.1/dm-subject-4.csv","legacy","8 5 1 3 9","Lentiform Loewenfeld","3.3.12","4","y","yes","0","left","right","right","left","NA","869","50640","4665","869","NA","2","legacy","5","1024","2","48000","-16","experiment","4","even","3","373167","54028","369850","370963","3377","134080","370965","218701","3385","129414","375169","376040","371966","375169","NA","Sternberg Task","48","40422","52","yes","1024"
"92.45283018867924","92.45283018867924","774.4716981132076","774.4716981132076","black","experiment","legacy","legacy","legacy","0","uniform","1","undefined","1","left","52","0","52","52","0","0","52","52","0","0","52","52","52","52","0","Wed Oct 19 20:42:56 2022","The main experiment item","yes","SternbergTask.osexp","C:/Users/lil_p/OneDrive/Documents/School/Advanced Quantitative Analysis/Lab 3.1","no","mono","no","18","no","white","no","yes","768","legacy","40","11","C:/Users/lil_p/OneDrive/Documents/School/Advanced Quantitative Analysis/Lab 3.1/dm-subject-4.csv","legacy","9 5 3 8 4","Lentiform Loewenfeld","3.3.12","1","y","yes","0","left","right","right","left","NA","625","50640","4665","625","NA","2","legacy","5","1024","2","48000","-16","experiment","4","even","9","379363","54028","376046","377158","3377","134080","377161","218701","3385","129414","381364","381990","378162","381364","NA","Sternberg Task","49","41047","53","yes","1024"
"92.5925925925926","92.5925925925926","778.0370370370371","778.0370370370371","black","experiment","legacy","legacy","legacy","0","uniform","1","undefined","1","left","53","0","53","53","0","0","53","53","0","0","53","53","53","53","0","Wed Oct 19 20:42:56 2022","The main experiment item","yes","SternbergTask.osexp","C:/Users/lil_p/OneDrive/Documents/School/Advanced Quantitative Analysis/Lab 3.1","no","mono","no","18","no","white","no","yes","768","legacy","41","11","C:/Users/lil_p/OneDrive/Documents/School/Advanced Quantitative Analysis/Lab 3.1/dm-subject-4.csv","legacy","6 8 9 3 4 9","Lentiform Loewenfeld","3.3.12","5","y","yes","0","left","right","right","left","NA","967","50640","4665","967","NA","2","legacy","6","1024","2","48000","-16","experiment","4","even","4","385310","54028","381995","383106","3377","134080","383108","218701","3385","129414","387311","388279","384109","387311","NA","Sternberg Task","50","42014","54","yes","1024"
"92.72727272727273","92.72727272727273","773.6545454545454","773.6545454545454","black","experiment","legacy","legacy","legacy","0","uniform","1","undefined","1","right","54","0","54","54","0","0","54","54","0","0","54","54","54","54","0","Wed Oct 19 20:42:56 2022","The main experiment item","yes","SternbergTask.osexp","C:/Users/lil_p/OneDrive/Documents/School/Advanced Quantitative Analysis/Lab 3.1","no","mono","no","18","no","white","no","yes","768","legacy","42","11","C:/Users/lil_p/OneDrive/Documents/School/Advanced Quantitative Analysis/Lab 3.1/dm-subject-4.csv","legacy","2 5 1 4","Lentiform Loewenfeld","3.3.12","0","n","yes","0","right","right","right","right","NA","537","50640","4665","537","NA","2","legacy","4","1024","2","48000","-16","experiment","4","even","6","391599","54028","388283","389394","3377","134080","389397","218701","3385","129414","393600","394138","390398","393600","NA","Sternberg Task","51","42551","55","yes","1024"
"92.85714285714286","92.85714285714286","771.8035714285714","771.8035714285714","black","experiment","legacy","legacy","legacy","0","uniform","1","undefined","1","right","55","0","55","55","0","0","55","55","0","0","55","55","55","55","0","Wed Oct 19 20:42:56 2022","The main experiment item","yes","SternbergTask.osexp","C:/Users/lil_p/OneDrive/Documents/School/Advanced Quantitative Analysis/Lab 3.1","no","mono","no","18","no","white","no","yes","768","legacy","43","11","C:/Users/lil_p/OneDrive/Documents/School/Advanced Quantitative Analysis/Lab 3.1/dm-subject-4.csv","legacy","6 3 1 7 9 8","Lentiform Loewenfeld","3.3.12","0","n","yes","0","right","right","right","right","NA","670","50640","4665","670","NA","2","legacy","6","1024","2","48000","-16","experiment","4","even","4","397461","54028","394144","395257","3377","134080","395259","218701","3385","129414","399462","400133","396260","399462","NA","Sternberg Task","52","43221","56","yes","1024"
"92.98245614035088","92.98245614035088","769","769","black","experiment","legacy","legacy","legacy","0","uniform","1","undefined","1","left","56","0","56","56","0","0","56","56","0","0","56","56","56","56","0","Wed Oct 19 20:42:56 2022","The main experiment item","yes","SternbergTask.osexp","C:/Users/lil_p/OneDrive/Documents/School/Advanced Quantitative Analysis/Lab 3.1","no","mono","no","18","no","white","no","yes","768","legacy","44","11","C:/Users/lil_p/OneDrive/Documents/School/Advanced Quantitative Analysis/Lab 3.1/dm-subject-4.csv","legacy","1 4 9 3 2 5","Lentiform Loewenfeld","3.3.12","3","y","yes","0","left","right","right","left","NA","612","50640","4665","612","NA","2","legacy","6","1024","2","48000","-16","experiment","4","even","9","403457","54028","400139","401254","3377","134080","401255","218701","3385","129414","405458","406072","402256","405458","NA","Sternberg Task","53","43833","57","yes","1024"
"93.10344827586206","93.10344827586206","762.3965517241379","762.3965517241379","black","experiment","legacy","legacy","legacy","0","uniform","1","undefined","1","left","57","0","57","57","0","0","57","57","0","0","57","57","57","57","0","Wed Oct 19 20:42:56 2022","The main experiment item","yes","SternbergTask.osexp","C:/Users/lil_p/OneDrive/Documents/School/Advanced Quantitative Analysis/Lab 3.1","no","mono","no","18","no","white","no","yes","768","legacy","45","11","C:/Users/lil_p/OneDrive/Documents/School/Advanced Quantitative Analysis/Lab 3.1/dm-subject-4.csv","legacy","4","Lentiform Loewenfeld","3.3.12","1","y","yes","0","left","right","right","left","NA","386","50640","4665","386","NA","2","legacy","1","1024","2","48000","-16","experiment","4","even","4","409391","54028","406076","407187","3377","134080","407189","218701","3385","129414","411392","411779","408190","411392","NA","Sternberg Task","54","44219","58","yes","1024"
"93.22033898305085","93.22033898305085","760.8644067796611","760.8644067796611","black","experiment","legacy","legacy","legacy","0","uniform","1","undefined","1","right","58","0","58","58","0","0","58","58","0","0","58","58","58","58","0","Wed Oct 19 20:42:56 2022","The main experiment item","yes","SternbergTask.osexp","C:/Users/lil_p/OneDrive/Documents/School/Advanced Quantitative Analysis/Lab 3.1","no","mono","no","18","no","white","no","yes","768","legacy","46","11","C:/Users/lil_p/OneDrive/Documents/School/Advanced Quantitative Analysis/Lab 3.1/dm-subject-4.csv","legacy","3 9 8 1 6 4","Lentiform Loewenfeld","3.3.12","0","n","yes","0","right","right","right","right","NA","672","50640","4665","672","NA","2","legacy","6","1024","2","48000","-16","experiment","4","even","7","415108","54028","411784","412901","3377","134080","412904","218701","3385","129414","417109","417782","413907","417109","NA","Sternberg Task","55","44891","59","yes","1024"
"93.33333333333333","93.33333333333333","758.1666666666666","758.1666666666666","black","experiment","legacy","legacy","legacy","0","uniform","1","undefined","1","right","59","0","59","59","0","0","59","59","0","0","59","59","59","59","0","Wed Oct 19 20:42:56 2022","The main experiment item","yes","SternbergTask.osexp","C:/Users/lil_p/OneDrive/Documents/School/Advanced Quantitative Analysis/Lab 3.1","no","mono","no","18","no","white","no","yes","768","legacy","47","11","C:/Users/lil_p/OneDrive/Documents/School/Advanced Quantitative Analysis/Lab 3.1/dm-subject-4.csv","legacy","2 8 9 4 1","Lentiform Loewenfeld","3.3.12","0","n","yes","0","right","right","right","right","NA","599","50640","4665","599","NA","2","legacy","5","1024","2","48000","-16","experiment","4","even","5","421105","54028","417788","418899","3377","134080","418902","218701","3385","129414","423106","423706","419904","423106","NA","Sternberg Task","56","45490","60","yes","1024"
"93.44262295081967","93.44262295081967","755.5245901639345","755.5245901639345","black","experiment","legacy","legacy","legacy","0","uniform","1","undefined","1","right","60","0","60","60","0","0","60","60","0","0","60","60","60","60","0","Wed Oct 19 20:42:56 2022","The main experiment item","yes","SternbergTask.osexp","C:/Users/lil_p/OneDrive/Documents/School/Advanced Quantitative Analysis/Lab 3.1","no","mono","no","18","no","white","no","yes","768","legacy","48","11","C:/Users/lil_p/OneDrive/Documents/School/Advanced Quantitative Analysis/Lab 3.1/dm-subject-4.csv","legacy","6 8","Lentiform Loewenfeld","3.3.12","0","n","yes","0","right","right","right","right","NA","597","50640","4665","597","NA","2","legacy","2","1024","2","48000","-16","experiment","4","even","9","427028","54028","423712","424824","3377","134080","424826","218701","3385","129414","429029","429627","425827","429029","NA","Sternberg Task","57","46087","61","yes","1024"
"93.54838709677419","93.54838709677419","751.6129032258065","751.6129032258065","black","experiment","legacy","legacy","legacy","0","uniform","1","undefined","1","right","61","0","61","61","0","0","61","61","0","0","61","61","61","61","0","Wed Oct 19 20:42:56 2022","The main experiment item","yes","SternbergTask.osexp","C:/Users/lil_p/OneDrive/Documents/School/Advanced Quantitative Analysis/Lab 3.1","no","mono","no","18","no","white","no","yes","768","legacy","49","11","C:/Users/lil_p/OneDrive/Documents/School/Advanced Quantitative Analysis/Lab 3.1/dm-subject-4.csv","legacy","9 8 2 7 4","Lentiform Loewenfeld","3.3.12","0","n","yes","0","right","right","right","right","NA","513","50640","4665","513","NA","2","legacy","5","1024","2","48000","-16","experiment","4","even","5","432960","54028","429634","430755","3377","134080","430757","218701","3385","129414","434961","435475","431759","434961","NA","Sternberg Task","58","46600","62","yes","1024"
"93.65079365079364","93.65079365079364","752.8730158730159","752.8730158730159","black","experiment","legacy","legacy","legacy","0","uniform","1","undefined","1","left","62","0","62","62","0","0","62","62","0","0","62","62","62","62","0","Wed Oct 19 20:42:56 2022","The main experiment item","yes","SternbergTask.osexp","C:/Users/lil_p/OneDrive/Documents/School/Advanced Quantitative Analysis/Lab 3.1","no","mono","no","18","no","white","no","yes","768","legacy","50","11","C:/Users/lil_p/OneDrive/Documents/School/Advanced Quantitative Analysis/Lab 3.1/dm-subject-4.csv","legacy","3 5 4 7","Lentiform Loewenfeld","3.3.12","1","y","yes","0","left","right","right","left","NA","831","50640","4665","831","NA","2","legacy","4","1024","2","48000","-16","experiment","4","even","3","438803","54028","435480","436598","3377","134080","436601","218701","3385","129414","440804","441637","437602","440804","NA","Sternberg Task","59","47431","63","yes","1024"
"93.75","93.75","753.71875","753.71875","black","experiment","legacy","legacy","legacy","0","uniform","1","undefined","1","left","63","0","63","63","0","0","63","63","0","0","63","63","63","63","0","Wed Oct 19 20:42:56 2022","The main experiment item","yes","SternbergTask.osexp","C:/Users/lil_p/OneDrive/Documents/School/Advanced Quantitative Analysis/Lab 3.1","no","mono","no","18","no","white","no","yes","768","legacy","51","11","C:/Users/lil_p/OneDrive/Documents/School/Advanced Quantitative Analysis/Lab 3.1/dm-subject-4.csv","legacy","7 1 8 5 6 2","Lentiform Loewenfeld","3.3.12","2","y","yes","0","left","right","right","left","NA","807","50640","4665","807","NA","2","legacy","6","1024","2","48000","-16","experiment","4","even","1","444963","54028","441644","442757","3377","134080","442760","218701","3385","129414","446964","447772","443762","446964","NA","Sternberg Task","60","48238","64","yes","1024"
"93.84615384615384","93.84615384615384","749.9846153846154","749.9846153846154","black","experiment","legacy","legacy","legacy","0","uniform","1","undefined","1","left","64","0","64","64","0","0","64","64","0","0","64","64","64","64","0","Wed Oct 19 20:42:56 2022","The main experiment item","yes","SternbergTask.osexp","C:/Users/lil_p/OneDrive/Documents/School/Advanced Quantitative Analysis/Lab 3.1","no","mono","no","18","no","white","no","yes","768","legacy","52","11","C:/Users/lil_p/OneDrive/Documents/School/Advanced Quantitative Analysis/Lab 3.1/dm-subject-4.csv","legacy","9 8 4","Lentiform Loewenfeld","3.3.12","1","y","yes","0","left","right","right","left","NA","511","50640","4665","511","NA","2","legacy","3","1024","2","48000","-16","experiment","4","even","9","451095","54028","447777","448890","3377","134080","448893","218701","3385","129414","453096","453608","449894","453096","NA","Sternberg Task","61","48749","65","yes","1024"
"93.93939393939394","93.93939393939394","749.2575757575758","749.2575757575758","black","experiment","legacy","legacy","legacy","0","uniform","1","undefined","1","left","65","0","65","65","0","0","65","65","0","0","65","65","65","65","0","Wed Oct 19 20:42:56 2022","The main experiment item","yes","SternbergTask.osexp","C:/Users/lil_p/OneDrive/Documents/School/Advanced Quantitative Analysis/Lab 3.1","no","mono","no","18","no","white","no","yes","768","legacy","53","11","C:/Users/lil_p/OneDrive/Documents/School/Advanced Quantitative Analysis/Lab 3.1/dm-subject-4.csv","legacy","5 7 3 6 2","Lentiform Loewenfeld","3.3.12","5","y","yes","0","left","right","right","left","NA","702","50640","4665","702","NA","2","legacy","5","1024","2","48000","-16","experiment","4","even","2","456931","54028","453614","454725","3377","134080","454728","218701","3385","129414","458932","459635","455729","458932","NA","Sternberg Task","62","49451","66","yes","1024"
"94.02985074626865","94.02985074626865","748.6119402985074","748.6119402985074","black","experiment","legacy","legacy","legacy","0","uniform","1","undefined","1","left","66","0","66","66","0","0","66","66","0","0","66","66","66","66","0","Wed Oct 19 20:42:56 2022","The main experiment item","yes","SternbergTask.osexp","C:/Users/lil_p/OneDrive/Documents/School/Advanced Quantitative Analysis/Lab 3.1","no","mono","no","18","no","white","no","yes","768","legacy","54","11","C:/Users/lil_p/OneDrive/Documents/School/Advanced Quantitative Analysis/Lab 3.1/dm-subject-4.csv","legacy","6 9 7 4 5 1","Lentiform Loewenfeld","3.3.12","2","y","yes","0","left","right","right","left","NA","706","50640","4665","706","NA","2","legacy","6","1024","2","48000","-16","experiment","4","even","9","462958","54028","459641","460753","3377","134080","460756","218701","3385","129414","464959","465666","461757","464959","NA","Sternberg Task","63","50157","67","yes","1024"
"94.11764705882354","94.11764705882354","745.5441176470588","745.5441176470588","black","experiment","legacy","legacy","legacy","0","uniform","1","undefined","1","right","67","0","67","67","0","0","67","67","0","0","67","67","67","67","0","Wed Oct 19 20:42:56 2022","The main experiment item","yes","SternbergTask.osexp","C:/Users/lil_p/OneDrive/Documents/School/Advanced Quantitative Analysis/Lab 3.1","no","mono","no","18","no","white","no","yes","768","legacy","55","11","C:/Users/lil_p/OneDrive/Documents/School/Advanced Quantitative Analysis/Lab 3.1/dm-subject-4.csv","legacy","7 1","Lentiform Loewenfeld","3.3.12","0","n","yes","0","right","right","right","right","NA","540","50640","4665","540","NA","2","legacy","2","1024","2","48000","-16","experiment","4","even","8","468987","54028","465672","466782","3377","134080","466785","218701","3385","129414","470988","471530","467786","470988","NA","Sternberg Task","64","50697","68","yes","1024"
"94.20289855072464","94.20289855072464","745.7971014492754","745.7971014492754","black","experiment","legacy","legacy","legacy","0","uniform","1","undefined","1","left","68","0","68","68","0","0","68","68","0","0","68","68","68","68","0","Wed Oct 19 20:42:56 2022","The main experiment item","yes","SternbergTask.osexp","C:/Users/lil_p/OneDrive/Documents/School/Advanced Quantitative Analysis/Lab 3.1","no","mono","no","18","no","white","no","yes","768","legacy","56","11","C:/Users/lil_p/OneDrive/Documents/School/Advanced Quantitative Analysis/Lab 3.1/dm-subject-4.csv","legacy","6 1 2","Lentiform Loewenfeld","3.3.12","3","y","yes","0","left","right","right","left","NA","763","50640","4665","763","NA","2","legacy","3","1024","2","48000","-16","experiment","4","even","2","474849","54028","471535","472643","3377","134080","472646","218701","3385","129414","476851","477616","473647","476850","NA","Sternberg Task","65","51460","69","yes","1024"
"94.28571428571429","94.28571428571429","746.6142857142858","746.6142857142858","black","experiment","legacy","legacy","legacy","0","uniform","1","undefined","1","right","69","0","69","69","0","0","69","69","0","0","69","69","69","69","0","Wed Oct 19 20:42:56 2022","The main experiment item","yes","SternbergTask.osexp","C:/Users/lil_p/OneDrive/Documents/School/Advanced Quantitative Analysis/Lab 3.1","no","mono","no","18","no","white","no","yes","768","legacy","57","11","C:/Users/lil_p/OneDrive/Documents/School/Advanced Quantitative Analysis/Lab 3.1/dm-subject-4.csv","legacy","7 4 2 8 1 9","Lentiform Loewenfeld","3.3.12","0","n","yes","0","right","right","right","right","NA","803","50640","4665","803","NA","2","legacy","6","1024","2","48000","-16","experiment","4","even","5","480938","54028","477622","478733","3377","134080","478736","218701","3385","129414","482940","483744","479737","482940","NA","Sternberg Task","66","52263","70","yes","1024"
"94.36619718309859","94.36619718309859","747.7464788732394","747.7464788732394","black","experiment","legacy","legacy","legacy","0","uniform","1","undefined","1","left","70","0","70","70","0","0","70","70","0","0","70","70","70","70","0","Wed Oct 19 20:42:56 2022","The main experiment item","yes","SternbergTask.osexp","C:/Users/lil_p/OneDrive/Documents/School/Advanced Quantitative Analysis/Lab 3.1","no","mono","no","18","no","white","no","yes","768","legacy","58","11","C:/Users/lil_p/OneDrive/Documents/School/Advanced Quantitative Analysis/Lab 3.1/dm-subject-4.csv","legacy","6 7 8 5","Lentiform Loewenfeld","3.3.12","3","y","yes","0","left","right","right","left","NA","827","50640","4665","827","NA","2","legacy","4","1024","2","48000","-16","experiment","4","even","8","487066","54028","483748","484860","3377","134080","484864","218701","3385","129414","489067","489895","485865","489067","NA","Sternberg Task","67","53090","71","yes","1024"
"94.44444444444444","94.44444444444444","747.2083333333334","747.2083333333334","black","experiment","legacy","legacy","legacy","0","uniform","1","undefined","1","right","71","0","71","71","0","0","71","71","0","0","71","71","71","71","0","Wed Oct 19 20:42:56 2022","The main experiment item","yes","SternbergTask.osexp","C:/Users/lil_p/OneDrive/Documents/School/Advanced Quantitative Analysis/Lab 3.1","no","mono","no","18","no","white","no","yes","768","legacy","59","11","C:/Users/lil_p/OneDrive/Documents/School/Advanced Quantitative Analysis/Lab 3.1/dm-subject-4.csv","legacy","1 4 9 3","Lentiform Loewenfeld","3.3.12","0","n","yes","0","right","right","right","right","NA","709","50640","4665","709","NA","2","legacy","4","1024","2","48000","-16","experiment","4","even","5","493217","54028","489901","491012","3377","134080","491015","218701","3385","129414","495218","495929","492016","495218","NA","Sternberg Task","68","53799","72","yes","1024"
"94.52054794520548","94.52054794520548","748.2876712328767","748.2876712328767","black","experiment","legacy","legacy","legacy","0","uniform","1","undefined","1","right","72","0","72","72","0","0","72","72","0","0","72","72","72","72","0","Wed Oct 19 20:42:56 2022","The main experiment item","yes","SternbergTask.osexp","C:/Users/lil_p/OneDrive/Documents/School/Advanced Quantitative Analysis/Lab 3.1","no","mono","no","18","no","white","no","yes","768","legacy","60","11","C:/Users/lil_p/OneDrive/Documents/School/Advanced Quantitative Analysis/Lab 3.1/dm-subject-4.csv","legacy","7 8 6 1","Lentiform Loewenfeld","3.3.12","0","n","yes","0","right","right","right","right","NA","826","50640","4665","826","NA","2","legacy","4","1024","2","48000","-16","experiment","4","even","3","499250","54028","495935","497046","3377","134080","497048","218701","3385","129414","501251","502079","498049","501251","NA","Sternberg Task","69","54625","73","yes","1024"
"94.5945945945946","94.5945945945946","747.8783783783783","747.8783783783783","black","experiment","legacy","legacy","legacy","0","uniform","1","undefined","1","right","73","0","73","73","0","0","73","73","0","0","73","73","73","73","0","Wed Oct 19 20:42:56 2022","The main experiment item","yes","SternbergTask.osexp","C:/Users/lil_p/OneDrive/Documents/School/Advanced Quantitative Analysis/Lab 3.1","no","mono","no","18","no","white","no","yes","768","legacy","61","11","C:/Users/lil_p/OneDrive/Documents/School/Advanced Quantitative Analysis/Lab 3.1/dm-subject-4.csv","legacy","9 5 3 2 8 6","Lentiform Loewenfeld","3.3.12","0","n","yes","0","right","right","right","right","NA","718","50640","4665","718","NA","2","legacy","6","1024","2","48000","-16","experiment","4","even","7","505398","54028","502083","503194","3377","134080","503196","218701","3385","129414","507400","508119","504197","507400","NA","Sternberg Task","70","55343","74","yes","1024"
"94.66666666666667","94.66666666666667","744.5066666666667","744.5066666666667","black","experiment","legacy","legacy","legacy","0","uniform","1","undefined","1","left","74","0","74","74","0","0","74","74","0","0","74","74","74","74","0","Wed Oct 19 20:42:56 2022","The main experiment item","yes","SternbergTask.osexp","C:/Users/lil_p/OneDrive/Documents/School/Advanced Quantitative Analysis/Lab 3.1","no","mono","no","18","no","white","no","yes","768","legacy","62","11","C:/Users/lil_p/OneDrive/Documents/School/Advanced Quantitative Analysis/Lab 3.1/dm-subject-4.csv","legacy","9 6 2 4 1","Lentiform Loewenfeld","3.3.12","4","y","yes","0","left","right","right","left","NA","495","50640","4665","495","NA","2","legacy","5","1024","2","48000","-16","experiment","4","even","4","511441","54028","508124","509236","3377","134080","509238","218701","3385","129414","513442","513938","510240","513442","NA","Sternberg Task","71","55838","75","yes","1024"
"94.73684210526316","94.73684210526316","741.578947368421","741.578947368421","black","experiment","legacy","legacy","legacy","0","uniform","1","undefined","1","left","75","0","75","75","0","0","75","75","0","0","75","75","75","75","0","Wed Oct 19 20:42:56 2022","The main experiment item","yes","SternbergTask.osexp","C:/Users/lil_p/OneDrive/Documents/School/Advanced Quantitative Analysis/Lab 3.1","no","mono","no","18","no","white","no","yes","768","legacy","63","11","C:/Users/lil_p/OneDrive/Documents/School/Advanced Quantitative Analysis/Lab 3.1/dm-subject-4.csv","legacy","3 5 7 1","Lentiform Loewenfeld","3.3.12","3","y","yes","0","left","right","right","left","NA","522","50640","4665","522","NA","2","legacy","4","1024","2","48000","-16","experiment","4","even","7","517259","54028","513944","515055","3377","134080","515057","218701","3385","129414","519260","519783","516058","519260","NA","Sternberg Task","72","56360","76","yes","1024"
"94.8051948051948","94.8051948051948","738.3636363636364","738.3636363636364","black","experiment","legacy","legacy","legacy","0","uniform","1","undefined","1","left","76","0","76","76","0","0","76","76","0","0","76","76","76","76","0","Wed Oct 19 20:42:56 2022","The main experiment item","yes","SternbergTask.osexp","C:/Users/lil_p/OneDrive/Documents/School/Advanced Quantitative Analysis/Lab 3.1","no","mono","no","18","no","white","no","yes","768","legacy","64","11","C:/Users/lil_p/OneDrive/Documents/School/Advanced Quantitative Analysis/Lab 3.1/dm-subject-4.csv","legacy","4 6 5 8","Lentiform Loewenfeld","3.3.12","1","y","yes","0","left","right","right","left","NA","494","50640","4665","494","NA","2","legacy","4","1024","2","48000","-16","experiment","4","even","4","523103","54028","519788","520899","3377","134080","520901","218701","3385","129414","525104","525600","521902","525104","NA","Sternberg Task","73","56854","77","yes","1024"
"94.87179487179488","94.87179487179488","736.025641025641","736.025641025641","black","experiment","legacy","legacy","legacy","0","uniform","1","undefined","1","right","77","0","77","77","0","0","77","77","0","0","77","77","77","77","0","Wed Oct 19 20:42:56 2022","The main experiment item","yes","SternbergTask.osexp","C:/Users/lil_p/OneDrive/Documents/School/Advanced Quantitative Analysis/Lab 3.1","no","mono","no","18","no","white","no","yes","768","legacy","65","11","C:/Users/lil_p/OneDrive/Documents/School/Advanced Quantitative Analysis/Lab 3.1/dm-subject-4.csv","legacy","8 5 7 3 6","Lentiform Loewenfeld","3.3.12","0","n","yes","0","right","right","right","right","NA","556","50640","4665","556","NA","2","legacy","5","1024","2","48000","-16","experiment","4","even","9","528922","54028","525604","526717","3377","134080","526719","218701","3385","129414","530923","531481","527720","530923","NA","Sternberg Task","74","57410","78","yes","1024"
"94.9367088607595","94.9367088607595","739.7341772151899","739.7341772151899","black","experiment","legacy","legacy","legacy","0","uniform","1","undefined","1","right","78","0","78","78","0","0","78","78","0","0","78","78","78","78","0","Wed Oct 19 20:42:56 2022","The main experiment item","yes","SternbergTask.osexp","C:/Users/lil_p/OneDrive/Documents/School/Advanced Quantitative Analysis/Lab 3.1","no","mono","no","18","no","white","no","yes","768","legacy","66","11","C:/Users/lil_p/OneDrive/Documents/School/Advanced Quantitative Analysis/Lab 3.1/dm-subject-4.csv","legacy","1 4 3 6 5","Lentiform Loewenfeld","3.3.12","0","n","yes","0","right","right","right","right","NA","1029","50640","4665","1029","NA","2","legacy","5","1024","2","48000","-16","experiment","4","even","8","534815","54028","531485","532610","3377","134080","532613","218701","3385","129414","536816","537846","533614","536816","NA","Sternberg Task","75","58439","79","yes","1024"
"95","95","739.425","739.425","black","experiment","legacy","legacy","legacy","0","uniform","1","undefined","1","left","79","0","79","79","0","0","79","79","0","0","79","79","79","79","0","Wed Oct 19 20:42:56 2022","The main experiment item","yes","SternbergTask.osexp","C:/Users/lil_p/OneDrive/Documents/School/Advanced Quantitative Analysis/Lab 3.1","no","mono","no","18","no","white","no","yes","768","legacy","67","11","C:/Users/lil_p/OneDrive/Documents/School/Advanced Quantitative Analysis/Lab 3.1/dm-subject-4.csv","legacy","9 5 8 1","Lentiform Loewenfeld","3.3.12","2","y","yes","0","left","right","right","left","NA","715","50640","4665","715","NA","2","legacy","4","1024","2","48000","-16","experiment","4","even","5","541169","54028","537853","538964","3377","134080","538967","218701","3385","129414","543170","543887","539968","543170","NA","Sternberg Task","76","59154","80","yes","1024"
"95.06172839506173","95.06172839506173","737.8641975308642","737.8641975308642","black","experiment","legacy","legacy","legacy","0","uniform","1","undefined","1","right","80","0","80","80","0","0","80","80","0","0","80","80","80","80","0","Wed Oct 19 20:42:56 2022","The main experiment item","yes","SternbergTask.osexp","C:/Users/lil_p/OneDrive/Documents/School/Advanced Quantitative Analysis/Lab 3.1","no","mono","no","18","no","white","no","yes","768","legacy","68","11","C:/Users/lil_p/OneDrive/Documents/School/Advanced Quantitative Analysis/Lab 3.1/dm-subject-4.csv","legacy","7 9","Lentiform Loewenfeld","3.3.12","0","n","yes","0","right","right","right","right","NA","613","50640","4665","613","NA","2","legacy","2","1024","2","48000","-16","experiment","4","even","1","547209","54028","543893","545004","3377","134080","545007","218701","3385","129414","549210","549824","546008","549210","NA","Sternberg Task","77","59767","81","yes","1024"
"95.1219512195122","95.1219512195122","736.9878048780488","736.9878048780488","black","experiment","legacy","legacy","legacy","0","uniform","1","undefined","1","right","81","0","81","81","0","0","81","81","0","0","81","81","81","81","0","Wed Oct 19 20:42:56 2022","The main experiment item","yes","SternbergTask.osexp","C:/Users/lil_p/OneDrive/Documents/School/Advanced Quantitative Analysis/Lab 3.1","no","mono","no","18","no","white","no","yes","768","legacy","69","11","C:/Users/lil_p/OneDrive/Documents/School/Advanced Quantitative Analysis/Lab 3.1/dm-subject-4.csv","legacy","7 6 4 8 1 2","Lentiform Loewenfeld","3.3.12","0","n","yes","0","right","right","right","right","NA","666","50640","4665","666","NA","2","legacy","6","1024","2","48000","-16","experiment","4","even","9","553148","54028","549831","550944","3377","134080","550946","218701","3385","129414","555149","555817","551947","555149","NA","Sternberg Task","78","60433","82","yes","1024"
"95.18072289156626","95.18072289156626","739.0361445783133","739.0361445783133","black","experiment","legacy","legacy","legacy","0","uniform","1","undefined","1","left","82","0","82","82","0","0","82","82","0","0","82","82","82","82","0","Wed Oct 19 20:42:56 2022","The main experiment item","yes","SternbergTask.osexp","C:/Users/lil_p/OneDrive/Documents/School/Advanced Quantitative Analysis/Lab 3.1","no","mono","no","18","no","white","no","yes","768","legacy","70","11","C:/Users/lil_p/OneDrive/Documents/School/Advanced Quantitative Analysis/Lab 3.1/dm-subject-4.csv","legacy","8 5 3 7 4 6","Lentiform Loewenfeld","3.3.12","6","y","yes","0","left","right","right","left","NA","907","50640","4665","907","NA","2","legacy","6","1024","2","48000","-16","experiment","4","even","6","559147","54028","555822","556942","3377","134080","556944","218701","3385","129414","561148","562056","557946","561148","NA","Sternberg Task","79","61340","83","yes","1024"
"95.23809523809524","95.23809523809524","737.4047619047619","737.4047619047619","black","experiment","legacy","legacy","legacy","0","uniform","1","undefined","1","left","83","0","83","83","0","0","83","83","0","0","83","83","83","83","0","Wed Oct 19 20:42:56 2022","The main experiment item","yes","SternbergTask.osexp","C:/Users/lil_p/OneDrive/Documents/School/Advanced Quantitative Analysis/Lab 3.1","no","mono","no","18","no","white","no","yes","768","legacy","71","11","C:/Users/lil_p/OneDrive/Documents/School/Advanced Quantitative Analysis/Lab 3.1/dm-subject-4.csv","legacy","2 5 4 8 7","Lentiform Loewenfeld","3.3.12","3","y","yes","0","left","right","right","left","NA","602","50640","4665","602","NA","2","legacy","5","1024","2","48000","-16","experiment","4","even","4","565378","54028","562062","563173","3377","134080","563176","218701","3385","129414","567379","567983","564177","567379","NA","Sternberg Task","80","61942","84","yes","1024"
"95.29411764705883","95.29411764705883","735.5058823529412","735.5058823529412","black","experiment","legacy","legacy","legacy","0","uniform","1","undefined","1","left","84","0","84","84","0","0","84","84","0","0","84","84","84","84","0","Wed Oct 19 20:42:56 2022","The main experiment item","yes","SternbergTask.osexp","C:/Users/lil_p/OneDrive/Documents/School/Advanced Quantitative Analysis/Lab 3.1","no","mono","no","18","no","white","no","yes","768","legacy","72","11","C:/Users/lil_p/OneDrive/Documents/School/Advanced Quantitative Analysis/Lab 3.1/dm-subject-4.csv","legacy","7 8 4 6 9 5","Lentiform Loewenfeld","3.3.12","4","y","yes","0","left","right","right","left","NA","576","50640","4665","576","NA","2","legacy","6","1024","2","48000","-16","experiment","4","even","6","571312","54028","567990","569106","3377","134080","569109","218701","3385","129414","573313","573891","570110","573313","NA","Sternberg Task","81","62518","85","yes","1024"
"95.34883720930233","95.34883720930233","733.0348837209302","733.0348837209302","black","experiment","legacy","legacy","legacy","0","uniform","1","undefined","1","right","85","0","85","85","0","0","85","85","0","0","85","85","85","85","0","Wed Oct 19 20:42:56 2022","The main experiment item","yes","SternbergTask.osexp","C:/Users/lil_p/OneDrive/Documents/School/Advanced Quantitative Analysis/Lab 3.1","no","mono","no","18","no","white","no","yes","768","legacy","73","11","C:/Users/lil_p/OneDrive/Documents/School/Advanced Quantitative Analysis/Lab 3.1/dm-subject-4.csv","legacy","9","Lentiform Loewenfeld","3.3.12","0","n","yes","0","right","right","right","right","NA","523","50640","4665","523","NA","2","legacy","1","1024","2","48000","-16","experiment","4","even","6","577210","54028","573896","575006","3377","134080","575008","218701","3385","129414","579211","579736","576009","579211","NA","Sternberg Task","82","63041","86","yes","1024"
"95.40229885057471","95.40229885057471","730.264367816092","730.264367816092","black","experiment","legacy","legacy","legacy","0","uniform","1","undefined","1","right","86","0","86","86","0","0","86","86","0","0","86","86","86","86","0","Wed Oct 19 20:42:56 2022","The main experiment item","yes","SternbergTask.osexp","C:/Users/lil_p/OneDrive/Documents/School/Advanced Quantitative Analysis/Lab 3.1","no","mono","no","18","no","white","no","yes","768","legacy","74","11","C:/Users/lil_p/OneDrive/Documents/School/Advanced Quantitative Analysis/Lab 3.1/dm-subject-4.csv","legacy","1","Lentiform Loewenfeld","3.3.12","0","n","yes","0","right","right","right","right","NA","492","50640","4665","492","NA","2","legacy","1","1024","2","48000","-16","experiment","4","even","7","583058","54028","579742","580853","3377","134080","580856","218701","3385","129414","585059","585553","581857","585059","NA","Sternberg Task","83","63533","87","yes","1024"
"95.45454545454545","95.45454545454545","730.1931818181819","730.1931818181819","black","experiment","legacy","legacy","legacy","0","uniform","1","undefined","1","right","87","0","87","87","0","0","87","87","0","0","87","87","87","87","0","Wed Oct 19 20:42:56 2022","The main experiment item","yes","SternbergTask.osexp","C:/Users/lil_p/OneDrive/Documents/School/Advanced Quantitative Analysis/Lab 3.1","no","mono","no","18","no","white","no","yes","768","legacy","75","11","C:/Users/lil_p/OneDrive/Documents/School/Advanced Quantitative Analysis/Lab 3.1/dm-subject-4.csv","legacy","1 8 7","Lentiform Loewenfeld","3.3.12","0","n","yes","0","right","right","right","right","NA","724","50640","4665","724","NA","2","legacy","3","1024","2","48000","-16","experiment","4","even","4","588877","54028","585559","586671","3377","134080","586674","218701","3385","129414","590878","591603","587675","590878","NA","Sternberg Task","84","64257","88","yes","1024"
"95.50561797752809","95.50561797752809","731.123595505618","731.123595505618","black","experiment","legacy","legacy","legacy","0","uniform","1","undefined","1","left","88","0","88","88","0","0","88","88","0","0","88","88","88","88","0","Wed Oct 19 20:42:56 2022","The main experiment item","yes","SternbergTask.osexp","C:/Users/lil_p/OneDrive/Documents/School/Advanced Quantitative Analysis/Lab 3.1","no","mono","no","18","no","white","no","yes","768","legacy","76","11","C:/Users/lil_p/OneDrive/Documents/School/Advanced Quantitative Analysis/Lab 3.1/dm-subject-4.csv","legacy","9 1 6 7 8","Lentiform Loewenfeld","3.3.12","1","y","yes","0","left","right","right","left","NA","813","50640","4665","813","NA","2","legacy","5","1024","2","48000","-16","experiment","4","even","9","594925","54028","591609","592720","3377","134080","592723","218701","3385","129414","596926","597740","593724","596926","NA","Sternberg Task","85","65070","89","yes","1024"
"95.55555555555556","95.55555555555556","729.9333333333333","729.9333333333333","black","experiment","legacy","legacy","legacy","0","uniform","1","undefined","1","left","89","0","89","89","0","0","89","89","0","0","89","89","89","89","0","Wed Oct 19 20:42:56 2022","The main experiment item","yes","SternbergTask.osexp","C:/Users/lil_p/OneDrive/Documents/School/Advanced Quantitative Analysis/Lab 3.1","no","mono","no","18","no","white","no","yes","768","legacy","77","11","C:/Users/lil_p/OneDrive/Documents/School/Advanced Quantitative Analysis/Lab 3.1/dm-subject-4.csv","legacy","2 4 6 9","Lentiform Loewenfeld","3.3.12","3","y","yes","0","left","right","right","left","NA","624","50640","4665","624","NA","2","legacy","4","1024","2","48000","-16","experiment","4","even","6","601063","54028","597746","598858","3377","134080","598861","218701","3385","129414","603064","603691","599862","603064","NA","Sternberg Task","86","65694","90","yes","1024"
"95.6043956043956","95.6043956043956","729.1098901098901","729.1098901098901","black","experiment","legacy","legacy","legacy","0","uniform","1","undefined","1","right","90","0","90","90","0","0","90","90","0","0","90","90","90","90","0","Wed Oct 19 20:42:56 2022","The main experiment item","yes","SternbergTask.osexp","C:/Users/lil_p/OneDrive/Documents/School/Advanced Quantitative Analysis/Lab 3.1","no","mono","no","18","no","white","no","yes","768","legacy","78","11","C:/Users/lil_p/OneDrive/Documents/School/Advanced Quantitative Analysis/Lab 3.1/dm-subject-4.csv","legacy","9 7 4 5 8","Lentiform Loewenfeld","3.3.12","0","n","yes","0","right","right","right","right","NA","655","50640","4665","655","NA","2","legacy","5","1024","2","48000","-16","experiment","4","even","6","607013","54028","603696","604809","3377","134080","604810","218701","3385","129414","609014","609671","605812","609014","NA","Sternberg Task","87","66349","91","yes","1024"
"95.65217391304348","95.65217391304348","730.5434782608696","730.5434782608696","black","experiment","legacy","legacy","legacy","0","uniform","1","undefined","1","left","91","0","91","91","0","0","91","91","0","0","91","91","91","91","0","Wed Oct 19 20:42:56 2022","The main experiment item","yes","SternbergTask.osexp","C:/Users/lil_p/OneDrive/Documents/School/Advanced Quantitative Analysis/Lab 3.1","no","mono","no","18","no","white","no","yes","768","legacy","79","11","C:/Users/lil_p/OneDrive/Documents/School/Advanced Quantitative Analysis/Lab 3.1/dm-subject-4.csv","legacy","8 1 6","Lentiform Loewenfeld","3.3.12","3","y","yes","0","left","right","right","left","NA","861","50640","4665","861","NA","2","legacy","3","1024","2","48000","-16","experiment","4","even","6","612998","54028","609676","610792","3377","134080","610795","218701","3385","129414","614999","615862","611796","614999","NA","Sternberg Task","88","67210","92","yes","1024"
"95.6989247311828","95.6989247311828","729.5483870967741","729.5483870967741","black","experiment","legacy","legacy","legacy","0","uniform","1","undefined","1","left","92","0","92","92","0","0","92","92","0","0","92","92","92","92","0","Wed Oct 19 20:42:56 2022","The main experiment item","yes","SternbergTask.osexp","C:/Users/lil_p/OneDrive/Documents/School/Advanced Quantitative Analysis/Lab 3.1","no","mono","no","18","no","white","no","yes","768","legacy","80","11","C:/Users/lil_p/OneDrive/Documents/School/Advanced Quantitative Analysis/Lab 3.1/dm-subject-4.csv","legacy","5 7 8 2 3 8","Lentiform Loewenfeld","3.3.12","5","y","yes","0","left","right","right","left","NA","638","50640","4665","638","NA","2","legacy","6","1024","2","48000","-16","experiment","4","even","3","619184","54028","615867","616979","3377","134080","616982","218701","3385","129414","621185","621824","617983","621185","NA","Sternberg Task","89","67848","93","yes","1024"
"95.74468085106383","95.74468085106383","727.1702127659574","727.1702127659574","black","experiment","legacy","legacy","legacy","0","uniform","1","undefined","1","right","93","0","93","93","0","0","93","93","0","0","93","93","93","93","0","Wed Oct 19 20:42:56 2022","The main experiment item","yes","SternbergTask.osexp","C:/Users/lil_p/OneDrive/Documents/School/Advanced Quantitative Analysis/Lab 3.1","no","mono","no","18","no","white","no","yes","768","legacy","81","11","C:/Users/lil_p/OneDrive/Documents/School/Advanced Quantitative Analysis/Lab 3.1/dm-subject-4.csv","legacy","5","Lentiform Loewenfeld","3.3.12","0","n","yes","0","right","right","right","right","NA","506","50640","4665","506","NA","2","legacy","1","1024","2","48000","-16","experiment","4","even","8","625148","54028","621830","622944","3377","134080","622946","218701","3385","129414","627149","627657","623947","627149","NA","Sternberg Task","90","68354","94","yes","1024"
"95.78947368421052","95.78947368421052","727.578947368421","727.578947368421","black","experiment","legacy","legacy","legacy","0","uniform","1","undefined","1","right","94","0","94","94","0","0","94","94","0","0","94","94","94","94","0","Wed Oct 19 20:42:56 2022","The main experiment item","yes","SternbergTask.osexp","C:/Users/lil_p/OneDrive/Documents/School/Advanced Quantitative Analysis/Lab 3.1","no","mono","no","18","no","white","no","yes","768","legacy","82","11","C:/Users/lil_p/OneDrive/Documents/School/Advanced Quantitative Analysis/Lab 3.1/dm-subject-4.csv","legacy","1 3 2 6 9","Lentiform Loewenfeld","3.3.12","0","n","yes","0","right","right","right","right","NA","766","50640","4665","766","NA","2","legacy","5","1024","2","48000","-16","experiment","4","even","5","630978","54028","627662","628773","3377","134080","628776","218701","3385","129414","632979","633746","629777","632979","NA","Sternberg Task","91","69120","95","yes","1024"
"95.83333333333333","95.83333333333333","726.3645833333334","726.3645833333334","black","experiment","legacy","legacy","legacy","0","uniform","1","undefined","1","left","95","0","95","95","0","0","95","95","0","0","95","95","95","95","0","Wed Oct 19 20:42:56 2022","The main experiment item","yes","SternbergTask.osexp","C:/Users/lil_p/OneDrive/Documents/School/Advanced Quantitative Analysis/Lab 3.1","no","mono","no","18","no","white","no","yes","768","legacy","83","11","C:/Users/lil_p/OneDrive/Documents/School/Advanced Quantitative Analysis/Lab 3.1/dm-subject-4.csv","legacy","2 3 7 4","Lentiform Loewenfeld","3.3.12","1","y","yes","0","left","right","right","left","NA","611","50640","4665","611","NA","2","legacy","4","1024","2","48000","-16","experiment","4","even","2","637066","54028","633751","634861","3377","134080","634864","218701","3385","129414","639067","639681","635865","639067","NA","Sternberg Task","92","69731","96","yes","1024"
"95.87628865979381","95.87628865979381","724.6288659793814","724.6288659793814","black","experiment","legacy","legacy","legacy","0","uniform","1","undefined","1","left","96","0","96","96","0","0","96","96","0","0","96","96","96","96","0","Wed Oct 19 20:42:56 2022","The main experiment item","yes","SternbergTask.osexp","C:/Users/lil_p/OneDrive/Documents/School/Advanced Quantitative Analysis/Lab 3.1","no","mono","no","18","no","white","no","yes","768","legacy","84","11","C:/Users/lil_p/OneDrive/Documents/School/Advanced Quantitative Analysis/Lab 3.1/dm-subject-4.csv","legacy","8 9 5 6 7","Lentiform Loewenfeld","3.3.12","1","y","yes","0","left","right","right","left","NA","558","50640","4665","558","NA","2","legacy","5","1024","2","48000","-16","experiment","4","even","8","643003","54028","639687","640799","3377","134080","640801","218701","3385","129414","645004","645563","641802","645004","NA","Sternberg Task","93","70289","97","yes","1024"
"95.91836734693878","95.91836734693878","722.1836734693877","722.1836734693877","black","experiment","legacy","legacy","legacy","0","uniform","1","undefined","1","left","97","0","97","97","0","0","97","97","0","0","97","97","97","97","0","Wed Oct 19 20:42:56 2022","The main experiment item","yes","SternbergTask.osexp","C:/Users/lil_p/OneDrive/Documents/School/Advanced Quantitative Analysis/Lab 3.1","no","mono","no","18","no","white","no","yes","768","legacy","85","11","C:/Users/lil_p/OneDrive/Documents/School/Advanced Quantitative Analysis/Lab 3.1/dm-subject-4.csv","legacy","8 7 3","Lentiform Loewenfeld","3.3.12","1","y","yes","0","left","right","right","left","NA","485","50640","4665","485","NA","2","legacy","3","1024","2","48000","-16","experiment","4","even","8","648886","54028","645568","646682","3377","134080","646684","218701","3385","129414","650887","651374","647685","650887","NA","Sternberg Task","94","70774","98","yes","1024"
"95.95959595959596","95.95959595959596","723.3333333333334","723.3333333333334","black","experiment","legacy","legacy","legacy","0","uniform","1","undefined","1","right","98","0","98","98","0","0","98","98","0","0","98","98","98","98","0","Wed Oct 19 20:42:56 2022","The main experiment item","yes","SternbergTask.osexp","C:/Users/lil_p/OneDrive/Documents/School/Advanced Quantitative Analysis/Lab 3.1","no","mono","no","18","no","white","no","yes","768","legacy","86","11","C:/Users/lil_p/OneDrive/Documents/School/Advanced Quantitative Analysis/Lab 3.1/dm-subject-4.csv","legacy","4 2 6 9","Lentiform Loewenfeld","3.3.12","0","n","yes","0","right","right","right","right","NA","836","50640","4665","836","NA","2","legacy","4","1024","2","48000","-16","experiment","4","even","7","654694","54028","651378","652490","3377","134080","652492","218701","3385","129414","656695","657533","653493","656695","NA","Sternberg Task","95","71610","99","yes","1024"
"96","96","721.32","721.32","black","experiment","legacy","legacy","legacy","0","uniform","1","undefined","1","right","99","0","99","99","0","0","99","99","0","0","99","99","99","99","0","Wed Oct 19 20:42:56 2022","The main experiment item","yes","SternbergTask.osexp","C:/Users/lil_p/OneDrive/Documents/School/Advanced Quantitative Analysis/Lab 3.1","no","mono","no","18","no","white","no","yes","768","legacy","87","11","C:/Users/lil_p/OneDrive/Documents/School/Advanced Quantitative Analysis/Lab 3.1/dm-subject-4.csv","legacy","6 9 4 5 3 2","Lentiform Loewenfeld","3.3.12","0","n","yes","0","right","right","right","right","NA","522","50640","4665","522","NA","2","legacy","6","1024","2","48000","-16","experiment","4","even","8","660856","54028","657539","658651","3377","134080","658654","218701","3385","129414","662857","663381","659655","662857","NA","Sternberg Task","96","72132","100","yes","1024"
"96.03960396039604","96.03960396039604","721.7821782178218","721.7821782178218","black","experiment","legacy","legacy","legacy","0","uniform","1","undefined","1","right","100","0","100","100","0","0","100","100","0","0","100","100","100","100","0","Wed Oct 19 20:42:56 2022","The main experiment item","yes","SternbergTask.osexp","C:/Users/lil_p/OneDrive/Documents/School/Advanced Quantitative Analysis/Lab 3.1","no","mono","no","18","no","white","no","yes","768","legacy","88","11","C:/Users/lil_p/OneDrive/Documents/School/Advanced Quantitative Analysis/Lab 3.1/dm-subject-4.csv","legacy","2 8 7 9 5 3","Lentiform Loewenfeld","3.3.12","0","n","yes","0","right","right","right","right","NA","768","50640","4665","768","NA","2","legacy","6","1024","2","48000","-16","experiment","4","even","6","666704","54028","663388","664500","3377","134080","664502","218701","3385","129414","668705","669474","665503","668705","NA","Sternberg Task","97","72900","101","yes","1024"
"96.07843137254902","96.07843137254902","720.156862745098","720.156862745098","black","experiment","legacy","legacy","legacy","0","uniform","1","undefined","1","right","101","0","101","101","0","0","101","101","0","0","101","101","101","101","0","Wed Oct 19 20:42:56 2022","The main experiment item","yes","SternbergTask.osexp","C:/Users/lil_p/OneDrive/Documents/School/Advanced Quantitative Analysis/Lab 3.1","no","mono","no","18","no","white","no","yes","768","legacy","89","11","C:/Users/lil_p/OneDrive/Documents/School/Advanced Quantitative Analysis/Lab 3.1/dm-subject-4.csv","legacy","1 7 5 2","Lentiform Loewenfeld","3.3.12","0","n","yes","0","right","right","right","right","NA","556","50640","4665","556","NA","2","legacy","4","1024","2","48000","-16","experiment","4","even","3","672798","54028","669480","670593","3377","134080","670596","218701","3385","129414","674799","675357","671597","674799","NA","Sternberg Task","98","73456","102","yes","1024"
"95.14563106796116","95.14563106796116","719.3689320388349","719.3689320388349","black","experiment","legacy","legacy","legacy","0","uniform","0","undefined","0","left","102","0","102","102","0","0","102","102","0","0","102","102","102","102","0","Wed Oct 19 20:42:56 2022","The main experiment item","yes","SternbergTask.osexp","C:/Users/lil_p/OneDrive/Documents/School/Advanced Quantitative Analysis/Lab 3.1","no","mono","no","18","no","white","no","yes","768","legacy","90","11","C:/Users/lil_p/OneDrive/Documents/School/Advanced Quantitative Analysis/Lab 3.1/dm-subject-4.csv","legacy","5 2 9 6 1 7","Lentiform Loewenfeld","3.3.12","3","y","yes","0","right","right","right","right","NA","639","50640","4665","639","NA","2","legacy","6","1024","2","48000","-16","experiment","4","even","9","678680","54028","675364","676475","3377","134080","676477","218701","3385","129414","680681","681321","677478","680681","NA","Sternberg Task","98","74095","103","yes","1024"
"95.1923076923077","95.1923076923077","718.25","718.25","black","experiment","legacy","legacy","legacy","0","uniform","1","undefined","1","right","103","0","103","103","0","0","103","103","0","0","103","103","103","103","0","Wed Oct 19 20:42:56 2022","The main experiment item","yes","SternbergTask.osexp","C:/Users/lil_p/OneDrive/Documents/School/Advanced Quantitative Analysis/Lab 3.1","no","mono","no","18","no","white","no","yes","768","legacy","91","11","C:/Users/lil_p/OneDrive/Documents/School/Advanced Quantitative Analysis/Lab 3.1/dm-subject-4.csv","legacy","2 8 6 3 1","Lentiform Loewenfeld","3.3.12","0","n","yes","0","right","right","right","right","NA","603","50640","4665","603","NA","2","legacy","5","1024","2","48000","-16","experiment","4","even","7","684644","54028","675364","682440","3377","134080","682442","681327","3385","129414","686645","687250","683443","686645","NA","Sternberg Task","99","74698","104","yes","1024"
