"acc","accuracy","average_response_time","avg_rt","background","block","canvas_backend","clock_backend","color_backend","compensation","coordinates","correct","correct_Instruction1","correct_keyboard_response","correct_response","count_CorrectFeedback","count_ExpSequence","count_ExperimentLoop","count_Fixation","count_ISI","count_IncorrectFeedback","count_Instruction1","count_Instructions2","count_MemorySet","count_PracticeLoop","count_Probe","count_ThankYou","count_experiment","count_keyboard_response","count_logger","datetime","description","disable_garbage_collection","experiment_file","experiment_path","font_bold","font_family","font_italic","font_size","font_underline","foreground","form_clicks","fullscreen","height","keyboard_backend","live_row","live_row_PracticeLoop","logfile","mouse_backend","numberSet","opensesame_codename","opensesame_version","posInSet","present","repeat_cycle","response","response_Instruction1","response_Instructions2","response_ThankYou","response_keyboard_response","response_time","response_time_Instruction1","response_time_Instructions2","response_time_ThankYou","response_time_keyboard_response","round_decimals","sampler_backend","setSize","sound_buf_size","sound_channels","sound_freq","sound_sample_size","start","subject_nr","subject_parity","target","time_CorrectFeedback","time_ExpSequence","time_ExperimentLoop","time_Fixation","time_ISI","time_IncorrectFeedback","time_Instruction1","time_Instructions2","time_MemorySet","time_PracticeLoop","time_Probe","time_ThankYou","time_experiment","time_keyboard_response","time_logger","title","total_correct","total_response_time","total_responses","uniform_coordinates","width"
"100","100","446","446","black","practice","legacy","legacy","legacy","0","uniform","1","undefined","1","right","0","0","0","0","0","0","0","0","0","0","0","0","0","0","0","Mon Oct 10 20:30:51 2022","The main experiment item","yes","SternbergTask.osexp","C:/Users/Melissa/OneDrive/Desktop/ADVANCED QUANT/LAB 3.1","no","mono","no","18","no","white","no","yes","768","legacy","0","0","C:/Users/Melissa/OneDrive/Desktop/ADVANCED QUANT/LAB 3.1/MM-subject-1.csv","legacy","2 1","Lentiform Loewenfeld","3.3.12","0","n","0","right","left","NA","NA","right","446","71823","NA","NA","446","2","legacy","2","1024","2","48000","-16","experiment","1","odd","5","NA","75264","NA","75267","77473","NA","2869","NA","76269","74693","79477","NA","2862","79478","79925","Sternberg Task","1","446","1","yes","1024"
"100","100","560.5","560.5","black","practice","legacy","legacy","legacy","0","uniform","1","undefined","1","right","1","1","0","1","1","1","0","0","1","0","1","0","0","1","1","Mon Oct 10 20:30:51 2022","The main experiment item","yes","SternbergTask.osexp","C:/Users/Melissa/OneDrive/Desktop/ADVANCED QUANT/LAB 3.1","no","mono","no","18","no","white","no","yes","768","legacy","1","1","C:/Users/Melissa/OneDrive/Desktop/ADVANCED QUANT/LAB 3.1/MM-subject-1.csv","legacy","5 7 8 4 1 2","Lentiform Loewenfeld","3.3.12","0","n","0","right","left","NA","NA","right","675","71823","NA","NA","675","2","legacy","6","1024","2","48000","-16","experiment","1","odd","6","79957","81035","NA","81037","83244","NA","2869","NA","82038","74693","85245","NA","2862","85245","85921","Sternberg Task","2","1121","2","yes","1024"
"100","100","570.3333333333334","570.3333333333334","black","practice","legacy","legacy","legacy","0","uniform","1","undefined","1","right","2","2","0","2","2","2","0","0","2","0","2","0","0","2","2","Mon Oct 10 20:30:51 2022","The main experiment item","yes","SternbergTask.osexp","C:/Users/Melissa/OneDrive/Desktop/ADVANCED QUANT/LAB 3.1","no","mono","no","18","no","white","no","yes","768","legacy","2","2","C:/Users/Melissa/OneDrive/Desktop/ADVANCED QUANT/LAB 3.1/MM-subject-1.csv","legacy","3 1 9 4","Lentiform Loewenfeld","3.3.12","0","n","0","right","left","NA","NA","right","590","71823","NA","NA","590","2","legacy","4","1024","2","48000","-16","experiment","1","odd","6","85925","86998","NA","86999","89205","NA","2869","NA","88000","74693","91210","NA","2862","91210","91801","Sternberg Task","3","1711","3","yes","1024"
"100","100","590.5","590.5","black","practice","legacy","legacy","legacy","0","uniform","1","undefined","1","left","3","3","0","3","3","3","0","0","3","0","3","0","0","3","3","Mon Oct 10 20:30:51 2022","The main experiment item","yes","SternbergTask.osexp","C:/Users/Melissa/OneDrive/Desktop/ADVANCED QUANT/LAB 3.1","no","mono","no","18","no","white","no","yes","768","legacy","3","3","C:/Users/Melissa/OneDrive/Desktop/ADVANCED QUANT/LAB 3.1/MM-subject-1.csv","legacy","2 9 4","Lentiform Loewenfeld","3.3.12","3","y","0","left","left","NA","NA","left","651","71823","NA","NA","651","2","legacy","3","1024","2","48000","-16","experiment","1","odd","4","91804","92874","NA","92875","95081","NA","2869","NA","93876","74693","97082","NA","2862","97082","97734","Sternberg Task","4","2362","4","yes","1024"
"100","100","613.6","613.6","black","practice","legacy","legacy","legacy","0","uniform","1","undefined","1","left","4","4","0","4","4","4","0","0","4","0","4","0","0","4","4","Mon Oct 10 20:30:51 2022","The main experiment item","yes","SternbergTask.osexp","C:/Users/Melissa/OneDrive/Desktop/ADVANCED QUANT/LAB 3.1","no","mono","no","18","no","white","no","yes","768","legacy","4","4","C:/Users/Melissa/OneDrive/Desktop/ADVANCED QUANT/LAB 3.1/MM-subject-1.csv","legacy","4 3 1 7 9 8","Lentiform Loewenfeld","3.3.12","1","y","0","left","left","NA","NA","left","706","71823","NA","NA","706","2","legacy","6","1024","2","48000","-16","experiment","1","odd","4","97738","98815","NA","98817","101024","NA","2869","NA","99819","74693","103031","NA","2862","103031","103738","Sternberg Task","5","3068","5","yes","1024"
"100","100","631.1666666666666","631.1666666666666","black","practice","legacy","legacy","legacy","0","uniform","1","undefined","1","right","5","5","0","5","5","5","0","0","5","0","5","0","0","5","5","Mon Oct 10 20:30:51 2022","The main experiment item","yes","SternbergTask.osexp","C:/Users/Melissa/OneDrive/Desktop/ADVANCED QUANT/LAB 3.1","no","mono","no","18","no","white","no","yes","768","legacy","5","5","C:/Users/Melissa/OneDrive/Desktop/ADVANCED QUANT/LAB 3.1/MM-subject-1.csv","legacy","9 6 7 4 5","Lentiform Loewenfeld","3.3.12","0","n","0","right","left","NA","NA","right","719","71823","NA","NA","719","2","legacy","5","1024","2","48000","-16","experiment","1","odd","3","103741","104816","NA","104818","107025","NA","2869","NA","105820","74693","109026","NA","2862","109026","109746","Sternberg Task","6","3787","6","yes","1024"
"100","100","634.2857142857143","634.2857142857143","black","practice","legacy","legacy","legacy","0","uniform","1","undefined","1","left","6","6","0","6","6","6","0","0","6","0","6","0","0","6","6","Mon Oct 10 20:30:51 2022","The main experiment item","yes","SternbergTask.osexp","C:/Users/Melissa/OneDrive/Desktop/ADVANCED QUANT/LAB 3.1","no","mono","no","18","no","white","no","yes","768","legacy","6","6","C:/Users/Melissa/OneDrive/Desktop/ADVANCED QUANT/LAB 3.1/MM-subject-1.csv","legacy","1 5 2 9","Lentiform Loewenfeld","3.3.12","2","y","0","left","left","NA","NA","left","653","71823","NA","NA","653","2","legacy","4","1024","2","48000","-16","experiment","1","odd","5","109750","110817","NA","110818","113027","NA","2869","NA","111820","74693","115028","NA","2862","115028","115681","Sternberg Task","7","4440","7","yes","1024"
"100","100","621.125","621.125","black","practice","legacy","legacy","legacy","0","uniform","1","undefined","1","right","7","7","0","7","7","7","0","0","7","0","7","0","0","7","7","Mon Oct 10 20:30:51 2022","The main experiment item","yes","SternbergTask.osexp","C:/Users/Melissa/OneDrive/Desktop/ADVANCED QUANT/LAB 3.1","no","mono","no","18","no","white","no","yes","768","legacy","7","7","C:/Users/Melissa/OneDrive/Desktop/ADVANCED QUANT/LAB 3.1/MM-subject-1.csv","legacy","4 1 5","Lentiform Loewenfeld","3.3.12","0","n","0","right","left","NA","NA","right","529","71823","NA","NA","529","2","legacy","3","1024","2","48000","-16","experiment","1","odd","2","115698","116771","NA","116773","118980","NA","2869","NA","117775","74693","120981","NA","2862","120981","121511","Sternberg Task","8","4969","8","yes","1024"
"100","100","659.1111111111111","659.1111111111111","black","practice","legacy","legacy","legacy","0","uniform","1","undefined","1","left","8","8","0","8","8","8","0","0","8","0","8","0","0","8","8","Mon Oct 10 20:30:51 2022","The main experiment item","yes","SternbergTask.osexp","C:/Users/Melissa/OneDrive/Desktop/ADVANCED QUANT/LAB 3.1","no","mono","no","18","no","white","no","yes","768","legacy","8","8","C:/Users/Melissa/OneDrive/Desktop/ADVANCED QUANT/LAB 3.1/MM-subject-1.csv","legacy","1 7 9 8 5","Lentiform Loewenfeld","3.3.12","4","y","0","left","left","NA","NA","left","963","71823","NA","NA","963","2","legacy","5","1024","2","48000","-16","experiment","1","odd","8","121515","122584","NA","122585","124792","NA","2869","NA","123586","74693","126794","NA","2862","126794","127758","Sternberg Task","9","5932","9","yes","1024"
"100","100","655.4","655.4","black","practice","legacy","legacy","legacy","0","uniform","1","undefined","1","right","9","9","0","9","9","9","0","0","9","0","9","0","0","9","9","Mon Oct 10 20:30:51 2022","The main experiment item","yes","SternbergTask.osexp","C:/Users/Melissa/OneDrive/Desktop/ADVANCED QUANT/LAB 3.1","no","mono","no","18","no","white","no","yes","768","legacy","9","9","C:/Users/Melissa/OneDrive/Desktop/ADVANCED QUANT/LAB 3.1/MM-subject-1.csv","legacy","5","Lentiform Loewenfeld","3.3.12","0","n","0","right","left","NA","NA","right","622","71823","NA","NA","622","2","legacy","1","1024","2","48000","-16","experiment","1","odd","3","127761","128828","NA","128830","131036","NA","2869","NA","129831","74693","133038","NA","2862","133038","133661","Sternberg Task","10","6554","10","yes","1024"
"100","100","638.6363636363636","638.6363636363636","black","practice","legacy","legacy","legacy","0","uniform","1","undefined","1","left","10","10","0","10","10","10","0","0","10","0","10","0","0","10","10","Mon Oct 10 20:30:51 2022","The main experiment item","yes","SternbergTask.osexp","C:/Users/Melissa/OneDrive/Desktop/ADVANCED QUANT/LAB 3.1","no","mono","no","18","no","white","no","yes","768","legacy","10","10","C:/Users/Melissa/OneDrive/Desktop/ADVANCED QUANT/LAB 3.1/MM-subject-1.csv","legacy","6","Lentiform Loewenfeld","3.3.12","1","y","0","left","left","NA","NA","left","471","71823","NA","NA","471","2","legacy","1","1024","2","48000","-16","experiment","1","odd","6","133665","134734","NA","134736","136942","NA","2869","NA","135737","74693","138943","NA","2862","138943","139415","Sternberg Task","11","7025","11","yes","1024"
"100","100","621.1666666666666","621.1666666666666","black","practice","legacy","legacy","legacy","0","uniform","1","undefined","1","left","11","11","0","11","11","11","0","0","11","0","11","0","0","11","11","Mon Oct 10 20:30:51 2022","The main experiment item","yes","SternbergTask.osexp","C:/Users/Melissa/OneDrive/Desktop/ADVANCED QUANT/LAB 3.1","no","mono","no","18","no","white","no","yes","768","legacy","11","11","C:/Users/Melissa/OneDrive/Desktop/ADVANCED QUANT/LAB 3.1/MM-subject-1.csv","legacy","4 8","Lentiform Loewenfeld","3.3.12","1","y","0","left","left","NA","NA","left","429","71823","NA","NA","429","2","legacy","2","1024","2","48000","-16","experiment","1","odd","4","139419","140494","NA","140496","142702","NA","2869","NA","141497","74693","144705","NA","2862","144705","145135","Sternberg Task","12","7454","12","yes","1024"
"100","100","624.6153846153846","624.6153846153846","black","experiment","legacy","legacy","legacy","0","uniform","1","undefined","1","right","12","12","0","12","12","12","0","0","12","0","12","0","0","12","12","Mon Oct 10 20:30:51 2022","The main experiment item","yes","SternbergTask.osexp","C:/Users/Melissa/OneDrive/Desktop/ADVANCED QUANT/LAB 3.1","no","mono","no","18","no","white","no","yes","768","legacy","0","11","C:/Users/Melissa/OneDrive/Desktop/ADVANCED QUANT/LAB 3.1/MM-subject-1.csv","legacy","5 3 2 6 9 8","Lentiform Loewenfeld","3.3.12","0","n","0","right","left","left","NA","right","666","71823","11088","NA","666","2","legacy","6","1024","2","48000","-16","experiment","1","odd","4","145139","157315","157250","157316","159522","NA","2869","146161","158317","74693","161523","NA","2862","161524","162190","Sternberg Task","13","8120","13","yes","1024"
"100","100","611.0714285714286","611.0714285714286","black","experiment","legacy","legacy","legacy","0","uniform","1","undefined","1","left","13","13","0","13","13","13","0","0","13","0","13","0","0","13","13","Mon Oct 10 20:30:51 2022","The main experiment item","yes","SternbergTask.osexp","C:/Users/Melissa/OneDrive/Desktop/ADVANCED QUANT/LAB 3.1","no","mono","no","18","no","white","no","yes","768","legacy","1","11","C:/Users/Melissa/OneDrive/Desktop/ADVANCED QUANT/LAB 3.1/MM-subject-1.csv","legacy","3 4","Lentiform Loewenfeld","3.3.12","1","y","0","left","left","left","NA","left","435","71823","11088","NA","435","2","legacy","2","1024","2","48000","-16","experiment","1","odd","3","162195","163274","157250","163276","165482","NA","2869","146161","164277","74693","167483","NA","2862","167483","167918","Sternberg Task","14","8555","14","yes","1024"
"100","100","601.4666666666667","601.4666666666667","black","experiment","legacy","legacy","legacy","0","uniform","1","undefined","1","right","14","14","0","14","14","14","0","0","14","0","14","0","0","14","14","Mon Oct 10 20:30:51 2022","The main experiment item","yes","SternbergTask.osexp","C:/Users/Melissa/OneDrive/Desktop/ADVANCED QUANT/LAB 3.1","no","mono","no","18","no","white","no","yes","768","legacy","2","11","C:/Users/Melissa/OneDrive/Desktop/ADVANCED QUANT/LAB 3.1/MM-subject-1.csv","legacy","4 2 6 9","Lentiform Loewenfeld","3.3.12","0","n","0","right","left","left","NA","right","467","71823","11088","NA","467","2","legacy","4","1024","2","48000","-16","experiment","1","odd","7","167921","168992","157250","168993","171200","NA","2869","146161","169995","74693","173201","NA","2862","173201","173669","Sternberg Task","15","9022","15","yes","1024"
"100","100","598.625","598.625","black","experiment","legacy","legacy","legacy","0","uniform","1","undefined","1","left","15","15","0","15","15","15","0","0","15","0","15","0","0","15","15","Mon Oct 10 20:30:51 2022","The main experiment item","yes","SternbergTask.osexp","C:/Users/Melissa/OneDrive/Desktop/ADVANCED QUANT/LAB 3.1","no","mono","no","18","no","white","no","yes","768","legacy","3","11","C:/Users/Melissa/OneDrive/Desktop/ADVANCED QUANT/LAB 3.1/MM-subject-1.csv","legacy","7 2 3","Lentiform Loewenfeld","3.3.12","3","y","0","left","left","left","NA","left","556","71823","11088","NA","556","2","legacy","3","1024","2","48000","-16","experiment","1","odd","3","173672","174742","157250","174744","176950","NA","2869","146161","175745","74693","178952","NA","2862","178952","179509","Sternberg Task","16","9578","16","yes","1024"
"94.11764705882354","94.11764705882354","596.2941176470588","596.2941176470588","black","experiment","legacy","legacy","legacy","0","uniform","0","undefined","0","left","16","16","0","16","16","16","0","0","16","0","16","0","0","16","16","Mon Oct 10 20:30:51 2022","The main experiment item","yes","SternbergTask.osexp","C:/Users/Melissa/OneDrive/Desktop/ADVANCED QUANT/LAB 3.1","no","mono","no","18","no","white","no","yes","768","legacy","4","11","C:/Users/Melissa/OneDrive/Desktop/ADVANCED QUANT/LAB 3.1/MM-subject-1.csv","legacy","3 5 7 1","Lentiform Loewenfeld","3.3.12","3","y","0","right","left","left","NA","right","559","71823","11088","NA","559","2","legacy","4","1024","2","48000","-16","experiment","1","odd","7","179513","180582","157250","180585","182790","NA","2869","146161","181587","74693","184791","NA","2862","184791","185351","Sternberg Task","16","10137","17","yes","1024"
"94.44444444444444","94.44444444444444","599.2222222222222","599.2222222222222","black","experiment","legacy","legacy","legacy","0","uniform","1","undefined","1","left","17","17","0","17","17","17","0","0","17","0","17","0","0","17","17","Mon Oct 10 20:30:51 2022","The main experiment item","yes","SternbergTask.osexp","C:/Users/Melissa/OneDrive/Desktop/ADVANCED QUANT/LAB 3.1","no","mono","no","18","no","white","no","yes","768","legacy","5","11","C:/Users/Melissa/OneDrive/Desktop/ADVANCED QUANT/LAB 3.1/MM-subject-1.csv","legacy","3 5 4 7","Lentiform Loewenfeld","3.3.12","1","y","0","left","left","left","NA","left","649","71823","11088","NA","649","2","legacy","4","1024","2","48000","-16","experiment","1","odd","3","179513","186422","157250","186424","188631","185355","2869","146161","187426","74693","190632","NA","2862","190632","191281","Sternberg Task","17","10786","18","yes","1024"
"94.73684210526316","94.73684210526316","600.9473684210526","600.9473684210526","black","experiment","legacy","legacy","legacy","0","uniform","1","undefined","1","right","18","18","0","18","18","18","0","0","18","0","18","0","0","18","18","Mon Oct 10 20:30:51 2022","The main experiment item","yes","SternbergTask.osexp","C:/Users/Melissa/OneDrive/Desktop/ADVANCED QUANT/LAB 3.1","no","mono","no","18","no","white","no","yes","768","legacy","6","11","C:/Users/Melissa/OneDrive/Desktop/ADVANCED QUANT/LAB 3.1/MM-subject-1.csv","legacy","6 7 5 9","Lentiform Loewenfeld","3.3.12","0","n","0","right","left","left","NA","right","632","71823","11088","NA","632","2","legacy","4","1024","2","48000","-16","experiment","1","odd","2","191297","192367","157250","192369","194575","185355","2869","146161","193370","74693","196576","NA","2862","196576","197209","Sternberg Task","18","11418","19","yes","1024"
"95","95","597.5","597.5","black","experiment","legacy","legacy","legacy","0","uniform","1","undefined","1","right","19","19","0","19","19","19","0","0","19","0","19","0","0","19","19","Mon Oct 10 20:30:51 2022","The main experiment item","yes","SternbergTask.osexp","C:/Users/Melissa/OneDrive/Desktop/ADVANCED QUANT/LAB 3.1","no","mono","no","18","no","white","no","yes","768","legacy","7","11","C:/Users/Melissa/OneDrive/Desktop/ADVANCED QUANT/LAB 3.1/MM-subject-1.csv","legacy","3 9 8 1 6 4","Lentiform Loewenfeld","3.3.12","0","n","0","right","left","left","NA","right","532","71823","11088","NA","532","2","legacy","6","1024","2","48000","-16","experiment","1","odd","7","197213","198298","157250","198300","200506","185355","2869","146161","199301","74693","202507","NA","2862","202507","203039","Sternberg Task","19","11950","20","yes","1024"
"95.23809523809524","95.23809523809524","595.952380952381","595.952380952381","black","experiment","legacy","legacy","legacy","0","uniform","1","undefined","1","right","20","20","0","20","20","20","0","0","20","0","20","0","0","20","20","Mon Oct 10 20:30:51 2022","The main experiment item","yes","SternbergTask.osexp","C:/Users/Melissa/OneDrive/Desktop/ADVANCED QUANT/LAB 3.1","no","mono","no","18","no","white","no","yes","768","legacy","8","11","C:/Users/Melissa/OneDrive/Desktop/ADVANCED QUANT/LAB 3.1/MM-subject-1.csv","legacy","6 9 4 5 3 2","Lentiform Loewenfeld","3.3.12","0","n","0","right","left","left","NA","right","565","71823","11088","NA","565","2","legacy","6","1024","2","48000","-16","experiment","1","odd","8","203043","204111","157250","204113","206320","185355","2869","146161","205115","74693","208327","NA","2862","208327","208893","Sternberg Task","20","12515","21","yes","1024"
"95.45454545454545","95.45454545454545","595.2727272727273","595.2727272727273","black","experiment","legacy","legacy","legacy","0","uniform","1","undefined","1","left","21","21","0","21","21","21","0","0","21","0","21","0","0","21","21","Mon Oct 10 20:30:51 2022","The main experiment item","yes","SternbergTask.osexp","C:/Users/Melissa/OneDrive/Desktop/ADVANCED QUANT/LAB 3.1","no","mono","no","18","no","white","no","yes","768","legacy","9","11","C:/Users/Melissa/OneDrive/Desktop/ADVANCED QUANT/LAB 3.1/MM-subject-1.csv","legacy","9 3 8 2 1 4","Lentiform Loewenfeld","3.3.12","3","y","0","left","left","left","NA","left","581","71823","11088","NA","581","2","legacy","6","1024","2","48000","-16","experiment","1","odd","8","208900","209986","157250","209987","212195","185355","2869","146161","210988","74693","214196","NA","2862","214196","214778","Sternberg Task","21","13096","22","yes","1024"
"95.65217391304348","95.65217391304348","592.3913043478261","592.3913043478261","black","experiment","legacy","legacy","legacy","0","uniform","1","undefined","1","right","22","22","0","22","22","22","0","0","22","0","22","0","0","22","22","Mon Oct 10 20:30:51 2022","The main experiment item","yes","SternbergTask.osexp","C:/Users/Melissa/OneDrive/Desktop/ADVANCED QUANT/LAB 3.1","no","mono","no","18","no","white","no","yes","768","legacy","10","11","C:/Users/Melissa/OneDrive/Desktop/ADVANCED QUANT/LAB 3.1/MM-subject-1.csv","legacy","2 8 9 4 1","Lentiform Loewenfeld","3.3.12","0","n","0","right","left","left","NA","right","529","71823","11088","NA","529","2","legacy","5","1024","2","48000","-16","experiment","1","odd","5","214781","215852","157250","215853","218060","185355","2869","146161","216855","74693","220061","NA","2862","220061","220590","Sternberg Task","22","13625","23","yes","1024"
"95.83333333333333","95.83333333333333","595.6666666666666","595.6666666666666","black","experiment","legacy","legacy","legacy","0","uniform","1","undefined","1","left","23","23","0","23","23","23","0","0","23","0","23","0","0","23","23","Mon Oct 10 20:30:51 2022","The main experiment item","yes","SternbergTask.osexp","C:/Users/Melissa/OneDrive/Desktop/ADVANCED QUANT/LAB 3.1","no","mono","no","18","no","white","no","yes","768","legacy","11","11","C:/Users/Melissa/OneDrive/Desktop/ADVANCED QUANT/LAB 3.1/MM-subject-1.csv","legacy","3 9 7 6 4","Lentiform Loewenfeld","3.3.12","3","y","0","left","left","left","NA","left","671","71823","11088","NA","671","2","legacy","5","1024","2","48000","-16","experiment","1","odd","7","220604","221673","157250","221675","223881","185355","2869","146161","222676","74693","225882","NA","2862","225883","226555","Sternberg Task","23","14296","24","yes","1024"
"96","96","595.6","595.6","black","experiment","legacy","legacy","legacy","0","uniform","1","undefined","1","right","24","24","0","24","24","24","0","0","24","0","24","0","0","24","24","Mon Oct 10 20:30:51 2022","The main experiment item","yes","SternbergTask.osexp","C:/Users/Melissa/OneDrive/Desktop/ADVANCED QUANT/LAB 3.1","no","mono","no","18","no","white","no","yes","768","legacy","12","11","C:/Users/Melissa/OneDrive/Desktop/ADVANCED QUANT/LAB 3.1/MM-subject-1.csv","legacy","5","Lentiform Loewenfeld","3.3.12","0","n","0","right","left","left","NA","right","594","71823","11088","NA","594","2","legacy","1","1024","2","48000","-16","experiment","1","odd","8","226558","227630","157250","227632","229839","185355","2869","146161","228633","74693","231840","NA","2862","231840","232435","Sternberg Task","24","14890","25","yes","1024"
"96.15384615384616","96.15384615384616","592.0384615384615","592.0384615384615","black","experiment","legacy","legacy","legacy","0","uniform","1","undefined","1","right","25","25","0","25","25","25","0","0","25","0","25","0","0","25","25","Mon Oct 10 20:30:51 2022","The main experiment item","yes","SternbergTask.osexp","C:/Users/Melissa/OneDrive/Desktop/ADVANCED QUANT/LAB 3.1","no","mono","no","18","no","white","no","yes","768","legacy","13","11","C:/Users/Melissa/OneDrive/Desktop/ADVANCED QUANT/LAB 3.1/MM-subject-1.csv","legacy","6 9 5","Lentiform Loewenfeld","3.3.12","0","n","0","right","left","left","NA","right","503","71823","11088","NA","503","2","legacy","3","1024","2","48000","-16","experiment","1","odd","8","232439","233522","157250","233523","235730","185355","2869","146161","234524","74693","237731","NA","2862","237731","238234","Sternberg Task","25","15393","26","yes","1024"
"96.29629629629629","96.29629629629629","596.6666666666666","596.6666666666666","black","experiment","legacy","legacy","legacy","0","uniform","1","undefined","1","right","26","26","0","26","26","26","0","0","26","0","26","0","0","26","26","Mon Oct 10 20:30:51 2022","The main experiment item","yes","SternbergTask.osexp","C:/Users/Melissa/OneDrive/Desktop/ADVANCED QUANT/LAB 3.1","no","mono","no","18","no","white","no","yes","768","legacy","14","11","C:/Users/Melissa/OneDrive/Desktop/ADVANCED QUANT/LAB 3.1/MM-subject-1.csv","legacy","9 7 4 5 8","Lentiform Loewenfeld","3.3.12","0","n","0","right","left","left","NA","right","717","71823","11088","NA","717","2","legacy","5","1024","2","48000","-16","experiment","1","odd","6","238238","239307","157250","239309","241515","185355","2869","146161","240310","74693","243516","NA","2862","243516","244234","Sternberg Task","26","16110","27","yes","1024"
"96.42857142857143","96.42857142857143","592.8571428571429","592.8571428571429","black","experiment","legacy","legacy","legacy","0","uniform","1","undefined","1","right","27","27","0","27","27","27","0","0","27","0","27","0","0","27","27","Mon Oct 10 20:30:51 2022","The main experiment item","yes","SternbergTask.osexp","C:/Users/Melissa/OneDrive/Desktop/ADVANCED QUANT/LAB 3.1","no","mono","no","18","no","white","no","yes","768","legacy","15","11","C:/Users/Melissa/OneDrive/Desktop/ADVANCED QUANT/LAB 3.1/MM-subject-1.csv","legacy","1 7 5 2","Lentiform Loewenfeld","3.3.12","0","n","0","right","left","left","NA","right","490","71823","11088","NA","490","2","legacy","4","1024","2","48000","-16","experiment","1","odd","3","244238","245305","157250","245307","247513","185355","2869","146161","246308","74693","249514","NA","2862","249514","250004","Sternberg Task","27","16600","28","yes","1024"
"96.55172413793103","96.55172413793103","596.3103448275862","596.3103448275862","black","experiment","legacy","legacy","legacy","0","uniform","1","undefined","1","left","28","28","0","28","28","28","0","0","28","0","28","0","0","28","28","Mon Oct 10 20:30:51 2022","The main experiment item","yes","SternbergTask.osexp","C:/Users/Melissa/OneDrive/Desktop/ADVANCED QUANT/LAB 3.1","no","mono","no","18","no","white","no","yes","768","legacy","16","11","C:/Users/Melissa/OneDrive/Desktop/ADVANCED QUANT/LAB 3.1/MM-subject-1.csv","legacy","8 5 4 7 3 1","Lentiform Loewenfeld","3.3.12","2","y","0","left","left","left","NA","left","693","71823","11088","NA","693","2","legacy","6","1024","2","48000","-16","experiment","1","odd","5","250009","251078","157250","251079","253286","185355","2869","146161","252081","74693","255290","NA","2862","255291","255985","Sternberg Task","28","17293","29","yes","1024"
"96.66666666666667","96.66666666666667","599.3","599.3","black","experiment","legacy","legacy","legacy","0","uniform","1","undefined","1","right","29","29","0","29","29","29","0","0","29","0","29","0","0","29","29","Mon Oct 10 20:30:51 2022","The main experiment item","yes","SternbergTask.osexp","C:/Users/Melissa/OneDrive/Desktop/ADVANCED QUANT/LAB 3.1","no","mono","no","18","no","white","no","yes","768","legacy","17","11","C:/Users/Melissa/OneDrive/Desktop/ADVANCED QUANT/LAB 3.1/MM-subject-1.csv","legacy","1 5 3 2 8","Lentiform Loewenfeld","3.3.12","0","n","0","right","left","left","NA","right","686","71823","11088","NA","686","2","legacy","5","1024","2","48000","-16","experiment","1","odd","4","255989","257056","157250","257058","259266","185355","2869","146161","258060","74693","261267","NA","2862","261267","261954","Sternberg Task","29","17979","30","yes","1024"
"96.7741935483871","96.7741935483871","599.3225806451613","599.3225806451613","black","experiment","legacy","legacy","legacy","0","uniform","1","undefined","1","right","30","30","0","30","30","30","0","0","30","0","30","0","0","30","30","Mon Oct 10 20:30:51 2022","The main experiment item","yes","SternbergTask.osexp","C:/Users/Melissa/OneDrive/Desktop/ADVANCED QUANT/LAB 3.1","no","mono","no","18","no","white","no","yes","768","legacy","18","11","C:/Users/Melissa/OneDrive/Desktop/ADVANCED QUANT/LAB 3.1/MM-subject-1.csv","legacy","8 2 1 4 5 9","Lentiform Loewenfeld","3.3.12","0","n","0","right","left","left","NA","right","600","71823","11088","NA","600","2","legacy","6","1024","2","48000","-16","experiment","1","odd","7","261967","263040","157250","263042","265248","185355","2869","146161","264043","74693","267253","NA","2862","267253","267854","Sternberg Task","30","18579","31","yes","1024"
"96.875","96.875","598.96875","598.96875","black","experiment","legacy","legacy","legacy","0","uniform","1","undefined","1","left","31","31","0","31","31","31","0","0","31","0","31","0","0","31","31","Mon Oct 10 20:30:51 2022","The main experiment item","yes","SternbergTask.osexp","C:/Users/Melissa/OneDrive/Desktop/ADVANCED QUANT/LAB 3.1","no","mono","no","18","no","white","no","yes","768","legacy","19","11","C:/Users/Melissa/OneDrive/Desktop/ADVANCED QUANT/LAB 3.1/MM-subject-1.csv","legacy","2 3","Lentiform Loewenfeld","3.3.12","1","y","0","left","left","left","NA","left","588","71823","11088","NA","588","2","legacy","2","1024","2","48000","-16","experiment","1","odd","2","267870","268940","157250","268941","271148","185355","2869","146161","269943","74693","273149","NA","2862","273149","273738","Sternberg Task","31","19167","32","yes","1024"
"96.96969696969697","96.96969696969697","598.939393939394","598.939393939394","black","experiment","legacy","legacy","legacy","0","uniform","1","undefined","1","left","32","32","0","32","32","32","0","0","32","0","32","0","0","32","32","Mon Oct 10 20:30:51 2022","The main experiment item","yes","SternbergTask.osexp","C:/Users/Melissa/OneDrive/Desktop/ADVANCED QUANT/LAB 3.1","no","mono","no","18","no","white","no","yes","768","legacy","20","11","C:/Users/Melissa/OneDrive/Desktop/ADVANCED QUANT/LAB 3.1/MM-subject-1.csv","legacy","9 6 2 4 1","Lentiform Loewenfeld","3.3.12","4","y","0","left","left","left","NA","left","598","71823","11088","NA","598","2","legacy","5","1024","2","48000","-16","experiment","1","odd","4","273742","274812","157250","274814","277020","185355","2869","146161","275815","74693","279021","NA","2862","279021","279620","Sternberg Task","32","19765","33","yes","1024"
"97.05882352941177","97.05882352941177","600.2058823529412","600.2058823529412","black","experiment","legacy","legacy","legacy","0","uniform","1","undefined","1","left","33","33","0","33","33","33","0","0","33","0","33","0","0","33","33","Mon Oct 10 20:30:51 2022","The main experiment item","yes","SternbergTask.osexp","C:/Users/Melissa/OneDrive/Desktop/ADVANCED QUANT/LAB 3.1","no","mono","no","18","no","white","no","yes","768","legacy","21","11","C:/Users/Melissa/OneDrive/Desktop/ADVANCED QUANT/LAB 3.1/MM-subject-1.csv","legacy","9 3 1 2 5","Lentiform Loewenfeld","3.3.12","4","y","0","left","left","left","NA","left","642","71823","11088","NA","642","2","legacy","5","1024","2","48000","-16","experiment","1","odd","2","279624","280695","157250","280696","282902","185355","2869","146161","281697","74693","284907","NA","2862","284907","285550","Sternberg Task","33","20407","34","yes","1024"
"97.14285714285714","97.14285714285714","599.4571428571429","599.4571428571429","black","experiment","legacy","legacy","legacy","0","uniform","1","undefined","1","left","34","34","0","34","34","34","0","0","34","0","34","0","0","34","34","Mon Oct 10 20:30:51 2022","The main experiment item","yes","SternbergTask.osexp","C:/Users/Melissa/OneDrive/Desktop/ADVANCED QUANT/LAB 3.1","no","mono","no","18","no","white","no","yes","768","legacy","22","11","C:/Users/Melissa/OneDrive/Desktop/ADVANCED QUANT/LAB 3.1/MM-subject-1.csv","legacy","2 4 6 9","Lentiform Loewenfeld","3.3.12","3","y","0","left","left","left","NA","left","574","71823","11088","NA","574","2","legacy","4","1024","2","48000","-16","experiment","1","odd","6","285554","286638","157250","286640","288845","185355","2869","146161","287641","74693","290846","NA","2862","290846","291421","Sternberg Task","34","20981","35","yes","1024"
"97.22222222222223","97.22222222222223","597.3055555555555","597.3055555555555","black","experiment","legacy","legacy","legacy","0","uniform","1","undefined","1","left","35","35","0","35","35","35","0","0","35","0","35","0","0","35","35","Mon Oct 10 20:30:51 2022","The main experiment item","yes","SternbergTask.osexp","C:/Users/Melissa/OneDrive/Desktop/ADVANCED QUANT/LAB 3.1","no","mono","no","18","no","white","no","yes","768","legacy","23","11","C:/Users/Melissa/OneDrive/Desktop/ADVANCED QUANT/LAB 3.1/MM-subject-1.csv","legacy","6 9 3 1","Lentiform Loewenfeld","3.3.12","4","y","0","left","left","left","NA","left","522","71823","11088","NA","522","2","legacy","4","1024","2","48000","-16","experiment","1","odd","1","291424","292493","157250","292495","294702","185355","2869","146161","293497","74693","296704","NA","2862","296704","297227","Sternberg Task","35","21503","36","yes","1024"
"97.29729729729729","97.29729729729729","597.4324324324324","597.4324324324324","black","experiment","legacy","legacy","legacy","0","uniform","1","undefined","1","left","36","36","0","36","36","36","0","0","36","0","36","0","0","36","36","Mon Oct 10 20:30:51 2022","The main experiment item","yes","SternbergTask.osexp","C:/Users/Melissa/OneDrive/Desktop/ADVANCED QUANT/LAB 3.1","no","mono","no","18","no","white","no","yes","768","legacy","24","11","C:/Users/Melissa/OneDrive/Desktop/ADVANCED QUANT/LAB 3.1/MM-subject-1.csv","legacy","9 5 3 8 4","Lentiform Loewenfeld","3.3.12","1","y","0","left","left","left","NA","left","602","71823","11088","NA","602","2","legacy","5","1024","2","48000","-16","experiment","1","odd","9","297230","298310","157250","298312","300518","185355","2869","146161","299313","74693","302519","NA","2862","302519","303121","Sternberg Task","36","22105","37","yes","1024"
"97.36842105263158","97.36842105263158","597.0526315789474","597.0526315789474","black","experiment","legacy","legacy","legacy","0","uniform","1","undefined","1","left","37","37","0","37","37","37","0","0","37","0","37","0","0","37","37","Mon Oct 10 20:30:51 2022","The main experiment item","yes","SternbergTask.osexp","C:/Users/Melissa/OneDrive/Desktop/ADVANCED QUANT/LAB 3.1","no","mono","no","18","no","white","no","yes","768","legacy","25","11","C:/Users/Melissa/OneDrive/Desktop/ADVANCED QUANT/LAB 3.1/MM-subject-1.csv","legacy","4 1 8 7 5","Lentiform Loewenfeld","3.3.12","3","y","0","left","left","left","NA","left","583","71823","11088","NA","583","2","legacy","5","1024","2","48000","-16","experiment","1","odd","8","303124","304208","157250","304210","306417","185355","2869","146161","305211","74693","308422","NA","2862","308422","309006","Sternberg Task","37","22688","38","yes","1024"
"94.87179487179488","94.87179487179488","597.2564102564103","597.2564102564103","black","experiment","legacy","legacy","legacy","0","uniform","0","undefined","0","left","38","38","0","38","38","38","0","0","38","0","38","0","0","38","38","Mon Oct 10 20:30:51 2022","The main experiment item","yes","SternbergTask.osexp","C:/Users/Melissa/OneDrive/Desktop/ADVANCED QUANT/LAB 3.1","no","mono","no","18","no","white","no","yes","768","legacy","26","11","C:/Users/Melissa/OneDrive/Desktop/ADVANCED QUANT/LAB 3.1/MM-subject-1.csv","legacy","4 7 6 8 2 3","Lentiform Loewenfeld","3.3.12","6","y","0","right","left","left","NA","right","605","71823","11088","NA","605","2","legacy","6","1024","2","48000","-16","experiment","1","odd","3","309010","310081","157250","310082","312289","185355","2869","146161","311084","74693","314294","NA","2862","314294","314900","Sternberg Task","37","23293","39","yes","1024"
"95","95","594.575","594.575","black","experiment","legacy","legacy","legacy","0","uniform","1","undefined","1","right","39","39","0","39","39","39","0","0","39","0","39","0","0","39","39","Mon Oct 10 20:30:51 2022","The main experiment item","yes","SternbergTask.osexp","C:/Users/Melissa/OneDrive/Desktop/ADVANCED QUANT/LAB 3.1","no","mono","no","18","no","white","no","yes","768","legacy","27","11","C:/Users/Melissa/OneDrive/Desktop/ADVANCED QUANT/LAB 3.1/MM-subject-1.csv","legacy","1 6 4","Lentiform Loewenfeld","3.3.12","0","n","0","right","left","left","NA","right","490","71823","11088","NA","490","2","legacy","3","1024","2","48000","-16","experiment","1","odd","7","309010","315977","157250","315978","318184","314904","2869","146161","316979","74693","320189","NA","2862","320189","320680","Sternberg Task","38","23783","40","yes","1024"
"95.1219512195122","95.1219512195122","591.2926829268292","591.2926829268292","black","experiment","legacy","legacy","legacy","0","uniform","1","undefined","1","left","40","40","0","40","40","40","0","0","40","0","40","0","0","40","40","Mon Oct 10 20:30:51 2022","The main experiment item","yes","SternbergTask.osexp","C:/Users/Melissa/OneDrive/Desktop/ADVANCED QUANT/LAB 3.1","no","mono","no","18","no","white","no","yes","768","legacy","28","11","C:/Users/Melissa/OneDrive/Desktop/ADVANCED QUANT/LAB 3.1/MM-subject-1.csv","legacy","5 2 6","Lentiform Loewenfeld","3.3.12","2","y","0","left","left","left","NA","left","460","71823","11088","NA","460","2","legacy","3","1024","2","48000","-16","experiment","1","odd","2","320694","321767","157250","321769","323976","314904","2869","146161","322770","74693","325977","NA","2862","325977","326438","Sternberg Task","39","24243","41","yes","1024"
"95.23809523809524","95.23809523809524","590.2619047619048","590.2619047619048","black","experiment","legacy","legacy","legacy","0","uniform","1","undefined","1","right","41","41","0","41","41","41","0","0","41","0","41","0","0","41","41","Mon Oct 10 20:30:51 2022","The main experiment item","yes","SternbergTask.osexp","C:/Users/Melissa/OneDrive/Desktop/ADVANCED QUANT/LAB 3.1","no","mono","no","18","no","white","no","yes","768","legacy","29","11","C:/Users/Melissa/OneDrive/Desktop/ADVANCED QUANT/LAB 3.1/MM-subject-1.csv","legacy","8 5 7 3 6","Lentiform Loewenfeld","3.3.12","0","n","0","right","left","left","NA","right","548","71823","11088","NA","548","2","legacy","5","1024","2","48000","-16","experiment","1","odd","9","326441","327510","157250","327511","329718","314904","2869","146161","328513","74693","331722","NA","2862","331722","332270","Sternberg Task","40","24791","42","yes","1024"
"95.34883720930233","95.34883720930233","587.4883720930233","587.4883720930233","black","experiment","legacy","legacy","legacy","0","uniform","1","undefined","1","left","42","42","0","42","42","42","0","0","42","0","42","0","0","42","42","Mon Oct 10 20:30:51 2022","The main experiment item","yes","SternbergTask.osexp","C:/Users/Melissa/OneDrive/Desktop/ADVANCED QUANT/LAB 3.1","no","mono","no","18","no","white","no","yes","768","legacy","30","11","C:/Users/Melissa/OneDrive/Desktop/ADVANCED QUANT/LAB 3.1/MM-subject-1.csv","legacy","2 5 4 8 7","Lentiform Loewenfeld","3.3.12","3","y","0","left","left","left","NA","left","471","71823","11088","NA","471","2","legacy","5","1024","2","48000","-16","experiment","1","odd","4","332286","333359","157250","333360","335566","314904","2869","146161","334361","74693","337567","NA","2862","337567","338039","Sternberg Task","41","25262","43","yes","1024"
"95.45454545454545","95.45454545454545","589.6136363636364","589.6136363636364","black","experiment","legacy","legacy","legacy","0","uniform","1","undefined","1","left","43","43","0","43","43","43","0","0","43","0","43","0","0","43","43","Mon Oct 10 20:30:51 2022","The main experiment item","yes","SternbergTask.osexp","C:/Users/Melissa/OneDrive/Desktop/ADVANCED QUANT/LAB 3.1","no","mono","no","18","no","white","no","yes","768","legacy","31","11","C:/Users/Melissa/OneDrive/Desktop/ADVANCED QUANT/LAB 3.1/MM-subject-1.csv","legacy","7 8 4 6 9 5","Lentiform Loewenfeld","3.3.12","4","y","0","left","left","left","NA","left","681","71823","11088","NA","681","2","legacy","6","1024","2","48000","-16","experiment","1","odd","6","338043","339113","157250","339115","341321","314904","2869","146161","340116","74693","343326","NA","2862","343326","344008","Sternberg Task","42","25943","44","yes","1024"
"95.55555555555556","95.55555555555556","588.1777777777778","588.1777777777778","black","experiment","legacy","legacy","legacy","0","uniform","1","undefined","1","left","44","44","0","44","44","44","0","0","44","0","44","0","0","44","44","Mon Oct 10 20:30:51 2022","The main experiment item","yes","SternbergTask.osexp","C:/Users/Melissa/OneDrive/Desktop/ADVANCED QUANT/LAB 3.1","no","mono","no","18","no","white","no","yes","768","legacy","32","11","C:/Users/Melissa/OneDrive/Desktop/ADVANCED QUANT/LAB 3.1/MM-subject-1.csv","legacy","2 4 8 5 1 3","Lentiform Loewenfeld","3.3.12","1","y","0","left","left","left","NA","left","525","71823","11088","NA","525","2","legacy","6","1024","2","48000","-16","experiment","1","odd","2","344012","345099","157250","345102","347308","314904","2869","146161","346103","74693","349309","NA","2862","349309","349835","Sternberg Task","43","26468","45","yes","1024"
"93.47826086956522","93.47826086956522","588.7608695652174","588.7608695652174","black","experiment","legacy","legacy","legacy","0","uniform","0","undefined","0","right","45","45","0","45","45","45","0","0","45","0","45","0","0","45","45","Mon Oct 10 20:30:51 2022","The main experiment item","yes","SternbergTask.osexp","C:/Users/Melissa/OneDrive/Desktop/ADVANCED QUANT/LAB 3.1","no","mono","no","18","no","white","no","yes","768","legacy","33","11","C:/Users/Melissa/OneDrive/Desktop/ADVANCED QUANT/LAB 3.1/MM-subject-1.csv","legacy","6 8 4","Lentiform Loewenfeld","3.3.12","0","n","0","left","left","left","NA","left","615","71823","11088","NA","615","2","legacy","3","1024","2","48000","-16","experiment","1","odd","1","349839","350910","157250","350911","353117","314904","2869","146161","351912","74693","355119","NA","2862","355119","355735","Sternberg Task","43","27083","46","yes","1024"
"93.61702127659575","93.61702127659575","589.6170212765958","589.6170212765958","black","experiment","legacy","legacy","legacy","0","uniform","1","undefined","1","left","46","46","0","46","46","46","0","0","46","0","46","0","0","46","46","Mon Oct 10 20:30:51 2022","The main experiment item","yes","SternbergTask.osexp","C:/Users/Melissa/OneDrive/Desktop/ADVANCED QUANT/LAB 3.1","no","mono","no","18","no","white","no","yes","768","legacy","34","11","C:/Users/Melissa/OneDrive/Desktop/ADVANCED QUANT/LAB 3.1/MM-subject-1.csv","legacy","8 1 6","Lentiform Loewenfeld","3.3.12","3","y","0","left","left","left","NA","left","629","71823","11088","NA","629","2","legacy","3","1024","2","48000","-16","experiment","1","odd","6","349839","356830","157250","356831","359041","355747","2869","146161","357835","74693","361042","NA","2862","361042","361672","Sternberg Task","44","27712","47","yes","1024"
"93.75","93.75","589.5625","589.5625","black","experiment","legacy","legacy","legacy","0","uniform","1","undefined","1","left","47","47","0","47","47","47","0","0","47","0","47","0","0","47","47","Mon Oct 10 20:30:51 2022","The main experiment item","yes","SternbergTask.osexp","C:/Users/Melissa/OneDrive/Desktop/ADVANCED QUANT/LAB 3.1","no","mono","no","18","no","white","no","yes","768","legacy","35","11","C:/Users/Melissa/OneDrive/Desktop/ADVANCED QUANT/LAB 3.1/MM-subject-1.csv","legacy","8 5 1 3 9","Lentiform Loewenfeld","3.3.12","4","y","0","left","left","left","NA","left","587","71823","11088","NA","587","2","legacy","5","1024","2","48000","-16","experiment","1","odd","3","361680","362755","157250","362757","364963","355747","2869","146161","363758","74693","366964","NA","2862","366964","367552","Sternberg Task","45","28299","48","yes","1024"
"93.87755102040816","93.87755102040816","588.9387755102041","588.9387755102041","black","experiment","legacy","legacy","legacy","0","uniform","1","undefined","1","left","48","48","0","48","48","48","0","0","48","0","48","0","0","48","48","Mon Oct 10 20:30:51 2022","The main experiment item","yes","SternbergTask.osexp","C:/Users/Melissa/OneDrive/Desktop/ADVANCED QUANT/LAB 3.1","no","mono","no","18","no","white","no","yes","768","legacy","36","11","C:/Users/Melissa/OneDrive/Desktop/ADVANCED QUANT/LAB 3.1/MM-subject-1.csv","legacy","9 5 8 1","Lentiform Loewenfeld","3.3.12","2","y","0","left","left","left","NA","left","559","71823","11088","NA","559","2","legacy","4","1024","2","48000","-16","experiment","1","odd","5","367557","368627","157250","368628","370834","355747","2869","146161","369629","74693","372836","NA","2862","372836","373396","Sternberg Task","46","28858","49","yes","1024"
"94","94","588.84","588.84","black","experiment","legacy","legacy","legacy","0","uniform","1","undefined","1","right","49","49","0","49","49","49","0","0","49","0","49","0","0","49","49","Mon Oct 10 20:30:51 2022","The main experiment item","yes","SternbergTask.osexp","C:/Users/Melissa/OneDrive/Desktop/ADVANCED QUANT/LAB 3.1","no","mono","no","18","no","white","no","yes","768","legacy","37","11","C:/Users/Melissa/OneDrive/Desktop/ADVANCED QUANT/LAB 3.1/MM-subject-1.csv","legacy","6 2 9 3 8 4","Lentiform Loewenfeld","3.3.12","0","n","0","right","left","left","NA","right","584","71823","11088","NA","584","2","legacy","6","1024","2","48000","-16","experiment","1","odd","1","373399","374468","157250","374469","376679","355747","2869","146161","375474","74693","378680","NA","2862","378680","379265","Sternberg Task","47","29442","50","yes","1024"
"94.11764705882354","94.11764705882354","586.8823529411765","586.8823529411765","black","experiment","legacy","legacy","legacy","0","uniform","1","undefined","1","left","50","50","0","50","50","50","0","0","50","0","50","0","0","50","50","Mon Oct 10 20:30:51 2022","The main experiment item","yes","SternbergTask.osexp","C:/Users/Melissa/OneDrive/Desktop/ADVANCED QUANT/LAB 3.1","no","mono","no","18","no","white","no","yes","768","legacy","38","11","C:/Users/Melissa/OneDrive/Desktop/ADVANCED QUANT/LAB 3.1/MM-subject-1.csv","legacy","2 6 1 7 4","Lentiform Loewenfeld","3.3.12","2","y","0","left","left","left","NA","left","489","71823","11088","NA","489","2","legacy","5","1024","2","48000","-16","experiment","1","odd","6","379269","380340","157250","380342","382548","355747","2869","146161","381343","74693","384553","NA","2862","384553","385043","Sternberg Task","48","29931","51","yes","1024"
"94.23076923076923","94.23076923076923","584.5","584.5","black","experiment","legacy","legacy","legacy","0","uniform","1","undefined","1","right","51","51","0","51","51","51","0","0","51","0","51","0","0","51","51","Mon Oct 10 20:30:51 2022","The main experiment item","yes","SternbergTask.osexp","C:/Users/Melissa/OneDrive/Desktop/ADVANCED QUANT/LAB 3.1","no","mono","no","18","no","white","no","yes","768","legacy","39","11","C:/Users/Melissa/OneDrive/Desktop/ADVANCED QUANT/LAB 3.1/MM-subject-1.csv","legacy","4 1","Lentiform Loewenfeld","3.3.12","0","n","0","right","left","left","NA","right","463","71823","11088","NA","463","2","legacy","2","1024","2","48000","-16","experiment","1","odd","6","385046","386134","157250","386135","388341","355747","2869","146161","387136","74693","390343","NA","2862","390343","390807","Sternberg Task","49","30394","52","yes","1024"
"94.33962264150944","94.33962264150944","584.3018867924528","584.3018867924528","black","experiment","legacy","legacy","legacy","0","uniform","1","undefined","1","right","52","52","0","52","52","52","0","0","52","0","52","0","0","52","52","Mon Oct 10 20:30:51 2022","The main experiment item","yes","SternbergTask.osexp","C:/Users/Melissa/OneDrive/Desktop/ADVANCED QUANT/LAB 3.1","no","mono","no","18","no","white","no","yes","768","legacy","40","11","C:/Users/Melissa/OneDrive/Desktop/ADVANCED QUANT/LAB 3.1/MM-subject-1.csv","legacy","8 4 3 9","Lentiform Loewenfeld","3.3.12","0","n","0","right","left","left","NA","right","574","71823","11088","NA","574","2","legacy","4","1024","2","48000","-16","experiment","1","odd","5","390811","391891","157250","391893","394099","355747","2869","146161","392894","74693","396105","NA","2862","396105","396680","Sternberg Task","50","30968","53","yes","1024"
"94.44444444444444","94.44444444444444","583.7222222222222","583.7222222222222","black","experiment","legacy","legacy","legacy","0","uniform","1","undefined","1","left","53","53","0","53","53","53","0","0","53","0","53","0","0","53","53","Mon Oct 10 20:30:51 2022","The main experiment item","yes","SternbergTask.osexp","C:/Users/Melissa/OneDrive/Desktop/ADVANCED QUANT/LAB 3.1","no","mono","no","18","no","white","no","yes","768","legacy","41","11","C:/Users/Melissa/OneDrive/Desktop/ADVANCED QUANT/LAB 3.1/MM-subject-1.csv","legacy","7","Lentiform Loewenfeld","3.3.12","1","y","0","left","left","left","NA","left","553","71823","11088","NA","553","2","legacy","1","1024","2","48000","-16","experiment","1","odd","7","396694","397764","157250","397766","399973","355747","2869","146161","398768","74693","401978","NA","2862","401978","402532","Sternberg Task","51","31521","54","yes","1024"
"94.54545454545455","94.54545454545455","582.709090909091","582.709090909091","black","experiment","legacy","legacy","legacy","0","uniform","1","undefined","1","left","54","54","0","54","54","54","0","0","54","0","54","0","0","54","54","Mon Oct 10 20:30:51 2022","The main experiment item","yes","SternbergTask.osexp","C:/Users/Melissa/OneDrive/Desktop/ADVANCED QUANT/LAB 3.1","no","mono","no","18","no","white","no","yes","768","legacy","42","11","C:/Users/Melissa/OneDrive/Desktop/ADVANCED QUANT/LAB 3.1/MM-subject-1.csv","legacy","8 3","Lentiform Loewenfeld","3.3.12","2","y","0","left","left","left","NA","left","528","71823","11088","NA","528","2","legacy","2","1024","2","48000","-16","experiment","1","odd","3","402536","403621","157250","403622","405828","355747","2869","146161","404624","74693","407835","NA","2862","407835","408364","Sternberg Task","52","32049","55","yes","1024"
"94.64285714285714","94.64285714285714","580.0892857142857","580.0892857142857","black","experiment","legacy","legacy","legacy","0","uniform","1","undefined","1","left","55","55","0","55","55","55","0","0","55","0","55","0","0","55","55","Mon Oct 10 20:30:51 2022","The main experiment item","yes","SternbergTask.osexp","C:/Users/Melissa/OneDrive/Desktop/ADVANCED QUANT/LAB 3.1","no","mono","no","18","no","white","no","yes","768","legacy","43","11","C:/Users/Melissa/OneDrive/Desktop/ADVANCED QUANT/LAB 3.1/MM-subject-1.csv","legacy","6 2","Lentiform Loewenfeld","3.3.12","1","y","0","left","left","left","NA","left","436","71823","11088","NA","436","2","legacy","2","1024","2","48000","-16","experiment","1","odd","6","408367","409456","157250","409458","411664","355747","2869","146161","410460","74693","413669","NA","2862","413669","414106","Sternberg Task","53","32485","56","yes","1024"
"94.73684210526316","94.73684210526316","579.438596491228","579.438596491228","black","experiment","legacy","legacy","legacy","0","uniform","1","undefined","1","left","56","56","0","56","56","56","0","0","56","0","56","0","0","56","56","Mon Oct 10 20:30:51 2022","The main experiment item","yes","SternbergTask.osexp","C:/Users/Melissa/OneDrive/Desktop/ADVANCED QUANT/LAB 3.1","no","mono","no","18","no","white","no","yes","768","legacy","44","11","C:/Users/Melissa/OneDrive/Desktop/ADVANCED QUANT/LAB 3.1/MM-subject-1.csv","legacy","8 5 3 7 4 6","Lentiform Loewenfeld","3.3.12","6","y","0","left","left","left","NA","left","543","71823","11088","NA","543","2","legacy","6","1024","2","48000","-16","experiment","1","odd","6","414110","415180","157250","415182","417388","355747","2869","146161","416183","74693","419390","NA","2862","419390","419934","Sternberg Task","54","33028","57","yes","1024"
"94.82758620689656","94.82758620689656","579.1379310344828","579.1379310344828","black","experiment","legacy","legacy","legacy","0","uniform","1","undefined","1","left","57","57","0","57","57","57","0","0","57","0","57","0","0","57","57","Mon Oct 10 20:30:51 2022","The main experiment item","yes","SternbergTask.osexp","C:/Users/Melissa/OneDrive/Desktop/ADVANCED QUANT/LAB 3.1","no","mono","no","18","no","white","no","yes","768","legacy","45","11","C:/Users/Melissa/OneDrive/Desktop/ADVANCED QUANT/LAB 3.1/MM-subject-1.csv","legacy","4 9 7 8 5 3","Lentiform Loewenfeld","3.3.12","4","y","0","left","left","left","NA","left","562","71823","11088","NA","562","2","legacy","6","1024","2","48000","-16","experiment","1","odd","8","419938","421009","157250","421011","423217","355747","2869","146161","422012","74693","425218","NA","2862","425218","425781","Sternberg Task","55","33590","58","yes","1024"
"94.91525423728814","94.91525423728814","577.3559322033898","577.3559322033898","black","experiment","legacy","legacy","legacy","0","uniform","1","undefined","1","right","58","58","0","58","58","58","0","0","58","0","58","0","0","58","58","Mon Oct 10 20:30:51 2022","The main experiment item","yes","SternbergTask.osexp","C:/Users/Melissa/OneDrive/Desktop/ADVANCED QUANT/LAB 3.1","no","mono","no","18","no","white","no","yes","768","legacy","46","11","C:/Users/Melissa/OneDrive/Desktop/ADVANCED QUANT/LAB 3.1/MM-subject-1.csv","legacy","3 4 2","Lentiform Loewenfeld","3.3.12","0","n","0","right","left","left","NA","right","474","71823","11088","NA","474","2","legacy","3","1024","2","48000","-16","experiment","1","odd","5","425785","426871","157250","426873","429079","355747","2869","146161","427874","74693","431084","NA","2862","431084","431558","Sternberg Task","56","34064","59","yes","1024"
"95","95","576.1666666666666","576.1666666666666","black","experiment","legacy","legacy","legacy","0","uniform","1","undefined","1","left","59","59","0","59","59","59","0","0","59","0","59","0","0","59","59","Mon Oct 10 20:30:51 2022","The main experiment item","yes","SternbergTask.osexp","C:/Users/Melissa/OneDrive/Desktop/ADVANCED QUANT/LAB 3.1","no","mono","no","18","no","white","no","yes","768","legacy","47","11","C:/Users/Melissa/OneDrive/Desktop/ADVANCED QUANT/LAB 3.1/MM-subject-1.csv","legacy","8 9 5 6 7","Lentiform Loewenfeld","3.3.12","1","y","0","left","left","left","NA","left","506","71823","11088","NA","506","2","legacy","5","1024","2","48000","-16","experiment","1","odd","8","431571","432650","157250","432652","434859","355747","2869","146161","433654","74693","436861","NA","2862","436861","437368","Sternberg Task","57","34570","60","yes","1024"
"95.08196721311475","95.08196721311475","577.0327868852459","577.0327868852459","black","experiment","legacy","legacy","legacy","0","uniform","1","undefined","1","left","60","60","0","60","60","60","0","0","60","0","60","0","0","60","60","Mon Oct 10 20:30:51 2022","The main experiment item","yes","SternbergTask.osexp","C:/Users/Melissa/OneDrive/Desktop/ADVANCED QUANT/LAB 3.1","no","mono","no","18","no","white","no","yes","768","legacy","48","11","C:/Users/Melissa/OneDrive/Desktop/ADVANCED QUANT/LAB 3.1/MM-subject-1.csv","legacy","4 6 5 8","Lentiform Loewenfeld","3.3.12","1","y","0","left","left","left","NA","left","629","71823","11088","NA","629","2","legacy","4","1024","2","48000","-16","experiment","1","odd","4","437372","438441","157250","438443","440649","355747","2869","146161","439444","74693","442650","NA","2862","442650","443280","Sternberg Task","58","35199","61","yes","1024"
"95.16129032258064","95.16129032258064","582.0322580645161","582.0322580645161","black","experiment","legacy","legacy","legacy","0","uniform","1","undefined","1","right","61","61","0","61","61","61","0","0","61","0","61","0","0","61","61","Mon Oct 10 20:30:51 2022","The main experiment item","yes","SternbergTask.osexp","C:/Users/Melissa/OneDrive/Desktop/ADVANCED QUANT/LAB 3.1","no","mono","no","18","no","white","no","yes","768","legacy","49","11","C:/Users/Melissa/OneDrive/Desktop/ADVANCED QUANT/LAB 3.1/MM-subject-1.csv","legacy","1 4 9 3","Lentiform Loewenfeld","3.3.12","0","n","0","right","left","left","NA","right","887","71823","11088","NA","887","2","legacy","4","1024","2","48000","-16","experiment","1","odd","5","443283","444353","157250","444354","446561","355747","2869","146161","445356","74693","448562","NA","2862","448562","449450","Sternberg Task","59","36086","62","yes","1024"
"95.23809523809524","95.23809523809524","583.3333333333334","583.3333333333334","black","experiment","legacy","legacy","legacy","0","uniform","1","undefined","1","right","62","62","0","62","62","62","0","0","62","0","62","0","0","62","62","Mon Oct 10 20:30:51 2022","The main experiment item","yes","SternbergTask.osexp","C:/Users/Melissa/OneDrive/Desktop/ADVANCED QUANT/LAB 3.1","no","mono","no","18","no","white","no","yes","768","legacy","50","11","C:/Users/Melissa/OneDrive/Desktop/ADVANCED QUANT/LAB 3.1/MM-subject-1.csv","legacy","5 9 2 3","Lentiform Loewenfeld","3.3.12","0","n","0","right","left","left","NA","right","664","71823","11088","NA","664","2","legacy","4","1024","2","48000","-16","experiment","1","odd","8","449453","450522","157250","450526","452732","355747","2869","146161","451527","74693","454736","NA","2862","454737","455402","Sternberg Task","60","36750","63","yes","1024"
"95.3125","95.3125","589.25","589.25","black","experiment","legacy","legacy","legacy","0","uniform","1","undefined","1","right","63","63","0","63","63","63","0","0","63","0","63","0","0","63","63","Mon Oct 10 20:30:51 2022","The main experiment item","yes","SternbergTask.osexp","C:/Users/Melissa/OneDrive/Desktop/ADVANCED QUANT/LAB 3.1","no","mono","no","18","no","white","no","yes","768","legacy","51","11","C:/Users/Melissa/OneDrive/Desktop/ADVANCED QUANT/LAB 3.1/MM-subject-1.csv","legacy","1 7 5 2 9","Lentiform Loewenfeld","3.3.12","0","n","0","right","left","left","NA","right","962","71823","11088","NA","962","2","legacy","5","1024","2","48000","-16","experiment","1","odd","3","455406","456483","157250","456485","458692","355747","2869","146161","457486","74693","460693","NA","2862","460693","461656","Sternberg Task","61","37712","64","yes","1024"
"95.38461538461539","95.38461538461539","594.2","594.2","black","experiment","legacy","legacy","legacy","0","uniform","1","undefined","1","right","64","64","0","64","64","64","0","0","64","0","64","0","0","64","64","Mon Oct 10 20:30:51 2022","The main experiment item","yes","SternbergTask.osexp","C:/Users/Melissa/OneDrive/Desktop/ADVANCED QUANT/LAB 3.1","no","mono","no","18","no","white","no","yes","768","legacy","52","11","C:/Users/Melissa/OneDrive/Desktop/ADVANCED QUANT/LAB 3.1/MM-subject-1.csv","legacy","2 8 7 9 5 3","Lentiform Loewenfeld","3.3.12","0","n","0","right","left","left","NA","right","911","71823","11088","NA","911","2","legacy","6","1024","2","48000","-16","experiment","1","odd","6","461659","462727","157250","462729","464935","355747","2869","146161","463730","74693","466937","NA","2862","466937","467848","Sternberg Task","62","38623","65","yes","1024"
"95.45454545454545","95.45454545454545","598","598","black","experiment","legacy","legacy","legacy","0","uniform","1","undefined","1","right","65","65","0","65","65","65","0","0","65","0","65","0","0","65","65","Mon Oct 10 20:30:51 2022","The main experiment item","yes","SternbergTask.osexp","C:/Users/Melissa/OneDrive/Desktop/ADVANCED QUANT/LAB 3.1","no","mono","no","18","no","white","no","yes","768","legacy","53","11","C:/Users/Melissa/OneDrive/Desktop/ADVANCED QUANT/LAB 3.1/MM-subject-1.csv","legacy","7 1 8 4 9 3","Lentiform Loewenfeld","3.3.12","0","n","0","right","left","left","NA","right","845","71823","11088","NA","845","2","legacy","6","1024","2","48000","-16","experiment","1","odd","6","467865","468935","157250","468936","471141","355747","2869","146161","469937","74693","473143","NA","2862","473143","473989","Sternberg Task","63","39468","66","yes","1024"
"95.5223880597015","95.5223880597015","596.6567164179105","596.6567164179105","black","experiment","legacy","legacy","legacy","0","uniform","1","undefined","1","left","66","66","0","66","66","66","0","0","66","0","66","0","0","66","66","Mon Oct 10 20:30:51 2022","The main experiment item","yes","SternbergTask.osexp","C:/Users/Melissa/OneDrive/Desktop/ADVANCED QUANT/LAB 3.1","no","mono","no","18","no","white","no","yes","768","legacy","54","11","C:/Users/Melissa/OneDrive/Desktop/ADVANCED QUANT/LAB 3.1/MM-subject-1.csv","legacy","2 8 5 1","Lentiform Loewenfeld","3.3.12","4","y","0","left","left","left","NA","left","508","71823","11088","NA","508","2","legacy","4","1024","2","48000","-16","experiment","1","odd","1","473993","475080","157250","475082","477291","355747","2869","146161","476087","74693","479293","NA","2862","479293","479803","Sternberg Task","64","39976","67","yes","1024"
"95.58823529411765","95.58823529411765","595.5","595.5","black","experiment","legacy","legacy","legacy","0","uniform","1","undefined","1","right","67","67","0","67","67","67","0","0","67","0","67","0","0","67","67","Mon Oct 10 20:30:51 2022","The main experiment item","yes","SternbergTask.osexp","C:/Users/Melissa/OneDrive/Desktop/ADVANCED QUANT/LAB 3.1","no","mono","no","18","no","white","no","yes","768","legacy","55","11","C:/Users/Melissa/OneDrive/Desktop/ADVANCED QUANT/LAB 3.1/MM-subject-1.csv","legacy","2 5 1 4","Lentiform Loewenfeld","3.3.12","0","n","0","right","left","left","NA","right","518","71823","11088","NA","518","2","legacy","4","1024","2","48000","-16","experiment","1","odd","6","479805","480875","157250","480877","483087","355747","2869","146161","481882","74693","485088","NA","2862","485088","485607","Sternberg Task","65","40494","68","yes","1024"
"95.65217391304348","95.65217391304348","595.0144927536232","595.0144927536232","black","experiment","legacy","legacy","legacy","0","uniform","1","undefined","1","left","68","68","0","68","68","68","0","0","68","0","68","0","0","68","68","Mon Oct 10 20:30:51 2022","The main experiment item","yes","SternbergTask.osexp","C:/Users/Melissa/OneDrive/Desktop/ADVANCED QUANT/LAB 3.1","no","mono","no","18","no","white","no","yes","768","legacy","56","11","C:/Users/Melissa/OneDrive/Desktop/ADVANCED QUANT/LAB 3.1/MM-subject-1.csv","legacy","4 1 5","Lentiform Loewenfeld","3.3.12","2","y","0","left","left","left","NA","left","562","71823","11088","NA","562","2","legacy","3","1024","2","48000","-16","experiment","1","odd","1","485611","486687","157250","486688","488894","355747","2869","146161","487689","74693","490901","NA","2862","490901","491464","Sternberg Task","66","41056","69","yes","1024"
"95.71428571428571","95.71428571428571","597.6428571428571","597.6428571428571","black","experiment","legacy","legacy","legacy","0","uniform","1","undefined","1","left","69","69","0","69","69","69","0","0","69","0","69","0","0","69","69","Mon Oct 10 20:30:51 2022","The main experiment item","yes","SternbergTask.osexp","C:/Users/Melissa/OneDrive/Desktop/ADVANCED QUANT/LAB 3.1","no","mono","no","18","no","white","no","yes","768","legacy","57","11","C:/Users/Melissa/OneDrive/Desktop/ADVANCED QUANT/LAB 3.1/MM-subject-1.csv","legacy","7 1 8 5 6 2","Lentiform Loewenfeld","3.3.12","2","y","0","left","left","left","NA","left","779","71823","11088","NA","779","2","legacy","6","1024","2","48000","-16","experiment","1","odd","1","491468","492551","157250","492553","494759","355747","2869","146161","493554","74693","496761","NA","2862","496761","497541","Sternberg Task","67","41835","70","yes","1024"
"95.77464788732394","95.77464788732394","596.5070422535211","596.5070422535211","black","experiment","legacy","legacy","legacy","0","uniform","1","undefined","1","right","70","70","0","70","70","70","0","0","70","0","70","0","0","70","70","Mon Oct 10 20:30:51 2022","The main experiment item","yes","SternbergTask.osexp","C:/Users/Melissa/OneDrive/Desktop/ADVANCED QUANT/LAB 3.1","no","mono","no","18","no","white","no","yes","768","legacy","58","11","C:/Users/Melissa/OneDrive/Desktop/ADVANCED QUANT/LAB 3.1/MM-subject-1.csv","legacy","8 9","Lentiform Loewenfeld","3.3.12","0","n","0","right","left","left","NA","right","517","71823","11088","NA","517","2","legacy","2","1024","2","48000","-16","experiment","1","odd","5","497548","498619","157250","498621","500828","355747","2869","146161","499622","74693","502829","NA","2862","502829","503347","Sternberg Task","68","42352","71","yes","1024"
"95.83333333333333","95.83333333333333","601.7777777777778","601.7777777777778","black","experiment","legacy","legacy","legacy","0","uniform","1","undefined","1","right","71","71","0","71","71","71","0","0","71","0","71","0","0","71","71","Mon Oct 10 20:30:51 2022","The main experiment item","yes","SternbergTask.osexp","C:/Users/Melissa/OneDrive/Desktop/ADVANCED QUANT/LAB 3.1","no","mono","no","18","no","white","no","yes","768","legacy","59","11","C:/Users/Melissa/OneDrive/Desktop/ADVANCED QUANT/LAB 3.1/MM-subject-1.csv","legacy","1 4 3 6 5","Lentiform Loewenfeld","3.3.12","0","n","0","right","left","left","NA","right","976","71823","11088","NA","976","2","legacy","5","1024","2","48000","-16","experiment","1","odd","8","503351","504437","157250","504438","506646","355747","2869","146161","505439","74693","508647","NA","2862","508647","509624","Sternberg Task","69","43328","72","yes","1024"
"95.89041095890411","95.89041095890411","601.8356164383562","601.8356164383562","black","experiment","legacy","legacy","legacy","0","uniform","1","undefined","1","left","72","72","0","72","72","72","0","0","72","0","72","0","0","72","72","Mon Oct 10 20:30:51 2022","The main experiment item","yes","SternbergTask.osexp","C:/Users/Melissa/OneDrive/Desktop/ADVANCED QUANT/LAB 3.1","no","mono","no","18","no","white","no","yes","768","legacy","60","11","C:/Users/Melissa/OneDrive/Desktop/ADVANCED QUANT/LAB 3.1/MM-subject-1.csv","legacy","6 5","Lentiform Loewenfeld","3.3.12","2","y","0","left","left","left","NA","left","606","71823","11088","NA","606","2","legacy","2","1024","2","48000","-16","experiment","1","odd","5","509628","510706","157250","510707","512914","355747","2869","146161","511708","74693","514915","NA","2862","514915","515522","Sternberg Task","70","43934","73","yes","1024"
"95.94594594594595","95.94594594594595","604.7162162162163","604.7162162162163","black","experiment","legacy","legacy","legacy","0","uniform","1","undefined","1","right","73","73","0","73","73","73","0","0","73","0","73","0","0","73","73","Mon Oct 10 20:30:51 2022","The main experiment item","yes","SternbergTask.osexp","C:/Users/Melissa/OneDrive/Desktop/ADVANCED QUANT/LAB 3.1","no","mono","no","18","no","white","no","yes","768","legacy","61","11","C:/Users/Melissa/OneDrive/Desktop/ADVANCED QUANT/LAB 3.1/MM-subject-1.csv","legacy","7 4 2 8 1 9","Lentiform Loewenfeld","3.3.12","0","n","0","right","left","left","NA","right","815","71823","11088","NA","815","2","legacy","6","1024","2","48000","-16","experiment","1","odd","5","515526","516598","157250","516600","518806","355747","2869","146161","517601","74693","520812","NA","2862","520812","521628","Sternberg Task","71","44749","74","yes","1024"
"96","96","604.6666666666666","604.6666666666666","black","experiment","legacy","legacy","legacy","0","uniform","1","undefined","1","left","74","74","0","74","74","74","0","0","74","0","74","0","0","74","74","Mon Oct 10 20:30:51 2022","The main experiment item","yes","SternbergTask.osexp","C:/Users/Melissa/OneDrive/Desktop/ADVANCED QUANT/LAB 3.1","no","mono","no","18","no","white","no","yes","768","legacy","62","11","C:/Users/Melissa/OneDrive/Desktop/ADVANCED QUANT/LAB 3.1/MM-subject-1.csv","legacy","3 9 6 2","Lentiform Loewenfeld","3.3.12","4","y","0","left","left","left","NA","left","601","71823","11088","NA","601","2","legacy","4","1024","2","48000","-16","experiment","1","odd","2","521632","522707","157250","522709","524915","355747","2869","146161","523710","74693","526916","NA","2862","526916","527518","Sternberg Task","72","45350","75","yes","1024"
"96.05263157894737","96.05263157894737","603.6842105263158","603.6842105263158","black","experiment","legacy","legacy","legacy","0","uniform","1","undefined","1","left","75","75","0","75","75","75","0","0","75","0","75","0","0","75","75","Mon Oct 10 20:30:51 2022","The main experiment item","yes","SternbergTask.osexp","C:/Users/Melissa/OneDrive/Desktop/ADVANCED QUANT/LAB 3.1","no","mono","no","18","no","white","no","yes","768","legacy","63","11","C:/Users/Melissa/OneDrive/Desktop/ADVANCED QUANT/LAB 3.1/MM-subject-1.csv","legacy","6 7 9 3 1 2","Lentiform Loewenfeld","3.3.12","1","y","0","left","left","left","NA","left","530","71823","11088","NA","530","2","legacy","6","1024","2","48000","-16","experiment","1","odd","6","527522","528591","157250","528592","530799","355747","2869","146161","529593","74693","532800","NA","2862","532800","533330","Sternberg Task","73","45880","76","yes","1024"
"96.1038961038961","96.1038961038961","602.922077922078","602.922077922078","black","experiment","legacy","legacy","legacy","0","uniform","1","undefined","1","right","76","76","0","76","76","76","0","0","76","0","76","0","0","76","76","Mon Oct 10 20:30:51 2022","The main experiment item","yes","SternbergTask.osexp","C:/Users/Melissa/OneDrive/Desktop/ADVANCED QUANT/LAB 3.1","no","mono","no","18","no","white","no","yes","768","legacy","64","11","C:/Users/Melissa/OneDrive/Desktop/ADVANCED QUANT/LAB 3.1/MM-subject-1.csv","legacy","4 2 7 6 1 3","Lentiform Loewenfeld","3.3.12","0","n","0","right","left","left","NA","right","545","71823","11088","NA","545","2","legacy","6","1024","2","48000","-16","experiment","1","odd","8","533334","534402","157250","534404","536611","355747","2869","146161","535405","74693","538616","NA","2862","538616","539162","Sternberg Task","74","46425","77","yes","1024"
"96.15384615384616","96.15384615384616","602.2179487179487","602.2179487179487","black","experiment","legacy","legacy","legacy","0","uniform","1","undefined","1","right","77","77","0","77","77","77","0","0","77","0","77","0","0","77","77","Mon Oct 10 20:30:51 2022","The main experiment item","yes","SternbergTask.osexp","C:/Users/Melissa/OneDrive/Desktop/ADVANCED QUANT/LAB 3.1","no","mono","no","18","no","white","no","yes","768","legacy","65","11","C:/Users/Melissa/OneDrive/Desktop/ADVANCED QUANT/LAB 3.1/MM-subject-1.csv","legacy","1 4 9 2 5","Lentiform Loewenfeld","3.3.12","0","n","0","right","left","left","NA","right","548","71823","11088","NA","548","2","legacy","5","1024","2","48000","-16","experiment","1","odd","7","539166","540255","157250","540257","542463","355747","2869","146161","541258","74693","544464","NA","2862","544464","545013","Sternberg Task","75","46973","78","yes","1024"
"96.20253164556962","96.20253164556962","601.5822784810126","601.5822784810126","black","experiment","legacy","legacy","legacy","0","uniform","1","undefined","1","right","78","78","0","78","78","78","0","0","78","0","78","0","0","78","78","Mon Oct 10 20:30:51 2022","The main experiment item","yes","SternbergTask.osexp","C:/Users/Melissa/OneDrive/Desktop/ADVANCED QUANT/LAB 3.1","no","mono","no","18","no","white","no","yes","768","legacy","66","11","C:/Users/Melissa/OneDrive/Desktop/ADVANCED QUANT/LAB 3.1/MM-subject-1.csv","legacy","7 1","Lentiform Loewenfeld","3.3.12","0","n","0","right","left","left","NA","right","552","71823","11088","NA","552","2","legacy","2","1024","2","48000","-16","experiment","1","odd","8","545017","546088","157250","546089","548296","355747","2869","146161","547091","74693","550301","NA","2862","550301","550854","Sternberg Task","76","47525","79","yes","1024"
"96.25","96.25","600.1","600.1","black","experiment","legacy","legacy","legacy","0","uniform","1","undefined","1","right","79","79","0","79","79","79","0","0","79","0","79","0","0","79","79","Mon Oct 10 20:30:51 2022","The main experiment item","yes","SternbergTask.osexp","C:/Users/Melissa/OneDrive/Desktop/ADVANCED QUANT/LAB 3.1","no","mono","no","18","no","white","no","yes","768","legacy","67","11","C:/Users/Melissa/OneDrive/Desktop/ADVANCED QUANT/LAB 3.1/MM-subject-1.csv","legacy","1","Lentiform Loewenfeld","3.3.12","0","n","0","right","left","left","NA","right","483","71823","11088","NA","483","2","legacy","1","1024","2","48000","-16","experiment","1","odd","7","550858","551926","157250","551927","554133","355747","2869","146161","552928","74693","556134","NA","2862","556134","556618","Sternberg Task","77","48008","80","yes","1024"
"96.29629629629629","96.29629629629629","598.3086419753087","598.3086419753087","black","experiment","legacy","legacy","legacy","0","uniform","1","undefined","1","left","80","80","0","80","80","80","0","0","80","0","80","0","0","80","80","Mon Oct 10 20:30:51 2022","The main experiment item","yes","SternbergTask.osexp","C:/Users/Melissa/OneDrive/Desktop/ADVANCED QUANT/LAB 3.1","no","mono","no","18","no","white","no","yes","768","legacy","68","11","C:/Users/Melissa/OneDrive/Desktop/ADVANCED QUANT/LAB 3.1/MM-subject-1.csv","legacy","7 1 3","Lentiform Loewenfeld","3.3.12","2","y","0","left","left","left","NA","left","455","71823","11088","NA","455","2","legacy","3","1024","2","48000","-16","experiment","1","odd","1","556622","557694","157250","557696","559902","355747","2869","146161","558697","74693","561908","NA","2862","561908","562364","Sternberg Task","78","48463","81","yes","1024"
"96.34146341463415","96.34146341463415","599.1463414634146","599.1463414634146","black","experiment","legacy","legacy","legacy","0","uniform","1","undefined","1","right","81","81","0","81","81","81","0","0","81","0","81","0","0","81","81","Mon Oct 10 20:30:51 2022","The main experiment item","yes","SternbergTask.osexp","C:/Users/Melissa/OneDrive/Desktop/ADVANCED QUANT/LAB 3.1","no","mono","no","18","no","white","no","yes","768","legacy","69","11","C:/Users/Melissa/OneDrive/Desktop/ADVANCED QUANT/LAB 3.1/MM-subject-1.csv","legacy","4 8 1 2","Lentiform Loewenfeld","3.3.12","0","n","0","right","left","left","NA","right","667","71823","11088","NA","667","2","legacy","4","1024","2","48000","-16","experiment","1","odd","7","562368","563440","157250","563442","565647","355747","2869","146161","564444","74693","567648","NA","2862","567648","568315","Sternberg Task","79","49130","82","yes","1024"
"96.3855421686747","96.3855421686747","598.3253012048193","598.3253012048193","black","experiment","legacy","legacy","legacy","0","uniform","1","undefined","1","left","82","82","0","82","82","82","0","0","82","0","82","0","0","82","82","Mon Oct 10 20:30:51 2022","The main experiment item","yes","SternbergTask.osexp","C:/Users/Melissa/OneDrive/Desktop/ADVANCED QUANT/LAB 3.1","no","mono","no","18","no","white","no","yes","768","legacy","70","11","C:/Users/Melissa/OneDrive/Desktop/ADVANCED QUANT/LAB 3.1/MM-subject-1.csv","legacy","8 7 3","Lentiform Loewenfeld","3.3.12","1","y","0","left","left","left","NA","left","531","71823","11088","NA","531","2","legacy","3","1024","2","48000","-16","experiment","1","odd","8","568328","569403","157250","569404","571613","355747","2869","146161","570407","74693","573618","NA","2862","573618","574150","Sternberg Task","80","49661","83","yes","1024"
"96.42857142857143","96.42857142857143","599.5595238095239","599.5595238095239","black","experiment","legacy","legacy","legacy","0","uniform","1","undefined","1","left","83","83","0","83","83","83","0","0","83","0","83","0","0","83","83","Mon Oct 10 20:30:51 2022","The main experiment item","yes","SternbergTask.osexp","C:/Users/Melissa/OneDrive/Desktop/ADVANCED QUANT/LAB 3.1","no","mono","no","18","no","white","no","yes","768","legacy","71","11","C:/Users/Melissa/OneDrive/Desktop/ADVANCED QUANT/LAB 3.1/MM-subject-1.csv","legacy","7 4 2 6 3 5","Lentiform Loewenfeld","3.3.12","6","y","0","left","left","left","NA","left","702","71823","11088","NA","702","2","legacy","6","1024","2","48000","-16","experiment","1","odd","5","574154","575222","157250","575224","577430","355747","2869","146161","576225","74693","579431","NA","2862","579431","580134","Sternberg Task","81","50363","84","yes","1024"
"96.47058823529412","96.47058823529412","598.9882352941177","598.9882352941177","black","experiment","legacy","legacy","legacy","0","uniform","1","undefined","1","right","84","84","0","84","84","84","0","0","84","0","84","0","0","84","84","Mon Oct 10 20:30:51 2022","The main experiment item","yes","SternbergTask.osexp","C:/Users/Melissa/OneDrive/Desktop/ADVANCED QUANT/LAB 3.1","no","mono","no","18","no","white","no","yes","768","legacy","72","11","C:/Users/Melissa/OneDrive/Desktop/ADVANCED QUANT/LAB 3.1/MM-subject-1.csv","legacy","2 8 6 3 1","Lentiform Loewenfeld","3.3.12","0","n","0","right","left","left","NA","right","551","71823","11088","NA","551","2","legacy","5","1024","2","48000","-16","experiment","1","odd","7","580140","581214","157250","581216","583422","355747","2869","146161","582217","74693","585427","NA","2862","585427","585979","Sternberg Task","82","50914","85","yes","1024"
"96.51162790697674","96.51162790697674","598.8023255813954","598.8023255813954","black","experiment","legacy","legacy","legacy","0","uniform","1","undefined","1","left","85","85","0","85","85","85","0","0","85","0","85","0","0","85","85","Mon Oct 10 20:30:51 2022","The main experiment item","yes","SternbergTask.osexp","C:/Users/Melissa/OneDrive/Desktop/ADVANCED QUANT/LAB 3.1","no","mono","no","18","no","white","no","yes","768","legacy","73","11","C:/Users/Melissa/OneDrive/Desktop/ADVANCED QUANT/LAB 3.1/MM-subject-1.csv","legacy","8 9 5 7 1 6","Lentiform Loewenfeld","3.3.12","4","y","0","left","left","left","NA","left","583","71823","11088","NA","583","2","legacy","6","1024","2","48000","-16","experiment","1","odd","7","585984","587054","157250","587056","589266","355747","2869","146161","588059","74693","591267","NA","2862","591267","591852","Sternberg Task","83","51497","86","yes","1024"
"96.55172413793103","96.55172413793103","597.2183908045977","597.2183908045977","black","experiment","legacy","legacy","legacy","0","uniform","1","undefined","1","left","86","86","0","86","86","86","0","0","86","0","86","0","0","86","86","Mon Oct 10 20:30:51 2022","The main experiment item","yes","SternbergTask.osexp","C:/Users/Melissa/OneDrive/Desktop/ADVANCED QUANT/LAB 3.1","no","mono","no","18","no","white","no","yes","768","legacy","74","11","C:/Users/Melissa/OneDrive/Desktop/ADVANCED QUANT/LAB 3.1/MM-subject-1.csv","legacy","9 1 7 2","Lentiform Loewenfeld","3.3.12","2","y","0","left","left","left","NA","left","461","71823","11088","NA","461","2","legacy","4","1024","2","48000","-16","experiment","1","odd","1","591856","592924","157250","592926","595132","355747","2869","146161","593927","74693","597133","NA","2862","597133","597595","Sternberg Task","84","51958","87","yes","1024"
"96.5909090909091","96.5909090909091","596.6022727272727","596.6022727272727","black","experiment","legacy","legacy","legacy","0","uniform","1","undefined","1","left","87","87","0","87","87","87","0","0","87","0","87","0","0","87","87","Mon Oct 10 20:30:51 2022","The main experiment item","yes","SternbergTask.osexp","C:/Users/Melissa/OneDrive/Desktop/ADVANCED QUANT/LAB 3.1","no","mono","no","18","no","white","no","yes","768","legacy","75","11","C:/Users/Melissa/OneDrive/Desktop/ADVANCED QUANT/LAB 3.1/MM-subject-1.csv","legacy","4 6 2 5 1","Lentiform Loewenfeld","3.3.12","5","y","0","left","left","left","NA","left","543","71823","11088","NA","543","2","legacy","5","1024","2","48000","-16","experiment","1","odd","1","597599","598681","157250","598683","600889","355747","2869","146161","599684","74693","602894","NA","2862","602894","603438","Sternberg Task","85","52501","88","yes","1024"
"96.62921348314607","96.62921348314607","596.6966292134831","596.6966292134831","black","experiment","legacy","legacy","legacy","0","uniform","1","undefined","1","left","88","88","0","88","88","88","0","0","88","0","88","0","0","88","88","Mon Oct 10 20:30:51 2022","The main experiment item","yes","SternbergTask.osexp","C:/Users/Melissa/OneDrive/Desktop/ADVANCED QUANT/LAB 3.1","no","mono","no","18","no","white","no","yes","768","legacy","76","11","C:/Users/Melissa/OneDrive/Desktop/ADVANCED QUANT/LAB 3.1/MM-subject-1.csv","legacy","9 8 4","Lentiform Loewenfeld","3.3.12","1","y","0","left","left","left","NA","left","605","71823","11088","NA","605","2","legacy","3","1024","2","48000","-16","experiment","1","odd","9","603443","604512","157250","604514","606720","355747","2869","146161","605515","74693","608722","NA","2862","608722","609328","Sternberg Task","86","53106","89","yes","1024"
"96.66666666666667","96.66666666666667","598.7777777777778","598.7777777777778","black","experiment","legacy","legacy","legacy","0","uniform","1","undefined","1","left","89","89","0","89","89","89","0","0","89","0","89","0","0","89","89","Mon Oct 10 20:30:51 2022","The main experiment item","yes","SternbergTask.osexp","C:/Users/Melissa/OneDrive/Desktop/ADVANCED QUANT/LAB 3.1","no","mono","no","18","no","white","no","yes","768","legacy","77","11","C:/Users/Melissa/OneDrive/Desktop/ADVANCED QUANT/LAB 3.1/MM-subject-1.csv","legacy","6 7 8 5","Lentiform Loewenfeld","3.3.12","3","y","0","left","left","left","NA","left","784","71823","11088","NA","784","2","legacy","4","1024","2","48000","-16","experiment","1","odd","8","609332","610402","157250","610404","612610","355747","2869","146161","611405","74693","614611","NA","2862","614611","615396","Sternberg Task","87","53890","90","yes","1024"
"96.7032967032967","96.7032967032967","601.3076923076923","601.3076923076923","black","experiment","legacy","legacy","legacy","0","uniform","1","undefined","1","right","90","90","0","90","90","90","0","0","90","0","90","0","0","90","90","Mon Oct 10 20:30:51 2022","The main experiment item","yes","SternbergTask.osexp","C:/Users/Melissa/OneDrive/Desktop/ADVANCED QUANT/LAB 3.1","no","mono","no","18","no","white","no","yes","768","legacy","78","11","C:/Users/Melissa/OneDrive/Desktop/ADVANCED QUANT/LAB 3.1/MM-subject-1.csv","legacy","7 1 5 6 3","Lentiform Loewenfeld","3.3.12","0","n","0","right","left","left","NA","right","829","71823","11088","NA","829","2","legacy","5","1024","2","48000","-16","experiment","1","odd","8","615400","616485","157250","616486","618693","355747","2869","146161","617487","74693","620694","NA","2862","620694","621524","Sternberg Task","88","54719","91","yes","1024"
"96.73913043478261","96.73913043478261","600.3586956521739","600.3586956521739","black","experiment","legacy","legacy","legacy","0","uniform","1","undefined","1","left","91","91","0","91","91","91","0","0","91","0","91","0","0","91","91","Mon Oct 10 20:30:51 2022","The main experiment item","yes","SternbergTask.osexp","C:/Users/Melissa/OneDrive/Desktop/ADVANCED QUANT/LAB 3.1","no","mono","no","18","no","white","no","yes","768","legacy","79","11","C:/Users/Melissa/OneDrive/Desktop/ADVANCED QUANT/LAB 3.1/MM-subject-1.csv","legacy","4 3 2 5 8","Lentiform Loewenfeld","3.3.12","2","y","0","left","left","left","NA","left","514","71823","11088","NA","514","2","legacy","5","1024","2","48000","-16","experiment","1","odd","3","621528","622605","157250","622606","624812","355747","2869","146161","623607","74693","626814","NA","2862","626814","627329","Sternberg Task","89","55233","92","yes","1024"
"96.7741935483871","96.7741935483871","598.0645161290323","598.0645161290323","black","experiment","legacy","legacy","legacy","0","uniform","1","undefined","1","left","92","92","0","92","92","92","0","0","92","0","92","0","0","92","92","Mon Oct 10 20:30:51 2022","The main experiment item","yes","SternbergTask.osexp","C:/Users/Melissa/OneDrive/Desktop/ADVANCED QUANT/LAB 3.1","no","mono","no","18","no","white","no","yes","768","legacy","80","11","C:/Users/Melissa/OneDrive/Desktop/ADVANCED QUANT/LAB 3.1/MM-subject-1.csv","legacy","8","Lentiform Loewenfeld","3.3.12","1","y","0","left","left","left","NA","left","387","71823","11088","NA","387","2","legacy","1","1024","2","48000","-16","experiment","1","odd","8","627333","628418","157250","628419","630625","355747","2869","146161","629420","74693","632626","NA","2862","632626","633015","Sternberg Task","90","55620","93","yes","1024"
"96.80851063829788","96.80851063829788","597.5425531914893","597.5425531914893","black","experiment","legacy","legacy","legacy","0","uniform","1","undefined","1","right","93","93","0","93","93","93","0","0","93","0","93","0","0","93","93","Mon Oct 10 20:30:51 2022","The main experiment item","yes","SternbergTask.osexp","C:/Users/Melissa/OneDrive/Desktop/ADVANCED QUANT/LAB 3.1","no","mono","no","18","no","white","no","yes","768","legacy","81","11","C:/Users/Melissa/OneDrive/Desktop/ADVANCED QUANT/LAB 3.1/MM-subject-1.csv","legacy","7 9","Lentiform Loewenfeld","3.3.12","0","n","0","right","left","left","NA","right","549","71823","11088","NA","549","2","legacy","2","1024","2","48000","-16","experiment","1","odd","1","633018","634087","157250","634089","636298","355747","2869","146161","635091","74693","638299","NA","2862","638299","638849","Sternberg Task","91","56169","94","yes","1024"
"96.84210526315789","96.84210526315789","599.6842105263158","599.6842105263158","black","experiment","legacy","legacy","legacy","0","uniform","1","undefined","1","right","94","94","0","94","94","94","0","0","94","0","94","0","0","94","94","Mon Oct 10 20:30:51 2022","The main experiment item","yes","SternbergTask.osexp","C:/Users/Melissa/OneDrive/Desktop/ADVANCED QUANT/LAB 3.1","no","mono","no","18","no","white","no","yes","768","legacy","82","11","C:/Users/Melissa/OneDrive/Desktop/ADVANCED QUANT/LAB 3.1/MM-subject-1.csv","legacy","8 4 3 5","Lentiform Loewenfeld","3.3.12","0","n","0","right","left","left","NA","right","801","71823","11088","NA","801","2","legacy","4","1024","2","48000","-16","experiment","1","odd","6","638853","639922","157250","639924","642130","355747","2869","146161","640925","74693","644131","NA","2862","644131","644933","Sternberg Task","92","56970","95","yes","1024"
"96.875","96.875","601.9375","601.9375","black","experiment","legacy","legacy","legacy","0","uniform","1","undefined","1","right","95","95","0","95","95","95","0","0","95","0","95","0","0","95","95","Mon Oct 10 20:30:51 2022","The main experiment item","yes","SternbergTask.osexp","C:/Users/Melissa/OneDrive/Desktop/ADVANCED QUANT/LAB 3.1","no","mono","no","18","no","white","no","yes","768","legacy","83","11","C:/Users/Melissa/OneDrive/Desktop/ADVANCED QUANT/LAB 3.1/MM-subject-1.csv","legacy","9 5 3 2 8 6","Lentiform Loewenfeld","3.3.12","0","n","0","right","left","left","NA","right","816","71823","11088","NA","816","2","legacy","6","1024","2","48000","-16","experiment","1","odd","7","644937","646007","157250","646008","648216","355747","2869","146161","647009","74693","650221","NA","2862","650221","651038","Sternberg Task","93","57786","96","yes","1024"
"96.90721649484536","96.90721649484536","609.3917525773196","609.3917525773196","black","experiment","legacy","legacy","legacy","0","uniform","1","undefined","1","left","96","96","0","96","96","96","0","0","96","0","96","0","0","96","96","Mon Oct 10 20:30:51 2022","The main experiment item","yes","SternbergTask.osexp","C:/Users/Melissa/OneDrive/Desktop/ADVANCED QUANT/LAB 3.1","no","mono","no","18","no","white","no","yes","768","legacy","84","11","C:/Users/Melissa/OneDrive/Desktop/ADVANCED QUANT/LAB 3.1/MM-subject-1.csv","legacy","3 2 1 4 7","Lentiform Loewenfeld","3.3.12","2","y","0","left","left","left","NA","left","1325","71823","11088","NA","1325","2","legacy","5","1024","2","48000","-16","experiment","1","odd","2","651043","652111","157250","652113","654319","355747","2869","146161","653114","74693","656320","NA","2862","656320","657646","Sternberg Task","94","59111","97","yes","1024"
"96.93877551020408","96.93877551020408","611.3775510204082","611.3775510204082","black","experiment","legacy","legacy","legacy","0","uniform","1","undefined","1","right","97","97","0","97","97","97","0","0","97","0","97","0","0","97","97","Mon Oct 10 20:30:51 2022","The main experiment item","yes","SternbergTask.osexp","C:/Users/Melissa/OneDrive/Desktop/ADVANCED QUANT/LAB 3.1","no","mono","no","18","no","white","no","yes","768","legacy","85","11","C:/Users/Melissa/OneDrive/Desktop/ADVANCED QUANT/LAB 3.1/MM-subject-1.csv","legacy","6 9 4 5 2","Lentiform Loewenfeld","3.3.12","0","n","0","right","left","left","NA","right","804","71823","11088","NA","804","2","legacy","5","1024","2","48000","-16","experiment","1","odd","1","657650","658723","157250","658724","660931","355747","2869","146161","659726","74693","662932","NA","2862","662932","663737","Sternberg Task","95","59915","98","yes","1024"
"96.96969696969697","96.96969696969697","612.3535353535353","612.3535353535353","black","experiment","legacy","legacy","legacy","0","uniform","1","undefined","1","right","98","98","0","98","98","98","0","0","98","0","98","0","0","98","98","Mon Oct 10 20:30:51 2022","The main experiment item","yes","SternbergTask.osexp","C:/Users/Melissa/OneDrive/Desktop/ADVANCED QUANT/LAB 3.1","no","mono","no","18","no","white","no","yes","768","legacy","86","11","C:/Users/Melissa/OneDrive/Desktop/ADVANCED QUANT/LAB 3.1/MM-subject-1.csv","legacy","8 6 3 4 7","Lentiform Loewenfeld","3.3.12","0","n","0","right","left","left","NA","right","708","71823","11088","NA","708","2","legacy","5","1024","2","48000","-16","experiment","1","odd","1","663741","664809","157250","664811","667017","355747","2869","146161","665812","74693","669018","NA","2862","669018","669727","Sternberg Task","96","60623","99","yes","1024"
"97","97","612.45","612.45","black","experiment","legacy","legacy","legacy","0","uniform","1","undefined","1","right","99","99","0","99","99","99","0","0","99","0","99","0","0","99","99","Mon Oct 10 20:30:51 2022","The main experiment item","yes","SternbergTask.osexp","C:/Users/Melissa/OneDrive/Desktop/ADVANCED QUANT/LAB 3.1","no","mono","no","18","no","white","no","yes","768","legacy","87","11","C:/Users/Melissa/OneDrive/Desktop/ADVANCED QUANT/LAB 3.1/MM-subject-1.csv","legacy","1 7 8 3 9","Lentiform Loewenfeld","3.3.12","0","n","0","right","left","left","NA","right","622","71823","11088","NA","622","2","legacy","5","1024","2","48000","-16","experiment","1","odd","2","669731","670812","157250","670814","673019","355747","2869","146161","671815","74693","675023","NA","2862","675024","675647","Sternberg Task","97","61245","100","yes","1024"
"97.02970297029702","97.02970297029702","611.950495049505","611.950495049505","black","experiment","legacy","legacy","legacy","0","uniform","1","undefined","1","right","100","100","0","100","100","100","0","0","100","0","100","0","0","100","100","Mon Oct 10 20:30:51 2022","The main experiment item","yes","SternbergTask.osexp","C:/Users/Melissa/OneDrive/Desktop/ADVANCED QUANT/LAB 3.1","no","mono","no","18","no","white","no","yes","768","legacy","88","11","C:/Users/Melissa/OneDrive/Desktop/ADVANCED QUANT/LAB 3.1/MM-subject-1.csv","legacy","6 8","Lentiform Loewenfeld","3.3.12","0","n","0","right","left","left","NA","right","562","71823","11088","NA","562","2","legacy","2","1024","2","48000","-16","experiment","1","odd","9","675651","676725","157250","676726","678932","355747","2869","146161","677727","74693","680933","NA","2862","680933","681496","Sternberg Task","98","61807","101","yes","1024"
"97.05882352941177","97.05882352941177","611.0686274509804","611.0686274509804","black","experiment","legacy","legacy","legacy","0","uniform","1","undefined","1","right","101","101","0","101","101","101","0","0","101","0","101","0","0","101","101","Mon Oct 10 20:30:51 2022","The main experiment item","yes","SternbergTask.osexp","C:/Users/Melissa/OneDrive/Desktop/ADVANCED QUANT/LAB 3.1","no","mono","no","18","no","white","no","yes","768","legacy","89","11","C:/Users/Melissa/OneDrive/Desktop/ADVANCED QUANT/LAB 3.1/MM-subject-1.csv","legacy","9","Lentiform Loewenfeld","3.3.12","0","n","0","right","left","left","NA","right","522","71823","11088","NA","522","2","legacy","1","1024","2","48000","-16","experiment","1","odd","6","681500","682569","157250","682572","684780","355747","2869","146161","683573","74693","686785","NA","2862","686785","687308","Sternberg Task","99","62329","102","yes","1024"
"97.0873786407767","97.0873786407767","611.7864077669902","611.7864077669902","black","experiment","legacy","legacy","legacy","0","uniform","1","undefined","1","right","102","102","0","102","102","102","0","0","102","0","102","0","0","102","102","Mon Oct 10 20:30:51 2022","The main experiment item","yes","SternbergTask.osexp","C:/Users/Melissa/OneDrive/Desktop/ADVANCED QUANT/LAB 3.1","no","mono","no","18","no","white","no","yes","768","legacy","90","11","C:/Users/Melissa/OneDrive/Desktop/ADVANCED QUANT/LAB 3.1/MM-subject-1.csv","legacy","1 8 7","Lentiform Loewenfeld","3.3.12","0","n","0","right","left","left","NA","right","685","71823","11088","NA","685","2","legacy","3","1024","2","48000","-16","experiment","1","odd","4","687312","688387","157250","688389","690601","355747","2869","146161","689394","74693","692602","NA","2862","692602","693288","Sternberg Task","100","63014","103","yes","1024"
"97.11538461538461","97.11538461538461","612.5576923076923","612.5576923076923","black","experiment","legacy","legacy","legacy","0","uniform","1","undefined","1","right","103","103","0","103","103","103","0","0","103","0","103","0","0","103","103","Mon Oct 10 20:30:51 2022","The main experiment item","yes","SternbergTask.osexp","C:/Users/Melissa/OneDrive/Desktop/ADVANCED QUANT/LAB 3.1","no","mono","no","18","no","white","no","yes","768","legacy","91","11","C:/Users/Melissa/OneDrive/Desktop/ADVANCED QUANT/LAB 3.1/MM-subject-1.csv","legacy","1 3 2 6 9","Lentiform Loewenfeld","3.3.12","0","n","0","right","left","left","NA","right","692","71823","11088","NA","692","2","legacy","5","1024","2","48000","-16","experiment","1","odd","5","693292","694361","157250","694363","696569","355747","2869","146161","695364","74693","698570","NA","2862","698570","699263","Sternberg Task","101","63706","104","yes","1024"
"97.14285714285714","97.14285714285714","614.8857142857142","614.8857142857142","black","experiment","legacy","legacy","legacy","0","uniform","1","undefined","1","right","104","104","0","104","104","104","0","0","104","0","104","0","0","104","104","Mon Oct 10 20:30:51 2022","The main experiment item","yes","SternbergTask.osexp","C:/Users/Melissa/OneDrive/Desktop/ADVANCED QUANT/LAB 3.1","no","mono","no","18","no","white","no","yes","768","legacy","92","11","C:/Users/Melissa/OneDrive/Desktop/ADVANCED QUANT/LAB 3.1/MM-subject-1.csv","legacy","7 9 1 6","Lentiform Loewenfeld","3.3.12","0","n","0","right","left","left","NA","right","857","71823","11088","NA","857","2","legacy","4","1024","2","48000","-16","experiment","1","odd","4","699267","700358","157250","700360","702566","355747","2869","146161","701361","74693","704570","NA","2862","704570","705429","Sternberg Task","102","64563","105","yes","1024"
"97.16981132075472","97.16981132075472","613.4056603773585","613.4056603773585","black","experiment","legacy","legacy","legacy","0","uniform","1","undefined","1","left","105","105","0","105","105","105","0","0","105","0","105","0","0","105","105","Mon Oct 10 20:30:51 2022","The main experiment item","yes","SternbergTask.osexp","C:/Users/Melissa/OneDrive/Desktop/ADVANCED QUANT/LAB 3.1","no","mono","no","18","no","white","no","yes","768","legacy","93","11","C:/Users/Melissa/OneDrive/Desktop/ADVANCED QUANT/LAB 3.1/MM-subject-1.csv","legacy","7 8 6 3 1","Lentiform Loewenfeld","3.3.12","5","y","0","left","left","left","NA","left","458","71823","11088","NA","458","2","legacy","5","1024","2","48000","-16","experiment","1","odd","1","705433","706519","157250","706521","708727","355747","2869","146161","707522","74693","710728","NA","2862","710728","711187","Sternberg Task","103","65021","106","yes","1024"
"97.19626168224299","97.19626168224299","616.3457943925233","616.3457943925233","black","experiment","legacy","legacy","legacy","0","uniform","1","undefined","1","left","106","106","0","106","106","106","0","0","106","0","106","0","0","106","106","Mon Oct 10 20:30:51 2022","The main experiment item","yes","SternbergTask.osexp","C:/Users/Melissa/OneDrive/Desktop/ADVANCED QUANT/LAB 3.1","no","mono","no","18","no","white","no","yes","768","legacy","94","11","C:/Users/Melissa/OneDrive/Desktop/ADVANCED QUANT/LAB 3.1/MM-subject-1.csv","legacy","9 1 6 7 8","Lentiform Loewenfeld","3.3.12","1","y","0","left","left","left","NA","left","928","71823","11088","NA","928","2","legacy","5","1024","2","48000","-16","experiment","1","odd","9","711191","712263","157250","712264","714470","355747","2869","146161","713265","74693","716471","NA","2862","716471","717400","Sternberg Task","104","65949","107","yes","1024"
"97.22222222222223","97.22222222222223","618.3888888888889","618.3888888888889","black","experiment","legacy","legacy","legacy","0","uniform","1","undefined","1","right","107","107","0","107","107","107","0","0","107","0","107","0","0","107","107","Mon Oct 10 20:30:51 2022","The main experiment item","yes","SternbergTask.osexp","C:/Users/Melissa/OneDrive/Desktop/ADVANCED QUANT/LAB 3.1","no","mono","no","18","no","white","no","yes","768","legacy","95","11","C:/Users/Melissa/OneDrive/Desktop/ADVANCED QUANT/LAB 3.1/MM-subject-1.csv","legacy","7 8 6 1","Lentiform Loewenfeld","3.3.12","0","n","0","right","left","left","NA","right","837","71823","11088","NA","837","2","legacy","4","1024","2","48000","-16","experiment","1","odd","3","717404","718473","157250","718475","720682","355747","2869","146161","719476","74693","722687","NA","2862","722687","723526","Sternberg Task","105","66786","108","yes","1024"
"97.24770642201835","97.24770642201835","625.4036697247707","625.4036697247707","black","experiment","legacy","legacy","legacy","0","uniform","1","undefined","1","right","108","108","0","108","108","108","0","0","108","0","108","0","0","108","108","Mon Oct 10 20:30:51 2022","The main experiment item","yes","SternbergTask.osexp","C:/Users/Melissa/OneDrive/Desktop/ADVANCED QUANT/LAB 3.1","no","mono","no","18","no","white","no","yes","768","legacy","96","11","C:/Users/Melissa/OneDrive/Desktop/ADVANCED QUANT/LAB 3.1/MM-subject-1.csv","legacy","9 8 2 7 4","Lentiform Loewenfeld","3.3.12","0","n","0","right","left","left","NA","right","1383","71823","11088","NA","1383","2","legacy","5","1024","2","48000","-16","experiment","1","odd","5","723530","724605","157250","724607","726813","355747","2869","146161","725608","74693","728817","NA","2862","728818","730202","Sternberg Task","106","68169","109","yes","1024"
"97.27272727272727","97.27272727272727","628.4090909090909","628.4090909090909","black","experiment","legacy","legacy","legacy","0","uniform","1","undefined","1","left","109","109","0","109","109","109","0","0","109","0","109","0","0","109","109","Mon Oct 10 20:30:51 2022","The main experiment item","yes","SternbergTask.osexp","C:/Users/Melissa/OneDrive/Desktop/ADVANCED QUANT/LAB 3.1","no","mono","no","18","no","white","no","yes","768","legacy","97","11","C:/Users/Melissa/OneDrive/Desktop/ADVANCED QUANT/LAB 3.1/MM-subject-1.csv","legacy","6 9 7 4 5 1","Lentiform Loewenfeld","3.3.12","2","y","0","left","left","left","NA","left","956","71823","11088","NA","956","2","legacy","6","1024","2","48000","-16","experiment","1","odd","9","730205","731276","157250","731277","733483","355747","2869","146161","732279","74693","735485","NA","2862","735485","736442","Sternberg Task","107","69125","110","yes","1024"
