"acc","accuracy","average_response_time","avg_rt","background","block","canvas_backend","clock_backend","color_backend","compensation","coordinates","correct","correct_instruction1","correct_keyboard_response","correct_response","count_ISI","count_correctFeedback","count_experiment","count_experimentalLoop","count_expsequence","count_fixation","count_incorrectFeedback","count_instruction1","count_instruction2","count_instruction3","count_keyboard_response","count_logger","count_memoryset","count_practiceloop","count_probe","datetime","description","disable_garbage_collection","experiment_file","experiment_path","font_bold","font_family","font_italic","font_size","font_underline","foreground","form_clicks","fullscreen","height","keyboard_backend","live_row","live_row_practiceloop","logfile","mouse_backend","numberSet","opensesame_codename","opensesame_version","posInSet","present","repeat_cycle","response","response_instruction1","response_instruction2","response_instruction3","response_keyboard_response","response_time","response_time_instruction1","response_time_instruction2","response_time_instruction3","response_time_keyboard_response","round_decimals","sampler_backend","setSize","sound_buf_size","sound_channels","sound_freq","sound_sample_size","start","subject_nr","subject_parity","target","time_ISI","time_correctFeedback","time_experiment","time_experimentalLoop","time_expsequence","time_fixation","time_incorrectFeedback","time_instruction1","time_instruction2","time_instruction3","time_keyboard_response","time_logger","time_memoryset","time_practiceloop","time_probe","title","total_correct","total_response_time","total_responses","uniform_coordinates","width"
"100","100","599","599","black","practice","legacy","legacy","legacy","0","uniform","1","undefined","1","left","0","0","0","0","0","0","0","0","0","0","0","0","0","0","0","10/23/22 19:58:15","The main experiment item","yes","SternbergTask.osexp","C:/Users/casme/OneDrive/Desktop/Fall 2022","no","mono","no","18","no","white","no","yes","768","legacy","0","0","C:/Users/casme/OneDrive/Desktop/Fall 2022/IC-subjectx-3.csv","legacy","1 7 9 8 5","Lentiform Loewenfeld","3.3.12","4","y","0","left","left","NA","NA","left","599","52600","NA","NA","599","2","legacy","5","1024","2","48000","-16","experiment","3","odd","8","58270","NA","2536","NA","56066","56068","NA","2540","NA","NA","60272","60871","57069","55142","60272","Sternberg Task","1","599","1","yes","1024"
"50","50","464","464","black","practice","legacy","legacy","legacy","0","uniform","0","undefined","0","right","1","1","0","0","1","1","1","0","0","0","1","1","1","0","1","10/23/22 19:58:15","The main experiment item","yes","SternbergTask.osexp","C:/Users/casme/OneDrive/Desktop/Fall 2022","no","mono","no","18","no","white","no","yes","768","legacy","1","1","C:/Users/casme/OneDrive/Desktop/Fall 2022/IC-subjectx-3.csv","legacy","2 1","Lentiform Loewenfeld","3.3.12","0","n","0","left","left","NA","NA","left","329","52600","NA","NA","329","2","legacy","2","1024","2","48000","-16","experiment","3","odd","5","64197","60924","2536","NA","61992","61994","NA","2540","NA","NA","66199","66529","62996","55142","66198","Sternberg Task","1","928","2","yes","1024"
"66.6666666667","66.6666666667","455","455","black","practice","legacy","legacy","legacy","0","uniform","1","undefined","1","right","2","2","0","0","2","2","2","0","0","0","2","2","2","0","2","10/23/22 19:58:15","The main experiment item","yes","SternbergTask.osexp","C:/Users/casme/OneDrive/Desktop/Fall 2022","no","mono","no","18","no","white","no","yes","768","legacy","2","2","C:/Users/casme/OneDrive/Desktop/Fall 2022/IC-subjectx-3.csv","legacy","3 1 9 4","Lentiform Loewenfeld","3.3.12","0","n","0","right","left","NA","NA","right","437","52600","NA","NA","437","2","legacy","4","1024","2","48000","-16","experiment","3","odd","6","69807","60924","2536","NA","67603","67605","66535","2540","NA","NA","71808","72246","68606","55142","71808","Sternberg Task","2","1365","3","yes","1024"
"50","50","641.25","641.25","black","practice","legacy","legacy","legacy","0","uniform","0","undefined","0","left","3","3","0","0","3","3","3","0","0","0","3","3","3","0","3","10/23/22 19:58:15","The main experiment item","yes","SternbergTask.osexp","C:/Users/casme/OneDrive/Desktop/Fall 2022","no","mono","no","18","no","white","no","yes","768","legacy","3","3","C:/Users/casme/OneDrive/Desktop/Fall 2022/IC-subjectx-3.csv","legacy","2 9 4","Lentiform Loewenfeld","3.3.12","3","y","0","right","left","NA","NA","right","1200","52600","NA","NA","1200","2","legacy","3","1024","2","48000","-16","experiment","3","odd","4","75525","72252","2536","NA","73320","73322","66535","2540","NA","NA","77527","78728","74324","55142","77526","Sternberg Task","2","2565","4","yes","1024"
"60","60","592.6","592.6","black","practice","legacy","legacy","legacy","0","uniform","1","undefined","1","right","4","4","0","0","4","4","4","0","0","0","4","4","4","0","4","10/23/22 19:58:15","The main experiment item","yes","SternbergTask.osexp","C:/Users/casme/OneDrive/Desktop/Fall 2022","no","mono","no","18","no","white","no","yes","768","legacy","4","4","C:/Users/casme/OneDrive/Desktop/Fall 2022/IC-subjectx-3.csv","legacy","5","Lentiform Loewenfeld","3.3.12","0","n","0","right","left","NA","NA","right","398","52600","NA","NA","398","2","legacy","1","1024","2","48000","-16","experiment","3","odd","3","82005","72252","2536","NA","79800","79802","78734","2540","NA","NA","84007","84406","80804","55142","84006","Sternberg Task","3","2963","5","yes","1024"
"66.6666666667","66.6666666667","628.5","628.5","black","practice","legacy","legacy","legacy","0","uniform","1","undefined","1","right","5","5","0","0","5","5","5","0","0","0","5","5","5","0","5","10/23/22 19:58:15","The main experiment item","yes","SternbergTask.osexp","C:/Users/casme/OneDrive/Desktop/Fall 2022","no","mono","no","18","no","white","no","yes","768","legacy","5","5","C:/Users/casme/OneDrive/Desktop/Fall 2022/IC-subjectx-3.csv","legacy","5 7 8 4 1 2","Lentiform Loewenfeld","3.3.12","0","n","0","right","left","NA","NA","right","808","52600","NA","NA","808","2","legacy","6","1024","2","48000","-16","experiment","3","odd","6","87679","84412","2536","NA","85475","85477","78734","2540","NA","NA","89681","90489","86478","55142","89680","Sternberg Task","4","3771","6","yes","1024"
"71.4285714286","71.4285714286","603.285714286","603.285714286","black","practice","legacy","legacy","legacy","0","uniform","1","undefined","1","left","6","6","0","0","6","6","6","0","0","0","6","6","6","0","6","10/23/22 19:58:15","The main experiment item","yes","SternbergTask.osexp","C:/Users/casme/OneDrive/Desktop/Fall 2022","no","mono","no","18","no","white","no","yes","768","legacy","6","6","C:/Users/casme/OneDrive/Desktop/Fall 2022/IC-subjectx-3.csv","legacy","6","Lentiform Loewenfeld","3.3.12","1","y","0","left","left","NA","NA","left","452","52600","NA","NA","452","2","legacy","1","1024","2","48000","-16","experiment","3","odd","6","93764","90495","2536","NA","91560","91562","78734","2540","NA","NA","95765","96218","92563","55142","95765","Sternberg Task","5","4223","7","yes","1024"
"62.5","62.5","777.875","777.875","black","practice","legacy","legacy","legacy","0","uniform","0","undefined","0","right","7","7","0","0","7","7","7","0","0","0","7","7","7","0","7","10/23/22 19:58:15","The main experiment item","yes","SternbergTask.osexp","C:/Users/casme/OneDrive/Desktop/Fall 2022","no","mono","no","18","no","white","no","yes","768","legacy","7","7","C:/Users/casme/OneDrive/Desktop/Fall 2022/IC-subjectx-3.csv","legacy","9 6 7 4 5","Lentiform Loewenfeld","3.3.12","0","n","0","None","left","NA","NA","None","2000","52600","NA","NA","2000","2","legacy","5","1024","2","48000","-16","experiment","3","odd","3","99490","96224","2536","NA","97286","97288","78734","2540","NA","NA","101493","103493","98289","55142","101493","Sternberg Task","5","6223","8","yes","1024"
"55.5555555556","55.5555555556","913.666666667","913.666666667","black","practice","legacy","legacy","legacy","0","uniform","0","undefined","0","right","8","8","0","0","8","8","8","0","0","0","8","8","8","0","8","10/23/22 19:58:15","The main experiment item","yes","SternbergTask.osexp","C:/Users/casme/OneDrive/Desktop/Fall 2022","no","mono","no","18","no","white","no","yes","768","legacy","8","8","C:/Users/casme/OneDrive/Desktop/Fall 2022/IC-subjectx-3.csv","legacy","4 1 5","Lentiform Loewenfeld","3.3.12","0","n","0","None","left","NA","NA","None","2000","52600","NA","NA","2000","2","legacy","3","1024","2","48000","-16","experiment","3","odd","2","106774","96224","2536","NA","104569","104571","103499","2540","NA","NA","108775","110775","105573","55142","108775","Sternberg Task","5","8223","9","yes","1024"
"60","60","887.6","887.6","black","practice","legacy","legacy","legacy","0","uniform","1","undefined","1","left","9","9","0","0","9","9","9","0","0","0","9","9","9","0","9","10/23/22 19:58:15","The main experiment item","yes","SternbergTask.osexp","C:/Users/casme/OneDrive/Desktop/Fall 2022","no","mono","no","18","no","white","no","yes","768","legacy","9","9","C:/Users/casme/OneDrive/Desktop/Fall 2022/IC-subjectx-3.csv","legacy","1 5 2 9","Lentiform Loewenfeld","3.3.12","2","y","0","left","left","NA","NA","left","653","52600","NA","NA","653","2","legacy","4","1024","2","48000","-16","experiment","3","odd","5","114049","96224","2536","NA","111844","111846","110781","2540","NA","NA","116050","116704","112847","55142","116050","Sternberg Task","6","8876","10","yes","1024"
"54.5454545455","54.5454545455","988.727272727","988.727272727","black","practice","legacy","legacy","legacy","0","uniform","0","undefined","0","left","10","10","0","0","10","10","10","0","0","0","10","10","10","0","10","10/23/22 19:58:15","The main experiment item","yes","SternbergTask.osexp","C:/Users/casme/OneDrive/Desktop/Fall 2022","no","mono","no","18","no","white","no","yes","768","legacy","10","10","C:/Users/casme/OneDrive/Desktop/Fall 2022/IC-subjectx-3.csv","legacy","4 8","Lentiform Loewenfeld","3.3.12","1","y","0","None","left","NA","NA","None","2000","52600","NA","NA","2000","2","legacy","2","1024","2","48000","-16","experiment","3","odd","4","119976","116709","2536","NA","117772","117774","110781","2540","NA","NA","121977","123977","118775","55142","121977","Sternberg Task","6","10876","11","yes","1024"
"58.3333333333","58.3333333333","987.583333333","987.583333333","black","practice","legacy","legacy","legacy","0","uniform","1","undefined","1","left","11","11","0","0","11","11","11","0","0","0","11","11","11","0","11","10/23/22 19:58:15","The main experiment item","yes","SternbergTask.osexp","C:/Users/casme/OneDrive/Desktop/Fall 2022","no","mono","no","18","no","white","no","yes","768","legacy","11","11","C:/Users/casme/OneDrive/Desktop/Fall 2022/IC-subjectx-3.csv","legacy","4 3 1 7 9 8","Lentiform Loewenfeld","3.3.12","1","y","0","left","left","NA","NA","left","975","52600","NA","NA","975","2","legacy","6","1024","2","48000","-16","experiment","3","odd","4","127254","116709","2536","NA","125049","125050","123983","2540","NA","NA","129255","130230","126051","55142","129255","Sternberg Task","7","11851","12","yes","1024"
"53.8461538462","53.8461538462","961.461538462","961.461538462","black","experiment","legacy","legacy","legacy","0","uniform","0","undefined","0","left","12","12","0","0","12","12","12","0","0","0","12","12","12","0","12","10/23/22 19:58:15","The main experiment item","yes","SternbergTask.osexp","C:/Users/casme/OneDrive/Desktop/Fall 2022","no","mono","no","18","no","white","no","yes","768","legacy","0","11","C:/Users/casme/OneDrive/Desktop/Fall 2022/IC-subjectx-3.csv","legacy","7 4 2 6 3 5","Lentiform Loewenfeld","3.3.12","6","y","0","right","left","right","NA","right","648","52600","6872","NA","648","2","legacy","6","1024","2","48000","-16","experiment","3","odd","5","140405","130236","2536","138123","138200","138202","123983","2540","131250","NA","142407","143056","139204","55142","142406","Sternberg Task","7","12499","13","yes","1024"
"57.1428571429","57.1428571429","913.642857143","913.642857143","black","experiment","legacy","legacy","legacy","0","uniform","1","undefined","1","left","13","13","0","0","13","13","13","0","0","0","13","13","13","0","13","10/23/22 19:58:15","The main experiment item","yes","SternbergTask.osexp","C:/Users/casme/OneDrive/Desktop/Fall 2022","no","mono","no","18","no","white","no","yes","768","legacy","1","11","C:/Users/casme/OneDrive/Desktop/Fall 2022/IC-subjectx-3.csv","legacy","4 1 8 7 5","Lentiform Loewenfeld","3.3.12","3","y","0","left","left","right","NA","left","292","52600","6872","NA","292","2","legacy","5","1024","2","48000","-16","experiment","3","odd","8","146329","130236","2536","138123","144125","144127","143061","2540","131250","NA","148330","148622","145128","55142","148330","Sternberg Task","8","12791","14","yes","1024"
"60","60","909.733333333","909.733333333","black","experiment","legacy","legacy","legacy","0","uniform","1","undefined","1","left","14","14","0","0","14","14","14","0","0","0","14","14","14","0","14","10/23/22 19:58:15","The main experiment item","yes","SternbergTask.osexp","C:/Users/casme/OneDrive/Desktop/Fall 2022","no","mono","no","18","no","white","no","yes","768","legacy","2","11","C:/Users/casme/OneDrive/Desktop/Fall 2022/IC-subjectx-3.csv","legacy","2 4 6 9","Lentiform Loewenfeld","3.3.12","3","y","0","left","left","right","NA","left","855","52600","6872","NA","855","2","legacy","4","1024","2","48000","-16","experiment","3","odd","6","151895","148628","2536","138123","149691","149693","143061","2540","131250","NA","153898","154754","150694","55142","153897","Sternberg Task","9","13646","15","yes","1024"
"56.25","56.25","977.875","977.875","black","experiment","legacy","legacy","legacy","0","uniform","0","undefined","0","right","15","15","0","0","15","15","15","0","0","0","15","15","15","0","15","10/23/22 19:58:15","The main experiment item","yes","SternbergTask.osexp","C:/Users/casme/OneDrive/Desktop/Fall 2022","no","mono","no","18","no","white","no","yes","768","legacy","3","11","C:/Users/casme/OneDrive/Desktop/Fall 2022/IC-subjectx-3.csv","legacy","8 4 3 9","Lentiform Loewenfeld","3.3.12","0","n","0","None","left","right","NA","None","2000","52600","6872","NA","2000","2","legacy","4","1024","2","48000","-16","experiment","3","odd","5","158026","154759","2536","138123","155822","155824","143061","2540","131250","NA","160027","162027","156825","55142","160027","Sternberg Task","9","15646","16","yes","1024"
"58.8235294118","58.8235294118","952.352941176","952.352941176","black","experiment","legacy","legacy","legacy","0","uniform","1","undefined","1","right","16","16","0","0","16","16","16","0","0","0","16","16","16","0","16","10/23/22 19:58:15","The main experiment item","yes","SternbergTask.osexp","C:/Users/casme/OneDrive/Desktop/Fall 2022","no","mono","no","18","no","white","no","yes","768","legacy","4","11","C:/Users/casme/OneDrive/Desktop/Fall 2022/IC-subjectx-3.csv","legacy","4 8 1 2","Lentiform Loewenfeld","3.3.12","0","n","0","right","left","right","NA","right","544","52600","6872","NA","544","2","legacy","4","1024","2","48000","-16","experiment","3","odd","7","165301","154759","2536","138123","163097","163099","162033","2540","131250","NA","167304","167848","164100","55142","167303","Sternberg Task","10","16190","17","yes","1024"
"61.1111111111","61.1111111111","939.722222222","939.722222222","black","experiment","legacy","legacy","legacy","0","uniform","1","undefined","1","left","17","17","0","0","17","17","17","0","0","0","17","17","17","0","17","10/23/22 19:58:15","The main experiment item","yes","SternbergTask.osexp","C:/Users/casme/OneDrive/Desktop/Fall 2022","no","mono","no","18","no","white","no","yes","768","legacy","5","11","C:/Users/casme/OneDrive/Desktop/Fall 2022/IC-subjectx-3.csv","legacy","8 5 1 3 9","Lentiform Loewenfeld","3.3.12","4","y","0","left","left","right","NA","left","725","52600","6872","NA","725","2","legacy","5","1024","2","48000","-16","experiment","3","odd","3","171126","167854","2536","138123","168922","168924","162033","2540","131250","NA","173127","173853","169925","55142","173127","Sternberg Task","11","16915","18","yes","1024"
"63.1578947368","63.1578947368","938.368421053","938.368421053","black","experiment","legacy","legacy","legacy","0","uniform","1","undefined","1","right","18","18","0","0","18","18","18","0","0","0","18","18","18","0","18","10/23/22 19:58:15","The main experiment item","yes","SternbergTask.osexp","C:/Users/casme/OneDrive/Desktop/Fall 2022","no","mono","no","18","no","white","no","yes","768","legacy","6","11","C:/Users/casme/OneDrive/Desktop/Fall 2022/IC-subjectx-3.csv","legacy","6 2 9 3 8 4","Lentiform Loewenfeld","3.3.12","0","n","0","right","left","right","NA","right","914","52600","6872","NA","914","2","legacy","6","1024","2","48000","-16","experiment","3","odd","1","177126","173858","2536","138123","174922","174924","162033","2540","131250","NA","179129","180044","175925","55142","179129","Sternberg Task","12","17829","19","yes","1024"
"60","60","991.45","991.45","black","experiment","legacy","legacy","legacy","0","uniform","0","undefined","0","right","19","19","0","0","19","19","19","0","0","0","19","19","19","0","19","10/23/22 19:58:15","The main experiment item","yes","SternbergTask.osexp","C:/Users/casme/OneDrive/Desktop/Fall 2022","no","mono","no","18","no","white","no","yes","768","legacy","7","11","C:/Users/casme/OneDrive/Desktop/Fall 2022/IC-subjectx-3.csv","legacy","6 8","Lentiform Loewenfeld","3.3.12","0","n","0","None","left","right","NA","None","2000","52600","6872","NA","2000","2","legacy","2","1024","2","48000","-16","experiment","3","odd","9","183317","180051","2536","138123","181114","181116","162033","2540","131250","NA","185320","187320","182117","55142","185319","Sternberg Task","12","19829","20","yes","1024"
"61.9047619048","61.9047619048","994.761904762","994.761904762","black","experiment","legacy","legacy","legacy","0","uniform","1","undefined","1","left","20","20","0","0","20","20","20","0","0","0","20","20","20","0","20","10/23/22 19:58:15","The main experiment item","yes","SternbergTask.osexp","C:/Users/casme/OneDrive/Desktop/Fall 2022","no","mono","no","18","no","white","no","yes","768","legacy","8","11","C:/Users/casme/OneDrive/Desktop/Fall 2022/IC-subjectx-3.csv","legacy","8 9 5 7 1 6","Lentiform Loewenfeld","3.3.12","4","y","0","left","left","right","NA","left","1061","52600","6872","NA","1061","2","legacy","6","1024","2","48000","-16","experiment","3","odd","7","190593","180051","2536","138123","188389","188390","187325","2540","131250","NA","192594","193656","189391","55142","192594","Sternberg Task","13","20890","21","yes","1024"
"59.0909090909","59.0909090909","1040.45454545","1040.45454545","black","experiment","legacy","legacy","legacy","0","uniform","0","undefined","0","left","21","21","0","0","21","21","21","0","0","0","21","21","21","0","21","10/23/22 19:58:15","The main experiment item","yes","SternbergTask.osexp","C:/Users/casme/OneDrive/Desktop/Fall 2022","no","mono","no","18","no","white","no","yes","768","legacy","9","11","C:/Users/casme/OneDrive/Desktop/Fall 2022/IC-subjectx-3.csv","legacy","4 9 7 8 5 3","Lentiform Loewenfeld","3.3.12","4","y","0","None","left","right","NA","None","2000","52600","6872","NA","2000","2","legacy","6","1024","2","48000","-16","experiment","3","odd","8","196929","193661","2536","138123","194725","194727","187325","2540","131250","NA","198930","200930","195728","55142","198930","Sternberg Task","13","22890","22","yes","1024"
"60.8695652174","60.8695652174","1025.34782609","1025.34782609","black","experiment","legacy","legacy","legacy","0","uniform","1","undefined","1","left","22","22","0","0","22","22","22","0","0","0","22","22","22","0","22","10/23/22 19:58:15","The main experiment item","yes","SternbergTask.osexp","C:/Users/casme/OneDrive/Desktop/Fall 2022","no","mono","no","18","no","white","no","yes","768","legacy","10","11","C:/Users/casme/OneDrive/Desktop/Fall 2022/IC-subjectx-3.csv","legacy","5 2 6","Lentiform Loewenfeld","3.3.12","2","y","0","left","left","right","NA","left","693","52600","6872","NA","693","2","legacy","3","1024","2","48000","-16","experiment","3","odd","2","204201","193661","2536","138123","201998","201999","200935","2540","131250","NA","206203","206896","203000","55142","206203","Sternberg Task","14","23583","23","yes","1024"
"62.5","62.5","1004","1004","black","experiment","legacy","legacy","legacy","0","uniform","1","undefined","1","left","23","23","0","0","23","23","23","0","0","0","23","23","23","0","23","10/23/22 19:58:15","The main experiment item","yes","SternbergTask.osexp","C:/Users/casme/OneDrive/Desktop/Fall 2022","no","mono","no","18","no","white","no","yes","768","legacy","11","11","C:/Users/casme/OneDrive/Desktop/Fall 2022/IC-subjectx-3.csv","legacy","8 9 5 6 7","Lentiform Loewenfeld","3.3.12","1","y","0","left","left","right","NA","left","513","52600","6872","NA","513","2","legacy","5","1024","2","48000","-16","experiment","3","odd","8","210170","206902","2536","138123","207966","207968","200935","2540","131250","NA","212171","212684","208969","55142","212171","Sternberg Task","15","24096","24","yes","1024"
"64","64","983.64","983.64","black","experiment","legacy","legacy","legacy","0","uniform","1","undefined","1","left","24","24","0","0","24","24","24","0","0","0","24","24","24","0","24","10/23/22 19:58:15","The main experiment item","yes","SternbergTask.osexp","C:/Users/casme/OneDrive/Desktop/Fall 2022","no","mono","no","18","no","white","no","yes","768","legacy","12","11","C:/Users/casme/OneDrive/Desktop/Fall 2022/IC-subjectx-3.csv","legacy","9 5 8 1","Lentiform Loewenfeld","3.3.12","2","y","0","left","left","right","NA","left","495","52600","6872","NA","495","2","legacy","4","1024","2","48000","-16","experiment","3","odd","5","215958","212690","2536","138123","213754","213756","200935","2540","131250","NA","217959","218454","214757","55142","217959","Sternberg Task","16","24591","25","yes","1024"
"65.3846153846","65.3846153846","979.961538462","979.961538462","black","experiment","legacy","legacy","legacy","0","uniform","1","undefined","1","right","25","25","0","0","25","25","25","0","0","0","25","25","25","0","25","10/23/22 19:58:15","The main experiment item","yes","SternbergTask.osexp","C:/Users/casme/OneDrive/Desktop/Fall 2022","no","mono","no","18","no","white","no","yes","768","legacy","13","11","C:/Users/casme/OneDrive/Desktop/Fall 2022/IC-subjectx-3.csv","legacy","8 2 1 4 5 9","Lentiform Loewenfeld","3.3.12","0","n","0","right","left","right","NA","right","888","52600","6872","NA","888","2","legacy","6","1024","2","48000","-16","experiment","3","odd","7","221727","218460","2536","138123","219523","219525","200935","2540","131250","NA","223728","224616","220526","55142","223728","Sternberg Task","17","25479","26","yes","1024"
"66.6666666667","66.6666666667","967.518518519","967.518518519","black","experiment","legacy","legacy","legacy","0","uniform","1","undefined","1","left","26","26","0","0","26","26","26","0","0","0","26","26","26","0","26","10/23/22 19:58:15","The main experiment item","yes","SternbergTask.osexp","C:/Users/casme/OneDrive/Desktop/Fall 2022","no","mono","no","18","no","white","no","yes","768","legacy","14","11","C:/Users/casme/OneDrive/Desktop/Fall 2022/IC-subjectx-3.csv","legacy","7 1 3","Lentiform Loewenfeld","3.3.12","2","y","0","left","left","right","NA","left","644","52600","6872","NA","644","2","legacy","3","1024","2","48000","-16","experiment","3","odd","1","227890","224622","2536","138123","225686","225688","200935","2540","131250","NA","229892","230537","226689","55142","229892","Sternberg Task","18","26123","27","yes","1024"
"67.8571428571","67.8571428571","956.071428571","956.071428571","black","experiment","legacy","legacy","legacy","0","uniform","1","undefined","1","left","27","27","0","0","27","27","27","0","0","0","27","27","27","0","27","10/23/22 19:58:15","The main experiment item","yes","SternbergTask.osexp","C:/Users/casme/OneDrive/Desktop/Fall 2022","no","mono","no","18","no","white","no","yes","768","legacy","15","11","C:/Users/casme/OneDrive/Desktop/Fall 2022/IC-subjectx-3.csv","legacy","4 3 2 5 8","Lentiform Loewenfeld","3.3.12","2","y","0","left","left","right","NA","left","647","52600","6872","NA","647","2","legacy","5","1024","2","48000","-16","experiment","3","odd","3","233809","230542","2536","138123","231606","231607","200935","2540","131250","NA","235810","236458","232608","55142","235810","Sternberg Task","19","26770","28","yes","1024"
"68.9655172414","68.9655172414","950.310344828","950.310344828","black","experiment","legacy","legacy","legacy","0","uniform","1","undefined","1","left","28","28","0","0","28","28","28","0","0","0","28","28","28","0","28","10/23/22 19:58:15","The main experiment item","yes","SternbergTask.osexp","C:/Users/casme/OneDrive/Desktop/Fall 2022","no","mono","no","18","no","white","no","yes","768","legacy","16","11","C:/Users/casme/OneDrive/Desktop/Fall 2022/IC-subjectx-3.csv","legacy","9 4 2","Lentiform Loewenfeld","3.3.12","1","y","0","left","left","right","NA","left","789","52600","6872","NA","789","2","legacy","3","1024","2","48000","-16","experiment","3","odd","9","239736","236464","2536","138123","237532","237534","200935","2540","131250","NA","241739","242528","238535","55142","241738","Sternberg Task","20","27559","29","yes","1024"
"70","70","945.6","945.6","black","experiment","legacy","legacy","legacy","0","uniform","1","undefined","1","left","29","29","0","0","29","29","29","0","0","0","29","29","29","0","29","10/23/22 19:58:15","The main experiment item","yes","SternbergTask.osexp","C:/Users/casme/OneDrive/Desktop/Fall 2022","no","mono","no","18","no","white","no","yes","768","legacy","17","11","C:/Users/casme/OneDrive/Desktop/Fall 2022/IC-subjectx-3.csv","legacy","9 1 7 2","Lentiform Loewenfeld","3.3.12","2","y","0","left","left","right","NA","left","809","52600","6872","NA","809","2","legacy","4","1024","2","48000","-16","experiment","3","odd","1","245804","242534","2536","138123","243598","243600","200935","2540","131250","NA","247806","248615","244602","55142","247805","Sternberg Task","21","28368","30","yes","1024"
"67.7419354839","67.7419354839","966.129032258","966.129032258","black","experiment","legacy","legacy","legacy","0","uniform","0","undefined","0","left","30","30","0","0","30","30","30","0","0","0","30","30","30","0","30","10/23/22 19:58:15","The main experiment item","yes","SternbergTask.osexp","C:/Users/casme/OneDrive/Desktop/Fall 2022","no","mono","no","18","no","white","no","yes","768","legacy","18","11","C:/Users/casme/OneDrive/Desktop/Fall 2022/IC-subjectx-3.csv","legacy","7","Lentiform Loewenfeld","3.3.12","1","y","0","right","left","right","NA","right","1582","52600","6872","NA","1582","2","legacy","1","1024","2","48000","-16","experiment","3","odd","7","251889","248621","2536","138123","249686","249687","200935","2540","131250","NA","253890","255473","250688","55142","253890","Sternberg Task","21","29950","31","yes","1024"
"65.625","65.625","959.03125","959.03125","black","experiment","legacy","legacy","legacy","0","uniform","0","undefined","0","right","31","31","0","0","31","31","31","0","0","0","31","31","31","0","31","10/23/22 19:58:15","The main experiment item","yes","SternbergTask.osexp","C:/Users/casme/OneDrive/Desktop/Fall 2022","no","mono","no","18","no","white","no","yes","768","legacy","19","11","C:/Users/casme/OneDrive/Desktop/Fall 2022/IC-subjectx-3.csv","legacy","1 4 9 2 5","Lentiform Loewenfeld","3.3.12","0","n","0","left","left","right","NA","left","739","52600","6872","NA","739","2","legacy","5","1024","2","48000","-16","experiment","3","odd","7","258748","248621","2536","138123","256544","256546","255479","2540","131250","NA","260749","261488","257547","55142","260749","Sternberg Task","21","30689","32","yes","1024"
"66.6666666667","66.6666666667","954.696969697","954.696969697","black","experiment","legacy","legacy","legacy","0","uniform","1","undefined","1","right","32","32","0","0","32","32","32","0","0","0","32","32","32","0","32","10/23/22 19:58:15","The main experiment item","yes","SternbergTask.osexp","C:/Users/casme/OneDrive/Desktop/Fall 2022","no","mono","no","18","no","white","no","yes","768","legacy","20","11","C:/Users/casme/OneDrive/Desktop/Fall 2022/IC-subjectx-3.csv","legacy","7 1 5 6 3","Lentiform Loewenfeld","3.3.12","0","n","0","right","left","right","NA","right","816","52600","6872","NA","816","2","legacy","5","1024","2","48000","-16","experiment","3","odd","8","264764","248621","2536","138123","262559","262561","261494","2540","131250","NA","266766","267583","263563","55142","266766","Sternberg Task","22","31505","33","yes","1024"
"64.7058823529","64.7058823529","947.205882353","947.205882353","black","experiment","legacy","legacy","legacy","0","uniform","0","undefined","0","right","33","33","0","0","33","33","33","0","0","0","33","33","33","0","33","10/23/22 19:58:15","The main experiment item","yes","SternbergTask.osexp","C:/Users/casme/OneDrive/Desktop/Fall 2022","no","mono","no","18","no","white","no","yes","768","legacy","21","11","C:/Users/casme/OneDrive/Desktop/Fall 2022/IC-subjectx-3.csv","legacy","1 5 3 2 8","Lentiform Loewenfeld","3.3.12","0","n","0","left","left","right","NA","left","700","52600","6872","NA","700","2","legacy","5","1024","2","48000","-16","experiment","3","odd","4","270865","267588","2536","138123","268660","268662","261494","2540","131250","NA","272866","273566","269664","55142","272866","Sternberg Task","22","32205","34","yes","1024"
"65.7142857143","65.7142857143","954.514285714","954.514285714","black","experiment","legacy","legacy","legacy","0","uniform","1","undefined","1","right","34","34","0","0","34","34","34","0","0","0","34","34","34","0","34","10/23/22 19:58:15","The main experiment item","yes","SternbergTask.osexp","C:/Users/casme/OneDrive/Desktop/Fall 2022","no","mono","no","18","no","white","no","yes","768","legacy","22","11","C:/Users/casme/OneDrive/Desktop/Fall 2022/IC-subjectx-3.csv","legacy","1 7 8 3 9","Lentiform Loewenfeld","3.3.12","0","n","0","right","left","right","NA","right","1203","52600","6872","NA","1203","2","legacy","5","1024","2","48000","-16","experiment","3","odd","2","276841","267588","2536","138123","274637","274639","273572","2540","131250","NA","278843","280047","275640","55142","278843","Sternberg Task","23","33408","35","yes","1024"
"66.6666666667","66.6666666667","940.833333333","940.833333333","black","experiment","legacy","legacy","legacy","0","uniform","1","undefined","1","left","35","35","0","0","35","35","35","0","0","0","35","35","35","0","35","10/23/22 19:58:15","The main experiment item","yes","SternbergTask.osexp","C:/Users/casme/OneDrive/Desktop/Fall 2022","no","mono","no","18","no","white","no","yes","768","legacy","23","11","C:/Users/casme/OneDrive/Desktop/Fall 2022/IC-subjectx-3.csv","legacy","6 2","Lentiform Loewenfeld","3.3.12","1","y","0","left","left","right","NA","left","462","52600","6872","NA","462","2","legacy","2","1024","2","48000","-16","experiment","3","odd","6","283329","280058","2536","138123","281125","281127","273572","2540","131250","NA","285330","285793","282128","55142","285330","Sternberg Task","24","33870","36","yes","1024"
"64.8648648649","64.8648648649","936.540540541","936.540540541","black","experiment","legacy","legacy","legacy","0","uniform","0","undefined","0","left","36","36","0","0","36","36","36","0","0","0","36","36","36","0","36","10/23/22 19:58:15","The main experiment item","yes","SternbergTask.osexp","C:/Users/casme/OneDrive/Desktop/Fall 2022","no","mono","no","18","no","white","no","yes","768","legacy","24","11","C:/Users/casme/OneDrive/Desktop/Fall 2022/IC-subjectx-3.csv","legacy","9 3 1 2 5","Lentiform Loewenfeld","3.3.12","4","y","0","right","left","right","NA","right","782","52600","6872","NA","782","2","legacy","5","1024","2","48000","-16","experiment","3","odd","2","289067","285799","2536","138123","286861","286864","273572","2540","131250","NA","291068","291851","287865","55142","291068","Sternberg Task","24","34652","37","yes","1024"
"65.7894736842","65.7894736842","933.842105263","933.842105263","black","experiment","legacy","legacy","legacy","0","uniform","1","undefined","1","right","37","37","0","0","37","37","37","0","0","0","37","37","37","0","37","10/23/22 19:58:15","The main experiment item","yes","SternbergTask.osexp","C:/Users/casme/OneDrive/Desktop/Fall 2022","no","mono","no","18","no","white","no","yes","768","legacy","25","11","C:/Users/casme/OneDrive/Desktop/Fall 2022/IC-subjectx-3.csv","legacy","7 4 2 8 1 9","Lentiform Loewenfeld","3.3.12","0","n","0","right","left","right","NA","right","834","52600","6872","NA","834","2","legacy","6","1024","2","48000","-16","experiment","3","odd","5","295135","285799","2536","138123","292931","292933","291856","2540","131250","NA","297136","297970","293934","55142","297136","Sternberg Task","25","35486","38","yes","1024"
"66.6666666667","66.6666666667","935.743589744","935.743589744","black","experiment","legacy","legacy","legacy","0","uniform","1","undefined","1","left","38","38","0","0","38","38","38","0","0","0","38","38","38","0","38","10/23/22 19:58:15","The main experiment item","yes","SternbergTask.osexp","C:/Users/casme/OneDrive/Desktop/Fall 2022","no","mono","no","18","no","white","no","yes","768","legacy","26","11","C:/Users/casme/OneDrive/Desktop/Fall 2022/IC-subjectx-3.csv","legacy","6 9 3 1","Lentiform Loewenfeld","3.3.12","4","y","0","left","left","right","NA","left","1008","52600","6872","NA","1008","2","legacy","4","1024","2","48000","-16","experiment","3","odd","1","301244","297976","2536","138123","299039","299041","291856","2540","131250","NA","303245","304254","300043","55142","303245","Sternberg Task","26","36494","39","yes","1024"
"65","65","949.45","949.45","black","experiment","legacy","legacy","legacy","0","uniform","0","undefined","0","right","39","39","0","0","39","39","39","0","0","0","39","39","39","0","39","10/23/22 19:58:15","The main experiment item","yes","SternbergTask.osexp","C:/Users/casme/OneDrive/Desktop/Fall 2022","no","mono","no","18","no","white","no","yes","768","legacy","27","11","C:/Users/casme/OneDrive/Desktop/Fall 2022/IC-subjectx-3.csv","legacy","3 9 8 1 6 4","Lentiform Loewenfeld","3.3.12","0","n","0","left","left","right","NA","left","1484","52600","6872","NA","1484","2","legacy","6","1024","2","48000","-16","experiment","3","odd","7","307528","304260","2536","138123","305324","305326","291856","2540","131250","NA","309529","311014","306327","55142","309529","Sternberg Task","26","37978","40","yes","1024"
"63.4146341463","63.4146341463","975.073170732","975.073170732","black","experiment","legacy","legacy","legacy","0","uniform","0","undefined","0","right","40","40","0","0","40","40","40","0","0","0","40","40","40","0","40","10/23/22 19:58:15","The main experiment item","yes","SternbergTask.osexp","C:/Users/casme/OneDrive/Desktop/Fall 2022","no","mono","no","18","no","white","no","yes","768","legacy","28","11","C:/Users/casme/OneDrive/Desktop/Fall 2022/IC-subjectx-3.csv","legacy","7 9","Lentiform Loewenfeld","3.3.12","0","n","0","None","left","right","NA","None","2000","52600","6872","NA","2000","2","legacy","2","1024","2","48000","-16","experiment","3","odd","1","314287","304260","2536","138123","312083","312085","311019","2540","131250","NA","316289","318289","313086","55142","316289","Sternberg Task","26","39978","41","yes","1024"
"64.2857142857","64.2857142857","964.904761905","964.904761905","black","experiment","legacy","legacy","legacy","0","uniform","1","undefined","1","right","41","41","0","0","41","41","41","0","0","0","41","41","41","0","41","10/23/22 19:58:15","The main experiment item","yes","SternbergTask.osexp","C:/Users/casme/OneDrive/Desktop/Fall 2022","no","mono","no","18","no","white","no","yes","768","legacy","29","11","C:/Users/casme/OneDrive/Desktop/Fall 2022/IC-subjectx-3.csv","legacy","8 9","Lentiform Loewenfeld","3.3.12","0","n","0","right","left","right","NA","right","548","52600","6872","NA","548","2","legacy","2","1024","2","48000","-16","experiment","3","odd","5","321564","304260","2536","138123","319360","319361","318295","2540","131250","NA","323566","324115","320363","55142","323565","Sternberg Task","27","40526","42","yes","1024"
"65.1162790698","65.1162790698","956.093023256","956.093023256","black","experiment","legacy","legacy","legacy","0","uniform","1","undefined","1","right","42","42","0","0","42","42","42","0","0","0","42","42","42","0","42","10/23/22 19:58:15","The main experiment item","yes","SternbergTask.osexp","C:/Users/casme/OneDrive/Desktop/Fall 2022","no","mono","no","18","no","white","no","yes","768","legacy","30","11","C:/Users/casme/OneDrive/Desktop/Fall 2022/IC-subjectx-3.csv","legacy","7 1","Lentiform Loewenfeld","3.3.12","0","n","0","right","left","right","NA","right","586","52600","6872","NA","586","2","legacy","2","1024","2","48000","-16","experiment","3","odd","8","327395","324121","2536","138123","325190","325192","318295","2540","131250","NA","329397","329983","326193","55142","329397","Sternberg Task","28","41112","43","yes","1024"
"63.6363636364","63.6363636364","979.818181818","979.818181818","black","experiment","legacy","legacy","legacy","0","uniform","0","undefined","0","left","43","43","0","0","43","43","43","0","0","0","43","43","43","0","43","10/23/22 19:58:15","The main experiment item","yes","SternbergTask.osexp","C:/Users/casme/OneDrive/Desktop/Fall 2022","no","mono","no","18","no","white","no","yes","768","legacy","31","11","C:/Users/casme/OneDrive/Desktop/Fall 2022/IC-subjectx-3.csv","legacy","9 1 6 7 8","Lentiform Loewenfeld","3.3.12","1","y","0","None","left","right","NA","None","2000","52600","6872","NA","2000","2","legacy","5","1024","2","48000","-16","experiment","3","odd","9","333257","329989","2536","138123","331052","331055","318295","2540","131250","NA","335258","337258","332056","55142","335258","Sternberg Task","28","43112","44","yes","1024"
"62.2222222222","62.2222222222","1002.48888889","1002.48888889","black","experiment","legacy","legacy","legacy","0","uniform","0","undefined","0","right","44","44","0","0","44","44","44","0","0","0","44","44","44","0","44","10/23/22 19:58:15","The main experiment item","yes","SternbergTask.osexp","C:/Users/casme/OneDrive/Desktop/Fall 2022","no","mono","no","18","no","white","no","yes","768","legacy","32","11","C:/Users/casme/OneDrive/Desktop/Fall 2022/IC-subjectx-3.csv","legacy","1","Lentiform Loewenfeld","3.3.12","0","n","0","None","left","right","NA","None","2000","52600","6872","NA","2000","2","legacy","1","1024","2","48000","-16","experiment","3","odd","7","340536","329989","2536","138123","338330","338332","337264","2540","131250","NA","342538","344538","339334","55142","342538","Sternberg Task","28","45112","45","yes","1024"
"63.0434782609","63.0434782609","990.543478261","990.543478261","black","experiment","legacy","legacy","legacy","0","uniform","1","undefined","1","left","45","45","0","0","45","45","45","0","0","0","45","45","45","0","45","10/23/22 19:58:15","The main experiment item","yes","SternbergTask.osexp","C:/Users/casme/OneDrive/Desktop/Fall 2022","no","mono","no","18","no","white","no","yes","768","legacy","33","11","C:/Users/casme/OneDrive/Desktop/Fall 2022/IC-subjectx-3.csv","legacy","8 7 3","Lentiform Loewenfeld","3.3.12","1","y","0","left","left","right","NA","left","453","52600","6872","NA","453","2","legacy","3","1024","2","48000","-16","experiment","3","odd","8","347810","329989","2536","138123","345607","345608","344544","2540","131250","NA","349812","350265","346609","55142","349811","Sternberg Task","29","45565","46","yes","1024"
"63.829787234","63.829787234","1000.23404255","1000.23404255","black","experiment","legacy","legacy","legacy","0","uniform","1","undefined","1","right","46","46","0","0","46","46","46","0","0","0","46","46","46","0","46","10/23/22 19:58:15","The main experiment item","yes","SternbergTask.osexp","C:/Users/casme/OneDrive/Desktop/Fall 2022","no","mono","no","18","no","white","no","yes","768","legacy","34","11","C:/Users/casme/OneDrive/Desktop/Fall 2022/IC-subjectx-3.csv","legacy","1 8 7","Lentiform Loewenfeld","3.3.12","0","n","0","right","left","right","NA","right","1446","52600","6872","NA","1446","2","legacy","3","1024","2","48000","-16","experiment","3","odd","4","353539","350270","2536","138123","351334","351336","344544","2540","131250","NA","355541","356988","352337","55142","355541","Sternberg Task","30","47011","47","yes","1024"
"62.5","62.5","1021.0625","1021.0625","black","experiment","legacy","legacy","legacy","0","uniform","0","undefined","0","right","47","47","0","0","47","47","47","0","0","0","47","47","47","0","47","10/23/22 19:58:15","The main experiment item","yes","SternbergTask.osexp","C:/Users/casme/OneDrive/Desktop/Fall 2022","no","mono","no","18","no","white","no","yes","768","legacy","35","11","C:/Users/casme/OneDrive/Desktop/Fall 2022/IC-subjectx-3.csv","legacy","8 5 7 3 6","Lentiform Loewenfeld","3.3.12","0","n","0","None","left","right","NA","None","2000","52600","6872","NA","2000","2","legacy","5","1024","2","48000","-16","experiment","3","odd","9","360264","356994","2536","138123","358059","358060","344544","2540","131250","NA","362266","364266","359063","55142","362265","Sternberg Task","30","49011","48","yes","1024"
"63.2653061224","63.2653061224","1012.93877551","1012.93877551","black","experiment","legacy","legacy","legacy","0","uniform","1","undefined","1","right","48","48","0","0","48","48","48","0","0","0","48","48","48","0","48","10/23/22 19:58:15","The main experiment item","yes","SternbergTask.osexp","C:/Users/casme/OneDrive/Desktop/Fall 2022","no","mono","no","18","no","white","no","yes","768","legacy","36","11","C:/Users/casme/OneDrive/Desktop/Fall 2022/IC-subjectx-3.csv","legacy","5 3 2 6 9 8","Lentiform Loewenfeld","3.3.12","0","n","0","right","left","right","NA","right","623","52600","6872","NA","623","2","legacy","6","1024","2","48000","-16","experiment","3","odd","4","367540","356994","2536","138123","365335","365337","364272","2540","131250","NA","369541","370165","366338","55142","369541","Sternberg Task","31","49634","49","yes","1024"
"64","64","1006.28","1006.28","black","experiment","legacy","legacy","legacy","0","uniform","1","undefined","1","right","49","49","0","0","49","49","49","0","0","0","49","49","49","0","49","10/23/22 19:58:15","The main experiment item","yes","SternbergTask.osexp","C:/Users/casme/OneDrive/Desktop/Fall 2022","no","mono","no","18","no","white","no","yes","768","legacy","37","11","C:/Users/casme/OneDrive/Desktop/Fall 2022/IC-subjectx-3.csv","legacy","1 7 5 2","Lentiform Loewenfeld","3.3.12","0","n","0","right","left","right","NA","right","680","52600","6872","NA","680","2","legacy","4","1024","2","48000","-16","experiment","3","odd","3","373437","370170","2536","138123","371233","371235","364272","2540","131250","NA","375438","376119","372236","55142","375438","Sternberg Task","32","50314","50","yes","1024"
"64.7058823529","64.7058823529","998.725490196","998.725490196","black","experiment","legacy","legacy","legacy","0","uniform","1","undefined","1","right","50","50","0","0","50","50","50","0","0","0","50","50","50","0","50","10/23/22 19:58:15","The main experiment item","yes","SternbergTask.osexp","C:/Users/casme/OneDrive/Desktop/Fall 2022","no","mono","no","18","no","white","no","yes","768","legacy","38","11","C:/Users/casme/OneDrive/Desktop/Fall 2022/IC-subjectx-3.csv","legacy","5","Lentiform Loewenfeld","3.3.12","0","n","0","right","left","right","NA","right","621","52600","6872","NA","621","2","legacy","1","1024","2","48000","-16","experiment","3","odd","8","379395","376125","2536","138123","377190","377192","364272","2540","131250","NA","381396","382018","378194","55142","381396","Sternberg Task","33","50935","51","yes","1024"
"63.4615384615","63.4615384615","1017.98076923","1017.98076923","black","experiment","legacy","legacy","legacy","0","uniform","0","undefined","0","left","51","51","0","0","51","51","51","0","0","0","51","51","51","0","51","10/23/22 19:58:15","The main experiment item","yes","SternbergTask.osexp","C:/Users/casme/OneDrive/Desktop/Fall 2022","no","mono","no","18","no","white","no","yes","768","legacy","39","11","C:/Users/casme/OneDrive/Desktop/Fall 2022/IC-subjectx-3.csv","legacy","8 5 3 7 4 6","Lentiform Loewenfeld","3.3.12","6","y","0","None","left","right","NA","None","2000","52600","6872","NA","2000","2","legacy","6","1024","2","48000","-16","experiment","3","odd","6","385291","382023","2536","138123","383087","383088","364272","2540","131250","NA","387294","389294","384090","55142","387294","Sternberg Task","33","52935","52","yes","1024"
"62.2641509434","62.2641509434","1006.39622642","1006.39622642","black","experiment","legacy","legacy","legacy","0","uniform","0","undefined","0","left","52","52","0","0","52","52","52","0","0","0","52","52","52","0","52","10/23/22 19:58:15","The main experiment item","yes","SternbergTask.osexp","C:/Users/casme/OneDrive/Desktop/Fall 2022","no","mono","no","18","no","white","no","yes","768","legacy","40","11","C:/Users/casme/OneDrive/Desktop/Fall 2022/IC-subjectx-3.csv","legacy","6 5","Lentiform Loewenfeld","3.3.12","2","y","0","right","left","right","NA","right","404","52600","6872","NA","404","2","legacy","2","1024","2","48000","-16","experiment","3","odd","5","392567","382023","2536","138123","390363","390365","389299","2540","131250","NA","394569","394974","391366","55142","394569","Sternberg Task","33","53339","53","yes","1024"
"62.962962963","62.962962963","1002.61111111","1002.61111111","black","experiment","legacy","legacy","legacy","0","uniform","1","undefined","1","left","53","53","0","0","53","53","53","0","0","0","53","53","53","0","53","10/23/22 19:58:15","The main experiment item","yes","SternbergTask.osexp","C:/Users/casme/OneDrive/Desktop/Fall 2022","no","mono","no","18","no","white","no","yes","768","legacy","41","11","C:/Users/casme/OneDrive/Desktop/Fall 2022/IC-subjectx-3.csv","legacy","9 5 3 8 4","Lentiform Loewenfeld","3.3.12","1","y","0","left","left","right","NA","left","802","52600","6872","NA","802","2","legacy","5","1024","2","48000","-16","experiment","3","odd","9","398247","382023","2536","138123","396045","396046","394980","2540","131250","NA","400248","401051","397047","55142","400248","Sternberg Task","34","54141","54","yes","1024"
"63.6363636364","63.6363636364","996.054545455","996.054545455","black","experiment","legacy","legacy","legacy","0","uniform","1","undefined","1","left","54","54","0","0","54","54","54","0","0","0","54","54","54","0","54","10/23/22 19:58:15","The main experiment item","yes","SternbergTask.osexp","C:/Users/casme/OneDrive/Desktop/Fall 2022","no","mono","no","18","no","white","no","yes","768","legacy","42","11","C:/Users/casme/OneDrive/Desktop/Fall 2022/IC-subjectx-3.csv","legacy","9 8 4","Lentiform Loewenfeld","3.3.12","1","y","0","left","left","right","NA","left","642","52600","6872","NA","642","2","legacy","3","1024","2","48000","-16","experiment","3","odd","9","404327","401056","2536","138123","402122","402125","394980","2540","131250","NA","406329","406971","403126","55142","406329","Sternberg Task","35","54783","55","yes","1024"
"62.5","62.5","994.071428571","994.071428571","black","experiment","legacy","legacy","legacy","0","uniform","0","undefined","0","left","55","55","0","0","55","55","55","0","0","0","55","55","55","0","55","10/23/22 19:58:15","The main experiment item","yes","SternbergTask.osexp","C:/Users/casme/OneDrive/Desktop/Fall 2022","no","mono","no","18","no","white","no","yes","768","legacy","43","11","C:/Users/casme/OneDrive/Desktop/Fall 2022/IC-subjectx-3.csv","legacy","7 1 8 5 6 2","Lentiform Loewenfeld","3.3.12","2","y","0","right","left","right","NA","right","885","52600","6872","NA","885","2","legacy","6","1024","2","48000","-16","experiment","3","odd","1","410246","406977","2536","138123","408040","408042","394980","2540","131250","NA","412247","413133","409044","55142","412247","Sternberg Task","35","55668","56","yes","1024"
"61.4035087719","61.4035087719","990.49122807","990.49122807","black","experiment","legacy","legacy","legacy","0","uniform","0","undefined","0","left","56","56","0","0","56","56","56","0","0","0","56","56","56","0","56","10/23/22 19:58:15","The main experiment item","yes","SternbergTask.osexp","C:/Users/casme/OneDrive/Desktop/Fall 2022","no","mono","no","18","no","white","no","yes","768","legacy","44","11","C:/Users/casme/OneDrive/Desktop/Fall 2022/IC-subjectx-3.csv","legacy","6 9 7 4 5 1","Lentiform Loewenfeld","3.3.12","2","y","0","right","left","right","NA","right","790","52600","6872","NA","790","2","legacy","6","1024","2","48000","-16","experiment","3","odd","9","416408","406977","2536","138123","414203","414206","413139","2540","131250","NA","418409","419200","415207","55142","418409","Sternberg Task","35","56458","57","yes","1024"
"62.0689655172","62.0689655172","982.965517241","982.965517241","black","experiment","legacy","legacy","legacy","0","uniform","1","undefined","1","left","57","57","0","0","57","57","57","0","0","0","57","57","57","0","57","10/23/22 19:58:15","The main experiment item","yes","SternbergTask.osexp","C:/Users/casme/OneDrive/Desktop/Fall 2022","no","mono","no","18","no","white","no","yes","768","legacy","45","11","C:/Users/casme/OneDrive/Desktop/Fall 2022/IC-subjectx-3.csv","legacy","5 2 9 6 1 7","Lentiform Loewenfeld","3.3.12","3","y","0","left","left","right","NA","left","554","52600","6872","NA","554","2","legacy","6","1024","2","48000","-16","experiment","3","odd","9","422473","406977","2536","138123","420268","420270","419205","2540","131250","NA","424474","425029","421271","55142","424474","Sternberg Task","36","57012","58","yes","1024"
"62.7118644068","62.7118644068","976.576271186","976.576271186","black","experiment","legacy","legacy","legacy","0","uniform","1","undefined","1","right","58","58","0","0","58","58","58","0","0","0","58","58","58","0","58","10/23/22 19:58:15","The main experiment item","yes","SternbergTask.osexp","C:/Users/casme/OneDrive/Desktop/Fall 2022","no","mono","no","18","no","white","no","yes","768","legacy","46","11","C:/Users/casme/OneDrive/Desktop/Fall 2022/IC-subjectx-3.csv","legacy","2 3 8 5 6 7","Lentiform Loewenfeld","3.3.12","0","n","0","right","left","right","NA","right","606","52600","6872","NA","606","2","legacy","6","1024","2","48000","-16","experiment","3","odd","1","428303","425034","2536","138123","426099","426100","419205","2540","131250","NA","430305","430912","427101","55142","430304","Sternberg Task","37","57618","59","yes","1024"
"63.3333333333","63.3333333333","968.733333333","968.733333333","black","experiment","legacy","legacy","legacy","0","uniform","1","undefined","1","left","59","59","0","0","59","59","59","0","0","0","59","59","59","0","59","10/23/22 19:58:15","The main experiment item","yes","SternbergTask.osexp","C:/Users/casme/OneDrive/Desktop/Fall 2022","no","mono","no","18","no","white","no","yes","768","legacy","47","11","C:/Users/casme/OneDrive/Desktop/Fall 2022/IC-subjectx-3.csv","legacy","4 1 5","Lentiform Loewenfeld","3.3.12","2","y","0","left","left","right","NA","left","506","52600","6872","NA","506","2","legacy","3","1024","2","48000","-16","experiment","3","odd","1","434189","430917","2536","138123","431985","431986","419205","2540","131250","NA","436190","436697","432987","55142","436190","Sternberg Task","38","58124","60","yes","1024"
"63.9344262295","63.9344262295","973.31147541","973.31147541","black","experiment","legacy","legacy","legacy","0","uniform","1","undefined","1","right","60","60","0","0","60","60","60","0","0","0","60","60","60","0","60","10/23/22 19:58:15","The main experiment item","yes","SternbergTask.osexp","C:/Users/casme/OneDrive/Desktop/Fall 2022","no","mono","no","18","no","white","no","yes","768","legacy","48","11","C:/Users/casme/OneDrive/Desktop/Fall 2022/IC-subjectx-3.csv","legacy","1 3 2 6 9","Lentiform Loewenfeld","3.3.12","0","n","0","right","left","right","NA","right","1248","52600","6872","NA","1248","2","legacy","5","1024","2","48000","-16","experiment","3","odd","5","439974","436702","2536","138123","437769","437770","419205","2540","131250","NA","441976","443225","438773","55142","441975","Sternberg Task","39","59372","61","yes","1024"
"64.5161290323","64.5161290323","970.5","970.5","black","experiment","legacy","legacy","legacy","0","uniform","1","undefined","1","right","61","61","0","0","61","61","61","0","0","0","61","61","61","0","61","10/23/22 19:58:15","The main experiment item","yes","SternbergTask.osexp","C:/Users/casme/OneDrive/Desktop/Fall 2022","no","mono","no","18","no","white","no","yes","768","legacy","49","11","C:/Users/casme/OneDrive/Desktop/Fall 2022/IC-subjectx-3.csv","legacy","1 6 4 3 9 7","Lentiform Loewenfeld","3.3.12","0","n","0","right","left","right","NA","right","799","52600","6872","NA","799","2","legacy","6","1024","2","48000","-16","experiment","3","odd","8","446498","443230","2536","138123","444294","444296","419205","2540","131250","NA","448499","449299","445297","55142","448499","Sternberg Task","40","60171","62","yes","1024"
"65.0793650794","65.0793650794","963.984126984","963.984126984","black","experiment","legacy","legacy","legacy","0","uniform","1","undefined","1","left","62","62","0","0","62","62","62","0","0","0","62","62","62","0","62","10/23/22 19:58:15","The main experiment item","yes","SternbergTask.osexp","C:/Users/casme/OneDrive/Desktop/Fall 2022","no","mono","no","18","no","white","no","yes","768","legacy","50","11","C:/Users/casme/OneDrive/Desktop/Fall 2022/IC-subjectx-3.csv","legacy","9 3 8 2 1 4","Lentiform Loewenfeld","3.3.12","3","y","0","left","left","right","NA","left","560","52600","6872","NA","560","2","legacy","6","1024","2","48000","-16","experiment","3","odd","8","452573","449304","2536","138123","450368","450370","419205","2540","131250","NA","454574","455135","451371","55142","454574","Sternberg Task","41","60731","63","yes","1024"
"65.625","65.625","979.4375","979.4375","black","experiment","legacy","legacy","legacy","0","uniform","1","undefined","1","right","63","63","0","0","63","63","63","0","0","0","63","63","63","0","63","10/23/22 19:58:15","The main experiment item","yes","SternbergTask.osexp","C:/Users/casme/OneDrive/Desktop/Fall 2022","no","mono","no","18","no","white","no","yes","768","legacy","51","11","C:/Users/casme/OneDrive/Desktop/Fall 2022/IC-subjectx-3.csv","legacy","2 8 7 9 5 3","Lentiform Loewenfeld","3.3.12","0","n","0","right","left","right","NA","right","1953","52600","6872","NA","1953","2","legacy","6","1024","2","48000","-16","experiment","3","odd","6","458409","455140","2536","138123","456205","456207","419205","2540","131250","NA","460410","462364","457208","55142","460410","Sternberg Task","42","62684","64","yes","1024"
"66.1538461538","66.1538461538","973.938461538","973.938461538","black","experiment","legacy","legacy","legacy","0","uniform","1","undefined","1","right","64","64","0","0","64","64","64","0","0","0","64","64","64","0","64","10/23/22 19:58:15","The main experiment item","yes","SternbergTask.osexp","C:/Users/casme/OneDrive/Desktop/Fall 2022","no","mono","no","18","no","white","no","yes","768","legacy","52","11","C:/Users/casme/OneDrive/Desktop/Fall 2022/IC-subjectx-3.csv","legacy","7 3 2 8","Lentiform Loewenfeld","3.3.12","0","n","0","right","left","right","NA","right","622","52600","6872","NA","622","2","legacy","4","1024","2","48000","-16","experiment","3","odd","4","465638","462370","2536","138123","463434","463436","419205","2540","131250","NA","467639","468262","464437","55142","467639","Sternberg Task","43","63306","65","yes","1024"
"66.6666666667","66.6666666667","967.212121212","967.212121212","black","experiment","legacy","legacy","legacy","0","uniform","1","undefined","1","right","65","65","0","0","65","65","65","0","0","0","65","65","65","0","65","10/23/22 19:58:15","The main experiment item","yes","SternbergTask.osexp","C:/Users/casme/OneDrive/Desktop/Fall 2022","no","mono","no","18","no","white","no","yes","768","legacy","53","11","C:/Users/casme/OneDrive/Desktop/Fall 2022/IC-subjectx-3.csv","legacy","7 8 6 1","Lentiform Loewenfeld","3.3.12","0","n","0","right","left","right","NA","right","530","52600","6872","NA","530","2","legacy","4","1024","2","48000","-16","experiment","3","odd","3","471535","468267","2536","138123","469330","469332","419205","2540","131250","NA","473536","474067","470334","55142","473536","Sternberg Task","44","63836","66","yes","1024"
"67.1641791045","67.1641791045","962.268656716","962.268656716","black","experiment","legacy","legacy","legacy","0","uniform","1","undefined","1","left","66","66","0","0","66","66","66","0","0","0","66","66","66","0","66","10/23/22 19:58:15","The main experiment item","yes","SternbergTask.osexp","C:/Users/casme/OneDrive/Desktop/Fall 2022","no","mono","no","18","no","white","no","yes","768","legacy","54","11","C:/Users/casme/OneDrive/Desktop/Fall 2022/IC-subjectx-3.csv","legacy","7 8 4 6 9 5","Lentiform Loewenfeld","3.3.12","4","y","0","left","left","right","NA","left","636","52600","6872","NA","636","2","legacy","6","1024","2","48000","-16","experiment","3","odd","6","477339","474073","2536","138123","475135","475137","419205","2540","131250","NA","479340","479976","476138","55142","479340","Sternberg Task","45","64472","67","yes","1024"
"66.1764705882","66.1764705882","970.029411765","970.029411765","black","experiment","legacy","legacy","legacy","0","uniform","0","undefined","0","left","67","67","0","0","67","67","67","0","0","0","67","67","67","0","67","10/23/22 19:58:15","The main experiment item","yes","SternbergTask.osexp","C:/Users/casme/OneDrive/Desktop/Fall 2022","no","mono","no","18","no","white","no","yes","768","legacy","55","11","C:/Users/casme/OneDrive/Desktop/Fall 2022/IC-subjectx-3.csv","legacy","3 9 6 2","Lentiform Loewenfeld","3.3.12","4","y","0","right","left","right","NA","right","1490","52600","6872","NA","1490","2","legacy","4","1024","2","48000","-16","experiment","3","odd","2","483253","479982","2536","138123","481047","481049","419205","2540","131250","NA","485254","486744","482051","55142","485254","Sternberg Task","45","65962","68","yes","1024"
"66.6666666667","66.6666666667","968.811594203","968.811594203","black","experiment","legacy","legacy","legacy","0","uniform","1","undefined","1","right","68","68","0","0","68","68","68","0","0","0","68","68","68","0","68","10/23/22 19:58:15","The main experiment item","yes","SternbergTask.osexp","C:/Users/casme/OneDrive/Desktop/Fall 2022","no","mono","no","18","no","white","no","yes","768","legacy","56","11","C:/Users/casme/OneDrive/Desktop/Fall 2022/IC-subjectx-3.csv","legacy","9","Lentiform Loewenfeld","3.3.12","0","n","0","right","left","right","NA","right","886","52600","6872","NA","886","2","legacy","1","1024","2","48000","-16","experiment","3","odd","6","490017","479982","2536","138123","487813","487815","486750","2540","131250","NA","492018","492905","488816","55142","492018","Sternberg Task","46","66848","69","yes","1024"
"67.1428571429","67.1428571429","967.228571429","967.228571429","black","experiment","legacy","legacy","legacy","0","uniform","1","undefined","1","left","69","69","0","0","69","69","69","0","0","0","69","69","69","0","69","10/23/22 19:58:15","The main experiment item","yes","SternbergTask.osexp","C:/Users/casme/OneDrive/Desktop/Fall 2022","no","mono","no","18","no","white","no","yes","768","legacy","57","11","C:/Users/casme/OneDrive/Desktop/Fall 2022/IC-subjectx-3.csv","legacy","4","Lentiform Loewenfeld","3.3.12","1","y","0","left","left","right","NA","left","858","52600","6872","NA","858","2","legacy","1","1024","2","48000","-16","experiment","3","odd","4","496176","492911","2536","138123","493972","493974","486750","2540","131250","NA","498177","499036","494975","55142","498177","Sternberg Task","47","67706","70","yes","1024"
"67.6056338028","67.6056338028","961.563380282","961.563380282","black","experiment","legacy","legacy","legacy","0","uniform","1","undefined","1","right","70","70","0","0","70","70","70","0","0","0","70","70","70","0","70","10/23/22 19:58:15","The main experiment item","yes","SternbergTask.osexp","C:/Users/casme/OneDrive/Desktop/Fall 2022","no","mono","no","18","no","white","no","yes","768","legacy","58","11","C:/Users/casme/OneDrive/Desktop/Fall 2022/IC-subjectx-3.csv","legacy","2 6 4 3 9","Lentiform Loewenfeld","3.3.12","0","n","0","right","left","right","NA","right","565","52600","6872","NA","565","2","legacy","5","1024","2","48000","-16","experiment","3","odd","1","502307","499042","2536","138123","500103","500104","486750","2540","131250","NA","504308","504873","501106","55142","504308","Sternberg Task","48","68271","71","yes","1024"
"68.0555555556","68.0555555556","963.930555556","963.930555556","black","experiment","legacy","legacy","legacy","0","uniform","1","undefined","1","right","71","71","0","0","71","71","71","0","0","0","71","71","71","0","71","10/23/22 19:58:15","The main experiment item","yes","SternbergTask.osexp","C:/Users/casme/OneDrive/Desktop/Fall 2022","no","mono","no","18","no","white","no","yes","768","legacy","59","11","C:/Users/casme/OneDrive/Desktop/Fall 2022/IC-subjectx-3.csv","legacy","7 6 4 8 1 2","Lentiform Loewenfeld","3.3.12","0","n","0","right","left","right","NA","right","1132","52600","6872","NA","1132","2","legacy","6","1024","2","48000","-16","experiment","3","odd","9","508146","504879","2536","138123","505942","505943","486750","2540","131250","NA","510147","511279","506944","55142","510147","Sternberg Task","49","69403","72","yes","1024"
"68.4931506849","68.4931506849","957.164383562","957.164383562","black","experiment","legacy","legacy","legacy","0","uniform","1","undefined","1","right","72","72","0","0","72","72","72","0","0","0","72","72","72","0","72","10/23/22 19:58:15","The main experiment item","yes","SternbergTask.osexp","C:/Users/casme/OneDrive/Desktop/Fall 2022","no","mono","no","18","no","white","no","yes","768","legacy","60","11","C:/Users/casme/OneDrive/Desktop/Fall 2022/IC-subjectx-3.csv","legacy","6 9 4 5 2","Lentiform Loewenfeld","3.3.12","0","n","0","right","left","right","NA","right","470","52600","6872","NA","470","2","legacy","5","1024","2","48000","-16","experiment","3","odd","1","514549","511285","2536","138123","512345","512347","486750","2540","131250","NA","516550","517020","513348","55142","516550","Sternberg Task","50","69873","73","yes","1024"
"67.5675675676","67.5675675676","951.972972973","951.972972973","black","experiment","legacy","legacy","legacy","0","uniform","0","undefined","0","left","73","73","0","0","73","73","73","0","0","0","73","73","73","0","73","10/23/22 19:58:15","The main experiment item","yes","SternbergTask.osexp","C:/Users/casme/OneDrive/Desktop/Fall 2022","no","mono","no","18","no","white","no","yes","768","legacy","61","11","C:/Users/casme/OneDrive/Desktop/Fall 2022/IC-subjectx-3.csv","legacy","3 5 9 6 2 4","Lentiform Loewenfeld","3.3.12","1","y","0","right","left","right","NA","right","573","52600","6872","NA","573","2","legacy","6","1024","2","48000","-16","experiment","3","odd","3","520292","517026","2536","138123","518089","518090","486750","2540","131250","NA","522294","522868","519091","55142","522294","Sternberg Task","50","70446","74","yes","1024"
"68","68","948.093333333","948.093333333","black","experiment","legacy","legacy","legacy","0","uniform","1","undefined","1","right","74","74","0","0","74","74","74","0","0","0","74","74","74","0","74","10/23/22 19:58:15","The main experiment item","yes","SternbergTask.osexp","C:/Users/casme/OneDrive/Desktop/Fall 2022","no","mono","no","18","no","white","no","yes","768","legacy","62","11","C:/Users/casme/OneDrive/Desktop/Fall 2022/IC-subjectx-3.csv","legacy","1 7 5 2 9","Lentiform Loewenfeld","3.3.12","0","n","0","right","left","right","NA","right","661","52600","6872","NA","661","2","legacy","5","1024","2","48000","-16","experiment","3","odd","3","526140","517026","2536","138123","523936","523938","522874","2540","131250","NA","528141","528803","524939","55142","528141","Sternberg Task","51","71107","75","yes","1024"
"68.4210526316","68.4210526316","946.013157895","946.013157895","black","experiment","legacy","legacy","legacy","0","uniform","1","undefined","1","left","75","75","0","0","75","75","75","0","0","0","75","75","75","0","75","10/23/22 19:58:15","The main experiment item","yes","SternbergTask.osexp","C:/Users/casme/OneDrive/Desktop/Fall 2022","no","mono","no","18","no","white","no","yes","768","legacy","63","11","C:/Users/casme/OneDrive/Desktop/Fall 2022/IC-subjectx-3.csv","legacy","4 7 6 8 2 3","Lentiform Loewenfeld","3.3.12","6","y","0","left","left","right","NA","left","790","52600","6872","NA","790","2","legacy","6","1024","2","48000","-16","experiment","3","odd","3","532076","528809","2536","138123","529870","529872","522874","2540","131250","NA","534077","534868","530874","55142","534077","Sternberg Task","52","71897","76","yes","1024"
"68.8311688312","68.8311688312","945.688311688","945.688311688","black","experiment","legacy","legacy","legacy","0","uniform","1","undefined","1","right","76","76","0","0","76","76","76","0","0","0","76","76","76","0","76","10/23/22 19:58:15","The main experiment item","yes","SternbergTask.osexp","C:/Users/casme/OneDrive/Desktop/Fall 2022","no","mono","no","18","no","white","no","yes","768","legacy","64","11","C:/Users/casme/OneDrive/Desktop/Fall 2022/IC-subjectx-3.csv","legacy","1 4 9 3","Lentiform Loewenfeld","3.3.12","0","n","0","right","left","right","NA","right","921","52600","6872","NA","921","2","legacy","4","1024","2","48000","-16","experiment","3","odd","5","538138","534873","2536","138123","535934","535936","522874","2540","131250","NA","540139","541061","536937","55142","540139","Sternberg Task","53","72818","77","yes","1024"
"69.2307692308","69.2307692308","943.051282051","943.051282051","black","experiment","legacy","legacy","legacy","0","uniform","1","undefined","1","left","77","77","0","0","77","77","77","0","0","0","77","77","77","0","77","10/23/22 19:58:15","The main experiment item","yes","SternbergTask.osexp","C:/Users/casme/OneDrive/Desktop/Fall 2022","no","mono","no","18","no","white","no","yes","768","legacy","65","11","C:/Users/casme/OneDrive/Desktop/Fall 2022/IC-subjectx-3.csv","legacy","5 7 8 2 3 8","Lentiform Loewenfeld","3.3.12","5","y","0","left","left","right","NA","left","740","52600","6872","NA","740","2","legacy","6","1024","2","48000","-16","experiment","3","odd","3","544331","541067","2536","138123","542127","542129","522874","2540","131250","NA","546332","547073","543130","55142","546332","Sternberg Task","54","73558","78","yes","1024"
"69.6202531646","69.6202531646","937.139240506","937.139240506","black","experiment","legacy","legacy","legacy","0","uniform","1","undefined","1","right","78","78","0","0","78","78","78","0","0","0","78","78","78","0","78","10/23/22 19:58:15","The main experiment item","yes","SternbergTask.osexp","C:/Users/casme/OneDrive/Desktop/Fall 2022","no","mono","no","18","no","white","no","yes","768","legacy","66","11","C:/Users/casme/OneDrive/Desktop/Fall 2022/IC-subjectx-3.csv","legacy","3 4 9 6 7 8","Lentiform Loewenfeld","3.3.12","0","n","0","right","left","right","NA","right","476","52600","6872","NA","476","2","legacy","6","1024","2","48000","-16","experiment","3","odd","2","550345","547078","2536","138123","548140","548142","522874","2540","131250","NA","552347","552824","549143","55142","552347","Sternberg Task","55","74034","79","yes","1024"
"70","70","932.9125","932.9125","black","experiment","legacy","legacy","legacy","0","uniform","1","undefined","1","right","79","79","0","0","79","79","79","0","0","0","79","79","79","0","79","10/23/22 19:58:15","The main experiment item","yes","SternbergTask.osexp","C:/Users/casme/OneDrive/Desktop/Fall 2022","no","mono","no","18","no","white","no","yes","768","legacy","67","11","C:/Users/casme/OneDrive/Desktop/Fall 2022/IC-subjectx-3.csv","legacy","2 8 9","Lentiform Loewenfeld","3.3.12","0","n","0","right","left","right","NA","right","599","52600","6872","NA","599","2","legacy","3","1024","2","48000","-16","experiment","3","odd","6","556105","552829","2536","138123","553900","553902","522874","2540","131250","NA","558106","558706","554904","55142","558106","Sternberg Task","56","74633","80","yes","1024"
"70.3703703704","70.3703703704","930.333333333","930.333333333","black","experiment","legacy","legacy","legacy","0","uniform","1","undefined","1","left","80","80","0","0","80","80","80","0","0","0","80","80","80","0","80","10/23/22 19:58:15","The main experiment item","yes","SternbergTask.osexp","C:/Users/casme/OneDrive/Desktop/Fall 2022","no","mono","no","18","no","white","no","yes","768","legacy","68","11","C:/Users/casme/OneDrive/Desktop/Fall 2022/IC-subjectx-3.csv","legacy","3 5 7 1","Lentiform Loewenfeld","3.3.12","3","y","0","left","left","right","NA","left","724","52600","6872","NA","724","2","legacy","4","1024","2","48000","-16","experiment","3","odd","7","561978","558712","2536","138123","559773","559775","522874","2540","131250","NA","563980","564705","560776","55142","563980","Sternberg Task","57","75357","81","yes","1024"
"70.7317073171","70.7317073171","928.317073171","928.317073171","black","experiment","legacy","legacy","legacy","0","uniform","1","undefined","1","right","81","81","0","0","81","81","81","0","0","0","81","81","81","0","81","10/23/22 19:58:15","The main experiment item","yes","SternbergTask.osexp","C:/Users/casme/OneDrive/Desktop/Fall 2022","no","mono","no","18","no","white","no","yes","768","legacy","69","11","C:/Users/casme/OneDrive/Desktop/Fall 2022/IC-subjectx-3.csv","legacy","5 9 2 3","Lentiform Loewenfeld","3.3.12","0","n","0","right","left","right","NA","right","765","52600","6872","NA","765","2","legacy","4","1024","2","48000","-16","experiment","3","odd","8","567976","564711","2536","138123","565771","565774","522874","2540","131250","NA","569978","570744","566775","55142","569978","Sternberg Task","58","76122","82","yes","1024"
"71.0843373494","71.0843373494","923.180722892","923.180722892","black","experiment","legacy","legacy","legacy","0","uniform","1","undefined","1","left","82","82","0","0","82","82","82","0","0","0","82","82","82","0","82","10/23/22 19:58:15","The main experiment item","yes","SternbergTask.osexp","C:/Users/casme/OneDrive/Desktop/Fall 2022","no","mono","no","18","no","white","no","yes","768","legacy","70","11","C:/Users/casme/OneDrive/Desktop/Fall 2022/IC-subjectx-3.csv","legacy","2 3","Lentiform Loewenfeld","3.3.12","1","y","0","left","left","right","NA","left","502","52600","6872","NA","502","2","legacy","2","1024","2","48000","-16","experiment","3","odd","2","574022","570750","2536","138123","571818","571820","522874","2540","131250","NA","576023","576526","572821","55142","576023","Sternberg Task","59","76624","83","yes","1024"
"71.4285714286","71.4285714286","922.654761905","922.654761905","black","experiment","legacy","legacy","legacy","0","uniform","1","undefined","1","right","83","83","0","0","83","83","83","0","0","0","83","83","83","0","83","10/23/22 19:58:15","The main experiment item","yes","SternbergTask.osexp","C:/Users/casme/OneDrive/Desktop/Fall 2022","no","mono","no","18","no","white","no","yes","768","legacy","71","11","C:/Users/casme/OneDrive/Desktop/Fall 2022/IC-subjectx-3.csv","legacy","9 7 4 5 8","Lentiform Loewenfeld","3.3.12","0","n","0","right","left","right","NA","right","879","52600","6872","NA","879","2","legacy","5","1024","2","48000","-16","experiment","3","odd","6","579805","576532","2536","138123","577601","577603","522874","2540","131250","NA","581808","582687","578604","55142","581807","Sternberg Task","60","77503","84","yes","1024"
"71.7647058824","71.7647058824","921.882352941","921.882352941","black","experiment","legacy","legacy","legacy","0","uniform","1","undefined","1","left","84","84","0","0","84","84","84","0","0","0","84","84","84","0","84","10/23/22 19:58:15","The main experiment item","yes","SternbergTask.osexp","C:/Users/casme/OneDrive/Desktop/Fall 2022","no","mono","no","18","no","white","no","yes","768","legacy","72","11","C:/Users/casme/OneDrive/Desktop/Fall 2022/IC-subjectx-3.csv","legacy","2 4 8 5 1 3","Lentiform Loewenfeld","3.3.12","1","y","0","left","left","right","NA","left","857","52600","6872","NA","857","2","legacy","6","1024","2","48000","-16","experiment","3","odd","2","585958","582693","2536","138123","583754","583756","522874","2540","131250","NA","587959","588817","584757","55142","587959","Sternberg Task","61","78360","85","yes","1024"
"72.0930232558","72.0930232558","919.546511628","919.546511628","black","experiment","legacy","legacy","legacy","0","uniform","1","undefined","1","left","85","85","0","0","85","85","85","0","0","0","85","85","85","0","85","10/23/22 19:58:15","The main experiment item","yes","SternbergTask.osexp","C:/Users/casme/OneDrive/Desktop/Fall 2022","no","mono","no","18","no","white","no","yes","768","legacy","73","11","C:/Users/casme/OneDrive/Desktop/Fall 2022/IC-subjectx-3.csv","legacy","5 7 3 6 2","Lentiform Loewenfeld","3.3.12","5","y","0","left","left","right","NA","left","721","52600","6872","NA","721","2","legacy","5","1024","2","48000","-16","experiment","3","odd","2","592090","588822","2536","138123","589885","589887","522874","2540","131250","NA","594091","594813","590888","55142","594091","Sternberg Task","62","79081","86","yes","1024"
"72.4137931034","72.4137931034","915.402298851","915.402298851","black","experiment","legacy","legacy","legacy","0","uniform","1","undefined","1","left","86","86","0","0","86","86","86","0","0","0","86","86","86","0","86","10/23/22 19:58:15","The main experiment item","yes","SternbergTask.osexp","C:/Users/casme/OneDrive/Desktop/Fall 2022","no","mono","no","18","no","white","no","yes","768","legacy","74","11","C:/Users/casme/OneDrive/Desktop/Fall 2022/IC-subjectx-3.csv","legacy","1 4 9 3 2 5","Lentiform Loewenfeld","3.3.12","3","y","0","left","left","right","NA","left","559","52600","6872","NA","559","2","legacy","6","1024","2","48000","-16","experiment","3","odd","9","598084","594819","2536","138123","595880","595882","522874","2540","131250","NA","600085","600645","596883","55142","600085","Sternberg Task","63","79640","87","yes","1024"
"72.7272727273","72.7272727273","911.454545455","911.454545455","black","experiment","legacy","legacy","legacy","0","uniform","1","undefined","1","right","87","87","0","0","87","87","87","0","0","0","87","87","87","0","87","10/23/22 19:58:15","The main experiment item","yes","SternbergTask.osexp","C:/Users/casme/OneDrive/Desktop/Fall 2022","no","mono","no","18","no","white","no","yes","768","legacy","75","11","C:/Users/casme/OneDrive/Desktop/Fall 2022/IC-subjectx-3.csv","legacy","2 8 9 4 1","Lentiform Loewenfeld","3.3.12","0","n","0","right","left","right","NA","right","568","52600","6872","NA","568","2","legacy","5","1024","2","48000","-16","experiment","3","odd","5","603918","600650","2536","138123","601714","601716","522874","2540","131250","NA","605919","606487","602717","55142","605919","Sternberg Task","64","80208","88","yes","1024"
"73.0337078652","73.0337078652","908.269662921","908.269662921","black","experiment","legacy","legacy","legacy","0","uniform","1","undefined","1","right","88","88","0","0","88","88","88","0","0","0","88","88","88","0","88","10/23/22 19:58:15","The main experiment item","yes","SternbergTask.osexp","C:/Users/casme/OneDrive/Desktop/Fall 2022","no","mono","no","18","no","white","no","yes","768","legacy","76","11","C:/Users/casme/OneDrive/Desktop/Fall 2022/IC-subjectx-3.csv","legacy","6 9 5","Lentiform Loewenfeld","3.3.12","0","n","0","right","left","right","NA","right","628","52600","6872","NA","628","2","legacy","3","1024","2","48000","-16","experiment","3","odd","8","609758","606493","2536","138123","607554","607556","522874","2540","131250","NA","611759","612388","608557","55142","611759","Sternberg Task","65","80836","89","yes","1024"
"73.3333333333","73.3333333333","905.711111111","905.711111111","black","experiment","legacy","legacy","legacy","0","uniform","1","undefined","1","left","89","89","0","0","89","89","89","0","0","0","89","89","89","0","89","10/23/22 19:58:15","The main experiment item","yes","SternbergTask.osexp","C:/Users/casme/OneDrive/Desktop/Fall 2022","no","mono","no","18","no","white","no","yes","768","legacy","77","11","C:/Users/casme/OneDrive/Desktop/Fall 2022/IC-subjectx-3.csv","legacy","3 2 1 4 7","Lentiform Loewenfeld","3.3.12","2","y","0","left","left","right","NA","left","678","52600","6872","NA","678","2","legacy","5","1024","2","48000","-16","experiment","3","odd","2","615660","612393","2536","138123","613456","613458","522874","2540","131250","NA","617661","618340","614459","55142","617661","Sternberg Task","66","81514","90","yes","1024"
"73.6263736264","73.6263736264","902.043956044","902.043956044","black","experiment","legacy","legacy","legacy","0","uniform","1","undefined","1","left","90","90","0","0","90","90","90","0","0","0","90","90","90","0","90","10/23/22 19:58:15","The main experiment item","yes","SternbergTask.osexp","C:/Users/casme/OneDrive/Desktop/Fall 2022","no","mono","no","18","no","white","no","yes","768","legacy","78","11","C:/Users/casme/OneDrive/Desktop/Fall 2022/IC-subjectx-3.csv","legacy","2 3 7 4","Lentiform Loewenfeld","3.3.12","1","y","0","left","left","right","NA","left","572","52600","6872","NA","572","2","legacy","4","1024","2","48000","-16","experiment","3","odd","2","621617","618346","2536","138123","619413","619415","522874","2540","131250","NA","623618","624192","620416","55142","623618","Sternberg Task","67","82086","91","yes","1024"
"72.8260869565","72.8260869565","898.75","898.75","black","experiment","legacy","legacy","legacy","0","uniform","0","undefined","0","left","91","91","0","0","91","91","91","0","0","0","91","91","91","0","91","10/23/22 19:58:15","The main experiment item","yes","SternbergTask.osexp","C:/Users/casme/OneDrive/Desktop/Fall 2022","no","mono","no","18","no","white","no","yes","768","legacy","79","11","C:/Users/casme/OneDrive/Desktop/Fall 2022/IC-subjectx-3.csv","legacy","8 1 6","Lentiform Loewenfeld","3.3.12","3","y","0","right","left","right","NA","right","599","52600","6872","NA","599","2","legacy","3","1024","2","48000","-16","experiment","3","odd","6","627462","624197","2536","138123","625258","625260","522874","2540","131250","NA","629464","630064","626261","55142","629464","Sternberg Task","67","82685","92","yes","1024"
"73.1182795699","73.1182795699","897.086021505","897.086021505","black","experiment","legacy","legacy","legacy","0","uniform","1","undefined","1","left","92","92","0","0","92","92","92","0","0","0","92","92","92","0","92","10/23/22 19:58:15","The main experiment item","yes","SternbergTask.osexp","C:/Users/casme/OneDrive/Desktop/Fall 2022","no","mono","no","18","no","white","no","yes","768","legacy","80","11","C:/Users/casme/OneDrive/Desktop/Fall 2022/IC-subjectx-3.csv","legacy","6 8 9 3 4 9","Lentiform Loewenfeld","3.3.12","5","y","0","left","left","right","NA","left","744","52600","6872","NA","744","2","legacy","6","1024","2","48000","-16","experiment","3","odd","4","633335","624197","2536","138123","631130","631131","630069","2540","131250","NA","635336","636080","632133","55142","635336","Sternberg Task","68","83429","93","yes","1024"
"73.4042553191","73.4042553191","896.70212766","896.70212766","black","experiment","legacy","legacy","legacy","0","uniform","1","undefined","1","right","93","93","0","0","93","93","93","0","0","0","93","93","93","0","93","10/23/22 19:58:15","The main experiment item","yes","SternbergTask.osexp","C:/Users/casme/OneDrive/Desktop/Fall 2022","no","mono","no","18","no","white","no","yes","768","legacy","81","11","C:/Users/casme/OneDrive/Desktop/Fall 2022/IC-subjectx-3.csv","legacy","6 9 4 5 3 2","Lentiform Loewenfeld","3.3.12","0","n","0","right","left","right","NA","right","861","52600","6872","NA","861","2","legacy","6","1024","2","48000","-16","experiment","3","odd","8","639352","636086","2536","138123","637148","637150","630069","2540","131250","NA","641354","642216","638151","55142","641354","Sternberg Task","69","84290","94","yes","1024"
"73.6842105263","73.6842105263","893.494736842","893.494736842","black","experiment","legacy","legacy","legacy","0","uniform","1","undefined","1","right","94","94","0","0","94","94","94","0","0","0","94","94","94","0","94","10/23/22 19:58:15","The main experiment item","yes","SternbergTask.osexp","C:/Users/casme/OneDrive/Desktop/Fall 2022","no","mono","no","18","no","white","no","yes","768","legacy","82","11","C:/Users/casme/OneDrive/Desktop/Fall 2022/IC-subjectx-3.csv","legacy","6 9 7 3 8 2","Lentiform Loewenfeld","3.3.12","0","n","0","right","left","right","NA","right","592","52600","6872","NA","592","2","legacy","6","1024","2","48000","-16","experiment","3","odd","5","645485","642221","2536","138123","643282","643283","630069","2540","131250","NA","647486","648079","644284","55142","647486","Sternberg Task","70","84882","95","yes","1024"
"73.9583333333","73.9583333333","892.40625","892.40625","black","experiment","legacy","legacy","legacy","0","uniform","1","undefined","1","left","95","95","0","0","95","95","95","0","0","0","95","95","95","0","95","10/23/22 19:58:15","The main experiment item","yes","SternbergTask.osexp","C:/Users/casme/OneDrive/Desktop/Fall 2022","no","mono","no","18","no","white","no","yes","768","legacy","83","11","C:/Users/casme/OneDrive/Desktop/Fall 2022/IC-subjectx-3.csv","legacy","6 1 2","Lentiform Loewenfeld","3.3.12","3","y","0","left","left","right","NA","left","789","52600","6872","NA","789","2","legacy","3","1024","2","48000","-16","experiment","3","odd","2","651349","648085","2536","138123","649145","649147","630069","2540","131250","NA","653350","654140","650148","55142","653350","Sternberg Task","71","85671","96","yes","1024"
"74.2268041237","74.2268041237","887.907216495","887.907216495","black","experiment","legacy","legacy","legacy","0","uniform","1","undefined","1","right","96","96","0","0","96","96","96","0","0","0","96","96","96","0","96","10/23/22 19:58:15","The main experiment item","yes","SternbergTask.osexp","C:/Users/casme/OneDrive/Desktop/Fall 2022","no","mono","no","18","no","white","no","yes","768","legacy","84","11","C:/Users/casme/OneDrive/Desktop/Fall 2022/IC-subjectx-3.csv","legacy","2 5 1 4","Lentiform Loewenfeld","3.3.12","0","n","0","right","left","right","NA","right","456","52600","6872","NA","456","2","legacy","4","1024","2","48000","-16","experiment","3","odd","6","657410","654146","2536","138123","655207","655208","630069","2540","131250","NA","659411","659868","656209","55142","659411","Sternberg Task","72","86127","97","yes","1024"
"74.4897959184","74.4897959184","886.265306122","886.265306122","black","experiment","legacy","legacy","legacy","0","uniform","1","undefined","1","right","97","97","0","0","97","97","97","0","0","0","97","97","97","0","97","10/23/22 19:58:15","The main experiment item","yes","SternbergTask.osexp","C:/Users/casme/OneDrive/Desktop/Fall 2022","no","mono","no","18","no","white","no","yes","768","legacy","85","11","C:/Users/casme/OneDrive/Desktop/Fall 2022/IC-subjectx-3.csv","legacy","5 3 8 7 2 4","Lentiform Loewenfeld","3.3.12","0","n","0","right","left","right","NA","right","727","52600","6872","NA","727","2","legacy","6","1024","2","48000","-16","experiment","3","odd","9","663138","659874","2536","138123","660935","660936","630069","2540","131250","NA","665139","665867","661937","55142","665139","Sternberg Task","73","86854","98","yes","1024"
"74.7474747475","74.7474747475","883.747474747","883.747474747","black","experiment","legacy","legacy","legacy","0","uniform","1","undefined","1","right","98","98","0","0","98","98","98","0","0","0","98","98","98","0","98","10/23/22 19:58:15","The main experiment item","yes","SternbergTask.osexp","C:/Users/casme/OneDrive/Desktop/Fall 2022","no","mono","no","18","no","white","no","yes","768","legacy","86","11","C:/Users/casme/OneDrive/Desktop/Fall 2022/IC-subjectx-3.csv","legacy","7 1 8 4 9 3","Lentiform Loewenfeld","3.3.12","0","n","0","right","left","right","NA","right","637","52600","6872","NA","637","2","legacy","6","1024","2","48000","-16","experiment","3","odd","6","669138","665873","2536","138123","666934","666936","630069","2540","131250","NA","671139","671778","667937","55142","671139","Sternberg Task","74","87491","99","yes","1024"
"75","75","881.79","881.79","black","experiment","legacy","legacy","legacy","0","uniform","1","undefined","1","right","99","99","0","0","99","99","99","0","0","0","99","99","99","0","99","10/23/22 19:58:15","The main experiment item","yes","SternbergTask.osexp","C:/Users/casme/OneDrive/Desktop/Fall 2022","no","mono","no","18","no","white","no","yes","768","legacy","87","11","C:/Users/casme/OneDrive/Desktop/Fall 2022/IC-subjectx-3.csv","legacy","6 3 1 7 9 8","Lentiform Loewenfeld","3.3.12","0","n","0","right","left","right","NA","right","688","52600","6872","NA","688","2","legacy","6","1024","2","48000","-16","experiment","3","odd","4","675048","671784","2536","138123","672845","672847","630069","2540","131250","NA","677050","677740","673848","55142","677050","Sternberg Task","75","88179","100","yes","1024"
"75.2475247525","75.2475247525","878.148514851","878.148514851","black","experiment","legacy","legacy","legacy","0","uniform","1","undefined","1","right","100","100","0","0","100","100","100","0","0","0","100","100","100","0","100","10/23/22 19:58:15","The main experiment item","yes","SternbergTask.osexp","C:/Users/casme/OneDrive/Desktop/Fall 2022","no","mono","no","18","no","white","no","yes","768","legacy","88","11","C:/Users/casme/OneDrive/Desktop/Fall 2022/IC-subjectx-3.csv","legacy","8 4 3 5","Lentiform Loewenfeld","3.3.12","0","n","0","right","left","right","NA","right","514","52600","6872","NA","514","2","legacy","4","1024","2","48000","-16","experiment","3","odd","6","681009","677745","2536","138123","678805","678807","630069","2540","131250","NA","683010","683525","679808","55142","683010","Sternberg Task","76","88693","101","yes","1024"
"75.4901960784","75.4901960784","873.5","873.5","black","experiment","legacy","legacy","legacy","0","uniform","1","undefined","1","right","101","101","0","0","101","101","101","0","0","0","101","101","101","0","101","10/23/22 19:58:15","The main experiment item","yes","SternbergTask.osexp","C:/Users/casme/OneDrive/Desktop/Fall 2022","no","mono","no","18","no","white","no","yes","768","legacy","89","11","C:/Users/casme/OneDrive/Desktop/Fall 2022/IC-subjectx-3.csv","legacy","6 8 4","Lentiform Loewenfeld","3.3.12","0","n","0","right","left","right","NA","right","404","52600","6872","NA","404","2","legacy","3","1024","2","48000","-16","experiment","3","odd","1","686796","683530","2536","138123","684592","684594","630069","2540","131250","NA","688798","689203","685595","55142","688798","Sternberg Task","77","89097","102","yes","1024"
"75.7281553398","75.7281553398","869.796116505","869.796116505","black","experiment","legacy","legacy","legacy","0","uniform","1","undefined","1","right","102","102","0","0","102","102","102","0","0","0","102","102","102","0","102","10/23/22 19:58:15","The main experiment item","yes","SternbergTask.osexp","C:/Users/casme/OneDrive/Desktop/Fall 2022","no","mono","no","18","no","white","no","yes","768","legacy","90","11","C:/Users/casme/OneDrive/Desktop/Fall 2022/IC-subjectx-3.csv","legacy","2 7 5","Lentiform Loewenfeld","3.3.12","0","n","0","right","left","right","NA","right","492","52600","6872","NA","492","2","legacy","3","1024","2","48000","-16","experiment","3","odd","8","692473","689208","2536","138123","690268","690270","630069","2540","131250","NA","694474","694966","691271","55142","694474","Sternberg Task","78","89589","103","yes","1024"
"75.9615384615","75.9615384615","867.509615385","867.509615385","black","experiment","legacy","legacy","legacy","0","uniform","1","undefined","1","right","103","103","0","0","103","103","103","0","0","0","103","103","103","0","103","10/23/22 19:58:15","The main experiment item","yes","SternbergTask.osexp","C:/Users/casme/OneDrive/Desktop/Fall 2022","no","mono","no","18","no","white","no","yes","768","legacy","91","11","C:/Users/casme/OneDrive/Desktop/Fall 2022/IC-subjectx-3.csv","legacy","5 2","Lentiform Loewenfeld","3.3.12","0","n","0","right","left","right","NA","right","632","52600","6872","NA","632","2","legacy","2","1024","2","48000","-16","experiment","3","odd","7","698245","694979","2536","138123","696040","696042","630069","2540","131250","NA","700246","700879","697043","55142","700246","Sternberg Task","79","90221","104","yes","1024"
"76.1904761905","76.1904761905","870.4","870.4","black","experiment","legacy","legacy","legacy","0","uniform","1","undefined","1","left","104","104","0","0","104","104","104","0","0","0","104","104","104","0","104","10/23/22 19:58:15","The main experiment item","yes","SternbergTask.osexp","C:/Users/casme/OneDrive/Desktop/Fall 2022","no","mono","no","18","no","white","no","yes","768","legacy","92","11","C:/Users/casme/OneDrive/Desktop/Fall 2022/IC-subjectx-3.csv","legacy","2 5 4 8 7","Lentiform Loewenfeld","3.3.12","3","y","0","left","left","right","NA","left","1171","52600","6872","NA","1171","2","legacy","5","1024","2","48000","-16","experiment","3","odd","4","704147","700884","2536","138123","701944","701945","630069","2540","131250","NA","706148","707321","702946","55142","706148","Sternberg Task","80","91392","105","yes","1024"
"76.4150943396","76.4150943396","868.122641509","868.122641509","black","experiment","legacy","legacy","legacy","0","uniform","1","undefined","1","left","105","105","0","0","105","105","105","0","0","0","105","105","105","0","105","10/23/22 19:58:15","The main experiment item","yes","SternbergTask.osexp","C:/Users/casme/OneDrive/Desktop/Fall 2022","no","mono","no","18","no","white","no","yes","768","legacy","93","11","C:/Users/casme/OneDrive/Desktop/Fall 2022/IC-subjectx-3.csv","legacy","7 6","Lentiform Loewenfeld","3.3.12","2","y","0","left","left","right","NA","left","629","52600","6872","NA","629","2","legacy","2","1024","2","48000","-16","experiment","3","odd","6","710592","707327","2536","138123","708388","708389","630069","2540","131250","NA","712594","713224","709391","55142","712593","Sternberg Task","81","92021","106","yes","1024"
"76.6355140187","76.6355140187","868.542056075","868.542056075","black","experiment","legacy","legacy","legacy","0","uniform","1","undefined","1","left","106","106","0","0","106","106","106","0","0","0","106","106","106","0","106","10/23/22 19:58:15","The main experiment item","yes","SternbergTask.osexp","C:/Users/casme/OneDrive/Desktop/Fall 2022","no","mono","no","18","no","white","no","yes","768","legacy","94","11","C:/Users/casme/OneDrive/Desktop/Fall 2022/IC-subjectx-3.csv","legacy","3 5 4 7","Lentiform Loewenfeld","3.3.12","1","y","0","left","left","right","NA","left","913","52600","6872","NA","913","2","legacy","4","1024","2","48000","-16","experiment","3","odd","3","716495","713230","2536","138123","714291","714293","630069","2540","131250","NA","718496","719410","715294","55142","718496","Sternberg Task","82","92934","107","yes","1024"
"76.8518518519","76.8518518519","870.601851852","870.601851852","black","experiment","legacy","legacy","legacy","0","uniform","1","undefined","1","left","107","107","0","0","107","107","107","0","0","0","107","107","107","0","107","10/23/22 19:58:15","The main experiment item","yes","SternbergTask.osexp","C:/Users/casme/OneDrive/Desktop/Fall 2022","no","mono","no","18","no","white","no","yes","768","legacy","95","11","C:/Users/casme/OneDrive/Desktop/Fall 2022/IC-subjectx-3.csv","legacy","8 3","Lentiform Loewenfeld","3.3.12","2","y","0","left","left","right","NA","left","1091","52600","6872","NA","1091","2","legacy","2","1024","2","48000","-16","experiment","3","odd","3","722681","719416","2536","138123","720477","720479","630069","2540","131250","NA","724683","725775","721480","55142","724682","Sternberg Task","83","94025","108","yes","1024"
"77.0642201835","77.0642201835","867.642201835","867.642201835","black","experiment","legacy","legacy","legacy","0","uniform","1","undefined","1","left","108","108","0","0","108","108","108","0","0","0","108","108","108","0","108","10/23/22 19:58:15","The main experiment item","yes","SternbergTask.osexp","C:/Users/casme/OneDrive/Desktop/Fall 2022","no","mono","no","18","no","white","no","yes","768","legacy","96","11","C:/Users/casme/OneDrive/Desktop/Fall 2022/IC-subjectx-3.csv","legacy","8","Lentiform Loewenfeld","3.3.12","1","y","0","left","left","right","NA","left","548","52600","6872","NA","548","2","legacy","1","1024","2","48000","-16","experiment","3","odd","8","729045","725781","2536","138123","726841","726843","630069","2540","131250","NA","731046","731595","727844","55142","731046","Sternberg Task","84","94573","109","yes","1024"
"77.2727272727","77.2727272727","867.463636364","867.463636364","black","experiment","legacy","legacy","legacy","0","uniform","1","undefined","1","left","109","109","0","0","109","109","109","0","0","0","109","109","109","0","109","10/23/22 19:58:15","The main experiment item","yes","SternbergTask.osexp","C:/Users/casme/OneDrive/Desktop/Fall 2022","no","mono","no","18","no","white","no","yes","768","legacy","97","11","C:/Users/casme/OneDrive/Desktop/Fall 2022/IC-subjectx-3.csv","legacy","2 8 5 1","Lentiform Loewenfeld","3.3.12","4","y","0","left","left","right","NA","left","848","52600","6872","NA","848","2","legacy","4","1024","2","48000","-16","experiment","3","odd","1","734865","731600","2536","138123","732661","732662","630069","2540","131250","NA","736866","737715","733664","55142","736866","Sternberg Task","85","95421","110","yes","1024"
"77.4774774775","77.4774774775","865.828828829","865.828828829","black","experiment","legacy","legacy","legacy","0","uniform","1","undefined","1","left","110","110","0","0","110","110","110","0","0","0","110","110","110","0","110","10/23/22 19:58:15","The main experiment item","yes","SternbergTask.osexp","C:/Users/casme/OneDrive/Desktop/Fall 2022","no","mono","no","18","no","white","no","yes","768","legacy","98","11","C:/Users/casme/OneDrive/Desktop/Fall 2022/IC-subjectx-3.csv","legacy","3 4","Lentiform Loewenfeld","3.3.12","1","y","0","left","left","right","NA","left","686","52600","6872","NA","686","2","legacy","2","1024","2","48000","-16","experiment","3","odd","3","740985","737721","2536","138123","738782","738783","630069","2540","131250","NA","742986","743673","739784","55142","742986","Sternberg Task","86","96107","111","yes","1024"
"76.7857142857","76.7857142857","875.964285714","875.964285714","black","experiment","legacy","legacy","legacy","0","uniform","0","undefined","0","left","111","111","0","0","111","111","111","0","0","0","111","111","111","0","111","10/23/22 19:58:15","The main experiment item","yes","SternbergTask.osexp","C:/Users/casme/OneDrive/Desktop/Fall 2022","no","mono","no","18","no","white","no","yes","768","legacy","99","11","C:/Users/casme/OneDrive/Desktop/Fall 2022/IC-subjectx-3.csv","legacy","4 6 5 8","Lentiform Loewenfeld","3.3.12","1","y","0","None","left","right","NA","None","2001","52600","6872","NA","2001","2","legacy","4","1024","2","48000","-16","experiment","3","odd","4","746943","743678","2536","138123","744739","744741","630069","2540","131250","NA","748944","750945","745742","55142","748944","Sternberg Task","86","98108","112","yes","1024"
"76.1061946903","76.1061946903","884.805309735","884.805309735","black","experiment","legacy","legacy","legacy","0","uniform","0","undefined","0","right","112","112","0","0","112","112","112","0","0","0","112","112","112","0","112","10/23/22 19:58:15","The main experiment item","yes","SternbergTask.osexp","C:/Users/casme/OneDrive/Desktop/Fall 2022","no","mono","no","18","no","white","no","yes","768","legacy","100","11","C:/Users/casme/OneDrive/Desktop/Fall 2022/IC-subjectx-3.csv","legacy","4 2 7 6 1 3","Lentiform Loewenfeld","3.3.12","0","n","0","left","left","right","NA","left","1875","52600","6872","NA","1875","2","legacy","6","1024","2","48000","-16","experiment","3","odd","8","754216","743678","2536","138123","752012","752014","750951","2540","131250","NA","756217","758093","753015","55142","756217","Sternberg Task","86","99983","113","yes","1024"
"76.3157894737","76.3157894737","887.473684211","887.473684211","black","experiment","legacy","legacy","legacy","0","uniform","1","undefined","1","right","113","113","0","0","113","113","113","0","0","0","113","113","113","0","113","10/23/22 19:58:15","The main experiment item","yes","SternbergTask.osexp","C:/Users/casme/OneDrive/Desktop/Fall 2022","no","mono","no","18","no","white","no","yes","768","legacy","101","11","C:/Users/casme/OneDrive/Desktop/Fall 2022/IC-subjectx-3.csv","legacy","4 2 6 9","Lentiform Loewenfeld","3.3.12","0","n","0","right","left","right","NA","right","1189","52600","6872","NA","1189","2","legacy","4","1024","2","48000","-16","experiment","3","odd","7","761364","743678","2536","138123","759160","759162","758098","2540","131250","NA","763365","764555","760163","55142","763365","Sternberg Task","87","101172","114","yes","1024"
"76.5217391304","76.5217391304","887.513043478","887.513043478","black","experiment","legacy","legacy","legacy","0","uniform","1","undefined","1","left","114","114","0","0","114","114","114","0","0","0","114","114","114","0","114","10/23/22 19:58:15","The main experiment item","yes","SternbergTask.osexp","C:/Users/casme/OneDrive/Desktop/Fall 2022","no","mono","no","18","no","white","no","yes","768","legacy","102","11","C:/Users/casme/OneDrive/Desktop/Fall 2022/IC-subjectx-3.csv","legacy","7 2 3","Lentiform Loewenfeld","3.3.12","3","y","0","left","left","right","NA","left","892","52600","6872","NA","892","2","legacy","3","1024","2","48000","-16","experiment","3","odd","3","767825","764560","2536","138123","765621","765623","758098","2540","131250","NA","769826","770719","766624","55142","769826","Sternberg Task","88","102064","115","yes","1024"
"76.724137931","76.724137931","884.801724138","884.801724138","black","experiment","legacy","legacy","legacy","0","uniform","1","undefined","1","left","115","115","0","0","115","115","115","0","0","0","115","115","115","0","115","10/23/22 19:58:15","The main experiment item","yes","SternbergTask.osexp","C:/Users/casme/OneDrive/Desktop/Fall 2022","no","mono","no","18","no","white","no","yes","768","legacy","103","11","C:/Users/casme/OneDrive/Desktop/Fall 2022/IC-subjectx-3.csv","legacy","6 7 9 3 1 2","Lentiform Loewenfeld","3.3.12","1","y","0","left","left","right","NA","left","573","52600","6872","NA","573","2","legacy","6","1024","2","48000","-16","experiment","3","odd","6","773989","770724","2536","138123","771785","771787","758098","2540","131250","NA","775990","776564","772788","55142","775990","Sternberg Task","89","102637","116","yes","1024"
