"acc","accuracy","average_response_time","avg_rt","background","block","canvas_backend","clock_backend","color_backend","compensation","coordinates","correct","correct_Keyboard_response","correct_instructions1","correct_response","count_Fixation","count_ISI","count_Keyboard_response","count_Logger","count_Probe","count_Thankyou","count_correctFeedback","count_expSequence","count_experiment","count_experimentalLoop","count_incorrectFeedback","count_instructions1","count_instructions2","count_memorySet","count_practiceLoop","datetime","description","disable_garbage_collection","experiment_file","experiment_path","font_bold","font_family","font_italic","font_size","font_underline","foreground","form_clicks","fullscreen","height","keyboard_backend","live_row","live_row_practiceLoop","logfile","mouse_backend","numberSet","opensesame_codename","opensesame_version","posInSet","present","repeat_cycle","response","response_Keyboard_response","response_Thankyou","response_instructions1","response_instructions2","response_time","response_time_Keyboard_response","response_time_Thankyou","response_time_instructions1","response_time_instructions2","round_decimals","sampler_backend","setSize","sound_buf_size","sound_channels","sound_freq","sound_sample_size","start","subject_nr","subject_parity","target","time_Fixation","time_ISI","time_Keyboard_response","time_Logger","time_Probe","time_Thankyou","time_correctFeedback","time_expSequence","time_experiment","time_experimentalLoop","time_incorrectFeedback","time_instructions1","time_instructions2","time_memorySet","time_practiceLoop","title","total_correct","total_response_time","total_responses","uniform_coordinates","width"
"100","100","619","619","black","practice","legacy","legacy","legacy","0","uniform","1","1","undefined","right","0","0","0","0","0","0","0","0","0","0","0","0","0","0","0","10/22/22 19:43:28","The main experiment item","yes","Sternbergtask.osexp","C:\Users\ayesh\OneDrive\Desktop","no","mono","no","18","no","white","no","yes","768","legacy","0","0","C:/Users/ayesh/OneDrive/Desktop/MK-subject-3.csv","legacy","3 1 9 4","Lentiform Loewenfeld","3.3.12","0","n","0","right","right","NA","left","NA","619","619","NA","18878","NA","2","legacy","4","1024","2","48000","-16","experiment","2","even","6","30752","32957","34958","35577","34958","NA","NA","30749","11374","NA","NA","11379","NA","31753","30258","Sternberg task ","1","619","1","yes","1024"
"50","50","503.5","503.5","black","practice","legacy","legacy","legacy","0","uniform","0","0","undefined","left","1","1","1","1","1","0","1","1","0","0","1","0","0","1","0","10/22/22 19:43:28","The main experiment item","yes","Sternbergtask.osexp","C:\Users\ayesh\OneDrive\Desktop","no","mono","no","18","no","white","no","yes","768","legacy","1","1","C:/Users/ayesh/OneDrive/Desktop/MK-subject-3.csv","legacy","1 5 2 9","Lentiform Loewenfeld","3.3.12","2","y","0","right","right","NA","left","NA","388","388","NA","18878","NA","2","legacy","4","1024","2","48000","-16","experiment","2","even","5","36727","38932","40933","41321","40933","NA","35648","36725","11374","NA","NA","11379","NA","37728","30258","Sternberg task ","1","1007","2","yes","1024"
"66.6666666667","66.6666666667","507","507","black","practice","legacy","legacy","legacy","0","uniform","1","1","undefined","left","2","2","2","2","2","0","2","2","0","0","2","0","0","2","0","10/22/22 19:43:28","The main experiment item","yes","Sternbergtask.osexp","C:\Users\ayesh\OneDrive\Desktop","no","mono","no","18","no","white","no","yes","768","legacy","2","2","C:/Users/ayesh/OneDrive/Desktop/MK-subject-3.csv","legacy","4 8","Lentiform Loewenfeld","3.3.12","1","y","0","left","left","NA","left","NA","514","514","NA","18878","NA","2","legacy","2","1024","2","48000","-16","experiment","2","even","4","42415","44621","46622","47136","46622","NA","35648","42413","11374","NA","41326","11379","NA","43416","30258","Sternberg task ","2","1521","3","yes","1024"
"75","75","532","532","black","practice","legacy","legacy","legacy","0","uniform","1","1","undefined","left","3","3","3","3","3","0","3","3","0","0","3","0","0","3","0","10/22/22 19:43:28","The main experiment item","yes","Sternbergtask.osexp","C:\Users\ayesh\OneDrive\Desktop","no","mono","no","18","no","white","no","yes","768","legacy","3","3","C:/Users/ayesh/OneDrive/Desktop/MK-subject-3.csv","legacy","4 3 1 7 9 8","Lentiform Loewenfeld","3.3.12","1","y","0","left","left","NA","left","NA","607","607","NA","18878","NA","2","legacy","6","1024","2","48000","-16","experiment","2","even","4","48216","50422","52425","53033","52425","NA","47140","48214","11374","NA","41326","11379","NA","49218","30258","Sternberg task ","3","2128","4","yes","1024"
"60","60","553.6","553.6","black","practice","legacy","legacy","legacy","0","uniform","0","0","undefined","right","4","4","4","4","4","0","4","4","0","0","4","0","0","4","0","10/22/22 19:43:28","The main experiment item","yes","Sternbergtask.osexp","C:\Users\ayesh\OneDrive\Desktop","no","mono","no","18","no","white","no","yes","768","legacy","4","4","C:/Users/ayesh/OneDrive/Desktop/MK-subject-3.csv","legacy","2 1","Lentiform Loewenfeld","3.3.12","0","n","0","left","left","NA","left","NA","640","640","NA","18878","NA","2","legacy","2","1024","2","48000","-16","experiment","2","even","5","54113","56320","58321","58961","58321","NA","53038","54111","11374","NA","41326","11379","NA","55115","30258","Sternberg task ","3","2768","5","yes","1024"
"66.6666666667","66.6666666667","554.166666667","554.166666667","black","practice","legacy","legacy","legacy","0","uniform","1","1","undefined","right","5","5","5","5","5","0","5","5","0","0","5","0","0","5","0","10/22/22 19:43:28","The main experiment item","yes","Sternbergtask.osexp","C:\Users\ayesh\OneDrive\Desktop","no","mono","no","18","no","white","no","yes","768","legacy","5","5","C:/Users/ayesh/OneDrive/Desktop/MK-subject-3.csv","legacy","5","Lentiform Loewenfeld","3.3.12","0","n","0","right","right","NA","left","NA","557","557","NA","18878","NA","2","legacy","1","1024","2","48000","-16","experiment","2","even","3","60037","62242","64243","64801","64243","NA","53038","60035","11374","NA","58965","11379","NA","61038","30258","Sternberg task ","4","3325","6","yes","1024"
"71.4285714286","71.4285714286","640.142857143","640.142857143","black","practice","legacy","legacy","legacy","0","uniform","1","1","undefined","right","6","6","6","6","6","0","6","6","0","0","6","0","0","6","0","10/22/22 19:43:28","The main experiment item","yes","Sternbergtask.osexp","C:\Users\ayesh\OneDrive\Desktop","no","mono","no","18","no","white","no","yes","768","legacy","6","6","C:/Users/ayesh/OneDrive/Desktop/MK-subject-3.csv","legacy","4 1 5","Lentiform Loewenfeld","3.3.12","0","n","0","right","right","NA","left","NA","1156","1156","NA","18878","NA","2","legacy","3","1024","2","48000","-16","experiment","2","even","2","65877","68083","70084","71241","70084","NA","64806","65876","11374","NA","58965","11379","NA","66879","30258","Sternberg task ","5","4481","7","yes","1024"
"75","75","640.625","640.625","black","practice","legacy","legacy","legacy","0","uniform","1","1","undefined","left","7","7","7","7","7","0","7","7","0","0","7","0","0","7","0","10/22/22 19:43:28","The main experiment item","yes","Sternbergtask.osexp","C:\Users\ayesh\OneDrive\Desktop","no","mono","no","18","no","white","no","yes","768","legacy","7","7","C:/Users/ayesh/OneDrive/Desktop/MK-subject-3.csv","legacy","2 9 4","Lentiform Loewenfeld","3.3.12","3","y","0","left","left","NA","left","NA","644","644","NA","18878","NA","2","legacy","3","1024","2","48000","-16","experiment","2","even","4","72318","74523","76524","77169","76524","NA","71245","72317","11374","NA","58965","11379","NA","73319","30258","Sternberg task ","6","5125","8","yes","1024"
"77.7777777778","77.7777777778","656.555555556","656.555555556","black","practice","legacy","legacy","legacy","0","uniform","1","1","undefined","right","8","8","8","8","8","0","8","8","0","0","8","0","0","8","0","10/22/22 19:43:28","The main experiment item","yes","Sternbergtask.osexp","C:\Users\ayesh\OneDrive\Desktop","no","mono","no","18","no","white","no","yes","768","legacy","8","8","C:/Users/ayesh/OneDrive/Desktop/MK-subject-3.csv","legacy","5 7 8 4 1 2","Lentiform Loewenfeld","3.3.12","0","n","0","right","right","NA","left","NA","784","784","NA","18878","NA","2","legacy","6","1024","2","48000","-16","experiment","2","even","6","78248","80455","82456","83241","82456","NA","77173","78247","11374","NA","58965","11379","NA","79250","30258","Sternberg task ","7","5909","9","yes","1024"
"80","80","651.2","651.2","black","practice","legacy","legacy","legacy","0","uniform","1","1","undefined","left","9","9","9","9","9","0","9","9","0","0","9","0","0","9","0","10/22/22 19:43:28","The main experiment item","yes","Sternbergtask.osexp","C:\Users\ayesh\OneDrive\Desktop","no","mono","no","18","no","white","no","yes","768","legacy","9","9","C:/Users/ayesh/OneDrive/Desktop/MK-subject-3.csv","legacy","1 7 9 8 5","Lentiform Loewenfeld","3.3.12","4","y","0","left","left","NA","left","NA","603","603","NA","18878","NA","2","legacy","5","1024","2","48000","-16","experiment","2","even","8","84317","86523","88525","89129","88525","NA","83245","84315","11374","NA","58965","11379","NA","85319","30258","Sternberg task ","8","6512","10","yes","1024"
"81.8181818182","81.8181818182","639.727272727","639.727272727","black","practice","legacy","legacy","legacy","0","uniform","1","1","undefined","right","10","10","10","10","10","0","10","10","0","0","10","0","0","10","0","10/22/22 19:43:28","The main experiment item","yes","Sternbergtask.osexp","C:\Users\ayesh\OneDrive\Desktop","no","mono","no","18","no","white","no","yes","768","legacy","10","10","C:/Users/ayesh/OneDrive/Desktop/MK-subject-3.csv","legacy","9 6 7 4 5","Lentiform Loewenfeld","3.3.12","0","n","0","right","right","NA","left","NA","525","525","NA","18878","NA","2","legacy","5","1024","2","48000","-16","experiment","2","even","3","90206","92411","94412","94937","94412","NA","89133","90204","11374","NA","58965","11379","NA","91207","30258","Sternberg task ","9","7037","11","yes","1024"
"83.3333333333","83.3333333333","623.333333333","623.333333333","black","practice","legacy","legacy","legacy","0","uniform","1","1","undefined","left","11","11","11","11","11","0","11","11","0","0","11","0","0","11","0","10/22/22 19:43:28","The main experiment item","yes","Sternbergtask.osexp","C:\Users\ayesh\OneDrive\Desktop","no","mono","no","18","no","white","no","yes","768","legacy","11","11","C:/Users/ayesh/OneDrive/Desktop/MK-subject-3.csv","legacy","6","Lentiform Loewenfeld","3.3.12","1","y","0","left","left","NA","left","NA","443","443","NA","18878","NA","2","legacy","1","1024","2","48000","-16","experiment","2","even","6","96015","98220","100221","100665","100221","NA","94942","96014","11374","NA","58965","11379","NA","97016","30258","Sternberg task ","10","7480","12","yes","1024"
"76.9230769231","76.9230769231","618.153846154","618.153846154","black","experiment","legacy","legacy","legacy","0","uniform","0","0","undefined","left","12","12","12","12","12","0","12","12","0","0","12","0","0","12","0","10/22/22 19:43:28","The main experiment item","yes","Sternbergtask.osexp","C:\Users\ayesh\OneDrive\Desktop","no","mono","no","18","no","white","no","yes","768","legacy","0","11","C:/Users/ayesh/OneDrive/Desktop/MK-subject-3.csv","legacy","3 9 7 6 4","Lentiform Loewenfeld","3.3.12","3","y","0","right","right","NA","left","left","556","556","NA","18878","24854","2","legacy","5","1024","2","48000","-16","experiment","2","even","7","126646","128851","130852","131409","130852","NA","100669","126644","11374","126537","58965","11379","101682","127647","30258","Sternberg task ","10","8036","13","yes","1024"
"78.5714285714","78.5714285714","609.285714286","609.285714286","black","experiment","legacy","legacy","legacy","0","uniform","1","1","undefined","left","13","13","13","13","13","0","13","13","0","0","13","0","0","13","0","10/22/22 19:43:28","The main experiment item","yes","Sternbergtask.osexp","C:\Users\ayesh\OneDrive\Desktop","no","mono","no","18","no","white","no","yes","768","legacy","1","11","C:/Users/ayesh/OneDrive/Desktop/MK-subject-3.csv","legacy","7","Lentiform Loewenfeld","3.3.12","1","y","0","left","left","NA","left","left","494","494","NA","18878","24854","2","legacy","1","1024","2","48000","-16","experiment","2","even","7","132485","134690","136691","137185","136691","NA","100669","132483","11374","126537","131413","11379","101682","133486","30258","Sternberg task ","11","8530","14","yes","1024"
"73.3333333333","73.3333333333","621.666666667","621.666666667","black","experiment","legacy","legacy","legacy","0","uniform","0","0","undefined","right","14","14","14","14","14","0","14","14","0","0","14","0","0","14","0","10/22/22 19:43:28","The main experiment item","yes","Sternbergtask.osexp","C:\Users\ayesh\OneDrive\Desktop","no","mono","no","18","no","white","no","yes","768","legacy","2","11","C:/Users/ayesh/OneDrive/Desktop/MK-subject-3.csv","legacy","1 4 9 2 5","Lentiform Loewenfeld","3.3.12","0","n","0","left","left","NA","left","left","795","795","NA","18878","24854","2","legacy","5","1024","2","48000","-16","experiment","2","even","7","138262","140468","142469","143265","142469","NA","137189","138261","11374","126537","131413","11379","101682","139264","30258","Sternberg task ","11","9325","15","yes","1024"
"68.75","68.75","615.375","615.375","black","experiment","legacy","legacy","legacy","0","uniform","0","0","undefined","left","15","15","15","15","15","0","15","15","0","0","15","0","0","15","0","10/22/22 19:43:28","The main experiment item","yes","Sternbergtask.osexp","C:\Users\ayesh\OneDrive\Desktop","no","mono","no","18","no","white","no","yes","768","legacy","3","11","C:/Users/ayesh/OneDrive/Desktop/MK-subject-3.csv","legacy","6 8 9 3 4 9","Lentiform Loewenfeld","3.3.12","5","y","0","right","right","NA","left","left","521","521","NA","18878","24854","2","legacy","6","1024","2","48000","-16","experiment","2","even","4","144345","146550","148551","149073","148551","NA","137189","144343","11374","126537","143270","11379","101682","145346","30258","Sternberg task ","11","9846","16","yes","1024"
"70.5882352941","70.5882352941","635.823529412","635.823529412","black","experiment","legacy","legacy","legacy","0","uniform","1","1","undefined","right","16","16","16","16","16","0","16","16","0","0","16","0","0","16","0","10/22/22 19:43:28","The main experiment item","yes","Sternbergtask.osexp","C:\Users\ayesh\OneDrive\Desktop","no","mono","no","18","no","white","no","yes","768","legacy","4","11","C:/Users/ayesh/OneDrive/Desktop/MK-subject-3.csv","legacy","3 4 2","Lentiform Loewenfeld","3.3.12","0","n","0","right","right","NA","left","left","963","963","NA","18878","24854","2","legacy","3","1024","2","48000","-16","experiment","2","even","5","150150","152356","154357","155321","154357","NA","137189","150148","11374","126537","149077","11379","101682","151151","30258","Sternberg task ","12","10809","17","yes","1024"
"66.6666666667","66.6666666667","635.5","635.5","black","experiment","legacy","legacy","legacy","0","uniform","0","0","undefined","right","17","17","17","17","17","0","17","17","0","0","17","0","0","17","0","10/22/22 19:43:28","The main experiment item","yes","Sternbergtask.osexp","C:\Users\ayesh\OneDrive\Desktop","no","mono","no","18","no","white","no","yes","768","legacy","5","11","C:/Users/ayesh/OneDrive/Desktop/MK-subject-3.csv","legacy","6 9 7 3 8 2","Lentiform Loewenfeld","3.3.12","0","n","0","left","left","NA","left","left","630","630","NA","18878","24854","2","legacy","6","1024","2","48000","-16","experiment","2","even","5","156412","158617","160618","161249","160618","NA","155325","156411","11374","126537","149077","11379","101682","157413","30258","Sternberg task ","12","11439","18","yes","1024"
"68.4210526316","68.4210526316","638.947368421","638.947368421","black","experiment","legacy","legacy","legacy","0","uniform","1","1","undefined","right","18","18","18","18","18","0","18","18","0","0","18","0","0","18","0","10/22/22 19:43:28","The main experiment item","yes","Sternbergtask.osexp","C:\Users\ayesh\OneDrive\Desktop","no","mono","no","18","no","white","no","yes","768","legacy","6","11","C:/Users/ayesh/OneDrive/Desktop/MK-subject-3.csv","legacy","9 7 4 5 8","Lentiform Loewenfeld","3.3.12","0","n","0","right","right","NA","left","left","701","701","NA","18878","24854","2","legacy","5","1024","2","48000","-16","experiment","2","even","6","162341","164546","166547","167249","166547","NA","155325","162339","11374","126537","161253","11379","101682","163343","30258","Sternberg task ","13","12140","19","yes","1024"
"65","65","632.1","632.1","black","experiment","legacy","legacy","legacy","0","uniform","0","0","undefined","right","19","19","19","19","19","0","19","19","0","0","19","0","0","19","0","10/22/22 19:43:28","The main experiment item","yes","Sternbergtask.osexp","C:\Users\ayesh\OneDrive\Desktop","no","mono","no","18","no","white","no","yes","768","legacy","7","11","C:/Users/ayesh/OneDrive/Desktop/MK-subject-3.csv","legacy","1 6 4 3 9 7","Lentiform Loewenfeld","3.3.12","0","n","0","left","left","NA","left","left","502","502","NA","18878","24854","2","legacy","6","1024","2","48000","-16","experiment","2","even","8","168337","170544","172547","173050","172547","NA","167253","168336","11374","126537","161253","11379","101682","169339","30258","Sternberg task ","13","12642","20","yes","1024"
"66.6666666667","66.6666666667","623.761904762","623.761904762","black","experiment","legacy","legacy","legacy","0","uniform","1","1","undefined","right","20","20","20","20","20","0","20","20","0","0","20","0","0","20","0","10/22/22 19:43:28","The main experiment item","yes","Sternbergtask.osexp","C:\Users\ayesh\OneDrive\Desktop","no","mono","no","18","no","white","no","yes","768","legacy","8","11","C:/Users/ayesh/OneDrive/Desktop/MK-subject-3.csv","legacy","1 8 7","Lentiform Loewenfeld","3.3.12","0","n","0","right","right","NA","left","left","457","457","NA","18878","24854","2","legacy","3","1024","2","48000","-16","experiment","2","even","4","174144","176349","178351","178809","178351","NA","167253","174142","11374","126537","173054","11379","101682","175145","30258","Sternberg task ","14","13099","21","yes","1024"
"63.6363636364","63.6363636364","620.136363636","620.136363636","black","experiment","legacy","legacy","legacy","0","uniform","0","0","undefined","right","21","21","21","21","21","0","21","21","0","0","21","0","0","21","0","10/22/22 19:43:28","The main experiment item","yes","Sternbergtask.osexp","C:\Users\ayesh\OneDrive\Desktop","no","mono","no","18","no","white","no","yes","768","legacy","9","11","C:/Users/ayesh/OneDrive/Desktop/MK-subject-3.csv","legacy","1 7 5 2","Lentiform Loewenfeld","3.3.12","0","n","0","left","left","NA","left","left","544","544","NA","18878","24854","2","legacy","4","1024","2","48000","-16","experiment","2","even","3","179887","182094","184096","184641","184095","NA","178812","179885","11374","126537","173054","11379","101682","180889","30258","Sternberg task ","14","13643","22","yes","1024"
"65.2173913043","65.2173913043","610.565217391","610.565217391","black","experiment","legacy","legacy","legacy","0","uniform","1","1","undefined","right","22","22","22","22","22","0","22","22","0","0","22","0","0","22","0","10/22/22 19:43:28","The main experiment item","yes","Sternbergtask.osexp","C:\Users\ayesh\OneDrive\Desktop","no","mono","no","18","no","white","no","yes","768","legacy","10","11","C:/Users/ayesh/OneDrive/Desktop/MK-subject-3.csv","legacy","7 9","Lentiform Loewenfeld","3.3.12","0","n","0","right","right","NA","left","left","400","400","NA","18878","24854","2","legacy","2","1024","2","48000","-16","experiment","2","even","1","185718","187924","189928","190329","189928","NA","178812","185716","11374","126537","184645","11379","101682","186719","30258","Sternberg task ","15","14043","23","yes","1024"
"62.5","62.5","606.166666667","606.166666667","black","experiment","legacy","legacy","legacy","0","uniform","0","0","undefined","right","23","23","23","23","23","0","23","23","0","0","23","0","0","23","0","10/22/22 19:43:28","The main experiment item","yes","Sternbergtask.osexp","C:\Users\ayesh\OneDrive\Desktop","no","mono","no","18","no","white","no","yes","768","legacy","11","11","C:/Users/ayesh/OneDrive/Desktop/MK-subject-3.csv","legacy","7 8 6 1","Lentiform Loewenfeld","3.3.12","0","n","0","left","left","NA","left","left","505","505","NA","18878","24854","2","legacy","4","1024","2","48000","-16","experiment","2","even","3","191407","193612","195617","196123","195617","NA","190333","191405","11374","126537","184645","11379","101682","192408","30258","Sternberg task ","15","14548","24","yes","1024"
"64","64","613.16","613.16","black","experiment","legacy","legacy","legacy","0","uniform","1","1","undefined","left","24","24","24","24","24","0","24","24","0","0","24","0","0","24","0","10/22/22 19:43:28","The main experiment item","yes","Sternbergtask.osexp","C:\Users\ayesh\OneDrive\Desktop","no","mono","no","18","no","white","no","yes","768","legacy","12","11","C:/Users/ayesh/OneDrive/Desktop/MK-subject-3.csv","legacy","9 6 2 4 1","Lentiform Loewenfeld","3.3.12","4","y","0","left","left","NA","left","left","781","781","NA","18878","24854","2","legacy","5","1024","2","48000","-16","experiment","2","even","4","197200","199406","201411","202193","201410","NA","190333","197198","11374","126537","196126","11379","101682","198201","30258","Sternberg task ","16","15329","25","yes","1024"
"65.3846153846","65.3846153846","618.384615385","618.384615385","black","experiment","legacy","legacy","legacy","0","uniform","1","1","undefined","left","25","25","25","25","25","0","25","25","0","0","25","0","0","25","0","10/22/22 19:43:28","The main experiment item","yes","Sternbergtask.osexp","C:\Users\ayesh\OneDrive\Desktop","no","mono","no","18","no","white","no","yes","768","legacy","13","11","C:/Users/ayesh/OneDrive/Desktop/MK-subject-3.csv","legacy","6 9 3 1","Lentiform Loewenfeld","3.3.12","4","y","0","left","left","NA","left","left","749","749","NA","18878","24854","2","legacy","4","1024","2","48000","-16","experiment","2","even","1","203270","205475","207476","208226","207476","NA","202197","203269","11374","126537","196126","11379","101682","204271","30258","Sternberg task ","17","16078","26","yes","1024"
"66.6666666667","66.6666666667","627.333333333","627.333333333","black","experiment","legacy","legacy","legacy","0","uniform","1","1","undefined","left","26","26","26","26","26","0","26","26","0","0","26","0","0","26","0","10/22/22 19:43:28","The main experiment item","yes","Sternbergtask.osexp","C:\Users\ayesh\OneDrive\Desktop","no","mono","no","18","no","white","no","yes","768","legacy","14","11","C:/Users/ayesh/OneDrive/Desktop/MK-subject-3.csv","legacy","9 1 6 7 8","Lentiform Loewenfeld","3.3.12","1","y","0","left","left","NA","left","left","860","860","NA","18878","24854","2","legacy","5","1024","2","48000","-16","experiment","2","even","9","209302","211508","213509","214370","213509","NA","208229","209301","11374","126537","196126","11379","101682","210303","30258","Sternberg task ","18","16938","27","yes","1024"
"67.8571428571","67.8571428571","623.571428571","623.571428571","black","experiment","legacy","legacy","legacy","0","uniform","1","1","undefined","left","27","27","27","27","27","0","27","27","0","0","27","0","0","27","0","10/22/22 19:43:28","The main experiment item","yes","Sternbergtask.osexp","C:\Users\ayesh\OneDrive\Desktop","no","mono","no","18","no","white","no","yes","768","legacy","15","11","C:/Users/ayesh/OneDrive/Desktop/MK-subject-3.csv","legacy","8 9 5 6 7","Lentiform Loewenfeld","3.3.12","1","y","0","left","left","NA","left","left","522","522","NA","18878","24854","2","legacy","5","1024","2","48000","-16","experiment","2","even","8","215449","217654","219655","220178","219655","NA","214375","215447","11374","126537","196126","11379","101682","216450","30258","Sternberg task ","19","17460","28","yes","1024"
"68.9655172414","68.9655172414","632.586206897","632.586206897","black","experiment","legacy","legacy","legacy","0","uniform","1","1","undefined","right","28","28","28","28","28","0","28","28","0","0","28","0","0","28","0","10/22/22 19:43:28","The main experiment item","yes","Sternbergtask.osexp","C:\Users\ayesh\OneDrive\Desktop","no","mono","no","18","no","white","no","yes","768","legacy","16","11","C:/Users/ayesh/OneDrive/Desktop/MK-subject-3.csv","legacy","9 5 3 2 8 6","Lentiform Loewenfeld","3.3.12","0","n","0","right","right","NA","left","left","885","885","NA","18878","24854","2","legacy","6","1024","2","48000","-16","experiment","2","even","7","221252","223459","225460","226346","225460","NA","220181","221251","11374","126537","196126","11379","101682","222254","30258","Sternberg task ","20","18345","29","yes","1024"
"70","70","639.866666667","639.866666667","black","experiment","legacy","legacy","legacy","0","uniform","1","1","undefined","right","29","29","29","29","29","0","29","29","0","0","29","0","0","29","0","10/22/22 19:43:28","The main experiment item","yes","Sternbergtask.osexp","C:\Users\ayesh\OneDrive\Desktop","no","mono","no","18","no","white","no","yes","768","legacy","17","11","C:/Users/ayesh/OneDrive/Desktop/MK-subject-3.csv","legacy","6 9 4 5 3 2","Lentiform Loewenfeld","3.3.12","0","n","0","right","right","NA","left","left","851","851","NA","18878","24854","2","legacy","6","1024","2","48000","-16","experiment","2","even","8","227423","229628","231630","232482","231630","NA","226350","227421","11374","126537","196126","11379","101682","228424","30258","Sternberg task ","21","19196","30","yes","1024"
"70.9677419355","70.9677419355","641.064516129","641.064516129","black","experiment","legacy","legacy","legacy","0","uniform","1","1","undefined","left","30","30","30","30","30","0","30","30","0","0","30","0","0","30","0","10/22/22 19:43:28","The main experiment item","yes","Sternbergtask.osexp","C:\Users\ayesh\OneDrive\Desktop","no","mono","no","18","no","white","no","yes","768","legacy","18","11","C:/Users/ayesh/OneDrive/Desktop/MK-subject-3.csv","legacy","2 4 6 9","Lentiform Loewenfeld","3.3.12","3","y","0","left","left","NA","left","left","677","677","NA","18878","24854","2","legacy","4","1024","2","48000","-16","experiment","2","even","6","233572","235778","237779","238457","237779","NA","232487","233571","11374","126537","196126","11379","101682","234573","30258","Sternberg task ","22","19873","31","yes","1024"
"68.75","68.75","652.65625","652.65625","black","experiment","legacy","legacy","legacy","0","uniform","0","0","undefined","right","31","31","31","31","31","0","31","31","0","0","31","0","0","31","0","10/22/22 19:43:28","The main experiment item","yes","Sternbergtask.osexp","C:\Users\ayesh\OneDrive\Desktop","no","mono","no","18","no","white","no","yes","768","legacy","19","11","C:/Users/ayesh/OneDrive/Desktop/MK-subject-3.csv","legacy","7 1 8 4 9 3","Lentiform Loewenfeld","3.3.12","0","n","0","left","left","NA","left","left","1012","1012","NA","18878","24854","2","legacy","6","1024","2","48000","-16","experiment","2","even","6","239534","241739","243741","244753","243741","NA","238462","239531","11374","126537","196126","11379","101682","240535","30258","Sternberg task ","22","20885","32","yes","1024"
"69.696969697","69.696969697","653.727272727","653.727272727","black","experiment","legacy","legacy","legacy","0","uniform","1","1","undefined","right","32","32","32","32","32","0","32","32","0","0","32","0","0","32","0","10/22/22 19:43:28","The main experiment item","yes","Sternbergtask.osexp","C:\Users\ayesh\OneDrive\Desktop","no","mono","no","18","no","white","no","yes","768","legacy","20","11","C:/Users/ayesh/OneDrive/Desktop/MK-subject-3.csv","legacy","6 2 9 3 8 4","Lentiform Loewenfeld","3.3.12","0","n","0","right","right","NA","left","left","688","688","NA","18878","24854","2","legacy","6","1024","2","48000","-16","experiment","2","even","1","245835","248040","250041","250729","250041","NA","238462","245832","11374","126537","244758","11379","101682","246836","30258","Sternberg task ","23","21573","33","yes","1024"
"67.6470588235","67.6470588235","648.558823529","648.558823529","black","experiment","legacy","legacy","legacy","0","uniform","0","0","undefined","right","33","33","33","33","33","0","33","33","0","0","33","0","0","33","0","10/22/22 19:43:28","The main experiment item","yes","Sternbergtask.osexp","C:\Users\ayesh\OneDrive\Desktop","no","mono","no","18","no","white","no","yes","768","legacy","21","11","C:/Users/ayesh/OneDrive/Desktop/MK-subject-3.csv","legacy","5 2","Lentiform Loewenfeld","3.3.12","0","n","0","left","left","NA","left","left","478","478","NA","18878","24854","2","legacy","2","1024","2","48000","-16","experiment","2","even","7","251806","254011","256012","256491","256012","NA","250733","251805","11374","126537","244758","11379","101682","252807","30258","Sternberg task ","23","22051","34","yes","1024"
"68.5714285714","68.5714285714","647.228571429","647.228571429","black","experiment","legacy","legacy","legacy","0","uniform","1","1","undefined","right","34","34","34","34","34","0","34","34","0","0","34","0","0","34","0","10/22/22 19:43:28","The main experiment item","yes","Sternbergtask.osexp","C:\Users\ayesh\OneDrive\Desktop","no","mono","no","18","no","white","no","yes","768","legacy","22","11","C:/Users/ayesh/OneDrive/Desktop/MK-subject-3.csv","legacy","5 3 8 7 2 4","Lentiform Loewenfeld","3.3.12","0","n","0","right","right","NA","left","left","602","602","NA","18878","24854","2","legacy","6","1024","2","48000","-16","experiment","2","even","9","257567","259772","261775","262377","261775","NA","250733","257565","11374","126537","256494","11379","101682","258568","30258","Sternberg task ","24","22653","35","yes","1024"
"69.4444444444","69.4444444444","653.777777778","653.777777778","black","experiment","legacy","legacy","legacy","0","uniform","1","1","undefined","right","35","35","35","35","35","0","35","35","0","0","35","0","0","35","0","10/22/22 19:43:28","The main experiment item","yes","Sternbergtask.osexp","C:\Users\ayesh\OneDrive\Desktop","no","mono","no","18","no","white","no","yes","768","legacy","23","11","C:/Users/ayesh/OneDrive/Desktop/MK-subject-3.csv","legacy","3 9 8 1 6 4","Lentiform Loewenfeld","3.3.12","0","n","0","right","right","NA","left","left","883","883","NA","18878","24854","2","legacy","6","1024","2","48000","-16","experiment","2","even","7","263455","265660","267661","268545","267661","NA","262381","263453","11374","126537","256494","11379","101682","264456","30258","Sternberg task ","25","23536","36","yes","1024"
"70.2702702703","70.2702702703","655.675675676","655.675675676","black","experiment","legacy","legacy","legacy","0","uniform","1","1","undefined","right","36","36","36","36","36","0","36","36","0","0","36","0","0","36","0","10/22/22 19:43:28","The main experiment item","yes","Sternbergtask.osexp","C:\Users\ayesh\OneDrive\Desktop","no","mono","no","18","no","white","no","yes","768","legacy","24","11","C:/Users/ayesh/OneDrive/Desktop/MK-subject-3.csv","legacy","6 9 5","Lentiform Loewenfeld","3.3.12","0","n","0","right","right","NA","left","left","724","724","NA","18878","24854","2","legacy","3","1024","2","48000","-16","experiment","2","even","8","269622","271827","273829","274553","273829","NA","268550","269620","11374","126537","256494","11379","101682","270623","30258","Sternberg task ","26","24260","37","yes","1024"
"71.0526315789","71.0526315789","655.263157895","655.263157895","black","experiment","legacy","legacy","legacy","0","uniform","1","1","undefined","left","37","37","37","37","37","0","37","37","0","0","37","0","0","37","0","10/22/22 19:43:28","The main experiment item","yes","Sternbergtask.osexp","C:\Users\ayesh\OneDrive\Desktop","no","mono","no","18","no","white","no","yes","768","legacy","25","11","C:/Users/ayesh/OneDrive/Desktop/MK-subject-3.csv","legacy","6 7 9 3 1 2","Lentiform Loewenfeld","3.3.12","1","y","0","left","left","NA","left","left","640","640","NA","18878","24854","2","legacy","6","1024","2","48000","-16","experiment","2","even","6","275641","277847","279849","280490","279849","NA","274559","275639","11374","126537","256494","11379","101682","276643","30258","Sternberg task ","27","24900","38","yes","1024"
"71.7948717949","71.7948717949","657.769230769","657.769230769","black","experiment","legacy","legacy","legacy","0","uniform","1","1","undefined","right","38","38","38","38","38","0","38","38","0","0","38","0","0","38","0","10/22/22 19:43:28","The main experiment item","yes","Sternbergtask.osexp","C:\Users\ayesh\OneDrive\Desktop","no","mono","no","18","no","white","no","yes","768","legacy","26","11","C:/Users/ayesh/OneDrive/Desktop/MK-subject-3.csv","legacy","6 7 5 9","Lentiform Loewenfeld","3.3.12","0","n","0","right","right","NA","left","left","753","753","NA","18878","24854","2","legacy","4","1024","2","48000","-16","experiment","2","even","2","281568","283773","285775","286530","285775","NA","280494","281566","11374","126537","256494","11379","101682","282569","30258","Sternberg task ","28","25653","39","yes","1024"
"70","70","664.1","664.1","black","experiment","legacy","legacy","legacy","0","uniform","0","0","undefined","left","39","39","39","39","39","0","39","39","0","0","39","0","0","39","0","10/22/22 19:43:28","The main experiment item","yes","Sternbergtask.osexp","C:\Users\ayesh\OneDrive\Desktop","no","mono","no","18","no","white","no","yes","768","legacy","27","11","C:/Users/ayesh/OneDrive/Desktop/MK-subject-3.csv","legacy","8 5 4 7 3 1","Lentiform Loewenfeld","3.3.12","2","y","0","right","right","NA","left","left","911","911","NA","18878","24854","2","legacy","6","1024","2","48000","-16","experiment","2","even","5","287611","289816","291818","292729","291818","NA","286533","287609","11374","126537","256494","11379","101682","288612","30258","Sternberg task ","28","26564","40","yes","1024"
"68.2926829268","68.2926829268","663.195121951","663.195121951","black","experiment","legacy","legacy","legacy","0","uniform","0","0","undefined","left","40","40","40","40","40","0","40","40","0","0","40","0","0","40","0","10/22/22 19:43:28","The main experiment item","yes","Sternbergtask.osexp","C:\Users\ayesh\OneDrive\Desktop","no","mono","no","18","no","white","no","yes","768","legacy","28","11","C:/Users/ayesh/OneDrive/Desktop/MK-subject-3.csv","legacy","4 3 2 5 8","Lentiform Loewenfeld","3.3.12","2","y","0","right","right","NA","left","left","627","627","NA","18878","24854","2","legacy","5","1024","2","48000","-16","experiment","2","even","3","293822","296027","298029","298657","298029","NA","286533","293821","11374","126537","292733","11379","101682","294823","30258","Sternberg task ","28","27191","41","yes","1024"
"69.0476190476","69.0476190476","657.452380952","657.452380952","black","experiment","legacy","legacy","legacy","0","uniform","1","1","undefined","left","41","41","41","41","41","0","41","41","0","0","41","0","0","41","0","10/22/22 19:43:28","The main experiment item","yes","Sternbergtask.osexp","C:\Users\ayesh\OneDrive\Desktop","no","mono","no","18","no","white","no","yes","768","legacy","29","11","C:/Users/ayesh/OneDrive/Desktop/MK-subject-3.csv","legacy","6 1 2","Lentiform Loewenfeld","3.3.12","3","y","0","left","left","NA","left","left","422","422","NA","18878","24854","2","legacy","3","1024","2","48000","-16","experiment","2","even","2","299740","301946","303947","304370","303947","NA","286533","299739","11374","126537","298660","11379","101682","300741","30258","Sternberg task ","29","27613","42","yes","1024"
"69.7674418605","69.7674418605","655.558139535","655.558139535","black","experiment","legacy","legacy","legacy","0","uniform","1","1","undefined","right","42","42","42","42","42","0","42","42","0","0","42","0","0","42","0","10/22/22 19:43:28","The main experiment item","yes","Sternbergtask.osexp","C:\Users\ayesh\OneDrive\Desktop","no","mono","no","18","no","white","no","yes","768","legacy","30","11","C:/Users/ayesh/OneDrive/Desktop/MK-subject-3.csv","legacy","4 2 6 9","Lentiform Loewenfeld","3.3.12","0","n","0","right","right","NA","left","left","576","576","NA","18878","24854","2","legacy","4","1024","2","48000","-16","experiment","2","even","7","305451","307656","309657","310234","309657","NA","304373","305449","11374","126537","298660","11379","101682","306452","30258","Sternberg task ","30","28189","43","yes","1024"
"70.4545454545","70.4545454545","659.227272727","659.227272727","black","experiment","legacy","legacy","legacy","0","uniform","1","1","undefined","right","43","43","43","43","43","0","43","43","0","0","43","0","0","43","0","10/22/22 19:43:28","The main experiment item","yes","Sternbergtask.osexp","C:\Users\ayesh\OneDrive\Desktop","no","mono","no","18","no","white","no","yes","768","legacy","31","11","C:/Users/ayesh/OneDrive/Desktop/MK-subject-3.csv","legacy","9","Lentiform Loewenfeld","3.3.12","0","n","0","right","right","NA","left","left","817","817","NA","18878","24854","2","legacy","1","1024","2","48000","-16","experiment","2","even","6","311313","313518","315520","316338","315520","NA","310239","311311","11374","126537","298660","11379","101682","312314","30258","Sternberg task ","31","29006","44","yes","1024"
"71.1111111111","71.1111111111","661.4","661.4","black","experiment","legacy","legacy","legacy","0","uniform","1","1","undefined","left","44","44","44","44","44","0","44","44","0","0","44","0","0","44","0","10/22/22 19:43:28","The main experiment item","yes","Sternbergtask.osexp","C:\Users\ayesh\OneDrive\Desktop","no","mono","no","18","no","white","no","yes","768","legacy","32","11","C:/Users/ayesh/OneDrive/Desktop/MK-subject-3.csv","legacy","5 2 9 6 1 7","Lentiform Loewenfeld","3.3.12","3","y","0","left","left","NA","left","left","757","757","NA","18878","24854","2","legacy","6","1024","2","48000","-16","experiment","2","even","9","317413","319619","321620","322378","321620","NA","316341","317411","11374","126537","298660","11379","101682","318415","30258","Sternberg task ","32","29763","45","yes","1024"
"71.7391304348","71.7391304348","662.891304348","662.891304348","black","experiment","legacy","legacy","legacy","0","uniform","1","1","undefined","left","45","45","45","45","45","0","45","45","0","0","45","0","0","45","0","10/22/22 19:43:28","The main experiment item","yes","Sternbergtask.osexp","C:\Users\ayesh\OneDrive\Desktop","no","mono","no","18","no","white","no","yes","768","legacy","33","11","C:/Users/ayesh/OneDrive/Desktop/MK-subject-3.csv","legacy","3 5 7 1","Lentiform Loewenfeld","3.3.12","3","y","0","left","left","NA","left","left","730","730","NA","18878","24854","2","legacy","4","1024","2","48000","-16","experiment","2","even","7","323455","325661","327662","328393","327662","NA","322382","323453","11374","126537","298660","11379","101682","324456","30258","Sternberg task ","33","30493","46","yes","1024"
"72.3404255319","72.3404255319","659.574468085","659.574468085","black","experiment","legacy","legacy","legacy","0","uniform","1","1","undefined","left","46","46","46","46","46","0","46","46","0","0","46","0","0","46","0","10/22/22 19:43:28","The main experiment item","yes","Sternbergtask.osexp","C:\Users\ayesh\OneDrive\Desktop","no","mono","no","18","no","white","no","yes","768","legacy","34","11","C:/Users/ayesh/OneDrive/Desktop/MK-subject-3.csv","legacy","9 8 4","Lentiform Loewenfeld","3.3.12","1","y","0","left","left","NA","left","left","507","507","NA","18878","24854","2","legacy","3","1024","2","48000","-16","experiment","2","even","9","329471","331676","333677","334185","333677","NA","328398","329469","11374","126537","298660","11379","101682","330472","30258","Sternberg task ","34","31000","47","yes","1024"
"72.9166666667","72.9166666667","660.354166667","660.354166667","black","experiment","legacy","legacy","legacy","0","uniform","1","1","undefined","right","47","47","47","47","47","0","47","47","0","0","47","0","0","47","0","10/22/22 19:43:28","The main experiment item","yes","Sternbergtask.osexp","C:\Users\ayesh\OneDrive\Desktop","no","mono","no","18","no","white","no","yes","768","legacy","35","11","C:/Users/ayesh/OneDrive/Desktop/MK-subject-3.csv","legacy","1 7 5 2 9","Lentiform Loewenfeld","3.3.12","0","n","0","right","right","NA","left","left","697","697","NA","18878","24854","2","legacy","5","1024","2","48000","-16","experiment","2","even","3","335264","337470","339471","340169","339471","NA","334189","335262","11374","126537","298660","11379","101682","336265","30258","Sternberg task ","35","31697","48","yes","1024"
"73.4693877551","73.4693877551","657.612244898","657.612244898","black","experiment","legacy","legacy","legacy","0","uniform","1","1","undefined","left","48","48","48","48","48","0","48","48","0","0","48","0","0","48","0","10/22/22 19:43:28","The main experiment item","yes","Sternbergtask.osexp","C:\Users\ayesh\OneDrive\Desktop","no","mono","no","18","no","white","no","yes","768","legacy","36","11","C:/Users/ayesh/OneDrive/Desktop/MK-subject-3.csv","legacy","8 7 3","Lentiform Loewenfeld","3.3.12","1","y","0","left","left","NA","left","left","526","526","NA","18878","24854","2","legacy","3","1024","2","48000","-16","experiment","2","even","8","341245","343450","345451","345977","345451","NA","340172","341243","11374","126537","298660","11379","101682","342246","30258","Sternberg task ","36","32223","49","yes","1024"
"72","72","659.9","659.9","black","experiment","legacy","legacy","legacy","0","uniform","0","0","undefined","left","49","49","49","49","49","0","49","49","0","0","49","0","0","49","0","10/22/22 19:43:28","The main experiment item","yes","Sternbergtask.osexp","C:\Users\ayesh\OneDrive\Desktop","no","mono","no","18","no","white","no","yes","768","legacy","37","11","C:/Users/ayesh/OneDrive/Desktop/MK-subject-3.csv","legacy","8 5 1 3 9","Lentiform Loewenfeld","3.3.12","4","y","0","right","right","NA","left","left","772","772","NA","18878","24854","2","legacy","5","1024","2","48000","-16","experiment","2","even","3","347055","349260","351261","352034","351261","NA","345982","347054","11374","126537","298660","11379","101682","348056","30258","Sternberg task ","36","32995","50","yes","1024"
"72.5490196078","72.5490196078","659.137254902","659.137254902","black","experiment","legacy","legacy","legacy","0","uniform","1","1","undefined","right","50","50","50","50","50","0","50","50","0","0","50","0","0","50","0","10/22/22 19:43:28","The main experiment item","yes","Sternbergtask.osexp","C:\Users\ayesh\OneDrive\Desktop","no","mono","no","18","no","white","no","yes","768","legacy","38","11","C:/Users/ayesh/OneDrive/Desktop/MK-subject-3.csv","legacy","1 7 8 3 9","Lentiform Loewenfeld","3.3.12","0","n","0","right","right","NA","left","left","621","621","NA","18878","24854","2","legacy","5","1024","2","48000","-16","experiment","2","even","2","353125","355331","357332","357954","357332","NA","345982","353122","11374","126537","352038","11379","101682","354126","30258","Sternberg task ","37","33616","51","yes","1024"
"73.0769230769","73.0769230769","655.25","655.25","black","experiment","legacy","legacy","legacy","0","uniform","1","1","undefined","right","51","51","51","51","51","0","51","51","0","0","51","0","0","51","0","10/22/22 19:43:28","The main experiment item","yes","Sternbergtask.osexp","C:\Users\ayesh\OneDrive\Desktop","no","mono","no","18","no","white","no","yes","768","legacy","39","11","C:/Users/ayesh/OneDrive/Desktop/MK-subject-3.csv","legacy","4 1","Lentiform Loewenfeld","3.3.12","0","n","0","right","right","NA","left","left","457","457","NA","18878","24854","2","legacy","2","1024","2","48000","-16","experiment","2","even","6","359034","361239","363240","363698","363240","NA","357959","359032","11374","126537","352038","11379","101682","360035","30258","Sternberg task ","38","34073","52","yes","1024"
"73.5849056604","73.5849056604","659.981132075","659.981132075","black","experiment","legacy","legacy","legacy","0","uniform","1","1","undefined","left","52","52","52","52","52","0","52","52","0","0","52","0","0","52","0","10/22/22 19:43:28","The main experiment item","yes","Sternbergtask.osexp","C:\Users\ayesh\OneDrive\Desktop","no","mono","no","18","no","white","no","yes","768","legacy","40","11","C:/Users/ayesh/OneDrive/Desktop/MK-subject-3.csv","legacy","3 9 6 2","Lentiform Loewenfeld","3.3.12","4","y","0","left","left","NA","left","left","906","906","NA","18878","24854","2","legacy","4","1024","2","48000","-16","experiment","2","even","2","364775","366981","368982","369889","368982","NA","363703","364773","11374","126537","352038","11379","101682","365777","30258","Sternberg task ","39","34979","53","yes","1024"
"72.2222222222","72.2222222222","666.055555556","666.055555556","black","experiment","legacy","legacy","legacy","0","uniform","0","0","undefined","right","53","53","53","53","53","0","53","53","0","0","53","0","0","53","0","10/22/22 19:43:28","The main experiment item","yes","Sternbergtask.osexp","C:\Users\ayesh\OneDrive\Desktop","no","mono","no","18","no","white","no","yes","768","legacy","41","11","C:/Users/ayesh/OneDrive/Desktop/MK-subject-3.csv","legacy","3 4 9 6 7 8","Lentiform Loewenfeld","3.3.12","0","n","0","left","left","NA","left","left","988","988","NA","18878","24854","2","legacy","6","1024","2","48000","-16","experiment","2","even","2","370966","373171","375172","376161","375172","NA","369894","370965","11374","126537","352038","11379","101682","371967","30258","Sternberg task ","39","35967","54","yes","1024"
"72.7272727273","72.7272727273","680.945454545","680.945454545","black","experiment","legacy","legacy","legacy","0","uniform","1","1","undefined","left","54","54","54","54","54","0","54","54","0","0","54","0","0","54","0","10/22/22 19:43:28","The main experiment item","yes","Sternbergtask.osexp","C:\Users\ayesh\OneDrive\Desktop","no","mono","no","18","no","white","no","yes","768","legacy","42","11","C:/Users/ayesh/OneDrive/Desktop/MK-subject-3.csv","legacy","7 1 8 5 6 2","Lentiform Loewenfeld","3.3.12","2","y","0","left","left","NA","left","left","1485","1485","NA","18878","24854","2","legacy","6","1024","2","48000","-16","experiment","2","even","1","377238","379442","381444","382929","381444","NA","369894","377237","11374","126537","376165","11379","101682","378239","30258","Sternberg task ","40","37452","55","yes","1024"
"73.2142857143","73.2142857143","680.678571429","680.678571429","black","experiment","legacy","legacy","legacy","0","uniform","1","1","undefined","left","55","55","55","55","55","0","55","55","0","0","55","0","0","55","0","10/22/22 19:43:28","The main experiment item","yes","Sternbergtask.osexp","C:\Users\ayesh\OneDrive\Desktop","no","mono","no","18","no","white","no","yes","768","legacy","43","11","C:/Users/ayesh/OneDrive/Desktop/MK-subject-3.csv","legacy","1 4 9 3 2 5","Lentiform Loewenfeld","3.3.12","3","y","0","left","left","NA","left","left","666","666","NA","18878","24854","2","legacy","6","1024","2","48000","-16","experiment","2","even","9","384007","386212","388214","388881","388214","NA","382933","384005","11374","126537","376165","11379","101682","385008","30258","Sternberg task ","41","38118","56","yes","1024"
"73.6842105263","73.6842105263","684.280701754","684.280701754","black","experiment","legacy","legacy","legacy","0","uniform","1","1","undefined","right","56","56","56","56","56","0","56","56","0","0","56","0","0","56","0","10/22/22 19:43:28","The main experiment item","yes","Sternbergtask.osexp","C:\Users\ayesh\OneDrive\Desktop","no","mono","no","18","no","white","no","yes","768","legacy","44","11","C:/Users/ayesh/OneDrive/Desktop/MK-subject-3.csv","legacy","8 9","Lentiform Loewenfeld","3.3.12","0","n","0","right","right","NA","left","left","886","886","NA","18878","24854","2","legacy","2","1024","2","48000","-16","experiment","2","even","5","389973","392178","394179","395066","394179","NA","388885","389971","11374","126537","376165","11379","101682","390974","30258","Sternberg task ","42","39004","57","yes","1024"
"74.1379310345","74.1379310345","688.396551724","688.396551724","black","experiment","legacy","legacy","legacy","0","uniform","1","1","undefined","left","57","57","57","57","57","0","57","57","0","0","57","0","0","57","0","10/22/22 19:43:28","The main experiment item","yes","Sternbergtask.osexp","C:\Users\ayesh\OneDrive\Desktop","no","mono","no","18","no","white","no","yes","768","legacy","45","11","C:/Users/ayesh/OneDrive/Desktop/MK-subject-3.csv","legacy","4 6 2 5 1","Lentiform Loewenfeld","3.3.12","5","y","0","left","left","NA","left","left","923","923","NA","18878","24854","2","legacy","5","1024","2","48000","-16","experiment","2","even","1","396143","398348","400349","401274","400349","NA","395071","396142","11374","126537","376165","11379","101682","397144","30258","Sternberg task ","43","39927","58","yes","1024"
"74.5762711864","74.5762711864","688.118644068","688.118644068","black","experiment","legacy","legacy","legacy","0","uniform","1","1","undefined","left","58","58","58","58","58","0","58","58","0","0","58","0","0","58","0","10/22/22 19:43:28","The main experiment item","yes","Sternbergtask.osexp","C:\Users\ayesh\OneDrive\Desktop","no","mono","no","18","no","white","no","yes","768","legacy","46","11","C:/Users/ayesh/OneDrive/Desktop/MK-subject-3.csv","legacy","6 2","Lentiform Loewenfeld","3.3.12","1","y","0","left","left","NA","left","left","672","672","NA","18878","24854","2","legacy","2","1024","2","48000","-16","experiment","2","even","6","402354","404560","406561","407234","406561","NA","401278","402352","11374","126537","376165","11379","101682","403355","30258","Sternberg task ","44","40599","59","yes","1024"
"75","75","686.383333333","686.383333333","black","experiment","legacy","legacy","legacy","0","uniform","1","1","undefined","left","59","59","59","59","59","0","59","59","0","0","59","0","0","59","0","10/22/22 19:43:28","The main experiment item","yes","Sternbergtask.osexp","C:\Users\ayesh\OneDrive\Desktop","no","mono","no","18","no","white","no","yes","768","legacy","47","11","C:/Users/ayesh/OneDrive/Desktop/MK-subject-3.csv","legacy","8","Lentiform Loewenfeld","3.3.12","1","y","0","left","left","NA","left","left","584","584","NA","18878","24854","2","legacy","1","1024","2","48000","-16","experiment","2","even","8","408315","410520","412521","413106","412521","NA","407238","408312","11374","126537","376165","11379","101682","409316","30258","Sternberg task ","45","41183","60","yes","1024"
"75.4098360656","75.4098360656","688.655737705","688.655737705","black","experiment","legacy","legacy","legacy","0","uniform","1","1","undefined","right","60","60","60","60","60","0","60","60","0","0","60","0","0","60","0","10/22/22 19:43:28","The main experiment item","yes","Sternbergtask.osexp","C:\Users\ayesh\OneDrive\Desktop","no","mono","no","18","no","white","no","yes","768","legacy","48","11","C:/Users/ayesh/OneDrive/Desktop/MK-subject-3.csv","legacy","8 5 4 2 9 6","Lentiform Loewenfeld","3.3.12","0","n","0","right","right","NA","left","left","825","825","NA","18878","24854","2","legacy","6","1024","2","48000","-16","experiment","2","even","3","414186","416391","418392","419218","418392","NA","413110","414184","11374","126537","376165","11379","101682","415187","30258","Sternberg task ","46","42008","61","yes","1024"
"75.8064516129","75.8064516129","688.693548387","688.693548387","black","experiment","legacy","legacy","legacy","0","uniform","1","1","undefined","left","61","61","61","61","61","0","61","61","0","0","61","0","0","61","0","10/22/22 19:43:28","The main experiment item","yes","Sternbergtask.osexp","C:\Users\ayesh\OneDrive\Desktop","no","mono","no","18","no","white","no","yes","768","legacy","49","11","C:/Users/ayesh/OneDrive/Desktop/MK-subject-3.csv","legacy","9 3 8 2 1 4","Lentiform Loewenfeld","3.3.12","3","y","0","left","left","NA","left","left","691","691","NA","18878","24854","2","legacy","6","1024","2","48000","-16","experiment","2","even","8","420296","422501","424502","425193","424502","NA","419222","420294","11374","126537","376165","11379","101682","421297","30258","Sternberg task ","47","42699","62","yes","1024"
"76.1904761905","76.1904761905","691.365079365","691.365079365","black","experiment","legacy","legacy","legacy","0","uniform","1","1","undefined","left","62","62","62","62","62","0","62","62","0","0","62","0","0","62","0","10/22/22 19:43:28","The main experiment item","yes","Sternbergtask.osexp","C:\Users\ayesh\OneDrive\Desktop","no","mono","no","18","no","white","no","yes","768","legacy","50","11","C:/Users/ayesh/OneDrive/Desktop/MK-subject-3.csv","legacy","6 9 7 4 5 1","Lentiform Loewenfeld","3.3.12","2","y","0","left","left","NA","left","left","857","857","NA","18878","24854","2","legacy","6","1024","2","48000","-16","experiment","2","even","9","426271","428478","430479","431337","430479","NA","425199","426270","11374","126537","376165","11379","101682","427273","30258","Sternberg task ","48","43556","63","yes","1024"
"76.5625","76.5625","691.5625","691.5625","black","experiment","legacy","legacy","legacy","0","uniform","1","1","undefined","right","63","63","63","63","63","0","63","63","0","0","63","0","0","63","0","10/22/22 19:43:28","The main experiment item","yes","Sternbergtask.osexp","C:\Users\ayesh\OneDrive\Desktop","no","mono","no","18","no","white","no","yes","768","legacy","51","11","C:/Users/ayesh/OneDrive/Desktop/MK-subject-3.csv","legacy","2 6 4 3 9","Lentiform Loewenfeld","3.3.12","0","n","0","right","right","NA","left","left","704","704","NA","18878","24854","2","legacy","5","1024","2","48000","-16","experiment","2","even","1","432414","434615","436616","437322","436616","NA","431341","432413","11374","126537","376165","11379","101682","433415","30258","Sternberg task ","49","44260","64","yes","1024"
"76.9230769231","76.9230769231","692.538461538","692.538461538","black","experiment","legacy","legacy","legacy","0","uniform","1","1","undefined","left","64","64","64","64","64","0","64","64","0","0","64","0","0","64","0","10/22/22 19:43:28","The main experiment item","yes","Sternbergtask.osexp","C:\Users\ayesh\OneDrive\Desktop","no","mono","no","18","no","white","no","yes","768","legacy","52","11","C:/Users/ayesh/OneDrive/Desktop/MK-subject-3.csv","legacy","9 4 2","Lentiform Loewenfeld","3.3.12","1","y","0","left","left","NA","left","left","755","755","NA","18878","24854","2","legacy","3","1024","2","48000","-16","experiment","2","even","9","438399","440605","442606","443362","442606","NA","437325","438397","11374","126537","376165","11379","101682","439400","30258","Sternberg task ","50","45015","65","yes","1024"
"77.2727272727","77.2727272727","695.606060606","695.606060606","black","experiment","legacy","legacy","legacy","0","uniform","1","1","undefined","right","65","65","65","65","65","0","65","65","0","0","65","0","0","65","0","10/22/22 19:43:28","The main experiment item","yes","Sternbergtask.osexp","C:\Users\ayesh\OneDrive\Desktop","no","mono","no","18","no","white","no","yes","768","legacy","53","11","C:/Users/ayesh/OneDrive/Desktop/MK-subject-3.csv","legacy","8 5 7 3 6","Lentiform Loewenfeld","3.3.12","0","n","0","right","right","NA","left","left","895","895","NA","18878","24854","2","legacy","5","1024","2","48000","-16","experiment","2","even","9","444443","446649","448650","449546","448650","NA","443367","444442","11374","126537","376165","11379","101682","445444","30258","Sternberg task ","51","45910","66","yes","1024"
"77.6119402985","77.6119402985","696.567164179","696.567164179","black","experiment","legacy","legacy","legacy","0","uniform","1","1","undefined","left","66","66","66","66","66","0","66","66","0","0","66","0","0","66","0","10/22/22 19:43:28","The main experiment item","yes","Sternbergtask.osexp","C:\Users\ayesh\OneDrive\Desktop","no","mono","no","18","no","white","no","yes","768","legacy","54","11","C:/Users/ayesh/OneDrive/Desktop/MK-subject-3.csv","legacy","6 5","Lentiform Loewenfeld","3.3.12","2","y","0","left","left","NA","left","left","760","760","NA","18878","24854","2","legacy","2","1024","2","48000","-16","experiment","2","even","5","450624","452831","454832","455593","454832","NA","449551","450623","11374","126537","376165","11379","101682","451626","30258","Sternberg task ","52","46670","67","yes","1024"
"77.9411764706","77.9411764706","695.191176471","695.191176471","black","experiment","legacy","legacy","legacy","0","uniform","1","1","undefined","left","67","67","67","67","67","0","67","67","0","0","67","0","0","67","0","10/22/22 19:43:28","The main experiment item","yes","Sternbergtask.osexp","C:\Users\ayesh\OneDrive\Desktop","no","mono","no","18","no","white","no","yes","768","legacy","55","11","C:/Users/ayesh/OneDrive/Desktop/MK-subject-3.csv","legacy","2 6 1 7 4","Lentiform Loewenfeld","3.3.12","2","y","0","left","left","NA","left","left","603","603","NA","18878","24854","2","legacy","5","1024","2","48000","-16","experiment","2","even","6","456669","458875","460877","461481","460877","NA","455597","456668","11374","126537","376165","11379","101682","457671","30258","Sternberg task ","53","47273","68","yes","1024"
"78.2608695652","78.2608695652","693.724637681","693.724637681","black","experiment","legacy","legacy","legacy","0","uniform","1","1","undefined","left","68","68","68","68","68","0","68","68","0","0","68","0","0","68","0","10/22/22 19:43:28","The main experiment item","yes","Sternbergtask.osexp","C:\Users\ayesh\OneDrive\Desktop","no","mono","no","18","no","white","no","yes","768","legacy","56","11","C:/Users/ayesh/OneDrive/Desktop/MK-subject-3.csv","legacy","2 4 8 5 1 3","Lentiform Loewenfeld","3.3.12","1","y","0","left","left","NA","left","left","594","594","NA","18878","24854","2","legacy","6","1024","2","48000","-16","experiment","2","even","2","462559","464765","466766","467361","466766","NA","461486","462557","11374","126537","376165","11379","101682","463560","30258","Sternberg task ","54","47867","69","yes","1024"
"78.5714285714","78.5714285714","694.228571429","694.228571429","black","experiment","legacy","legacy","legacy","0","uniform","1","1","undefined","right","69","69","69","69","69","0","69","69","0","0","69","0","0","69","0","10/22/22 19:43:28","The main experiment item","yes","Sternbergtask.osexp","C:\Users\ayesh\OneDrive\Desktop","no","mono","no","18","no","white","no","yes","768","legacy","57","11","C:/Users/ayesh/OneDrive/Desktop/MK-subject-3.csv","legacy","2 8 6 3 1","Lentiform Loewenfeld","3.3.12","0","n","0","right","right","NA","left","left","729","729","NA","18878","24854","2","legacy","5","1024","2","48000","-16","experiment","2","even","7","468441","470647","472648","473378","472648","NA","467367","468439","11374","126537","376165","11379","101682","469442","30258","Sternberg task ","55","48596","70","yes","1024"
"78.8732394366","78.8732394366","694.38028169","694.38028169","black","experiment","legacy","legacy","legacy","0","uniform","1","1","undefined","right","70","70","70","70","70","0","70","70","0","0","70","0","0","70","0","10/22/22 19:43:28","The main experiment item","yes","Sternbergtask.osexp","C:\Users\ayesh\OneDrive\Desktop","no","mono","no","18","no","white","no","yes","768","legacy","58","11","C:/Users/ayesh/OneDrive/Desktop/MK-subject-3.csv","legacy","9 8 2 7 4","Lentiform Loewenfeld","3.3.12","0","n","0","right","right","NA","left","left","705","705","NA","18878","24854","2","legacy","5","1024","2","48000","-16","experiment","2","even","5","474456","476661","478664","479370","478664","NA","473382","474455","11374","126537","376165","11379","101682","475457","30258","Sternberg task ","56","49301","71","yes","1024"
"79.1666666667","79.1666666667","695.555555556","695.555555556","black","experiment","legacy","legacy","legacy","0","uniform","1","1","undefined","right","71","71","71","71","71","0","71","71","0","0","71","0","0","71","0","10/22/22 19:43:28","The main experiment item","yes","Sternbergtask.osexp","C:\Users\ayesh\OneDrive\Desktop","no","mono","no","18","no","white","no","yes","768","legacy","59","11","C:/Users/ayesh/OneDrive/Desktop/MK-subject-3.csv","legacy","4 8 1 2","Lentiform Loewenfeld","3.3.12","0","n","0","right","right","NA","left","left","779","779","NA","18878","24854","2","legacy","4","1024","2","48000","-16","experiment","2","even","7","480447","482653","484654","485435","484654","NA","479375","480446","11374","126537","376165","11379","101682","481448","30258","Sternberg task ","57","50080","72","yes","1024"
"79.4520547945","79.4520547945","696.780821918","696.780821918","black","experiment","legacy","legacy","legacy","0","uniform","1","1","undefined","left","72","72","72","72","72","0","72","72","0","0","72","0","0","72","0","10/22/22 19:43:28","The main experiment item","yes","Sternbergtask.osexp","C:\Users\ayesh\OneDrive\Desktop","no","mono","no","18","no","white","no","yes","768","legacy","60","11","C:/Users/ayesh/OneDrive/Desktop/MK-subject-3.csv","legacy","7 1 3","Lentiform Loewenfeld","3.3.12","2","y","0","left","left","NA","left","left","785","785","NA","18878","24854","2","legacy","3","1024","2","48000","-16","experiment","2","even","1","486513","488718","490720","491506","490720","NA","485439","486511","11374","126537","376165","11379","101682","487514","30258","Sternberg task ","58","50865","73","yes","1024"
"79.7297297297","79.7297297297","692.918918919","692.918918919","black","experiment","legacy","legacy","legacy","0","uniform","1","1","undefined","left","73","73","73","73","73","0","73","73","0","0","73","0","0","73","0","10/22/22 19:43:28","The main experiment item","yes","Sternbergtask.osexp","C:\Users\ayesh\OneDrive\Desktop","no","mono","no","18","no","white","no","yes","768","legacy","61","11","C:/Users/ayesh/OneDrive/Desktop/MK-subject-3.csv","legacy","9 5 8 1","Lentiform Loewenfeld","3.3.12","2","y","0","left","left","NA","left","left","411","411","NA","18878","24854","2","legacy","4","1024","2","48000","-16","experiment","2","even","5","492598","494804","496805","497217","496805","NA","491510","492597","11374","126537","376165","11379","101682","493599","30258","Sternberg task ","59","51276","74","yes","1024"
"78.6666666667","78.6666666667","694.826666667","694.826666667","black","experiment","legacy","legacy","legacy","0","uniform","0","0","undefined","left","74","74","74","74","74","0","74","74","0","0","74","0","0","74","0","10/22/22 19:43:28","The main experiment item","yes","Sternbergtask.osexp","C:\Users\ayesh\OneDrive\Desktop","no","mono","no","18","no","white","no","yes","768","legacy","62","11","C:/Users/ayesh/OneDrive/Desktop/MK-subject-3.csv","legacy","6 7 8 5","Lentiform Loewenfeld","3.3.12","3","y","0","right","right","NA","left","left","836","836","NA","18878","24854","2","legacy","4","1024","2","48000","-16","experiment","2","even","8","498294","500500","502501","503338","502501","NA","497222","498292","11374","126537","376165","11379","101682","499296","30258","Sternberg task ","59","52112","75","yes","1024"
"78.9473684211","78.9473684211","696.894736842","696.894736842","black","experiment","legacy","legacy","legacy","0","uniform","1","1","undefined","right","75","75","75","75","75","0","75","75","0","0","75","0","0","75","0","10/22/22 19:43:28","The main experiment item","yes","Sternbergtask.osexp","C:\Users\ayesh\OneDrive\Desktop","no","mono","no","18","no","white","no","yes","768","legacy","63","11","C:/Users/ayesh/OneDrive/Desktop/MK-subject-3.csv","legacy","2 8 9","Lentiform Loewenfeld","3.3.12","0","n","0","right","right","NA","left","left","852","852","NA","18878","24854","2","legacy","3","1024","2","48000","-16","experiment","2","even","6","504430","506636","508637","509490","508637","NA","497222","504428","11374","126537","503343","11379","101682","505431","30258","Sternberg task ","60","52964","76","yes","1024"
"79.2207792208","79.2207792208","697.532467532","697.532467532","black","experiment","legacy","legacy","legacy","0","uniform","1","1","undefined","right","76","76","76","76","76","0","76","76","0","0","76","0","0","76","0","10/22/22 19:43:28","The main experiment item","yes","Sternbergtask.osexp","C:\Users\ayesh\OneDrive\Desktop","no","mono","no","18","no","white","no","yes","768","legacy","64","11","C:/Users/ayesh/OneDrive/Desktop/MK-subject-3.csv","legacy","8 4 3 5","Lentiform Loewenfeld","3.3.12","0","n","0","right","right","NA","left","left","746","746","NA","18878","24854","2","legacy","4","1024","2","48000","-16","experiment","2","even","6","510569","512774","514775","515522","514775","NA","509495","510566","11374","126537","503343","11379","101682","511570","30258","Sternberg task ","61","53710","77","yes","1024"
"79.4871794872","79.4871794872","706.128205128","706.128205128","black","experiment","legacy","legacy","legacy","0","uniform","1","1","undefined","left","77","77","77","77","77","0","77","77","0","0","77","0","0","77","0","10/22/22 19:43:28","The main experiment item","yes","Sternbergtask.osexp","C:\Users\ayesh\OneDrive\Desktop","no","mono","no","18","no","white","no","yes","768","legacy","65","11","C:/Users/ayesh/OneDrive/Desktop/MK-subject-3.csv","legacy","3 4 9 6 2 9","Lentiform Loewenfeld","3.3.12","5","y","0","left","left","NA","left","left","1368","1368","NA","18878","24854","2","legacy","6","1024","2","48000","-16","experiment","2","even","2","516599","518807","520808","522178","520808","NA","515527","516597","11374","126537","503343","11379","101682","517603","30258","Sternberg task ","62","55078","78","yes","1024"
"79.746835443","79.746835443","716.911392405","716.911392405","black","experiment","legacy","legacy","legacy","0","uniform","1","1","undefined","left","78","78","78","78","78","0","78","78","0","0","78","0","0","78","0","10/22/22 19:43:28","The main experiment item","yes","Sternbergtask.osexp","C:\Users\ayesh\OneDrive\Desktop","no","mono","no","18","no","white","no","yes","768","legacy","66","11","C:/Users/ayesh/OneDrive/Desktop/MK-subject-3.csv","legacy","5 7 8 2 3 8","Lentiform Loewenfeld","3.3.12","5","y","0","left","left","NA","left","left","1558","1558","NA","18878","24854","2","legacy","6","1024","2","48000","-16","experiment","2","even","3","523269","525475","527475","529034","527475","NA","522182","523267","11374","126537","503343","11379","101682","524270","30258","Sternberg task ","63","56636","79","yes","1024"
"80","80","717.9","717.9","black","experiment","legacy","legacy","legacy","0","uniform","1","1","undefined","left","79","79","79","79","79","0","79","79","0","0","79","0","0","79","0","10/22/22 19:43:28","The main experiment item","yes","Sternbergtask.osexp","C:\Users\ayesh\OneDrive\Desktop","no","mono","no","18","no","white","no","yes","768","legacy","67","11","C:/Users/ayesh/OneDrive/Desktop/MK-subject-3.csv","legacy","3 5 9 6 2 4","Lentiform Loewenfeld","3.3.12","1","y","0","left","left","NA","left","left","796","796","NA","18878","24854","2","legacy","6","1024","2","48000","-16","experiment","2","even","3","530111","532316","534317","535113","534317","NA","529038","530109","11374","126537","503343","11379","101682","531112","30258","Sternberg task ","64","57432","80","yes","1024"
"80.2469135802","80.2469135802","719.555555556","719.555555556","black","experiment","legacy","legacy","legacy","0","uniform","1","1","undefined","right","80","80","80","80","80","0","80","80","0","0","80","0","0","80","0","10/22/22 19:43:28","The main experiment item","yes","Sternbergtask.osexp","C:\Users\ayesh\OneDrive\Desktop","no","mono","no","18","no","white","no","yes","768","legacy","68","11","C:/Users/ayesh/OneDrive/Desktop/MK-subject-3.csv","legacy","3 9 1","Lentiform Loewenfeld","3.3.12","0","n","0","right","right","NA","left","left","852","852","NA","18878","24854","2","legacy","3","1024","2","48000","-16","experiment","2","even","7","536189","538394","540396","541249","540396","NA","535117","536187","11374","126537","503343","11379","101682","537190","30258","Sternberg task ","65","58284","81","yes","1024"
"79.2682926829","79.2682926829","721.219512195","721.219512195","black","experiment","legacy","legacy","legacy","0","uniform","0","0","undefined","left","81","81","81","81","81","0","81","81","0","0","81","0","0","81","0","10/22/22 19:43:28","The main experiment item","yes","Sternbergtask.osexp","C:\Users\ayesh\OneDrive\Desktop","no","mono","no","18","no","white","no","yes","768","legacy","69","11","C:/Users/ayesh/OneDrive/Desktop/MK-subject-3.csv","legacy","7 4 2 6 3 5","Lentiform Loewenfeld","3.3.12","6","y","0","right","right","NA","left","left","856","856","NA","18878","24854","2","legacy","6","1024","2","48000","-16","experiment","2","even","5","542330","544536","546537","547394","546537","NA","541255","542328","11374","126537","503343","11379","101682","543332","30258","Sternberg task ","65","59140","82","yes","1024"
"79.5180722892","79.5180722892","724.831325301","724.831325301","black","experiment","legacy","legacy","legacy","0","uniform","1","1","undefined","right","82","82","82","82","82","0","82","82","0","0","82","0","0","82","0","10/22/22 19:43:28","The main experiment item","yes","Sternbergtask.osexp","C:\Users\ayesh\OneDrive\Desktop","no","mono","no","18","no","white","no","yes","768","legacy","70","11","C:/Users/ayesh/OneDrive/Desktop/MK-subject-3.csv","legacy","4 2 7 6 1 3","Lentiform Loewenfeld","3.3.12","0","n","0","right","right","NA","left","left","1021","1021","NA","18878","24854","2","legacy","6","1024","2","48000","-16","experiment","2","even","8","548470","550675","552676","553698","552676","NA","541255","548468","11374","126537","547397","11379","101682","549471","30258","Sternberg task ","66","60161","83","yes","1024"
"78.5714285714","78.5714285714","723.952380952","723.952380952","black","experiment","legacy","legacy","legacy","0","uniform","0","0","undefined","right","83","83","83","83","83","0","83","83","0","0","83","0","0","83","0","10/22/22 19:43:28","The main experiment item","yes","Sternbergtask.osexp","C:\Users\ayesh\OneDrive\Desktop","no","mono","no","18","no","white","no","yes","768","legacy","71","11","C:/Users/ayesh/OneDrive/Desktop/MK-subject-3.csv","legacy","1","Lentiform Loewenfeld","3.3.12","0","n","0","left","left","NA","left","left","651","651","NA","18878","24854","2","legacy","1","1024","2","48000","-16","experiment","2","even","7","554784","556989","558990","559643","558990","NA","553703","554782","11374","126537","547397","11379","101682","555785","30258","Sternberg task ","66","60812","84","yes","1024"
"78.8235294118","78.8235294118","732.411764706","732.411764706","black","experiment","legacy","legacy","legacy","0","uniform","1","1","undefined","right","84","84","84","84","84","0","84","84","0","0","84","0","0","84","0","10/22/22 19:43:28","The main experiment item","yes","Sternbergtask.osexp","C:\Users\ayesh\OneDrive\Desktop","no","mono","no","18","no","white","no","yes","768","legacy","72","11","C:/Users/ayesh/OneDrive/Desktop/MK-subject-3.csv","legacy","6 3 1 7 9 8","Lentiform Loewenfeld","3.3.12","0","n","0","right","right","NA","left","left","1443","1443","NA","18878","24854","2","legacy","6","1024","2","48000","-16","experiment","2","even","4","560720","562924","564926","566370","564926","NA","553703","560718","11374","126537","559647","11379","101682","561721","30258","Sternberg task ","67","62255","85","yes","1024"
"79.0697674419","79.0697674419","734.395348837","734.395348837","black","experiment","legacy","legacy","legacy","0","uniform","1","1","undefined","right","85","85","85","85","85","0","85","85","0","0","85","0","0","85","0","10/22/22 19:43:28","The main experiment item","yes","Sternbergtask.osexp","C:\Users\ayesh\OneDrive\Desktop","no","mono","no","18","no","white","no","yes","768","legacy","73","11","C:/Users/ayesh/OneDrive/Desktop/MK-subject-3.csv","legacy","1 3 2 6 9","Lentiform Loewenfeld","3.3.12","0","n","0","right","right","NA","left","left","903","903","NA","18878","24854","2","legacy","5","1024","2","48000","-16","experiment","2","even","5","567449","569657","571658","572562","571658","NA","566374","567447","11374","126537","559647","11379","101682","568452","30258","Sternberg task ","68","63158","86","yes","1024"
"79.3103448276","79.3103448276","734.08045977","734.08045977","black","experiment","legacy","legacy","legacy","0","uniform","1","1","undefined","left","86","86","86","86","86","0","86","86","0","0","86","0","0","86","0","10/22/22 19:43:28","The main experiment item","yes","Sternbergtask.osexp","C:\Users\ayesh\OneDrive\Desktop","no","mono","no","18","no","white","no","yes","768","legacy","74","11","C:/Users/ayesh/OneDrive/Desktop/MK-subject-3.csv","legacy","3 5 4 7","Lentiform Loewenfeld","3.3.12","1","y","0","left","left","NA","left","left","707","707","NA","18878","24854","2","legacy","4","1024","2","48000","-16","experiment","2","even","3","573639","575844","577846","578555","577846","NA","572566","573638","11374","126537","559647","11379","101682","574640","30258","Sternberg task ","69","63865","87","yes","1024"
"79.5454545455","79.5454545455","733.5","733.5","black","experiment","legacy","legacy","legacy","0","uniform","1","1","undefined","right","87","87","87","87","87","0","87","87","0","0","87","0","0","87","0","10/22/22 19:43:28","The main experiment item","yes","Sternbergtask.osexp","C:\Users\ayesh\OneDrive\Desktop","no","mono","no","18","no","white","no","yes","768","legacy","75","11","C:/Users/ayesh/OneDrive/Desktop/MK-subject-3.csv","legacy","1 6 4","Lentiform Loewenfeld","3.3.12","0","n","0","right","right","NA","left","left","683","683","NA","18878","24854","2","legacy","3","1024","2","48000","-16","experiment","2","even","7","579647","581852","583854","584538","583854","NA","578558","579645","11374","126537","559647","11379","101682","580648","30258","Sternberg task ","70","64548","88","yes","1024"
"78.6516853933","78.6516853933","734.483146067","734.483146067","black","experiment","legacy","legacy","legacy","0","uniform","0","0","undefined","left","88","88","88","88","88","0","88","88","0","0","88","0","0","88","0","10/22/22 19:43:28","The main experiment item","yes","Sternbergtask.osexp","C:\Users\ayesh\OneDrive\Desktop","no","mono","no","18","no","white","no","yes","768","legacy","76","11","C:/Users/ayesh/OneDrive/Desktop/MK-subject-3.csv","legacy","3 2 1 4 7","Lentiform Loewenfeld","3.3.12","2","y","0","right","right","NA","left","left","821","821","NA","18878","24854","2","legacy","5","1024","2","48000","-16","experiment","2","even","2","585618","587820","589821","590644","589821","NA","584542","585616","11374","126537","559647","11379","101682","586619","30258","Sternberg task ","70","65369","89","yes","1024"
"78.8888888889","78.8888888889","736.088888889","736.088888889","black","experiment","legacy","legacy","legacy","0","uniform","1","1","undefined","right","89","89","89","89","89","0","89","89","0","0","89","0","0","89","0","10/22/22 19:43:28","The main experiment item","yes","Sternbergtask.osexp","C:\Users\ayesh\OneDrive\Desktop","no","mono","no","18","no","white","no","yes","768","legacy","77","11","C:/Users/ayesh/OneDrive/Desktop/MK-subject-3.csv","legacy","8 4 3 9","Lentiform Loewenfeld","3.3.12","0","n","0","right","right","NA","left","left","879","879","NA","18878","24854","2","legacy","4","1024","2","48000","-16","experiment","2","even","5","591723","593928","595930","596810","595930","NA","584542","591721","11374","126537","590648","11379","101682","592724","30258","Sternberg task ","71","66248","90","yes","1024"
"79.1208791209","79.1208791209","735.648351648","735.648351648","black","experiment","legacy","legacy","legacy","0","uniform","1","1","undefined","left","90","90","90","90","90","0","90","90","0","0","90","0","0","90","0","10/22/22 19:43:28","The main experiment item","yes","Sternbergtask.osexp","C:\Users\ayesh\OneDrive\Desktop","no","mono","no","18","no","white","no","yes","768","legacy","78","11","C:/Users/ayesh/OneDrive/Desktop/MK-subject-3.csv","legacy","2 8 5 1","Lentiform Loewenfeld","3.3.12","4","y","0","left","left","NA","left","left","696","696","NA","18878","24854","2","legacy","4","1024","2","48000","-16","experiment","2","even","1","597893","600095","602097","602794","602097","NA","596813","597891","11374","126537","590648","11379","101682","598894","30258","Sternberg task ","72","66944","91","yes","1024"
"79.347826087","79.347826087","738.119565217","738.119565217","black","experiment","legacy","legacy","legacy","0","uniform","1","1","undefined","right","91","91","91","91","91","0","91","91","0","0","91","0","0","91","0","10/22/22 19:43:28","The main experiment item","yes","Sternbergtask.osexp","C:\Users\ayesh\OneDrive\Desktop","no","mono","no","18","no","white","no","yes","768","legacy","79","11","C:/Users/ayesh/OneDrive/Desktop/MK-subject-3.csv","legacy","6 8 4","Lentiform Loewenfeld","3.3.12","0","n","0","right","right","NA","left","left","963","963","NA","18878","24854","2","legacy","3","1024","2","48000","-16","experiment","2","even","1","603874","606077","608078","609042","608078","NA","602797","603873","11374","126537","590648","11379","101682","604876","30258","Sternberg task ","73","67907","92","yes","1024"
"79.5698924731","79.5698924731","740.795698925","740.795698925","black","experiment","legacy","legacy","legacy","0","uniform","1","1","undefined","right","92","92","92","92","92","0","92","92","0","0","92","0","0","92","0","10/22/22 19:43:28","The main experiment item","yes","Sternbergtask.osexp","C:\Users\ayesh\OneDrive\Desktop","no","mono","no","18","no","white","no","yes","768","legacy","80","11","C:/Users/ayesh/OneDrive/Desktop/MK-subject-3.csv","legacy","7 3 2 8","Lentiform Loewenfeld","3.3.12","0","n","0","right","right","NA","left","left","987","987","NA","18878","24854","2","legacy","4","1024","2","48000","-16","experiment","2","even","4","610122","612325","614326","615314","614326","NA","609045","610120","11374","126537","590648","11379","101682","611123","30258","Sternberg task ","74","68894","93","yes","1024"
"79.7872340426","79.7872340426","742.074468085","742.074468085","black","experiment","legacy","legacy","legacy","0","uniform","1","1","undefined","right","93","93","93","93","93","0","93","93","0","0","93","0","0","93","0","10/22/22 19:43:28","The main experiment item","yes","Sternbergtask.osexp","C:\Users\ayesh\OneDrive\Desktop","no","mono","no","18","no","white","no","yes","768","legacy","81","11","C:/Users/ayesh/OneDrive/Desktop/MK-subject-3.csv","legacy","7 6 4 8 1 2","Lentiform Loewenfeld","3.3.12","0","n","0","right","right","NA","left","left","861","861","NA","18878","24854","2","legacy","6","1024","2","48000","-16","experiment","2","even","9","616393","618595","620596","621458","620595","NA","615317","616391","11374","126537","590648","11379","101682","617394","30258","Sternberg task ","75","69755","94","yes","1024"
"80","80","740.947368421","740.947368421","black","experiment","legacy","legacy","legacy","0","uniform","1","1","undefined","right","94","94","94","94","94","0","94","94","0","0","94","0","0","94","0","10/22/22 19:43:28","The main experiment item","yes","Sternbergtask.osexp","C:\Users\ayesh\OneDrive\Desktop","no","mono","no","18","no","white","no","yes","768","legacy","82","11","C:/Users/ayesh/OneDrive/Desktop/MK-subject-3.csv","legacy","6 8","Lentiform Loewenfeld","3.3.12","0","n","0","right","right","NA","left","left","635","635","NA","18878","24854","2","legacy","2","1024","2","48000","-16","experiment","2","even","9","622535","624741","626742","627379","626742","NA","621463","622534","11374","126537","590648","11379","101682","623537","30258","Sternberg task ","76","70390","95","yes","1024"
"80.2083333333","80.2083333333","740.84375","740.84375","black","experiment","legacy","legacy","legacy","0","uniform","1","1","undefined","right","95","95","95","95","95","0","95","95","0","0","95","0","0","95","0","10/22/22 19:43:28","The main experiment item","yes","Sternbergtask.osexp","C:\Users\ayesh\OneDrive\Desktop","no","mono","no","18","no","white","no","yes","768","legacy","83","11","C:/Users/ayesh/OneDrive/Desktop/MK-subject-3.csv","legacy","2 8 9 4 1","Lentiform Loewenfeld","3.3.12","0","n","0","right","right","NA","left","left","731","731","NA","18878","24854","2","legacy","5","1024","2","48000","-16","experiment","2","even","5","628455","630661","632662","633395","632662","NA","627383","628454","11374","126537","590648","11379","101682","629457","30258","Sternberg task ","77","71121","96","yes","1024"
"80.412371134","80.412371134","741.958762887","741.958762887","black","experiment","legacy","legacy","legacy","0","uniform","1","1","undefined","left","96","96","96","96","96","0","96","96","0","0","96","0","0","96","0","10/22/22 19:43:28","The main experiment item","yes","Sternbergtask.osexp","C:\Users\ayesh\OneDrive\Desktop","no","mono","no","18","no","white","no","yes","768","legacy","84","11","C:/Users/ayesh/OneDrive/Desktop/MK-subject-3.csv","legacy","8 1 6","Lentiform Loewenfeld","3.3.12","3","y","0","left","left","NA","left","left","849","849","NA","18878","24854","2","legacy","3","1024","2","48000","-16","experiment","2","even","6","634473","636679","638680","639530","638680","NA","633398","634472","11374","126537","590648","11379","101682","635475","30258","Sternberg task ","78","71970","97","yes","1024"
"80.612244898","80.612244898","742.520408163","742.520408163","black","experiment","legacy","legacy","legacy","0","uniform","1","1","undefined","right","97","97","97","97","97","0","97","97","0","0","97","0","0","97","0","10/22/22 19:43:28","The main experiment item","yes","Sternbergtask.osexp","C:\Users\ayesh\OneDrive\Desktop","no","mono","no","18","no","white","no","yes","768","legacy","85","11","C:/Users/ayesh/OneDrive/Desktop/MK-subject-3.csv","legacy","5 7 3","Lentiform Loewenfeld","3.3.12","0","n","0","right","right","NA","left","left","797","797","NA","18878","24854","2","legacy","3","1024","2","48000","-16","experiment","2","even","9","640606","642811","644812","645610","644812","NA","639535","640605","11374","126537","590648","11379","101682","641607","30258","Sternberg task ","79","72767","98","yes","1024"
"79.797979798","79.797979798","744.232323232","744.232323232","black","experiment","legacy","legacy","legacy","0","uniform","0","0","undefined","right","98","98","98","98","98","0","98","98","0","0","98","0","0","98","0","10/22/22 19:43:28","The main experiment item","yes","Sternbergtask.osexp","C:\Users\ayesh\OneDrive\Desktop","no","mono","no","18","no","white","no","yes","768","legacy","86","11","C:/Users/ayesh/OneDrive/Desktop/MK-subject-3.csv","legacy","7 1","Lentiform Loewenfeld","3.3.12","0","n","0","left","left","NA","left","left","912","912","NA","18878","24854","2","legacy","2","1024","2","48000","-16","experiment","2","even","8","646690","648896","650897","651810","650897","NA","645615","646688","11374","126537","590648","11379","101682","647691","30258","Sternberg task ","79","73679","99","yes","1024"
"80","80","743.87","743.87","black","experiment","legacy","legacy","legacy","0","uniform","1","1","undefined","left","99","99","99","99","99","0","99","99","0","0","99","0","0","99","0","10/22/22 19:43:28","The main experiment item","yes","Sternbergtask.osexp","C:\Users\ayesh\OneDrive\Desktop","no","mono","no","18","no","white","no","yes","768","legacy","87","11","C:/Users/ayesh/OneDrive/Desktop/MK-subject-3.csv","legacy","4 1 8 7 5","Lentiform Loewenfeld","3.3.12","3","y","0","left","left","NA","left","left","708","708","NA","18878","24854","2","legacy","5","1024","2","48000","-16","experiment","2","even","8","652886","655091","657093","657802","657093","NA","645615","652884","11374","126537","651814","11379","101682","653887","30258","Sternberg task ","80","74387","100","yes","1024"
"80.198019802","80.198019802","745.920792079","745.920792079","black","experiment","legacy","legacy","legacy","0","uniform","1","1","undefined","right","100","100","100","100","100","0","100","100","0","0","100","0","0","100","0","10/22/22 19:43:28","The main experiment item","yes","Sternbergtask.osexp","C:\Users\ayesh\OneDrive\Desktop","no","mono","no","18","no","white","no","yes","768","legacy","88","11","C:/Users/ayesh/OneDrive/Desktop/MK-subject-3.csv","legacy","5 9 2 3","Lentiform Loewenfeld","3.3.12","0","n","0","right","right","NA","left","left","951","951","NA","18878","24854","2","legacy","4","1024","2","48000","-16","experiment","2","even","8","658876","661081","663082","664034","663082","NA","657805","658876","11374","126537","651814","11379","101682","659877","30258","Sternberg task ","81","75338","101","yes","1024"
"80.3921568627","80.3921568627","749.303921569","749.303921569","black","experiment","legacy","legacy","legacy","0","uniform","1","1","undefined","left","101","101","101","101","101","0","101","101","0","0","101","0","0","101","0","10/22/22 19:43:28","The main experiment item","yes","Sternbergtask.osexp","C:\Users\ayesh\OneDrive\Desktop","no","mono","no","18","no","white","no","yes","768","legacy","89","11","C:/Users/ayesh/OneDrive/Desktop/MK-subject-3.csv","legacy","8 9 6 1","Lentiform Loewenfeld","3.3.12","2","y","0","left","left","NA","left","left","1091","1091","NA","18878","24854","2","legacy","4","1024","2","48000","-16","experiment","2","even","9","665126","667333","669334","670426","669334","NA","664038","665125","11374","126537","651814","11379","101682","666129","30258","Sternberg task ","82","76429","102","yes","1024"
"80.5825242718","80.5825242718","749.029126214","749.029126214","black","experiment","legacy","legacy","legacy","0","uniform","1","1","undefined","right","102","102","102","102","102","0","102","102","0","0","102","0","0","102","0","10/22/22 19:43:28","The main experiment item","yes","Sternbergtask.osexp","C:\Users\ayesh\OneDrive\Desktop","no","mono","no","18","no","white","no","yes","768","legacy","90","11","C:/Users/ayesh/OneDrive/Desktop/MK-subject-3.csv","legacy","8 6 3 4 7","Lentiform Loewenfeld","3.3.12","0","n","0","right","right","NA","left","left","721","721","NA","18878","24854","2","legacy","5","1024","2","48000","-16","experiment","2","even","1","671502","673710","675711","676434","675711","NA","670430","671500","11374","126537","651814","11379","101682","672506","30258","Sternberg task ","83","77150","103","yes","1024"
"80.7692307692","80.7692307692","751.211538462","751.211538462","black","experiment","legacy","legacy","legacy","0","uniform","1","1","undefined","right","103","103","103","103","103","0","103","103","0","0","103","0","0","103","0","10/22/22 19:43:28","The main experiment item","yes","Sternbergtask.osexp","C:\Users\ayesh\OneDrive\Desktop","no","mono","no","18","no","white","no","yes","768","legacy","91","11","C:/Users/ayesh/OneDrive/Desktop/MK-subject-3.csv","legacy","2 5 1 4","Lentiform Loewenfeld","3.3.12","0","n","0","right","right","NA","left","left","976","976","NA","18878","24854","2","legacy","4","1024","2","48000","-16","experiment","2","even","6","677515","679719","681721","682699","681721","NA","676438","677513","11374","126537","651814","11379","101682","678515","30258","Sternberg task ","84","78126","104","yes","1024"
"80.9523809524","80.9523809524","754.304761905","754.304761905","black","experiment","legacy","legacy","legacy","0","uniform","1","1","undefined","right","104","104","104","104","104","0","104","104","0","0","104","0","0","104","0","10/22/22 19:43:28","The main experiment item","yes","Sternbergtask.osexp","C:\Users\ayesh\OneDrive\Desktop","no","mono","no","18","no","white","no","yes","768","legacy","92","11","C:/Users/ayesh/OneDrive/Desktop/MK-subject-3.csv","legacy","6 9 4 5 2","Lentiform Loewenfeld","3.3.12","0","n","0","right","right","NA","left","left","1076","1076","NA","18878","24854","2","legacy","5","1024","2","48000","-16","experiment","2","even","1","683782","685988","687989","689066","687989","NA","682703","683780","11374","126537","651814","11379","101682","684783","30258","Sternberg task ","85","79202","105","yes","1024"
"81.1320754717","81.1320754717","758.009433962","758.009433962","black","experiment","legacy","legacy","legacy","0","uniform","1","1","undefined","left","105","105","105","105","105","0","105","105","0","0","105","0","0","105","0","10/22/22 19:43:28","The main experiment item","yes","Sternbergtask.osexp","C:\Users\ayesh\OneDrive\Desktop","no","mono","no","18","no","white","no","yes","768","legacy","93","11","C:/Users/ayesh/OneDrive/Desktop/MK-subject-3.csv","legacy","9 3 1 2 5","Lentiform Loewenfeld","3.3.12","4","y","0","left","left","NA","left","left","1147","1147","NA","18878","24854","2","legacy","5","1024","2","48000","-16","experiment","2","even","2","690142","692347","694349","695497","694349","NA","689070","690141","11374","126537","651814","11379","101682","691143","30258","Sternberg task ","86","80349","106","yes","1024"
"81.308411215","81.308411215","761.224299065","761.224299065","black","experiment","legacy","legacy","legacy","0","uniform","1","1","undefined","right","106","106","106","106","106","0","106","106","0","0","106","0","0","106","0","10/22/22 19:43:28","The main experiment item","yes","Sternbergtask.osexp","C:\Users\ayesh\OneDrive\Desktop","no","mono","no","18","no","white","no","yes","768","legacy","94","11","C:/Users/ayesh/OneDrive/Desktop/MK-subject-3.csv","legacy","2 8 7 9 5 3","Lentiform Loewenfeld","3.3.12","0","n","0","right","right","NA","left","left","1102","1102","NA","18878","24854","2","legacy","6","1024","2","48000","-16","experiment","2","even","6","696588","698793","700794","701897","700794","NA","695501","696586","11374","126537","651814","11379","101682","697589","30258","Sternberg task ","87","81451","107","yes","1024"
"81.4814814815","81.4814814815","762.731481481","762.731481481","black","experiment","legacy","legacy","legacy","0","uniform","1","1","undefined","left","107","107","107","107","107","0","107","107","0","0","107","0","0","107","0","10/22/22 19:43:28","The main experiment item","yes","Sternbergtask.osexp","C:\Users\ayesh\OneDrive\Desktop","no","mono","no","18","no","white","no","yes","768","legacy","95","11","C:/Users/ayesh/OneDrive/Desktop/MK-subject-3.csv","legacy","5 7 3 6 2","Lentiform Loewenfeld","3.3.12","5","y","0","left","left","NA","left","left","924","924","NA","18878","24854","2","legacy","5","1024","2","48000","-16","experiment","2","even","2","702975","705180","707181","708107","707181","NA","701901","702973","11374","126537","651814","11379","101682","703976","30258","Sternberg task ","88","82375","108","yes","1024"
"81.6513761468","81.6513761468","761.036697248","761.036697248","black","experiment","legacy","legacy","legacy","0","uniform","1","1","undefined","left","108","108","108","108","108","0","108","108","0","0","108","0","0","108","0","10/22/22 19:43:28","The main experiment item","yes","Sternbergtask.osexp","C:\Users\ayesh\OneDrive\Desktop","no","mono","no","18","no","white","no","yes","768","legacy","96","11","C:/Users/ayesh/OneDrive/Desktop/MK-subject-3.csv","legacy","5 2 6","Lentiform Loewenfeld","3.3.12","2","y","0","left","left","NA","left","left","578","578","NA","18878","24854","2","legacy","3","1024","2","48000","-16","experiment","2","even","2","709185","711390","713391","713970","713391","NA","708112","709183","11374","126537","651814","11379","101682","710186","30258","Sternberg task ","89","82953","109","yes","1024"
"81.8181818182","81.8181818182","760.836363636","760.836363636","black","experiment","legacy","legacy","legacy","0","uniform","1","1","undefined","left","109","109","109","109","109","0","109","109","0","0","109","0","0","109","0","10/22/22 19:43:28","The main experiment item","yes","Sternbergtask.osexp","C:\Users\ayesh\OneDrive\Desktop","no","mono","no","18","no","white","no","yes","768","legacy","97","11","C:/Users/ayesh/OneDrive/Desktop/MK-subject-3.csv","legacy","8 3","Lentiform Loewenfeld","3.3.12","2","y","0","left","left","NA","left","left","739","739","NA","18878","24854","2","legacy","2","1024","2","48000","-16","experiment","2","even","3","715047","717253","719254","719994","719254","NA","713974","715044","11374","126537","651814","11379","101682","716048","30258","Sternberg task ","90","83692","110","yes","1024"
"81.981981982","81.981981982","762.918918919","762.918918919","black","experiment","legacy","legacy","legacy","0","uniform","1","1","undefined","left","110","110","110","110","110","0","110","110","0","0","110","0","0","110","0","10/22/22 19:43:28","The main experiment item","yes","Sternbergtask.osexp","C:\Users\ayesh\OneDrive\Desktop","no","mono","no","18","no","white","no","yes","768","legacy","98","11","C:/Users/ayesh/OneDrive/Desktop/MK-subject-3.csv","legacy","4 7 6 8 2 3","Lentiform Loewenfeld","3.3.12","6","y","0","left","left","NA","left","left","992","992","NA","18878","24854","2","legacy","6","1024","2","48000","-16","experiment","2","even","3","721086","723296","725297","726290","725297","NA","719998","721084","11374","126537","651814","11379","101682","722091","30258","Sternberg task ","91","84684","111","yes","1024"
"82.1428571429","82.1428571429","762.098214286","762.098214286","black","experiment","legacy","legacy","legacy","0","uniform","1","1","undefined","left","111","111","111","111","111","0","111","111","0","0","111","0","0","111","0","10/22/22 19:43:28","The main experiment item","yes","Sternbergtask.osexp","C:\Users\ayesh\OneDrive\Desktop","no","mono","no","18","no","white","no","yes","768","legacy","99","11","C:/Users/ayesh/OneDrive/Desktop/MK-subject-3.csv","legacy","2 3 7 4","Lentiform Loewenfeld","3.3.12","1","y","0","left","left","NA","left","left","671","671","NA","18878","24854","2","legacy","4","1024","2","48000","-16","experiment","2","even","2","727371","729577","731578","732251","731578","NA","726294","727370","11374","126537","651814","11379","101682","728373","30258","Sternberg task ","92","85355","112","yes","1024"
"82.3008849558","82.3008849558","760.14159292","760.14159292","black","experiment","legacy","legacy","legacy","0","uniform","1","1","undefined","left","112","112","112","112","112","0","112","112","0","0","112","0","0","112","0","10/22/22 19:43:28","The main experiment item","yes","Sternbergtask.osexp","C:\Users\ayesh\OneDrive\Desktop","no","mono","no","18","no","white","no","yes","768","legacy","100","11","C:/Users/ayesh/OneDrive/Desktop/MK-subject-3.csv","legacy","3 4","Lentiform Loewenfeld","3.3.12","1","y","0","left","left","NA","left","left","541","541","NA","18878","24854","2","legacy","2","1024","2","48000","-16","experiment","2","even","3","733346","735555","737556","738098","737556","NA","732256","733345","11374","126537","651814","11379","101682","734351","30258","Sternberg task ","93","85896","113","yes","1024"
"82.4561403509","82.4561403509","758.184210526","758.184210526","black","experiment","legacy","legacy","legacy","0","uniform","1","1","undefined","left","113","113","113","113","113","0","113","113","0","0","113","0","0","113","0","10/22/22 19:43:28","The main experiment item","yes","Sternbergtask.osexp","C:\Users\ayesh\OneDrive\Desktop","no","mono","no","18","no","white","no","yes","768","legacy","101","11","C:/Users/ayesh/OneDrive/Desktop/MK-subject-3.csv","legacy","7 6","Lentiform Loewenfeld","3.3.12","2","y","0","left","left","NA","left","left","537","537","NA","18878","24854","2","legacy","2","1024","2","48000","-16","experiment","2","even","6","739175","741383","743384","743922","743384","NA","738104","739174","11374","126537","651814","11379","101682","740179","30258","Sternberg task ","94","86433","114","yes","1024"
"82.6086956522","82.6086956522","761.12173913","761.12173913","black","experiment","legacy","legacy","legacy","0","uniform","1","1","undefined","left","114","114","114","114","114","0","114","114","0","0","114","0","0","114","0","10/22/22 19:43:28","The main experiment item","yes","Sternbergtask.osexp","C:\Users\ayesh\OneDrive\Desktop","no","mono","no","18","no","white","no","yes","768","legacy","102","11","C:/Users/ayesh/OneDrive/Desktop/MK-subject-3.csv","legacy","4 9 7 8 5 3","Lentiform Loewenfeld","3.3.12","4","y","0","left","left","NA","left","left","1096","1096","NA","18878","24854","2","legacy","6","1024","2","48000","-16","experiment","2","even","8","745017","747223","749225","750323","749225","NA","743926","745015","11374","126537","651814","11379","101682","746018","30258","Sternberg task ","95","87529","115","yes","1024"
"82.7586206897","82.7586206897","761.224137931","761.224137931","black","experiment","legacy","legacy","legacy","0","uniform","1","1","undefined","right","115","115","115","115","115","0","115","115","0","0","115","0","0","115","0","10/22/22 19:43:28","The main experiment item","yes","Sternbergtask.osexp","C:\Users\ayesh\OneDrive\Desktop","no","mono","no","18","no","white","no","yes","768","legacy","103","11","C:/Users/ayesh/OneDrive/Desktop/MK-subject-3.csv","legacy","1 4 9 3","Lentiform Loewenfeld","3.3.12","0","n","0","right","right","NA","left","left","773","773","NA","18878","24854","2","legacy","4","1024","2","48000","-16","experiment","2","even","5","751402","753611","755612","756386","755612","NA","750326","751400","11374","126537","651814","11379","101682","752406","30258","Sternberg task ","96","88302","116","yes","1024"
"82.905982906","82.905982906","761.692307692","761.692307692","black","experiment","legacy","legacy","legacy","0","uniform","1","1","undefined","right","116","116","116","116","116","0","116","116","0","0","116","0","0","116","0","10/22/22 19:43:28","The main experiment item","yes","Sternbergtask.osexp","C:\Users\ayesh\OneDrive\Desktop","no","mono","no","18","no","white","no","yes","768","legacy","104","11","C:/Users/ayesh/OneDrive/Desktop/MK-subject-3.csv","legacy","7 4 2 8 1 9","Lentiform Loewenfeld","3.3.12","0","n","0","right","right","NA","left","left","816","816","NA","18878","24854","2","legacy","6","1024","2","48000","-16","experiment","2","even","5","757466","759671","761673","762490","761673","NA","756390","757464","11374","126537","651814","11379","101682","758467","30258","Sternberg task ","97","89118","117","yes","1024"
"83.0508474576","83.0508474576","767.194915254","767.194915254","black","experiment","legacy","legacy","legacy","0","uniform","1","1","undefined","right","117","117","117","117","117","0","117","117","0","0","117","0","0","117","0","10/22/22 19:43:28","The main experiment item","yes","Sternbergtask.osexp","C:\Users\ayesh\OneDrive\Desktop","no","mono","no","18","no","white","no","yes","768","legacy","105","11","C:/Users/ayesh/OneDrive/Desktop/MK-subject-3.csv","legacy","5 3 2 6 9 8","Lentiform Loewenfeld","3.3.12","0","n","0","right","right","NA","left","left","1411","1411","NA","18878","24854","2","legacy","6","1024","2","48000","-16","experiment","2","even","4","763568","765773","767774","769186","767774","NA","762495","763566","11374","126537","651814","11379","101682","764569","30258","Sternberg task ","98","90529","118","yes","1024"
"83.1932773109","83.1932773109","767.647058824","767.647058824","black","experiment","legacy","legacy","legacy","0","uniform","1","1","undefined","left","118","118","118","118","118","0","118","118","0","0","118","0","0","118","0","10/22/22 19:43:28","The main experiment item","yes","Sternbergtask.osexp","C:\Users\ayesh\OneDrive\Desktop","no","mono","no","18","no","white","no","yes","768","legacy","106","11","C:/Users/ayesh/OneDrive/Desktop/MK-subject-3.csv","legacy","7 2 3","Lentiform Loewenfeld","3.3.12","3","y","0","left","left","NA","left","left","821","821","NA","18878","24854","2","legacy","3","1024","2","48000","-16","experiment","2","even","3","770266","772471","774476","775298","774476","NA","769190","770264","11374","126537","651814","11379","101682","771267","30258","Sternberg task ","99","91350","119","yes","1024"
