acc,accuracy,average_response_time,avg_rt,background,block,canvas_backend,clock_backend,color_backend,compensation,coordinates,correct,correct_instruction1,correct_keyboard_response,correct_response,count_ISI,count_correctFeedback,count_expSequence,count_experiment,count_experimentLoop,count_fixation,count_incorrectFeedback,count_instruction1,count_instructions2,count_keyboard_response,count_logger,count_memorySet,count_practiceLoop,count_probe,count_thankYou,datetime,description,disable_garbage_collection,experiment_file,experiment_path,font_bold,font_family,font_italic,font_size,font_underline,foreground,form_clicks,fullscreen,height,keyboard_backend,live_row,live_row_practiceLoop,logfile,mouse_backend,numberSet,opensesame_codename,opensesame_version,posInSet,present,repeat_cycle,response,response_instruction1,response_instructions2,response_keyboard_response,response_thankYou,response_time,response_time_instruction1,response_time_instructions2,response_time_keyboard_response,response_time_thankYou,round_decimals,sampler_backend,setSize,sound_buf_size,sound_channels,sound_freq,sound_sample_size,start,subject_nr,subject_parity,target,time_ISI,time_correctFeedback,time_expSequence,time_experiment,time_experimentLoop,time_fixation,time_incorrectFeedback,time_instruction1,time_instructions2,time_keyboard_response,time_logger,time_memorySet,time_practiceLoop,time_probe,time_thankYou,title,total_correct,total_response_time,total_responses,uniform_coordinates,width
0,0,2000,2000,black,practice,legacy,legacy,legacy,0,uniform,0,undefined,0,left,0,0,0,0,0,0,0,0,0,0,0,0,0,0,0,Sat Oct 22 14:52:39 2022,The main experiment item,yes,Sternbergtask.osexp,/Users/katherinehays/Desktop/PSYC 5316 - R and OpenSesame/Lab 3,no,mono,no,18,no,white,no,no,768,legacy,0,0,/Users/katherinehays/Desktop/PSYC 5316 - R and OpenSesame/Lab 3/KH-subject-3.csv,legacy,6,Lentiform Loewenfeld,3.3.12,1,y,0,None,right,NA,None,NA,2000,54962,NA,2000,NA,2,legacy,1,1024,2,48000,-16,experiment,3,odd,6,59509,NA,57276,2055,NA,57281,NA,2199,NA,61520,63520,58293,57245,61519,NA,Sternberg task,0,2000,1,yes,1024
0,0,2000,2000,black,practice,legacy,legacy,legacy,0,uniform,0,undefined,0,left,1,1,1,0,0,1,1,0,0,1,1,1,0,1,0,Sat Oct 22 14:52:39 2022,The main experiment item,yes,Sternbergtask.osexp,/Users/katherinehays/Desktop/PSYC 5316 - R and OpenSesame/Lab 3,no,mono,no,18,no,white,no,no,768,legacy,1,1,/Users/katherinehays/Desktop/PSYC 5316 - R and OpenSesame/Lab 3/KH-subject-3.csv,legacy,1 5 2 9,Lentiform Loewenfeld,3.3.12,2,y,0,None,right,NA,None,NA,2000,54962,NA,2000,NA,2,legacy,4,1024,2,48000,-16,experiment,3,odd,5,67031,NA,64810,2055,NA,64814,63566,2199,NA,69042,71042,65824,57245,69042,NA,Sternberg task,0,4000,2,yes,1024
0,0,2000,2000,black,practice,legacy,legacy,legacy,0,uniform,0,undefined,0,left,2,2,2,0,0,2,2,0,0,2,2,2,0,2,0,Sat Oct 22 14:52:39 2022,The main experiment item,yes,Sternbergtask.osexp,/Users/katherinehays/Desktop/PSYC 5316 - R and OpenSesame/Lab 3,no,mono,no,18,no,white,no,no,768,legacy,2,2,/Users/katherinehays/Desktop/PSYC 5316 - R and OpenSesame/Lab 3/KH-subject-3.csv,legacy,4 8,Lentiform Loewenfeld,3.3.12,1,y,0,None,right,NA,None,NA,2000,54962,NA,2000,NA,2,legacy,2,1024,2,48000,-16,experiment,3,odd,4,74369,NA,72142,2055,NA,72146,71049,2199,NA,76384,78384,73156,57245,76383,NA,Sternberg task,0,6000,3,yes,1024
0,0,1777.5,1777.5,black,practice,legacy,legacy,legacy,0,uniform,0,undefined,0,left,3,3,3,0,0,3,3,0,0,3,3,3,0,3,0,Sat Oct 22 14:52:39 2022,The main experiment item,yes,Sternbergtask.osexp,/Users/katherinehays/Desktop/PSYC 5316 - R and OpenSesame/Lab 3,no,mono,no,18,no,white,no,no,768,legacy,3,3,/Users/katherinehays/Desktop/PSYC 5316 - R and OpenSesame/Lab 3/KH-subject-3.csv,legacy,1 7 9 8 5,Lentiform Loewenfeld,3.3.12,4,y,0,right,right,NA,right,NA,1110,54962,NA,1110,NA,2,legacy,5,1024,2,48000,-16,experiment,3,odd,8,81718,NA,79489,2055,NA,79494,78392,2199,NA,83728,84849,80504,57245,83728,NA,Sternberg task,0,7110,4,yes,1024
0,0,1822,1822,black,practice,legacy,legacy,legacy,0,uniform,0,undefined,0,right,4,4,4,0,0,4,4,0,0,4,4,4,0,4,0,Sat Oct 22 14:52:39 2022,The main experiment item,yes,Sternbergtask.osexp,/Users/katherinehays/Desktop/PSYC 5316 - R and OpenSesame/Lab 3,no,mono,no,18,no,white,no,no,768,legacy,4,4,/Users/katherinehays/Desktop/PSYC 5316 - R and OpenSesame/Lab 3/KH-subject-3.csv,legacy,5 7 8 4 1 2,Lentiform Loewenfeld,3.3.12,0,n,0,None,right,NA,None,NA,2000,54962,NA,2000,NA,2,legacy,6,1024,2,48000,-16,experiment,3,odd,6,88156,NA,85931,2055,NA,85934,84852,2199,NA,90160,92160,86943,57245,90160,NA,Sternberg task,0,9110,5,yes,1024
16.66666667,16.66666667,1800,1800,black,practice,legacy,legacy,legacy,0,uniform,1,undefined,1,right,5,5,5,0,0,5,5,0,0,5,5,5,0,5,0,Sat Oct 22 14:52:39 2022,The main experiment item,yes,Sternbergtask.osexp,/Users/katherinehays/Desktop/PSYC 5316 - R and OpenSesame/Lab 3,no,mono,no,18,no,white,no,no,768,legacy,5,5,/Users/katherinehays/Desktop/PSYC 5316 - R and OpenSesame/Lab 3/KH-subject-3.csv,legacy,3 1 9 4,Lentiform Loewenfeld,3.3.12,0,n,0,right,right,NA,right,NA,1690,54962,NA,1690,NA,2,legacy,4,1024,2,48000,-16,experiment,3,odd,6,95482,NA,93256,2055,NA,93259,92164,2199,NA,97491,99182,94270,57245,97491,NA,Sternberg task,1,10800,6,yes,1024
14.28571429,14.28571429,1828.571429,1828.571429,black,practice,legacy,legacy,legacy,0,uniform,0,undefined,0,right,6,6,6,0,0,6,6,0,0,6,6,6,0,6,0,Sat Oct 22 14:52:39 2022,The main experiment item,yes,Sternbergtask.osexp,/Users/katherinehays/Desktop/PSYC 5316 - R and OpenSesame/Lab 3,no,mono,no,18,no,white,no,no,768,legacy,6,6,/Users/katherinehays/Desktop/PSYC 5316 - R and OpenSesame/Lab 3/KH-subject-3.csv,legacy,4 1 5,Lentiform Loewenfeld,3.3.12,0,n,0,None,right,NA,None,NA,2000,54962,NA,2000,NA,2,legacy,3,1024,2,48000,-16,experiment,3,odd,2,102486,99186,100260,2055,NA,100264,92164,2199,NA,104492,106492,101272,57245,104492,NA,Sternberg task,1,12800,7,yes,1024
12.5,12.5,1850,1850,black,practice,legacy,legacy,legacy,0,uniform,0,undefined,0,left,7,7,7,0,0,7,7,0,0,7,7,7,0,7,0,Sat Oct 22 14:52:39 2022,The main experiment item,yes,Sternbergtask.osexp,/Users/katherinehays/Desktop/PSYC 5316 - R and OpenSesame/Lab 3,no,mono,no,18,no,white,no,no,768,legacy,7,7,/Users/katherinehays/Desktop/PSYC 5316 - R and OpenSesame/Lab 3/KH-subject-3.csv,legacy,4 3 1 7 9 8,Lentiform Loewenfeld,3.3.12,1,y,0,None,right,NA,None,NA,2000,54962,NA,2000,NA,2,legacy,6,1024,2,48000,-16,experiment,3,odd,4,109807,99186,107580,2055,NA,107583,106496,2199,NA,111815,113815,108593,57245,111815,NA,Sternberg task,1,14800,8,yes,1024
11.11111111,11.11111111,1866.666667,1866.666667,black,practice,legacy,legacy,legacy,0,uniform,0,undefined,0,right,8,8,8,0,0,8,8,0,0,8,8,8,0,8,0,Sat Oct 22 14:52:39 2022,The main experiment item,yes,Sternbergtask.osexp,/Users/katherinehays/Desktop/PSYC 5316 - R and OpenSesame/Lab 3,no,mono,no,18,no,white,no,no,768,legacy,8,8,/Users/katherinehays/Desktop/PSYC 5316 - R and OpenSesame/Lab 3/KH-subject-3.csv,legacy,9 6 7 4 5,Lentiform Loewenfeld,3.3.12,0,n,0,None,right,NA,None,NA,2000,54962,NA,2000,NA,2,legacy,5,1024,2,48000,-16,experiment,3,odd,3,117133,99186,114906,2055,NA,114909,113820,2199,NA,119147,121147,115919,57245,119146,NA,Sternberg task,1,16800,9,yes,1024
10,10,1880,1880,black,practice,legacy,legacy,legacy,0,uniform,0,undefined,0,right,9,9,9,0,0,9,9,0,0,9,9,9,0,9,0,Sat Oct 22 14:52:39 2022,The main experiment item,yes,Sternbergtask.osexp,/Users/katherinehays/Desktop/PSYC 5316 - R and OpenSesame/Lab 3,no,mono,no,18,no,white,no,no,768,legacy,9,9,/Users/katherinehays/Desktop/PSYC 5316 - R and OpenSesame/Lab 3/KH-subject-3.csv,legacy,2 1,Lentiform Loewenfeld,3.3.12,0,n,0,None,right,NA,None,NA,2000,54962,NA,2000,NA,2,legacy,2,1024,2,48000,-16,experiment,3,odd,5,124475,99186,122243,2055,NA,122247,121151,2199,NA,126486,128486,123258,57245,126486,NA,Sternberg task,1,18800,10,yes,1024
9.090909091,9.090909091,1790,1790,black,practice,legacy,legacy,legacy,0,uniform,0,undefined,0,left,10,10,10,0,0,10,10,0,0,10,10,10,0,10,0,Sat Oct 22 14:52:39 2022,The main experiment item,yes,Sternbergtask.osexp,/Users/katherinehays/Desktop/PSYC 5316 - R and OpenSesame/Lab 3,no,mono,no,18,no,white,no,no,768,legacy,10,10,/Users/katherinehays/Desktop/PSYC 5316 - R and OpenSesame/Lab 3/KH-subject-3.csv,legacy,2 9 4,Lentiform Loewenfeld,3.3.12,3,y,0,right,right,NA,right,NA,890,54962,NA,890,NA,2,legacy,3,1024,2,48000,-16,experiment,3,odd,4,131799,99186,129570,2055,NA,129573,128490,2199,NA,133809,134700,130588,57245,133809,NA,Sternberg task,1,19690,11,yes,1024
16.66666667,16.66666667,1807.166667,1807.166667,black,practice,legacy,legacy,legacy,0,uniform,1,undefined,1,right,11,11,11,0,0,11,11,0,0,11,11,11,0,11,0,Sat Oct 22 14:52:39 2022,The main experiment item,yes,Sternbergtask.osexp,/Users/katherinehays/Desktop/PSYC 5316 - R and OpenSesame/Lab 3,no,mono,no,18,no,white,no,no,768,legacy,11,11,/Users/katherinehays/Desktop/PSYC 5316 - R and OpenSesame/Lab 3/KH-subject-3.csv,legacy,5,Lentiform Loewenfeld,3.3.12,0,n,0,right,right,NA,right,NA,1996,54962,NA,1996,NA,2,legacy,1,1024,2,48000,-16,experiment,3,odd,3,137990,99186,135772,2055,NA,135776,134706,2199,NA,139999,141995,136786,57245,139999,NA,Sternberg task,2,21686,12,yes,1024
15.38461538,15.38461538,1803.076923,1803.076923,black,experiment,legacy,legacy,legacy,0,uniform,0,undefined,0,left,12,12,12,0,0,12,12,0,0,12,12,12,0,12,0,Sat Oct 22 14:52:39 2022,The main experiment item,yes,Sternbergtask.osexp,/Users/katherinehays/Desktop/PSYC 5316 - R and OpenSesame/Lab 3,no,mono,no,18,no,white,no,no,768,legacy,0,11,/Users/katherinehays/Desktop/PSYC 5316 - R and OpenSesame/Lab 3/KH-subject-3.csv,legacy,3 4,Lentiform Loewenfeld,3.3.12,1,y,0,right,right,right,right,NA,1754,54962,22867,1754,NA,2,legacy,2,1024,2,48000,-16,experiment,3,odd,3,168200,142003,165972,2055,165939,165976,134706,2199,143071,170209,171964,166987,57245,170209,NA,Sternberg task,2,23440,13,yes,1024
21.42857143,21.42857143,1789.928571,1789.928571,black,experiment,legacy,legacy,legacy,0,uniform,1,undefined,1,right,13,13,13,0,0,13,13,0,0,13,13,13,0,13,0,Sat Oct 22 14:52:39 2022,The main experiment item,yes,Sternbergtask.osexp,/Users/katherinehays/Desktop/PSYC 5316 - R and OpenSesame/Lab 3,no,mono,no,18,no,white,no,no,768,legacy,1,11,/Users/katherinehays/Desktop/PSYC 5316 - R and OpenSesame/Lab 3/KH-subject-3.csv,legacy,9 8 2 7 4,Lentiform Loewenfeld,3.3.12,0,n,0,right,right,right,right,NA,1619,54962,22867,1619,NA,2,legacy,5,1024,2,48000,-16,experiment,3,odd,5,175338,142003,173110,2055,165939,173114,171968,2199,143071,177349,178969,174125,57245,177349,NA,Sternberg task,3,25059,14,yes,1024
26.66666667,26.66666667,1701.8,1701.8,black,experiment,legacy,legacy,legacy,0,uniform,1,undefined,1,right,14,14,14,0,0,14,14,0,0,14,14,14,0,14,0,Sat Oct 22 14:52:39 2022,The main experiment item,yes,Sternbergtask.osexp,/Users/katherinehays/Desktop/PSYC 5316 - R and OpenSesame/Lab 3,no,mono,no,18,no,white,no,no,768,legacy,2,11,/Users/katherinehays/Desktop/PSYC 5316 - R and OpenSesame/Lab 3/KH-subject-3.csv,legacy,7 1 8 4 9 3,Lentiform Loewenfeld,3.3.12,0,n,0,right,right,right,right,NA,468,54962,22867,468,NA,2,legacy,6,1024,2,48000,-16,experiment,3,odd,6,182288,178973,180056,2055,165939,180060,171968,2199,143071,184292,184761,181072,57245,184292,NA,Sternberg task,4,25527,15,yes,1024
31.25,31.25,1646.3125,1646.3125,black,experiment,legacy,legacy,legacy,0,uniform,1,undefined,1,right,15,15,15,0,0,15,15,0,0,15,15,15,0,15,0,Sat Oct 22 14:52:39 2022,The main experiment item,yes,Sternbergtask.osexp,/Users/katherinehays/Desktop/PSYC 5316 - R and OpenSesame/Lab 3,no,mono,no,18,no,white,no,no,768,legacy,3,11,/Users/katherinehays/Desktop/PSYC 5316 - R and OpenSesame/Lab 3/KH-subject-3.csv,legacy,6 3 1 7 9 8,Lentiform Loewenfeld,3.3.12,0,n,0,right,right,right,right,NA,814,54962,22867,814,NA,2,legacy,6,1024,2,48000,-16,experiment,3,odd,4,188060,184765,185835,2055,165939,185839,171968,2199,143071,190069,190883,186848,57245,190069,NA,Sternberg task,5,26341,16,yes,1024
35.29411765,35.29411765,1582.470588,1582.470588,black,experiment,legacy,legacy,legacy,0,uniform,1,undefined,1,right,16,16,16,0,0,16,16,0,0,16,16,16,0,16,0,Sat Oct 22 14:52:39 2022,The main experiment item,yes,Sternbergtask.osexp,/Users/katherinehays/Desktop/PSYC 5316 - R and OpenSesame/Lab 3,no,mono,no,18,no,white,no,no,768,legacy,4,11,/Users/katherinehays/Desktop/PSYC 5316 - R and OpenSesame/Lab 3/KH-subject-3.csv,legacy,1 6 4 3 9 7,Lentiform Loewenfeld,3.3.12,0,n,0,right,right,right,right,NA,561,54962,22867,561,NA,2,legacy,6,1024,2,48000,-16,experiment,3,odd,8,194202,190890,191971,2055,165939,191976,171968,2199,143071,196211,196772,192986,57245,196211,NA,Sternberg task,6,26902,17,yes,1024
38.88888889,38.88888889,1529.388889,1529.388889,black,experiment,legacy,legacy,legacy,0,uniform,1,undefined,1,right,17,17,17,0,0,17,17,0,0,17,17,17,0,17,0,Sat Oct 22 14:52:39 2022,The main experiment item,yes,Sternbergtask.osexp,/Users/katherinehays/Desktop/PSYC 5316 - R and OpenSesame/Lab 3,no,mono,no,18,no,white,no,no,768,legacy,5,11,/Users/katherinehays/Desktop/PSYC 5316 - R and OpenSesame/Lab 3/KH-subject-3.csv,legacy,3 9 8 1 6 4,Lentiform Loewenfeld,3.3.12,0,n,0,right,right,right,right,NA,627,54962,22867,627,NA,2,legacy,6,1024,2,48000,-16,experiment,3,odd,7,200107,196784,197878,2055,165939,197883,171968,2199,143071,202118,202746,198894,57245,202118,NA,Sternberg task,7,27529,18,yes,1024
36.84210526,36.84210526,1476.684211,1476.684211,black,experiment,legacy,legacy,legacy,0,uniform,0,undefined,0,right,18,18,18,0,0,18,18,0,0,18,18,18,0,18,0,Sat Oct 22 14:52:39 2022,The main experiment item,yes,Sternbergtask.osexp,/Users/katherinehays/Desktop/PSYC 5316 - R and OpenSesame/Lab 3,no,mono,no,18,no,white,no,no,768,legacy,6,11,/Users/katherinehays/Desktop/PSYC 5316 - R and OpenSesame/Lab 3/KH-subject-3.csv,legacy,6 2 9 3 8 4,Lentiform Loewenfeld,3.3.12,0,n,0,left,right,right,left,NA,528,54962,22867,528,NA,2,legacy,6,1024,2,48000,-16,experiment,3,odd,1,206082,202756,203852,2055,165939,203857,171968,2199,143071,208090,208620,204868,57245,208090,NA,Sternberg task,7,28057,19,yes,1024
40,40,1429.5,1429.5,black,experiment,legacy,legacy,legacy,0,uniform,1,undefined,1,right,19,19,19,0,0,19,19,0,0,19,19,19,0,19,0,Sat Oct 22 14:52:39 2022,The main experiment item,yes,Sternbergtask.osexp,/Users/katherinehays/Desktop/PSYC 5316 - R and OpenSesame/Lab 3,no,mono,no,18,no,white,no,no,768,legacy,7,11,/Users/katherinehays/Desktop/PSYC 5316 - R and OpenSesame/Lab 3/KH-subject-3.csv,legacy,2 8 9 4 1,Lentiform Loewenfeld,3.3.12,0,n,0,right,right,right,right,NA,533,54962,22867,533,NA,2,legacy,5,1024,2,48000,-16,experiment,3,odd,5,211946,202756,209715,2055,165939,209720,208625,2199,143071,213956,214490,210731,57245,213956,NA,Sternberg task,8,28590,20,yes,1024
38.0952381,38.0952381,1379.904762,1379.904762,black,experiment,legacy,legacy,legacy,0,uniform,0,undefined,0,left,20,20,20,0,0,20,20,0,0,20,20,20,0,20,0,Sat Oct 22 14:52:39 2022,The main experiment item,yes,Sternbergtask.osexp,/Users/katherinehays/Desktop/PSYC 5316 - R and OpenSesame/Lab 3,no,mono,no,18,no,white,no,no,768,legacy,8,11,/Users/katherinehays/Desktop/PSYC 5316 - R and OpenSesame/Lab 3/KH-subject-3.csv,legacy,4 1 8 7 5,Lentiform Loewenfeld,3.3.12,3,y,0,right,right,right,right,NA,388,54962,22867,388,NA,2,legacy,5,1024,2,48000,-16,experiment,3,odd,8,217814,214497,215586,2055,165939,215591,208625,2199,143071,219822,220211,216602,57245,219821,NA,Sternberg task,8,28978,21,yes,1024
40.90909091,40.90909091,1345.454545,1345.454545,black,experiment,legacy,legacy,legacy,0,uniform,1,undefined,1,left,21,21,21,0,0,21,21,0,0,21,21,21,0,21,0,Sat Oct 22 14:52:39 2022,The main experiment item,yes,Sternbergtask.osexp,/Users/katherinehays/Desktop/PSYC 5316 - R and OpenSesame/Lab 3,no,mono,no,18,no,white,no,no,768,legacy,9,11,/Users/katherinehays/Desktop/PSYC 5316 - R and OpenSesame/Lab 3/KH-subject-3.csv,legacy,1 4 9 3 2 5,Lentiform Loewenfeld,3.3.12,3,y,0,left,right,right,left,NA,622,54962,22867,622,NA,2,legacy,6,1024,2,48000,-16,experiment,3,odd,9,223540,214497,221311,2055,165939,221316,220219,2199,143071,225550,226173,222327,57245,225550,NA,Sternberg task,9,29600,22,yes,1024
43.47826087,43.47826087,1318.652174,1318.652174,black,experiment,legacy,legacy,legacy,0,uniform,1,undefined,1,right,22,22,22,0,0,22,22,0,0,22,22,22,0,22,0,Sat Oct 22 14:52:39 2022,The main experiment item,yes,Sternbergtask.osexp,/Users/katherinehays/Desktop/PSYC 5316 - R and OpenSesame/Lab 3,no,mono,no,18,no,white,no,no,768,legacy,10,11,/Users/katherinehays/Desktop/PSYC 5316 - R and OpenSesame/Lab 3/KH-subject-3.csv,legacy,3 4 9 6 7 8,Lentiform Loewenfeld,3.3.12,0,n,0,right,right,right,right,NA,729,54962,22867,729,NA,2,legacy,6,1024,2,48000,-16,experiment,3,odd,2,229503,226179,227271,2055,165939,227277,220219,2199,143071,231512,232242,228289,57245,231512,NA,Sternberg task,10,30329,23,yes,1024
41.66666667,41.66666667,1281.375,1281.375,black,experiment,legacy,legacy,legacy,0,uniform,0,undefined,0,left,23,23,23,0,0,23,23,0,0,23,23,23,0,23,0,Sat Oct 22 14:52:39 2022,The main experiment item,yes,Sternbergtask.osexp,/Users/katherinehays/Desktop/PSYC 5316 - R and OpenSesame/Lab 3,no,mono,no,18,no,white,no,no,768,legacy,11,11,/Users/katherinehays/Desktop/PSYC 5316 - R and OpenSesame/Lab 3/KH-subject-3.csv,legacy,2 4 8 5 1 3,Lentiform Loewenfeld,3.3.12,1,y,0,right,right,right,right,NA,424,54962,22867,424,NA,2,legacy,6,1024,2,48000,-16,experiment,3,odd,2,235569,232249,233341,2055,165939,233346,220219,2199,143071,237577,238002,234356,57245,237577,NA,Sternberg task,10,30753,24,yes,1024
44,44,1259.44,1259.44,black,experiment,legacy,legacy,legacy,0,uniform,1,undefined,1,right,24,24,24,0,0,24,24,0,0,24,24,24,0,24,0,Sat Oct 22 14:52:39 2022,The main experiment item,yes,Sternbergtask.osexp,/Users/katherinehays/Desktop/PSYC 5316 - R and OpenSesame/Lab 3,no,mono,no,18,no,white,no,no,768,legacy,12,11,/Users/katherinehays/Desktop/PSYC 5316 - R and OpenSesame/Lab 3/KH-subject-3.csv,legacy,6 9 4 5 3 2,Lentiform Loewenfeld,3.3.12,0,n,0,right,right,right,right,NA,733,54962,22867,733,NA,2,legacy,6,1024,2,48000,-16,experiment,3,odd,8,241323,232249,239096,2055,165939,239101,238007,2199,143071,243332,244065,240113,57245,243332,NA,Sternberg task,11,31486,25,yes,1024
42.30769231,42.30769231,1233.961538,1233.961538,black,experiment,legacy,legacy,legacy,0,uniform,0,undefined,0,left,25,25,25,0,0,25,25,0,0,25,25,25,0,25,0,Sat Oct 22 14:52:39 2022,The main experiment item,yes,Sternbergtask.osexp,/Users/katherinehays/Desktop/PSYC 5316 - R and OpenSesame/Lab 3,no,mono,no,18,no,white,no,no,768,legacy,13,11,/Users/katherinehays/Desktop/PSYC 5316 - R and OpenSesame/Lab 3/KH-subject-3.csv,legacy,8 1 6,Lentiform Loewenfeld,3.3.12,3,y,0,right,right,right,right,NA,597,54962,22867,597,NA,2,legacy,3,1024,2,48000,-16,experiment,3,odd,6,247392,244072,245167,2055,165939,245172,238007,2199,143071,249401,249999,246183,57245,249401,NA,Sternberg task,11,32083,26,yes,1024
44.44444444,44.44444444,1214.592593,1214.592593,black,experiment,legacy,legacy,legacy,0,uniform,1,undefined,1,left,26,26,26,0,0,26,26,0,0,26,26,26,0,26,0,Sat Oct 22 14:52:39 2022,The main experiment item,yes,Sternbergtask.osexp,/Users/katherinehays/Desktop/PSYC 5316 - R and OpenSesame/Lab 3,no,mono,no,18,no,white,no,no,768,legacy,14,11,/Users/katherinehays/Desktop/PSYC 5316 - R and OpenSesame/Lab 3/KH-subject-3.csv,legacy,8 5 3 7 4 6,Lentiform Loewenfeld,3.3.12,6,y,0,left,right,right,left,NA,711,54962,22867,711,NA,2,legacy,6,1024,2,48000,-16,experiment,3,odd,6,253330,244072,251098,2055,165939,251104,250008,2199,143071,255339,256050,252114,57245,255339,NA,Sternberg task,12,32794,27,yes,1024
46.42857143,46.42857143,1193.857143,1193.857143,black,experiment,legacy,legacy,legacy,0,uniform,1,undefined,1,right,27,27,27,0,0,27,27,0,0,27,27,27,0,27,0,Sat Oct 22 14:52:39 2022,The main experiment item,yes,Sternbergtask.osexp,/Users/katherinehays/Desktop/PSYC 5316 - R and OpenSesame/Lab 3,no,mono,no,18,no,white,no,no,768,legacy,15,11,/Users/katherinehays/Desktop/PSYC 5316 - R and OpenSesame/Lab 3/KH-subject-3.csv,legacy,4 2 7 6 1 3,Lentiform Loewenfeld,3.3.12,0,n,0,right,right,right,right,NA,634,54962,22867,634,NA,2,legacy,6,1024,2,48000,-16,experiment,3,odd,8,259380,256058,257150,2055,165939,257155,250008,2199,143071,261390,262024,258166,57245,261390,NA,Sternberg task,13,33428,28,yes,1024
48.27586207,48.27586207,1178.344828,1178.344828,black,experiment,legacy,legacy,legacy,0,uniform,1,undefined,1,left,28,28,28,0,0,28,28,0,0,28,28,28,0,28,0,Sat Oct 22 14:52:39 2022,The main experiment item,yes,Sternbergtask.osexp,/Users/katherinehays/Desktop/PSYC 5316 - R and OpenSesame/Lab 3,no,mono,no,18,no,white,no,no,768,legacy,16,11,/Users/katherinehays/Desktop/PSYC 5316 - R and OpenSesame/Lab 3/KH-subject-3.csv,legacy,7 1 3,Lentiform Loewenfeld,3.3.12,2,y,0,left,right,right,left,NA,744,54962,22867,744,NA,2,legacy,3,1024,2,48000,-16,experiment,3,odd,1,265348,262029,263120,2055,165939,263125,250008,2199,143071,267357,268101,264137,57245,267356,NA,Sternberg task,14,34172,29,yes,1024
50,50,1160.2,1160.2,black,experiment,legacy,legacy,legacy,0,uniform,1,undefined,1,right,29,29,29,0,0,29,29,0,0,29,29,29,0,29,0,Sat Oct 22 14:52:39 2022,The main experiment item,yes,Sternbergtask.osexp,/Users/katherinehays/Desktop/PSYC 5316 - R and OpenSesame/Lab 3,no,mono,no,18,no,white,no,no,768,legacy,17,11,/Users/katherinehays/Desktop/PSYC 5316 - R and OpenSesame/Lab 3/KH-subject-3.csv,legacy,5 7 3,Lentiform Loewenfeld,3.3.12,0,n,0,right,right,right,right,NA,634,54962,22867,634,NA,2,legacy,3,1024,2,48000,-16,experiment,3,odd,9,271409,268112,269184,2055,165939,269190,250008,2199,143071,273419,274054,270201,57245,273418,NA,Sternberg task,15,34806,30,yes,1024
48.38709677,48.38709677,1137.354839,1137.354839,black,experiment,legacy,legacy,legacy,0,uniform,0,undefined,0,left,30,30,30,0,0,30,30,0,0,30,30,30,0,30,0,Sat Oct 22 14:52:39 2022,The main experiment item,yes,Sternbergtask.osexp,/Users/katherinehays/Desktop/PSYC 5316 - R and OpenSesame/Lab 3,no,mono,no,18,no,white,no,no,768,legacy,18,11,/Users/katherinehays/Desktop/PSYC 5316 - R and OpenSesame/Lab 3/KH-subject-3.csv,legacy,6 1 2,Lentiform Loewenfeld,3.3.12,3,y,0,right,right,right,right,NA,452,54962,22867,452,NA,2,legacy,3,1024,2,48000,-16,experiment,3,odd,2,277395,274066,275165,2055,165939,275171,250008,2199,143071,279404,279857,276183,57245,279404,NA,Sternberg task,15,35258,31,yes,1024
46.875,46.875,1164.3125,1164.3125,black,experiment,legacy,legacy,legacy,0,uniform,0,undefined,0,right,31,31,31,0,0,31,31,0,0,31,31,31,0,31,0,Sat Oct 22 14:52:39 2022,The main experiment item,yes,Sternbergtask.osexp,/Users/katherinehays/Desktop/PSYC 5316 - R and OpenSesame/Lab 3,no,mono,no,18,no,white,no,no,768,legacy,19,11,/Users/katherinehays/Desktop/PSYC 5316 - R and OpenSesame/Lab 3/KH-subject-3.csv,legacy,1,Lentiform Loewenfeld,3.3.12,0,n,0,None,right,right,None,NA,2000,54962,22867,2000,NA,2,legacy,1,1024,2,48000,-16,experiment,3,odd,7,283183,274066,280952,2055,165939,280957,279871,2199,143071,285194,287194,281968,57245,285194,NA,Sternberg task,15,37258,32,yes,1024
45.45454545,45.45454545,1147.333333,1147.333333,black,experiment,legacy,legacy,legacy,0,uniform,0,undefined,0,left,32,32,32,0,0,32,32,0,0,32,32,32,0,32,0,Sat Oct 22 14:52:39 2022,The main experiment item,yes,Sternbergtask.osexp,/Users/katherinehays/Desktop/PSYC 5316 - R and OpenSesame/Lab 3,no,mono,no,18,no,white,no,no,768,legacy,20,11,/Users/katherinehays/Desktop/PSYC 5316 - R and OpenSesame/Lab 3/KH-subject-3.csv,legacy,3 5 4 7,Lentiform Loewenfeld,3.3.12,1,y,0,right,right,right,right,NA,604,54962,22867,604,NA,2,legacy,4,1024,2,48000,-16,experiment,3,odd,3,290528,274066,288298,2055,165939,288303,287205,2199,143071,292538,293143,289313,57245,292537,NA,Sternberg task,15,37862,33,yes,1024
47.05882353,47.05882353,1132.911765,1132.911765,black,experiment,legacy,legacy,legacy,0,uniform,1,undefined,1,left,33,33,33,0,0,33,33,0,0,33,33,33,0,33,0,Sat Oct 22 14:52:39 2022,The main experiment item,yes,Sternbergtask.osexp,/Users/katherinehays/Desktop/PSYC 5316 - R and OpenSesame/Lab 3,no,mono,no,18,no,white,no,no,768,legacy,21,11,/Users/katherinehays/Desktop/PSYC 5316 - R and OpenSesame/Lab 3/KH-subject-3.csv,legacy,7 4 2 6 3 5,Lentiform Loewenfeld,3.3.12,6,y,0,left,right,right,left,NA,657,54962,22867,657,NA,2,legacy,6,1024,2,48000,-16,experiment,3,odd,5,296474,274066,294245,2055,165939,294250,293148,2199,143071,298484,299142,295260,57245,298484,NA,Sternberg task,16,38519,34,yes,1024
45.71428571,45.71428571,1120.171429,1120.171429,black,experiment,legacy,legacy,legacy,0,uniform,0,undefined,0,left,34,34,34,0,0,34,34,0,0,34,34,34,0,34,0,Sat Oct 22 14:52:39 2022,The main experiment item,yes,Sternbergtask.osexp,/Users/katherinehays/Desktop/PSYC 5316 - R and OpenSesame/Lab 3,no,mono,no,18,no,white,no,no,768,legacy,22,11,/Users/katherinehays/Desktop/PSYC 5316 - R and OpenSesame/Lab 3/KH-subject-3.csv,legacy,4 6 2 5 1,Lentiform Loewenfeld,3.3.12,5,y,0,right,right,right,right,NA,687,54962,22867,687,NA,2,legacy,5,1024,2,48000,-16,experiment,3,odd,1,302474,299150,300244,2055,165939,300250,293148,2199,143071,304483,305171,301260,57245,304483,NA,Sternberg task,16,39206,35,yes,1024
44.44444444,44.44444444,1144.611111,1144.611111,black,experiment,legacy,legacy,legacy,0,uniform,0,undefined,0,right,35,35,35,0,0,35,35,0,0,35,35,35,0,35,0,Sat Oct 22 14:52:39 2022,The main experiment item,yes,Sternbergtask.osexp,/Users/katherinehays/Desktop/PSYC 5316 - R and OpenSesame/Lab 3,no,mono,no,18,no,white,no,no,768,legacy,23,11,/Users/katherinehays/Desktop/PSYC 5316 - R and OpenSesame/Lab 3/KH-subject-3.csv,legacy,8 2 1 4 5 9,Lentiform Loewenfeld,3.3.12,0,n,0,None,right,right,None,NA,2000,54962,22867,2000,NA,2,legacy,6,1024,2,48000,-16,experiment,3,odd,7,308499,299150,306268,2055,165939,306273,305177,2199,143071,310510,312510,307283,57245,310510,NA,Sternberg task,16,41206,36,yes,1024
43.24324324,43.24324324,1132.540541,1132.540541,black,experiment,legacy,legacy,legacy,0,uniform,0,undefined,0,left,36,36,36,0,0,36,36,0,0,36,36,36,0,36,0,Sat Oct 22 14:52:39 2022,The main experiment item,yes,Sternbergtask.osexp,/Users/katherinehays/Desktop/PSYC 5316 - R and OpenSesame/Lab 3,no,mono,no,18,no,white,no,no,768,legacy,24,11,/Users/katherinehays/Desktop/PSYC 5316 - R and OpenSesame/Lab 3/KH-subject-3.csv,legacy,7 8 4 6 9 5,Lentiform Loewenfeld,3.3.12,4,y,0,right,right,right,right,NA,698,54962,22867,698,NA,2,legacy,6,1024,2,48000,-16,experiment,3,odd,6,315844,299150,313614,2055,165939,313619,312518,2199,143071,317855,318554,314630,57245,317855,NA,Sternberg task,16,41904,37,yes,1024
44.73684211,44.73684211,1124.394737,1124.394737,black,experiment,legacy,legacy,legacy,0,uniform,1,undefined,1,left,37,37,37,0,0,37,37,0,0,37,37,37,0,37,0,Sat Oct 22 14:52:39 2022,The main experiment item,yes,Sternbergtask.osexp,/Users/katherinehays/Desktop/PSYC 5316 - R and OpenSesame/Lab 3,no,mono,no,18,no,white,no,no,768,legacy,25,11,/Users/katherinehays/Desktop/PSYC 5316 - R and OpenSesame/Lab 3/KH-subject-3.csv,legacy,2 5 4 8 7,Lentiform Loewenfeld,3.3.12,3,y,0,left,right,right,left,NA,823,54962,22867,823,NA,2,legacy,5,1024,2,48000,-16,experiment,3,odd,4,321882,299150,319652,2055,165939,319657,318560,2199,143071,323909,324733,320670,57245,323908,NA,Sternberg task,17,42727,38,yes,1024
43.58974359,43.58974359,1114.769231,1114.769231,black,experiment,legacy,legacy,legacy,0,uniform,0,undefined,0,left,38,38,38,0,0,38,38,0,0,38,38,38,0,38,0,Sat Oct 22 14:52:39 2022,The main experiment item,yes,Sternbergtask.osexp,/Users/katherinehays/Desktop/PSYC 5316 - R and OpenSesame/Lab 3,no,mono,no,18,no,white,no,no,768,legacy,26,11,/Users/katherinehays/Desktop/PSYC 5316 - R and OpenSesame/Lab 3/KH-subject-3.csv,legacy,4 7 6 8 2 3,Lentiform Loewenfeld,3.3.12,6,y,0,right,right,right,right,NA,749,54962,22867,749,NA,2,legacy,6,1024,2,48000,-16,experiment,3,odd,3,328116,324742,325889,2055,165939,325894,318560,2199,143071,330126,330876,326905,57245,330126,NA,Sternberg task,17,43476,39,yes,1024
45,45,1101.55,1101.55,black,experiment,legacy,legacy,legacy,0,uniform,1,undefined,1,left,39,39,39,0,0,39,39,0,0,39,39,39,0,39,0,Sat Oct 22 14:52:39 2022,The main experiment item,yes,Sternbergtask.osexp,/Users/katherinehays/Desktop/PSYC 5316 - R and OpenSesame/Lab 3,no,mono,no,18,no,white,no,no,768,legacy,27,11,/Users/katherinehays/Desktop/PSYC 5316 - R and OpenSesame/Lab 3/KH-subject-3.csv,legacy,9 1 7 2,Lentiform Loewenfeld,3.3.12,2,y,0,left,right,right,left,NA,586,54962,22867,586,NA,2,legacy,4,1024,2,48000,-16,experiment,3,odd,1,334206,324742,331978,2055,165939,331984,330883,2199,143071,336216,336803,332995,57245,336216,NA,Sternberg task,18,44062,40,yes,1024
46.34146341,46.34146341,1089.853659,1089.853659,black,experiment,legacy,legacy,legacy,0,uniform,1,undefined,1,right,40,40,40,0,0,40,40,0,0,40,40,40,0,40,0,Sat Oct 22 14:52:39 2022,The main experiment item,yes,Sternbergtask.osexp,/Users/katherinehays/Desktop/PSYC 5316 - R and OpenSesame/Lab 3,no,mono,no,18,no,white,no,no,768,legacy,28,11,/Users/katherinehays/Desktop/PSYC 5316 - R and OpenSesame/Lab 3/KH-subject-3.csv,legacy,8 4 3 5,Lentiform Loewenfeld,3.3.12,0,n,0,right,right,right,right,NA,622,54962,22867,622,NA,2,legacy,4,1024,2,48000,-16,experiment,3,odd,6,340129,336808,337902,2055,165939,337907,330883,2199,143071,342138,342760,338918,57245,342137,NA,Sternberg task,19,44684,41,yes,1024
45.23809524,45.23809524,1079.952381,1079.952381,black,experiment,legacy,legacy,legacy,0,uniform,0,undefined,0,left,41,41,41,0,0,41,41,0,0,41,41,41,0,41,0,Sat Oct 22 14:52:39 2022,The main experiment item,yes,Sternbergtask.osexp,/Users/katherinehays/Desktop/PSYC 5316 - R and OpenSesame/Lab 3,no,mono,no,18,no,white,no,no,768,legacy,29,11,/Users/katherinehays/Desktop/PSYC 5316 - R and OpenSesame/Lab 3/KH-subject-3.csv,legacy,7 1 8 5 6 2,Lentiform Loewenfeld,3.3.12,2,y,0,right,right,right,right,NA,674,54962,22867,674,NA,2,legacy,6,1024,2,48000,-16,experiment,3,odd,1,346090,342770,343864,2055,165939,343869,330883,2199,143071,348100,348775,344879,57245,348100,NA,Sternberg task,19,45358,42,yes,1024
44.18604651,44.18604651,1068.674419,1068.674419,black,experiment,legacy,legacy,legacy,0,uniform,0,undefined,0,right,42,42,42,0,0,42,42,0,0,42,42,42,0,42,0,Sat Oct 22 14:52:39 2022,The main experiment item,yes,Sternbergtask.osexp,/Users/katherinehays/Desktop/PSYC 5316 - R and OpenSesame/Lab 3,no,mono,no,18,no,white,no,no,768,legacy,30,11,/Users/katherinehays/Desktop/PSYC 5316 - R and OpenSesame/Lab 3/KH-subject-3.csv,legacy,4 8 1 2,Lentiform Loewenfeld,3.3.12,0,n,0,left,right,right,left,NA,595,54962,22867,595,NA,2,legacy,4,1024,2,48000,-16,experiment,3,odd,7,352106,342770,349875,2055,165939,349881,348781,2199,143071,354117,354713,350891,57245,354116,NA,Sternberg task,19,45953,43,yes,1024
43.18181818,43.18181818,1054.886364,1054.886364,black,experiment,legacy,legacy,legacy,0,uniform,0,undefined,0,left,43,43,43,0,0,43,43,0,0,43,43,43,0,43,0,Sat Oct 22 14:52:39 2022,The main experiment item,yes,Sternbergtask.osexp,/Users/katherinehays/Desktop/PSYC 5316 - R and OpenSesame/Lab 3,no,mono,no,18,no,white,no,no,768,legacy,31,11,/Users/katherinehays/Desktop/PSYC 5316 - R and OpenSesame/Lab 3/KH-subject-3.csv,legacy,4 9 7 8 5 3,Lentiform Loewenfeld,3.3.12,4,y,0,right,right,right,right,NA,462,54962,22867,462,NA,2,legacy,6,1024,2,48000,-16,experiment,3,odd,8,358054,342770,355821,2055,165939,355826,354721,2199,143071,360064,360527,356839,57245,360064,NA,Sternberg task,19,46415,44,yes,1024
44.44444444,44.44444444,1047.622222,1047.622222,black,experiment,legacy,legacy,legacy,0,uniform,1,undefined,1,right,44,44,44,0,0,44,44,0,0,44,44,44,0,44,0,Sat Oct 22 14:52:39 2022,The main experiment item,yes,Sternbergtask.osexp,/Users/katherinehays/Desktop/PSYC 5316 - R and OpenSesame/Lab 3,no,mono,no,18,no,white,no,no,768,legacy,32,11,/Users/katherinehays/Desktop/PSYC 5316 - R and OpenSesame/Lab 3/KH-subject-3.csv,legacy,5 2,Lentiform Loewenfeld,3.3.12,0,n,0,right,right,right,right,NA,728,54962,22867,728,NA,2,legacy,2,1024,2,48000,-16,experiment,3,odd,7,363857,342770,361634,2055,165939,361639,360535,2199,143071,365871,366600,362645,57245,365866,NA,Sternberg task,20,47143,45,yes,1024
45.65217391,45.65217391,1040.021739,1040.021739,black,experiment,legacy,legacy,legacy,0,uniform,1,undefined,1,right,45,45,45,0,0,45,45,0,0,45,45,45,0,45,0,Sat Oct 22 14:52:39 2022,The main experiment item,yes,Sternbergtask.osexp,/Users/katherinehays/Desktop/PSYC 5316 - R and OpenSesame/Lab 3,no,mono,no,18,no,white,no,no,768,legacy,33,11,/Users/katherinehays/Desktop/PSYC 5316 - R and OpenSesame/Lab 3/KH-subject-3.csv,legacy,1 6 4,Lentiform Loewenfeld,3.3.12,0,n,0,right,right,right,right,NA,698,54962,22867,698,NA,2,legacy,3,1024,2,48000,-16,experiment,3,odd,7,369981,366612,367751,2055,165939,367756,360535,2199,143071,371993,372691,368767,57245,371993,NA,Sternberg task,21,47841,46,yes,1024
46.80851064,46.80851064,1030.297872,1030.297872,black,experiment,legacy,legacy,legacy,0,uniform,1,undefined,1,right,46,46,46,0,0,46,46,0,0,46,46,46,0,46,0,Sat Oct 22 14:52:39 2022,The main experiment item,yes,Sternbergtask.osexp,/Users/katherinehays/Desktop/PSYC 5316 - R and OpenSesame/Lab 3,no,mono,no,18,no,white,no,no,768,legacy,34,11,/Users/katherinehays/Desktop/PSYC 5316 - R and OpenSesame/Lab 3/KH-subject-3.csv,legacy,8 5 7 3 6,Lentiform Loewenfeld,3.3.12,0,n,0,right,right,right,right,NA,583,54962,22867,583,NA,2,legacy,5,1024,2,48000,-16,experiment,3,odd,9,376028,372697,373802,2055,165939,373807,360535,2199,143071,378036,378620,374818,57245,378036,NA,Sternberg task,22,48424,47,yes,1024
47.91666667,47.91666667,1024.375,1024.375,black,experiment,legacy,legacy,legacy,0,uniform,1,undefined,1,left,47,47,47,0,0,47,47,0,0,47,47,47,0,47,0,Sat Oct 22 14:52:39 2022,The main experiment item,yes,Sternbergtask.osexp,/Users/katherinehays/Desktop/PSYC 5316 - R and OpenSesame/Lab 3,no,mono,no,18,no,white,no,no,768,legacy,35,11,/Users/katherinehays/Desktop/PSYC 5316 - R and OpenSesame/Lab 3/KH-subject-3.csv,legacy,2 3 7 4,Lentiform Loewenfeld,3.3.12,1,y,0,left,right,right,left,NA,746,54962,22867,746,NA,2,legacy,4,1024,2,48000,-16,experiment,3,odd,2,381956,378630,379727,2055,165939,379732,360535,2199,143071,383966,384713,380744,57245,383966,NA,Sternberg task,23,49170,48,yes,1024
46.93877551,46.93877551,1005.734694,1005.734694,black,experiment,legacy,legacy,legacy,0,uniform,0,undefined,0,left,48,48,48,0,0,48,48,0,0,48,48,48,0,48,0,Sat Oct 22 14:52:39 2022,The main experiment item,yes,Sternbergtask.osexp,/Users/katherinehays/Desktop/PSYC 5316 - R and OpenSesame/Lab 3,no,mono,no,18,no,white,no,no,768,legacy,36,11,/Users/katherinehays/Desktop/PSYC 5316 - R and OpenSesame/Lab 3/KH-subject-3.csv,legacy,7,Lentiform Loewenfeld,3.3.12,1,y,0,right,right,right,right,NA,111,54962,22867,111,NA,2,legacy,1,1024,2,48000,-16,experiment,3,odd,7,388043,384720,385813,2055,165939,385818,360535,2199,143071,390053,390165,386830,57245,390052,NA,Sternberg task,23,49281,49,yes,1024
48,48,1000.64,1000.64,black,experiment,legacy,legacy,legacy,0,uniform,1,undefined,1,right,49,49,49,0,0,49,49,0,0,49,49,49,0,49,0,Sat Oct 22 14:52:39 2022,The main experiment item,yes,Sternbergtask.osexp,/Users/katherinehays/Desktop/PSYC 5316 - R and OpenSesame/Lab 3,no,mono,no,18,no,white,no,no,768,legacy,37,11,/Users/katherinehays/Desktop/PSYC 5316 - R and OpenSesame/Lab 3/KH-subject-3.csv,legacy,4 1,Lentiform Loewenfeld,3.3.12,0,n,0,right,right,right,right,NA,751,54962,22867,751,NA,2,legacy,2,1024,2,48000,-16,experiment,3,odd,6,393477,384720,391250,2055,165939,391254,390169,2199,143071,395489,396241,392265,57245,395489,NA,Sternberg task,24,50032,50,yes,1024
49.01960784,49.01960784,993.9019608,993.9019608,black,experiment,legacy,legacy,legacy,0,uniform,1,undefined,1,left,50,50,50,0,0,50,50,0,0,50,50,50,0,50,0,Sat Oct 22 14:52:39 2022,The main experiment item,yes,Sternbergtask.osexp,/Users/katherinehays/Desktop/PSYC 5316 - R and OpenSesame/Lab 3,no,mono,no,18,no,white,no,no,768,legacy,38,11,/Users/katherinehays/Desktop/PSYC 5316 - R and OpenSesame/Lab 3/KH-subject-3.csv,legacy,9 3 1 2 5,Lentiform Loewenfeld,3.3.12,4,y,0,left,right,right,left,NA,657,54962,22867,657,NA,2,legacy,5,1024,2,48000,-16,experiment,3,odd,2,399572,396246,397341,2055,165939,397347,390169,2199,143071,401582,402240,398359,57245,401582,NA,Sternberg task,25,50689,51,yes,1024
50,50,988.2692308,988.2692308,black,experiment,legacy,legacy,legacy,0,uniform,1,undefined,1,left,51,51,51,0,0,51,51,0,0,51,51,51,0,51,0,Sat Oct 22 14:52:39 2022,The main experiment item,yes,Sternbergtask.osexp,/Users/katherinehays/Desktop/PSYC 5316 - R and OpenSesame/Lab 3,no,mono,no,18,no,white,no,no,768,legacy,39,11,/Users/katherinehays/Desktop/PSYC 5316 - R and OpenSesame/Lab 3/KH-subject-3.csv,legacy,3 4 9 6 2 9,Lentiform Loewenfeld,3.3.12,5,y,0,left,right,right,left,NA,701,54962,22867,701,NA,2,legacy,6,1024,2,48000,-16,experiment,3,odd,2,405577,402246,403345,2055,165939,403351,390169,2199,143071,407587,408288,404363,57245,407587,NA,Sternberg task,26,51390,52,yes,1024
49.05660377,49.05660377,978.6981132,978.6981132,black,experiment,legacy,legacy,legacy,0,uniform,0,undefined,0,right,52,52,52,0,0,52,52,0,0,52,52,52,0,52,0,Sat Oct 22 14:52:39 2022,The main experiment item,yes,Sternbergtask.osexp,/Users/katherinehays/Desktop/PSYC 5316 - R and OpenSesame/Lab 3,no,mono,no,18,no,white,no,no,768,legacy,40,11,/Users/katherinehays/Desktop/PSYC 5316 - R and OpenSesame/Lab 3/KH-subject-3.csv,legacy,1 3 2 6 9,Lentiform Loewenfeld,3.3.12,0,n,0,left,right,right,left,NA,481,54962,22867,481,NA,2,legacy,5,1024,2,48000,-16,experiment,3,odd,5,411617,408296,409388,2055,165939,409393,390169,2199,143071,413627,414109,410404,57245,413627,NA,Sternberg task,26,51871,53,yes,1024
50,50,973.4259259,973.4259259,black,experiment,legacy,legacy,legacy,0,uniform,1,undefined,1,left,53,53,53,0,0,53,53,0,0,53,53,53,0,53,0,Sat Oct 22 14:52:39 2022,The main experiment item,yes,Sternbergtask.osexp,/Users/katherinehays/Desktop/PSYC 5316 - R and OpenSesame/Lab 3,no,mono,no,18,no,white,no,no,768,legacy,41,11,/Users/katherinehays/Desktop/PSYC 5316 - R and OpenSesame/Lab 3/KH-subject-3.csv,legacy,8 9 5 6 7,Lentiform Loewenfeld,3.3.12,1,y,0,left,right,right,left,NA,694,54962,22867,694,NA,2,legacy,5,1024,2,48000,-16,experiment,3,odd,8,417438,408296,415212,2055,165939,415217,414118,2199,143071,419448,420143,416228,57245,419447,NA,Sternberg task,27,52565,54,yes,1024
49.09090909,49.09090909,969.2,969.2,black,experiment,legacy,legacy,legacy,0,uniform,0,undefined,0,left,54,54,54,0,0,54,54,0,0,54,54,54,0,54,0,Sat Oct 22 14:52:39 2022,The main experiment item,yes,Sternbergtask.osexp,/Users/katherinehays/Desktop/PSYC 5316 - R and OpenSesame/Lab 3,no,mono,no,18,no,white,no,no,768,legacy,42,11,/Users/katherinehays/Desktop/PSYC 5316 - R and OpenSesame/Lab 3/KH-subject-3.csv,legacy,2 6 1 7 4,Lentiform Loewenfeld,3.3.12,2,y,0,right,right,right,right,NA,741,54962,22867,741,NA,2,legacy,5,1024,2,48000,-16,experiment,3,odd,6,423471,420151,421244,2055,165939,421249,414118,2199,143071,425483,426225,422259,57245,425483,NA,Sternberg task,27,53306,55,yes,1024
50,50,965.9642857,965.9642857,black,experiment,legacy,legacy,legacy,0,uniform,1,undefined,1,left,55,55,55,0,0,55,55,0,0,55,55,55,0,55,0,Sat Oct 22 14:52:39 2022,The main experiment item,yes,Sternbergtask.osexp,/Users/katherinehays/Desktop/PSYC 5316 - R and OpenSesame/Lab 3,no,mono,no,18,no,white,no,no,768,legacy,43,11,/Users/katherinehays/Desktop/PSYC 5316 - R and OpenSesame/Lab 3/KH-subject-3.csv,legacy,9 4 2,Lentiform Loewenfeld,3.3.12,1,y,0,left,right,right,left,NA,788,54962,22867,788,NA,2,legacy,3,1024,2,48000,-16,experiment,3,odd,9,429557,420151,427325,2055,165939,427330,426232,2199,143071,431567,432355,428344,57245,431566,NA,Sternberg task,28,54094,56,yes,1024
50.87719298,50.87719298,966.122807,966.122807,black,experiment,legacy,legacy,legacy,0,uniform,1,undefined,1,left,56,56,56,0,0,56,56,0,0,56,56,56,0,56,0,Sat Oct 22 14:52:39 2022,The main experiment item,yes,Sternbergtask.osexp,/Users/katherinehays/Desktop/PSYC 5316 - R and OpenSesame/Lab 3,no,mono,no,18,no,white,no,no,768,legacy,44,11,/Users/katherinehays/Desktop/PSYC 5316 - R and OpenSesame/Lab 3/KH-subject-3.csv,legacy,6 7 8 5,Lentiform Loewenfeld,3.3.12,3,y,0,left,right,right,left,NA,975,54962,22867,975,NA,2,legacy,4,1024,2,48000,-16,experiment,3,odd,8,435667,432361,433441,2055,165939,433445,426232,2199,143071,437677,438652,434456,57245,437677,NA,Sternberg task,29,55069,57,yes,1024
50,50,958.3965517,958.3965517,black,experiment,legacy,legacy,legacy,0,uniform,0,undefined,0,right,57,57,57,0,0,57,57,0,0,57,57,57,0,57,0,Sat Oct 22 14:52:39 2022,The main experiment item,yes,Sternbergtask.osexp,/Users/katherinehays/Desktop/PSYC 5316 - R and OpenSesame/Lab 3,no,mono,no,18,no,white,no,no,768,legacy,45,11,/Users/katherinehays/Desktop/PSYC 5316 - R and OpenSesame/Lab 3/KH-subject-3.csv,legacy,2 6 4 3 9,Lentiform Loewenfeld,3.3.12,0,n,0,left,right,right,left,NA,518,54962,22867,518,NA,2,legacy,5,1024,2,48000,-16,experiment,3,odd,1,441926,438656,439714,2055,165939,439718,426232,2199,143071,443938,444457,440721,57245,443938,NA,Sternberg task,29,55587,58,yes,1024
50.84745763,50.84745763,950.779661,950.779661,black,experiment,legacy,legacy,legacy,0,uniform,1,undefined,1,right,58,58,58,0,0,58,58,0,0,58,58,58,0,58,0,Sat Oct 22 14:52:39 2022,The main experiment item,yes,Sternbergtask.osexp,/Users/katherinehays/Desktop/PSYC 5316 - R and OpenSesame/Lab 3,no,mono,no,18,no,white,no,no,768,legacy,46,11,/Users/katherinehays/Desktop/PSYC 5316 - R and OpenSesame/Lab 3/KH-subject-3.csv,legacy,7 9 1 6,Lentiform Loewenfeld,3.3.12,0,n,0,right,right,right,right,NA,509,54962,22867,509,NA,2,legacy,4,1024,2,48000,-16,experiment,3,odd,4,447769,438656,445544,2055,165939,445548,444468,2199,143071,449778,450288,446560,57245,449777,NA,Sternberg task,30,56096,59,yes,1024
51.66666667,51.66666667,945.15,945.15,black,experiment,legacy,legacy,legacy,0,uniform,1,undefined,1,right,59,59,59,0,0,59,59,0,0,59,59,59,0,59,0,Sat Oct 22 14:52:39 2022,The main experiment item,yes,Sternbergtask.osexp,/Users/katherinehays/Desktop/PSYC 5316 - R and OpenSesame/Lab 3,no,mono,no,18,no,white,no,no,768,legacy,47,11,/Users/katherinehays/Desktop/PSYC 5316 - R and OpenSesame/Lab 3/KH-subject-3.csv,legacy,2 8 9,Lentiform Loewenfeld,3.3.12,0,n,0,right,right,right,right,NA,613,54962,22867,613,NA,2,legacy,3,1024,2,48000,-16,experiment,3,odd,6,453619,450295,451387,2055,165939,451391,444468,2199,143071,455629,456243,452404,57245,455629,NA,Sternberg task,31,56709,60,yes,1024
52.45901639,52.45901639,938.704918,938.704918,black,experiment,legacy,legacy,legacy,0,uniform,1,undefined,1,left,60,60,60,0,0,60,60,0,0,60,60,60,0,60,0,Sat Oct 22 14:52:39 2022,The main experiment item,yes,Sternbergtask.osexp,/Users/katherinehays/Desktop/PSYC 5316 - R and OpenSesame/Lab 3,no,mono,no,18,no,white,no,no,768,legacy,48,11,/Users/katherinehays/Desktop/PSYC 5316 - R and OpenSesame/Lab 3/KH-subject-3.csv,legacy,8 7 3,Lentiform Loewenfeld,3.3.12,1,y,0,left,right,right,left,NA,552,54962,22867,552,NA,2,legacy,3,1024,2,48000,-16,experiment,3,odd,8,459568,456249,457339,2055,165939,457344,444468,2199,143071,461579,462131,458357,57245,461578,NA,Sternberg task,32,57261,61,yes,1024
53.22580645,53.22580645,929.4032258,929.4032258,black,experiment,legacy,legacy,legacy,0,uniform,1,undefined,1,right,61,61,61,0,0,61,61,0,0,61,61,61,0,61,0,Sat Oct 22 14:52:39 2022,The main experiment item,yes,Sternbergtask.osexp,/Users/katherinehays/Desktop/PSYC 5316 - R and OpenSesame/Lab 3,no,mono,no,18,no,white,no,no,768,legacy,49,11,/Users/katherinehays/Desktop/PSYC 5316 - R and OpenSesame/Lab 3/KH-subject-3.csv,legacy,8 9,Lentiform Loewenfeld,3.3.12,0,n,0,right,right,right,right,NA,362,54962,22867,362,NA,2,legacy,2,1024,2,48000,-16,experiment,3,odd,5,465458,462142,463234,2055,165939,463238,444468,2199,143071,467468,467831,464248,57245,467467,NA,Sternberg task,33,57623,62,yes,1024
53.96825397,53.96825397,922.6825397,922.6825397,black,experiment,legacy,legacy,legacy,0,uniform,1,undefined,1,left,62,62,62,0,0,62,62,0,0,62,62,62,0,62,0,Sat Oct 22 14:52:39 2022,The main experiment item,yes,Sternbergtask.osexp,/Users/katherinehays/Desktop/PSYC 5316 - R and OpenSesame/Lab 3,no,mono,no,18,no,white,no,no,768,legacy,50,11,/Users/katherinehays/Desktop/PSYC 5316 - R and OpenSesame/Lab 3/KH-subject-3.csv,legacy,4 1 5,Lentiform Loewenfeld,3.3.12,2,y,0,left,right,right,left,NA,506,54962,22867,506,NA,2,legacy,3,1024,2,48000,-16,experiment,3,odd,1,471159,467839,468933,2055,165939,468938,444468,2199,143071,473169,473675,469949,57245,473169,NA,Sternberg task,34,58129,63,yes,1024
53.125,53.125,919.0625,919.0625,black,experiment,legacy,legacy,legacy,0,uniform,0,undefined,0,right,63,63,63,0,0,63,63,0,0,63,63,63,0,63,0,Sat Oct 22 14:52:39 2022,The main experiment item,yes,Sternbergtask.osexp,/Users/katherinehays/Desktop/PSYC 5316 - R and OpenSesame/Lab 3,no,mono,no,18,no,white,no,no,768,legacy,51,11,/Users/katherinehays/Desktop/PSYC 5316 - R and OpenSesame/Lab 3/KH-subject-3.csv,legacy,7 9,Lentiform Loewenfeld,3.3.12,0,n,0,left,right,right,left,NA,691,54962,22867,691,NA,2,legacy,2,1024,2,48000,-16,experiment,3,odd,1,476998,473686,474769,2055,165939,474774,444468,2199,143071,479006,479698,475785,57245,479006,NA,Sternberg task,34,58820,64,yes,1024
53.84615385,53.84615385,912.4153846,912.4153846,black,experiment,legacy,legacy,legacy,0,uniform,1,undefined,1,right,64,64,64,0,0,64,64,0,0,64,64,64,0,64,0,Sat Oct 22 14:52:39 2022,The main experiment item,yes,Sternbergtask.osexp,/Users/katherinehays/Desktop/PSYC 5316 - R and OpenSesame/Lab 3,no,mono,no,18,no,white,no,no,768,legacy,52,11,/Users/katherinehays/Desktop/PSYC 5316 - R and OpenSesame/Lab 3/KH-subject-3.csv,legacy,7 1 5 6 3,Lentiform Loewenfeld,3.3.12,0,n,0,right,right,right,right,NA,487,54962,22867,487,NA,2,legacy,5,1024,2,48000,-16,experiment,3,odd,8,483027,473686,480799,2055,165939,480804,479709,2199,143071,485035,485522,481815,57245,485034,NA,Sternberg task,35,59307,65,yes,1024
53.03030303,53.03030303,907.4393939,907.4393939,black,experiment,legacy,legacy,legacy,0,uniform,0,undefined,0,left,65,65,65,0,0,65,65,0,0,65,65,65,0,65,0,Sat Oct 22 14:52:39 2022,The main experiment item,yes,Sternbergtask.osexp,/Users/katherinehays/Desktop/PSYC 5316 - R and OpenSesame/Lab 3,no,mono,no,18,no,white,no,no,768,legacy,53,11,/Users/katherinehays/Desktop/PSYC 5316 - R and OpenSesame/Lab 3/KH-subject-3.csv,legacy,5 7 8 2 3 8,Lentiform Loewenfeld,3.3.12,5,y,0,right,right,right,right,NA,584,54962,22867,584,NA,2,legacy,6,1024,2,48000,-16,experiment,3,odd,3,488849,485531,486622,2055,165939,486627,479709,2199,143071,490858,491443,487638,57245,490858,NA,Sternberg task,35,59891,66,yes,1024
53.73134328,53.73134328,900.8358209,900.8358209,black,experiment,legacy,legacy,legacy,0,uniform,1,undefined,1,left,66,66,66,0,0,66,66,0,0,66,66,66,0,66,0,Sat Oct 22 14:52:39 2022,The main experiment item,yes,Sternbergtask.osexp,/Users/katherinehays/Desktop/PSYC 5316 - R and OpenSesame/Lab 3,no,mono,no,18,no,white,no,no,768,legacy,54,11,/Users/katherinehays/Desktop/PSYC 5316 - R and OpenSesame/Lab 3/KH-subject-3.csv,legacy,7 8 6 3 1,Lentiform Loewenfeld,3.3.12,5,y,0,left,right,right,left,NA,465,54962,22867,465,NA,2,legacy,5,1024,2,48000,-16,experiment,3,odd,1,494769,485531,492536,2055,165939,492541,491449,2199,143071,496781,497246,493552,57245,496781,NA,Sternberg task,36,60356,67,yes,1024
52.94117647,52.94117647,905.3088235,905.3088235,black,experiment,legacy,legacy,legacy,0,uniform,0,undefined,0,right,67,67,67,0,0,67,67,0,0,67,67,67,0,67,0,Sat Oct 22 14:52:39 2022,The main experiment item,yes,Sternbergtask.osexp,/Users/katherinehays/Desktop/PSYC 5316 - R and OpenSesame/Lab 3,no,mono,no,18,no,white,no,no,768,legacy,55,11,/Users/katherinehays/Desktop/PSYC 5316 - R and OpenSesame/Lab 3/KH-subject-3.csv,legacy,9,Lentiform Loewenfeld,3.3.12,0,n,0,left,right,right,left,NA,1205,54962,22867,1205,NA,2,legacy,1,1024,2,48000,-16,experiment,3,odd,6,500577,497253,498345,2055,165939,498350,491449,2199,143071,502593,503799,499365,57245,502593,NA,Sternberg task,36,61561,68,yes,1024
52.17391304,52.17391304,921.173913,921.173913,black,experiment,legacy,legacy,legacy,0,uniform,0,undefined,0,right,68,68,68,0,0,68,68,0,0,68,68,68,0,68,0,Sat Oct 22 14:52:39 2022,The main experiment item,yes,Sternbergtask.osexp,/Users/katherinehays/Desktop/PSYC 5316 - R and OpenSesame/Lab 3,no,mono,no,18,no,white,no,no,768,legacy,56,11,/Users/katherinehays/Desktop/PSYC 5316 - R and OpenSesame/Lab 3/KH-subject-3.csv,legacy,6 9 4 5 2,Lentiform Loewenfeld,3.3.12,0,n,0,None,right,right,None,NA,2000,54962,22867,2000,NA,2,legacy,5,1024,2,48000,-16,experiment,3,odd,1,507112,497253,504885,2055,165939,504889,503803,2199,143071,509119,511119,505900,57245,509119,NA,Sternberg task,36,63561,69,yes,1024
52.85714286,52.85714286,919.0142857,919.0142857,black,experiment,legacy,legacy,legacy,0,uniform,1,undefined,1,right,69,69,69,0,0,69,69,0,0,69,69,69,0,69,0,Sat Oct 22 14:52:39 2022,The main experiment item,yes,Sternbergtask.osexp,/Users/katherinehays/Desktop/PSYC 5316 - R and OpenSesame/Lab 3,no,mono,no,18,no,white,no,no,768,legacy,57,11,/Users/katherinehays/Desktop/PSYC 5316 - R and OpenSesame/Lab 3/KH-subject-3.csv,legacy,6 9 7 3 8 2,Lentiform Loewenfeld,3.3.12,0,n,0,right,right,right,right,NA,770,54962,22867,770,NA,2,legacy,6,1024,2,48000,-16,experiment,3,odd,5,514435,497253,512208,2055,165939,512212,511123,2199,143071,516444,517215,513222,57245,516444,NA,Sternberg task,37,64331,70,yes,1024
52.11267606,52.11267606,913.8732394,913.8732394,black,experiment,legacy,legacy,legacy,0,uniform,0,undefined,0,left,70,70,70,0,0,70,70,0,0,70,70,70,0,70,0,Sat Oct 22 14:52:39 2022,The main experiment item,yes,Sternbergtask.osexp,/Users/katherinehays/Desktop/PSYC 5316 - R and OpenSesame/Lab 3,no,mono,no,18,no,white,no,no,768,legacy,58,11,/Users/katherinehays/Desktop/PSYC 5316 - R and OpenSesame/Lab 3/KH-subject-3.csv,legacy,3 9 6 2,Lentiform Loewenfeld,3.3.12,4,y,0,right,right,right,right,NA,554,54962,22867,554,NA,2,legacy,4,1024,2,48000,-16,experiment,3,odd,2,520547,517224,518317,2055,165939,518321,511123,2199,143071,522560,523114,519331,57245,522560,NA,Sternberg task,37,64885,71,yes,1024
51.38888889,51.38888889,908.0694444,908.0694444,black,experiment,legacy,legacy,legacy,0,uniform,0,undefined,0,right,71,71,71,0,0,71,71,0,0,71,71,71,0,71,0,Sat Oct 22 14:52:39 2022,The main experiment item,yes,Sternbergtask.osexp,/Users/katherinehays/Desktop/PSYC 5316 - R and OpenSesame/Lab 3,no,mono,no,18,no,white,no,no,768,legacy,59,11,/Users/katherinehays/Desktop/PSYC 5316 - R and OpenSesame/Lab 3/KH-subject-3.csv,legacy,2 8 7 9 5 3,Lentiform Loewenfeld,3.3.12,0,n,0,left,right,right,left,NA,496,54962,22867,496,NA,2,legacy,6,1024,2,48000,-16,experiment,3,odd,6,526441,517224,524209,2055,165939,524214,523122,2199,143071,528457,528954,525227,57245,528457,NA,Sternberg task,37,65381,72,yes,1024
52.05479452,52.05479452,903.4520548,903.4520548,black,experiment,legacy,legacy,legacy,0,uniform,1,undefined,1,left,72,72,72,0,0,72,72,0,0,72,72,72,0,72,0,Sat Oct 22 14:52:39 2022,The main experiment item,yes,Sternbergtask.osexp,/Users/katherinehays/Desktop/PSYC 5316 - R and OpenSesame/Lab 3,no,mono,no,18,no,white,no,no,768,legacy,60,11,/Users/katherinehays/Desktop/PSYC 5316 - R and OpenSesame/Lab 3/KH-subject-3.csv,legacy,4 6 5 8,Lentiform Loewenfeld,3.3.12,1,y,0,left,right,right,left,NA,571,54962,22867,571,NA,2,legacy,4,1024,2,48000,-16,experiment,3,odd,4,532290,517224,530051,2055,165939,530059,528961,2199,143071,534304,534875,531072,57245,534304,NA,Sternberg task,38,65952,73,yes,1024
51.35135135,51.35135135,899.5135135,899.5135135,black,experiment,legacy,legacy,legacy,0,uniform,0,undefined,0,left,73,73,73,0,0,73,73,0,0,73,73,73,0,73,0,Sat Oct 22 14:52:39 2022,The main experiment item,yes,Sternbergtask.osexp,/Users/katherinehays/Desktop/PSYC 5316 - R and OpenSesame/Lab 3,no,mono,no,18,no,white,no,no,768,legacy,61,11,/Users/katherinehays/Desktop/PSYC 5316 - R and OpenSesame/Lab 3/KH-subject-3.csv,legacy,9 1 6 7 8,Lentiform Loewenfeld,3.3.12,1,y,0,right,right,right,right,NA,612,54962,22867,612,NA,2,legacy,5,1024,2,48000,-16,experiment,3,odd,9,538206,534880,535973,2055,165939,535980,528961,2199,143071,540218,540830,536993,57245,540218,NA,Sternberg task,38,66564,74,yes,1024
52,52,893.8666667,893.8666667,black,experiment,legacy,legacy,legacy,0,uniform,1,undefined,1,left,74,74,74,0,0,74,74,0,0,74,74,74,0,74,0,Sat Oct 22 14:52:39 2022,The main experiment item,yes,Sternbergtask.osexp,/Users/katherinehays/Desktop/PSYC 5316 - R and OpenSesame/Lab 3,no,mono,no,18,no,white,no,no,768,legacy,62,11,/Users/katherinehays/Desktop/PSYC 5316 - R and OpenSesame/Lab 3/KH-subject-3.csv,legacy,9 6 2 4 1,Lentiform Loewenfeld,3.3.12,4,y,0,left,right,right,left,NA,476,54962,22867,476,NA,2,legacy,5,1024,2,48000,-16,experiment,3,odd,4,544166,534880,541933,2055,165939,541939,540838,2199,143071,546178,546655,542951,57245,546178,NA,Sternberg task,39,67040,75,yes,1024
52.63157895,52.63157895,890.1052632,890.1052632,black,experiment,legacy,legacy,legacy,0,uniform,1,undefined,1,left,75,75,75,0,0,75,75,0,0,75,75,75,0,75,0,Sat Oct 22 14:52:39 2022,The main experiment item,yes,Sternbergtask.osexp,/Users/katherinehays/Desktop/PSYC 5316 - R and OpenSesame/Lab 3,no,mono,no,18,no,white,no,no,768,legacy,63,11,/Users/katherinehays/Desktop/PSYC 5316 - R and OpenSesame/Lab 3/KH-subject-3.csv,legacy,6 9 7 4 5 1,Lentiform Loewenfeld,3.3.12,2,y,0,left,right,right,left,NA,608,54962,22867,608,NA,2,legacy,6,1024,2,48000,-16,experiment,3,odd,9,549988,546661,547755,2055,165939,547761,540838,2199,143071,551998,552607,548773,57245,551998,NA,Sternberg task,40,67648,76,yes,1024
53.24675325,53.24675325,886.8701299,886.8701299,black,experiment,legacy,legacy,legacy,0,uniform,1,undefined,1,right,76,76,76,0,0,76,76,0,0,76,76,76,0,76,0,Sat Oct 22 14:52:39 2022,The main experiment item,yes,Sternbergtask.osexp,/Users/katherinehays/Desktop/PSYC 5316 - R and OpenSesame/Lab 3,no,mono,no,18,no,white,no,no,768,legacy,64,11,/Users/katherinehays/Desktop/PSYC 5316 - R and OpenSesame/Lab 3/KH-subject-3.csv,legacy,6 8 4,Lentiform Loewenfeld,3.3.12,0,n,0,right,right,right,right,NA,641,54962,22867,641,NA,2,legacy,3,1024,2,48000,-16,experiment,3,odd,1,555940,552615,553708,2055,165939,553714,540838,2199,143071,557950,558592,554725,57245,557950,NA,Sternberg task,41,68289,77,yes,1024
53.84615385,53.84615385,888.8846154,888.8846154,black,experiment,legacy,legacy,legacy,0,uniform,1,undefined,1,left,77,77,77,0,0,77,77,0,0,77,77,77,0,77,0,Sat Oct 22 14:52:39 2022,The main experiment item,yes,Sternbergtask.osexp,/Users/katherinehays/Desktop/PSYC 5316 - R and OpenSesame/Lab 3,no,mono,no,18,no,white,no,no,768,legacy,65,11,/Users/katherinehays/Desktop/PSYC 5316 - R and OpenSesame/Lab 3/KH-subject-3.csv,legacy,7 6,Lentiform Loewenfeld,3.3.12,2,y,0,left,right,right,left,NA,1044,54962,22867,1044,NA,2,legacy,2,1024,2,48000,-16,experiment,3,odd,6,561921,558597,559689,2055,165939,559694,540838,2199,143071,563932,564977,560705,57245,563931,NA,Sternberg task,42,69333,78,yes,1024
54.43037975,54.43037975,884.8987342,884.8987342,black,experiment,legacy,legacy,legacy,0,uniform,1,undefined,1,right,78,78,78,0,0,78,78,0,0,78,78,78,0,78,0,Sat Oct 22 14:52:39 2022,The main experiment item,yes,Sternbergtask.osexp,/Users/katherinehays/Desktop/PSYC 5316 - R and OpenSesame/Lab 3,no,mono,no,18,no,white,no,no,768,legacy,66,11,/Users/katherinehays/Desktop/PSYC 5316 - R and OpenSesame/Lab 3/KH-subject-3.csv,legacy,1 4 9 3,Lentiform Loewenfeld,3.3.12,0,n,0,right,right,right,right,NA,574,54962,22867,574,NA,2,legacy,4,1024,2,48000,-16,experiment,3,odd,5,568267,564980,566047,2055,165939,566052,540838,2199,143071,570274,570849,567057,57245,570274,NA,Sternberg task,43,69907,79,yes,1024
55,55,882.6,882.6,black,experiment,legacy,legacy,legacy,0,uniform,1,undefined,1,left,79,79,79,0,0,79,79,0,0,79,79,79,0,79,0,Sat Oct 22 14:52:39 2022,The main experiment item,yes,Sternbergtask.osexp,/Users/katherinehays/Desktop/PSYC 5316 - R and OpenSesame/Lab 3,no,mono,no,18,no,white,no,no,768,legacy,67,11,/Users/katherinehays/Desktop/PSYC 5316 - R and OpenSesame/Lab 3/KH-subject-3.csv,legacy,8 9 6 1,Lentiform Loewenfeld,3.3.12,2,y,0,left,right,right,left,NA,701,54962,22867,701,NA,2,legacy,4,1024,2,48000,-16,experiment,3,odd,9,574143,570854,571920,2055,165939,571925,540838,2199,143071,576154,576856,572937,57245,576154,NA,Sternberg task,44,70608,80,yes,1024
55.55555556,55.55555556,878.7654321,878.7654321,black,experiment,legacy,legacy,legacy,0,uniform,1,undefined,1,left,80,80,80,0,0,80,80,0,0,80,80,80,0,80,0,Sat Oct 22 14:52:39 2022,The main experiment item,yes,Sternbergtask.osexp,/Users/katherinehays/Desktop/PSYC 5316 - R and OpenSesame/Lab 3,no,mono,no,18,no,white,no,no,768,legacy,68,11,/Users/katherinehays/Desktop/PSYC 5316 - R and OpenSesame/Lab 3/KH-subject-3.csv,legacy,3 5 9 6 2 4,Lentiform Loewenfeld,3.3.12,1,y,0,left,right,right,left,NA,572,54962,22867,572,NA,2,legacy,6,1024,2,48000,-16,experiment,3,odd,3,580189,576861,577953,2055,165939,577959,540838,2199,143071,582200,582773,578972,57245,582199,NA,Sternberg task,45,71180,81,yes,1024
54.87804878,54.87804878,876.0487805,876.0487805,black,experiment,legacy,legacy,legacy,0,uniform,0,undefined,0,right,81,81,81,0,0,81,81,0,0,81,81,81,0,81,0,Sat Oct 22 14:52:39 2022,The main experiment item,yes,Sternbergtask.osexp,/Users/katherinehays/Desktop/PSYC 5316 - R and OpenSesame/Lab 3,no,mono,no,18,no,white,no,no,768,legacy,69,11,/Users/katherinehays/Desktop/PSYC 5316 - R and OpenSesame/Lab 3/KH-subject-3.csv,legacy,8 4 3 9,Lentiform Loewenfeld,3.3.12,0,n,0,left,right,right,left,NA,656,54962,22867,656,NA,2,legacy,4,1024,2,48000,-16,experiment,3,odd,5,586106,582779,583873,2055,165939,583880,540838,2199,143071,588116,588773,584894,57245,588116,NA,Sternberg task,45,71836,82,yes,1024
55.42168675,55.42168675,871,871,black,experiment,legacy,legacy,legacy,0,uniform,1,undefined,1,right,82,82,82,0,0,82,82,0,0,82,82,82,0,82,0,Sat Oct 22 14:52:39 2022,The main experiment item,yes,Sternbergtask.osexp,/Users/katherinehays/Desktop/PSYC 5316 - R and OpenSesame/Lab 3,no,mono,no,18,no,white,no,no,768,legacy,70,11,/Users/katherinehays/Desktop/PSYC 5316 - R and OpenSesame/Lab 3/KH-subject-3.csv,legacy,6 8,Lentiform Loewenfeld,3.3.12,0,n,0,right,right,right,right,NA,457,54962,22867,457,NA,2,legacy,2,1024,2,48000,-16,experiment,3,odd,9,592097,582779,589866,2055,165939,589872,588780,2199,143071,594111,594569,590883,57245,594111,NA,Sternberg task,46,72293,83,yes,1024
55.95238095,55.95238095,867.7380952,867.7380952,black,experiment,legacy,legacy,legacy,0,uniform,1,undefined,1,right,83,83,83,0,0,83,83,0,0,83,83,83,0,83,0,Sat Oct 22 14:52:39 2022,The main experiment item,yes,Sternbergtask.osexp,/Users/katherinehays/Desktop/PSYC 5316 - R and OpenSesame/Lab 3,no,mono,no,18,no,white,no,no,768,legacy,71,11,/Users/katherinehays/Desktop/PSYC 5316 - R and OpenSesame/Lab 3/KH-subject-3.csv,legacy,9 5 3 2 8 6,Lentiform Loewenfeld,3.3.12,0,n,0,right,right,right,right,NA,597,54962,22867,597,NA,2,legacy,6,1024,2,48000,-16,experiment,3,odd,7,597917,594579,595681,2055,165939,595690,588780,2199,143071,599927,600525,596702,57245,599927,NA,Sternberg task,47,72890,84,yes,1024
56.47058824,56.47058824,863.0941176,863.0941176,black,experiment,legacy,legacy,legacy,0,uniform,1,undefined,1,right,84,84,84,0,0,84,84,0,0,84,84,84,0,84,0,Sat Oct 22 14:52:39 2022,The main experiment item,yes,Sternbergtask.osexp,/Users/katherinehays/Desktop/PSYC 5316 - R and OpenSesame/Lab 3,no,mono,no,18,no,white,no,no,768,legacy,72,11,/Users/katherinehays/Desktop/PSYC 5316 - R and OpenSesame/Lab 3/KH-subject-3.csv,legacy,2 7 5,Lentiform Loewenfeld,3.3.12,0,n,0,right,right,right,right,NA,473,54962,22867,473,NA,2,legacy,3,1024,2,48000,-16,experiment,3,odd,8,603856,600530,601623,2055,165939,601629,588780,2199,143071,605868,606341,602640,57245,605868,NA,Sternberg task,48,73363,85,yes,1024
55.81395349,55.81395349,858.0813953,858.0813953,black,experiment,legacy,legacy,legacy,0,uniform,0,undefined,0,left,85,85,85,0,0,85,85,0,0,85,85,85,0,85,0,Sat Oct 22 14:52:39 2022,The main experiment item,yes,Sternbergtask.osexp,/Users/katherinehays/Desktop/PSYC 5316 - R and OpenSesame/Lab 3,no,mono,no,18,no,white,no,no,768,legacy,73,11,/Users/katherinehays/Desktop/PSYC 5316 - R and OpenSesame/Lab 3/KH-subject-3.csv,legacy,5 7 3 6 2,Lentiform Loewenfeld,3.3.12,5,y,0,right,right,right,right,NA,432,54962,22867,432,NA,2,legacy,5,1024,2,48000,-16,experiment,3,odd,2,609676,606349,607443,2055,165939,607449,588780,2199,143071,611685,612118,608461,57245,611684,NA,Sternberg task,48,73795,86,yes,1024
56.32183908,56.32183908,852.2068966,852.2068966,black,experiment,legacy,legacy,legacy,0,uniform,1,undefined,1,left,86,86,86,0,0,86,86,0,0,86,86,86,0,86,0,Sat Oct 22 14:52:39 2022,The main experiment item,yes,Sternbergtask.osexp,/Users/katherinehays/Desktop/PSYC 5316 - R and OpenSesame/Lab 3,no,mono,no,18,no,white,no,no,768,legacy,74,11,/Users/katherinehays/Desktop/PSYC 5316 - R and OpenSesame/Lab 3/KH-subject-3.csv,legacy,4,Lentiform Loewenfeld,3.3.12,1,y,0,left,right,right,left,NA,347,54962,22867,347,NA,2,legacy,1,1024,2,48000,-16,experiment,3,odd,4,615448,606349,613216,2055,165939,613221,612124,2199,143071,617459,617806,614235,57245,617458,NA,Sternberg task,49,74142,87,yes,1024
56.81818182,56.81818182,850.1136364,850.1136364,black,experiment,legacy,legacy,legacy,0,uniform,1,undefined,1,left,87,87,87,0,0,87,87,0,0,87,87,87,0,87,0,Sat Oct 22 14:52:39 2022,The main experiment item,yes,Sternbergtask.osexp,/Users/katherinehays/Desktop/PSYC 5316 - R and OpenSesame/Lab 3,no,mono,no,18,no,white,no,no,768,legacy,75,11,/Users/katherinehays/Desktop/PSYC 5316 - R and OpenSesame/Lab 3/KH-subject-3.csv,legacy,7 2 3,Lentiform Loewenfeld,3.3.12,3,y,0,left,right,right,left,NA,668,54962,22867,668,NA,2,legacy,3,1024,2,48000,-16,experiment,3,odd,3,621139,617814,618909,2055,165939,618914,612124,2199,143071,623150,623818,619925,57245,623150,NA,Sternberg task,50,74810,88,yes,1024
57.30337079,57.30337079,847,847,black,experiment,legacy,legacy,legacy,0,uniform,1,undefined,1,left,88,88,88,0,0,88,88,0,0,88,88,88,0,88,0,Sat Oct 22 14:52:39 2022,The main experiment item,yes,Sternbergtask.osexp,/Users/katherinehays/Desktop/PSYC 5316 - R and OpenSesame/Lab 3,no,mono,no,18,no,white,no,no,768,legacy,76,11,/Users/katherinehays/Desktop/PSYC 5316 - R and OpenSesame/Lab 3/KH-subject-3.csv,legacy,6 9 3 1,Lentiform Loewenfeld,3.3.12,4,y,0,left,right,right,left,NA,573,54962,22867,573,NA,2,legacy,4,1024,2,48000,-16,experiment,3,odd,1,627144,623829,624914,2055,165939,624919,612124,2199,143071,629155,629729,625930,57245,629154,NA,Sternberg task,51,75383,89,yes,1024
56.66666667,56.66666667,845.9111111,845.9111111,black,experiment,legacy,legacy,legacy,0,uniform,0,undefined,0,right,89,89,89,0,0,89,89,0,0,89,89,89,0,89,0,Sat Oct 22 14:52:39 2022,The main experiment item,yes,Sternbergtask.osexp,/Users/katherinehays/Desktop/PSYC 5316 - R and OpenSesame/Lab 3,no,mono,no,18,no,white,no,no,768,legacy,77,11,/Users/katherinehays/Desktop/PSYC 5316 - R and OpenSesame/Lab 3/KH-subject-3.csv,legacy,8 5 4 2 9 6,Lentiform Loewenfeld,3.3.12,0,n,0,left,right,right,left,NA,749,54962,22867,749,NA,2,legacy,6,1024,2,48000,-16,experiment,3,odd,3,633055,629740,630833,2055,165939,630837,612124,2199,143071,635064,635814,631847,57245,635064,NA,Sternberg task,51,76132,90,yes,1024
57.14285714,57.14285714,842.7802198,842.7802198,black,experiment,legacy,legacy,legacy,0,uniform,1,undefined,1,right,90,90,90,0,0,90,90,0,0,90,90,90,0,90,0,Sat Oct 22 14:52:39 2022,The main experiment item,yes,Sternbergtask.osexp,/Users/katherinehays/Desktop/PSYC 5316 - R and OpenSesame/Lab 3,no,mono,no,18,no,white,no,no,768,legacy,78,11,/Users/katherinehays/Desktop/PSYC 5316 - R and OpenSesame/Lab 3/KH-subject-3.csv,legacy,7 3 2 8,Lentiform Loewenfeld,3.3.12,0,n,0,right,right,right,right,NA,561,54962,22867,561,NA,2,legacy,4,1024,2,48000,-16,experiment,3,odd,4,639137,629740,636910,2055,165939,636915,635823,2199,143071,641146,641707,637926,57245,641146,NA,Sternberg task,52,76693,91,yes,1024
57.60869565,57.60869565,838.9782609,838.9782609,black,experiment,legacy,legacy,legacy,0,uniform,1,undefined,1,right,91,91,91,0,0,91,91,0,0,91,91,91,0,91,0,Sat Oct 22 14:52:39 2022,The main experiment item,yes,Sternbergtask.osexp,/Users/katherinehays/Desktop/PSYC 5316 - R and OpenSesame/Lab 3,no,mono,no,18,no,white,no,no,768,legacy,79,11,/Users/katherinehays/Desktop/PSYC 5316 - R and OpenSesame/Lab 3/KH-subject-3.csv,legacy,7 1,Lentiform Loewenfeld,3.3.12,0,n,0,right,right,right,right,NA,493,54962,22867,493,NA,2,legacy,2,1024,2,48000,-16,experiment,3,odd,8,645023,641711,642797,2055,165939,642802,635823,2199,143071,647030,647527,643811,57245,647030,NA,Sternberg task,53,77186,92,yes,1024
58.06451613,58.06451613,834.3763441,834.3763441,black,experiment,legacy,legacy,legacy,0,uniform,1,undefined,1,right,92,92,92,0,0,92,92,0,0,92,92,92,0,92,0,Sat Oct 22 14:52:39 2022,The main experiment item,yes,Sternbergtask.osexp,/Users/katherinehays/Desktop/PSYC 5316 - R and OpenSesame/Lab 3,no,mono,no,18,no,white,no,no,768,legacy,80,11,/Users/katherinehays/Desktop/PSYC 5316 - R and OpenSesame/Lab 3/KH-subject-3.csv,legacy,1 7 5 2 9,Lentiform Loewenfeld,3.3.12,0,n,0,right,right,right,right,NA,411,54962,22867,411,NA,2,legacy,5,1024,2,48000,-16,experiment,3,odd,3,650853,647536,648626,2055,165939,648631,635823,2199,143071,652864,653275,649642,57245,652864,NA,Sternberg task,54,77597,93,yes,1024
57.44680851,57.44680851,830.4255319,830.4255319,black,experiment,legacy,legacy,legacy,0,uniform,0,undefined,0,right,93,93,93,0,0,93,93,0,0,93,93,93,0,93,0,Sat Oct 22 14:52:39 2022,The main experiment item,yes,Sternbergtask.osexp,/Users/katherinehays/Desktop/PSYC 5316 - R and OpenSesame/Lab 3,no,mono,no,18,no,white,no,no,768,legacy,81,11,/Users/katherinehays/Desktop/PSYC 5316 - R and OpenSesame/Lab 3/KH-subject-3.csv,legacy,5 3 2 6 9 8,Lentiform Loewenfeld,3.3.12,0,n,0,left,right,right,left,NA,463,54962,22867,463,NA,2,legacy,6,1024,2,48000,-16,experiment,3,odd,4,656602,653281,654375,2055,165939,654380,635823,2199,143071,658612,659075,655392,57245,658611,NA,Sternberg task,54,78060,94,yes,1024
57.89473684,57.89473684,828.0947368,828.0947368,black,experiment,legacy,legacy,legacy,0,uniform,1,undefined,1,left,94,94,94,0,0,94,94,0,0,94,94,94,0,94,0,Sat Oct 22 14:52:39 2022,The main experiment item,yes,Sternbergtask.osexp,/Users/katherinehays/Desktop/PSYC 5316 - R and OpenSesame/Lab 3,no,mono,no,18,no,white,no,no,768,legacy,82,11,/Users/katherinehays/Desktop/PSYC 5316 - R and OpenSesame/Lab 3/KH-subject-3.csv,legacy,5 2 9 6 1 7,Lentiform Loewenfeld,3.3.12,3,y,0,left,right,right,left,NA,609,54962,22867,609,NA,2,legacy,6,1024,2,48000,-16,experiment,3,odd,9,662397,653281,660167,2055,165939,660173,659081,2199,143071,664406,665016,661185,57245,664406,NA,Sternberg task,55,78669,95,yes,1024
58.33333333,58.33333333,825.7291667,825.7291667,black,experiment,legacy,legacy,legacy,0,uniform,1,undefined,1,left,95,95,95,0,0,95,95,0,0,95,95,95,0,95,0,Sat Oct 22 14:52:39 2022,The main experiment item,yes,Sternbergtask.osexp,/Users/katherinehays/Desktop/PSYC 5316 - R and OpenSesame/Lab 3,no,mono,no,18,no,white,no,no,768,legacy,83,11,/Users/katherinehays/Desktop/PSYC 5316 - R and OpenSesame/Lab 3/KH-subject-3.csv,legacy,5 2 6,Lentiform Loewenfeld,3.3.12,2,y,0,left,right,right,left,NA,601,54962,22867,601,NA,2,legacy,3,1024,2,48000,-16,experiment,3,odd,2,668341,665022,666114,2055,165939,666119,659081,2199,143071,670350,670952,667131,57245,670350,NA,Sternberg task,56,79270,96,yes,1024
58.7628866,58.7628866,822.9381443,822.9381443,black,experiment,legacy,legacy,legacy,0,uniform,1,undefined,1,left,96,96,96,0,0,96,96,0,0,96,96,96,0,96,0,Sat Oct 22 14:52:39 2022,The main experiment item,yes,Sternbergtask.osexp,/Users/katherinehays/Desktop/PSYC 5316 - R and OpenSesame/Lab 3,no,mono,no,18,no,white,no,no,768,legacy,84,11,/Users/katherinehays/Desktop/PSYC 5316 - R and OpenSesame/Lab 3/KH-subject-3.csv,legacy,3 2 1 4 7,Lentiform Loewenfeld,3.3.12,2,y,0,left,right,right,left,NA,555,54962,22867,555,NA,2,legacy,5,1024,2,48000,-16,experiment,3,odd,2,674284,670958,672051,2055,165939,672056,659081,2199,143071,676293,676849,673067,57245,676293,NA,Sternberg task,57,79825,97,yes,1024
59.18367347,59.18367347,820.4591837,820.4591837,black,experiment,legacy,legacy,legacy,0,uniform,1,undefined,1,left,97,97,97,0,0,97,97,0,0,97,97,97,0,97,0,Sat Oct 22 14:52:39 2022,The main experiment item,yes,Sternbergtask.osexp,/Users/katherinehays/Desktop/PSYC 5316 - R and OpenSesame/Lab 3,no,mono,no,18,no,white,no,no,768,legacy,85,11,/Users/katherinehays/Desktop/PSYC 5316 - R and OpenSesame/Lab 3/KH-subject-3.csv,legacy,9 5 3 8 4,Lentiform Loewenfeld,3.3.12,1,y,0,left,right,right,left,NA,580,54962,22867,580,NA,2,legacy,5,1024,2,48000,-16,experiment,3,odd,9,680171,676854,677945,2055,165939,677950,659081,2199,143071,682181,682762,678960,57245,682181,NA,Sternberg task,58,80405,98,yes,1024
58.58585859,58.58585859,816.6969697,816.6969697,black,experiment,legacy,legacy,legacy,0,uniform,0,undefined,0,right,98,98,98,0,0,98,98,0,0,98,98,98,0,98,0,Sat Oct 22 14:52:39 2022,The main experiment item,yes,Sternbergtask.osexp,/Users/katherinehays/Desktop/PSYC 5316 - R and OpenSesame/Lab 3,no,mono,no,18,no,white,no,no,768,legacy,86,11,/Users/katherinehays/Desktop/PSYC 5316 - R and OpenSesame/Lab 3/KH-subject-3.csv,legacy,5 3 8 7 2 4,Lentiform Loewenfeld,3.3.12,0,n,0,left,right,right,left,NA,448,54962,22867,448,NA,2,legacy,6,1024,2,48000,-16,experiment,3,odd,9,686091,682767,683863,2055,165939,683868,659081,2199,143071,688100,688549,684879,57245,688100,NA,Sternberg task,58,80853,99,yes,1024
58,58,813.95,813.95,black,experiment,legacy,legacy,legacy,0,uniform,0,undefined,0,left,99,99,99,0,0,99,99,0,0,99,99,99,0,99,0,Sat Oct 22 14:52:39 2022,The main experiment item,yes,Sternbergtask.osexp,/Users/katherinehays/Desktop/PSYC 5316 - R and OpenSesame/Lab 3,no,mono,no,18,no,white,no,no,768,legacy,87,11,/Users/katherinehays/Desktop/PSYC 5316 - R and OpenSesame/Lab 3/KH-subject-3.csv,legacy,9 5 8 1,Lentiform Loewenfeld,3.3.12,2,y,0,right,right,right,right,NA,542,54962,22867,542,NA,2,legacy,4,1024,2,48000,-16,experiment,3,odd,5,691879,682767,689650,2055,165939,689655,688559,2199,143071,693888,694430,690666,57245,693888,NA,Sternberg task,58,81395,100,yes,1024
58.41584158,58.41584158,812.7227723,812.7227723,black,experiment,legacy,legacy,legacy,0,uniform,1,undefined,1,left,100,100,100,0,0,100,100,0,0,100,100,100,0,100,0,Sat Oct 22 14:52:39 2022,The main experiment item,yes,Sternbergtask.osexp,/Users/katherinehays/Desktop/PSYC 5316 - R and OpenSesame/Lab 3,no,mono,no,18,no,white,no,no,768,legacy,88,11,/Users/katherinehays/Desktop/PSYC 5316 - R and OpenSesame/Lab 3/KH-subject-3.csv,legacy,2 4 6 9,Lentiform Loewenfeld,3.3.12,3,y,0,left,right,right,left,NA,690,54962,22867,690,NA,2,legacy,4,1024,2,48000,-16,experiment,3,odd,6,697746,682767,695525,2055,165939,695530,694436,2199,143071,699757,700448,696540,57245,699757,NA,Sternberg task,59,82085,101,yes,1024
58.82352941,58.82352941,809.7647059,809.7647059,black,experiment,legacy,legacy,legacy,0,uniform,1,undefined,1,left,101,101,101,0,0,101,101,0,0,101,101,101,0,101,0,Sat Oct 22 14:52:39 2022,The main experiment item,yes,Sternbergtask.osexp,/Users/katherinehays/Desktop/PSYC 5316 - R and OpenSesame/Lab 3,no,mono,no,18,no,white,no,no,768,legacy,89,11,/Users/katherinehays/Desktop/PSYC 5316 - R and OpenSesame/Lab 3/KH-subject-3.csv,legacy,9 8 4,Lentiform Loewenfeld,3.3.12,1,y,0,left,right,right,left,NA,511,54962,22867,511,NA,2,legacy,3,1024,2,48000,-16,experiment,3,odd,9,703781,700455,701550,2055,165939,701555,694436,2199,143071,705791,706303,702565,57245,705791,NA,Sternberg task,60,82596,102,yes,1024
59.22330097,59.22330097,809.0679612,809.0679612,black,experiment,legacy,legacy,legacy,0,uniform,1,undefined,1,right,102,102,102,0,0,102,102,0,0,102,102,102,0,102,0,Sat Oct 22 14:52:39 2022,The main experiment item,yes,Sternbergtask.osexp,/Users/katherinehays/Desktop/PSYC 5316 - R and OpenSesame/Lab 3,no,mono,no,18,no,white,no,no,768,legacy,90,11,/Users/katherinehays/Desktop/PSYC 5316 - R and OpenSesame/Lab 3/KH-subject-3.csv,legacy,9 7 4 5 8,Lentiform Loewenfeld,3.3.12,0,n,0,right,right,right,right,NA,738,54962,22867,738,NA,2,legacy,5,1024,2,48000,-16,experiment,3,odd,6,709636,706309,707406,2055,165939,707412,694436,2199,143071,711646,712385,708423,57245,711646,NA,Sternberg task,61,83334,103,yes,1024
59.61538462,59.61538462,807.0096154,807.0096154,black,experiment,legacy,legacy,legacy,0,uniform,1,undefined,1,left,103,103,103,0,0,103,103,0,0,103,103,103,0,103,0,Sat Oct 22 14:52:39 2022,The main experiment item,yes,Sternbergtask.osexp,/Users/katherinehays/Desktop/PSYC 5316 - R and OpenSesame/Lab 3,no,mono,no,18,no,white,no,no,768,legacy,91,11,/Users/katherinehays/Desktop/PSYC 5316 - R and OpenSesame/Lab 3/KH-subject-3.csv,legacy,3 5 7 1,Lentiform Loewenfeld,3.3.12,3,y,0,left,right,right,left,NA,595,54962,22867,595,NA,2,legacy,4,1024,2,48000,-16,experiment,3,odd,7,715721,712396,713490,2055,165939,713495,694436,2199,143071,717730,718325,714507,57245,717730,NA,Sternberg task,62,83929,104,yes,1024
60,60,805.7809524,805.7809524,black,experiment,legacy,legacy,legacy,0,uniform,1,undefined,1,right,104,104,104,0,0,104,104,0,0,104,104,104,0,104,0,Sat Oct 22 14:52:39 2022,The main experiment item,yes,Sternbergtask.osexp,/Users/katherinehays/Desktop/PSYC 5316 - R and OpenSesame/Lab 3,no,mono,no,18,no,white,no,no,768,legacy,92,11,/Users/katherinehays/Desktop/PSYC 5316 - R and OpenSesame/Lab 3/KH-subject-3.csv,legacy,6 9 5,Lentiform Loewenfeld,3.3.12,0,n,0,right,right,right,right,NA,678,54962,22867,678,NA,2,legacy,3,1024,2,48000,-16,experiment,3,odd,8,721656,718331,719425,2055,165939,719430,694436,2199,143071,723667,724345,720442,57245,723667,NA,Sternberg task,63,84607,105,yes,1024
59.43396226,59.43396226,805.5188679,805.5188679,black,experiment,legacy,legacy,legacy,0,uniform,0,undefined,0,right,105,105,105,0,0,105,105,0,0,105,105,105,0,105,0,Sat Oct 22 14:52:39 2022,The main experiment item,yes,Sternbergtask.osexp,/Users/katherinehays/Desktop/PSYC 5316 - R and OpenSesame/Lab 3,no,mono,no,18,no,white,no,no,768,legacy,93,11,/Users/katherinehays/Desktop/PSYC 5316 - R and OpenSesame/Lab 3/KH-subject-3.csv,legacy,1 5 3 2 8,Lentiform Loewenfeld,3.3.12,0,n,0,left,right,right,left,NA,778,54962,22867,778,NA,2,legacy,5,1024,2,48000,-16,experiment,3,odd,4,727678,724352,725448,2055,165939,725453,694436,2199,143071,729688,730467,726464,57245,729687,NA,Sternberg task,63,85385,106,yes,1024
59.81308411,59.81308411,803.9626168,803.9626168,black,experiment,legacy,legacy,legacy,0,uniform,1,undefined,1,right,106,106,106,0,0,106,106,0,0,106,106,106,0,106,0,Sat Oct 22 14:52:39 2022,The main experiment item,yes,Sternbergtask.osexp,/Users/katherinehays/Desktop/PSYC 5316 - R and OpenSesame/Lab 3,no,mono,no,18,no,white,no,no,768,legacy,94,11,/Users/katherinehays/Desktop/PSYC 5316 - R and OpenSesame/Lab 3/KH-subject-3.csv,legacy,7 6 4 8 1 2,Lentiform Loewenfeld,3.3.12,0,n,0,right,right,right,right,NA,639,54962,22867,639,NA,2,legacy,6,1024,2,48000,-16,experiment,3,odd,9,733766,724352,731543,2055,165939,731547,730477,2199,143071,735775,736415,732559,57245,735775,NA,Sternberg task,64,86024,107,yes,1024
60.18518519,60.18518519,800.9444444,800.9444444,black,experiment,legacy,legacy,legacy,0,uniform,1,undefined,1,right,107,107,107,0,0,107,107,0,0,107,107,107,0,107,0,Sat Oct 22 14:52:39 2022,The main experiment item,yes,Sternbergtask.osexp,/Users/katherinehays/Desktop/PSYC 5316 - R and OpenSesame/Lab 3,no,mono,no,18,no,white,no,no,768,legacy,95,11,/Users/katherinehays/Desktop/PSYC 5316 - R and OpenSesame/Lab 3/KH-subject-3.csv,legacy,2 3 8 5 6 7,Lentiform Loewenfeld,3.3.12,0,n,0,right,right,right,right,NA,478,54962,22867,478,NA,2,legacy,6,1024,2,48000,-16,experiment,3,odd,1,739736,736422,737506,2055,165939,737512,730477,2199,143071,741749,742228,738522,57245,741748,NA,Sternberg task,65,86502,108,yes,1024
60.55045872,60.55045872,800.3302752,800.3302752,black,experiment,legacy,legacy,legacy,0,uniform,1,undefined,1,right,108,108,108,0,0,108,108,0,0,108,108,108,0,108,0,Sat Oct 22 14:52:39 2022,The main experiment item,yes,Sternbergtask.osexp,/Users/katherinehays/Desktop/PSYC 5316 - R and OpenSesame/Lab 3,no,mono,no,18,no,white,no,no,768,legacy,96,11,/Users/katherinehays/Desktop/PSYC 5316 - R and OpenSesame/Lab 3/KH-subject-3.csv,legacy,3 9 1,Lentiform Loewenfeld,3.3.12,0,n,0,right,right,right,right,NA,734,54962,22867,734,NA,2,legacy,3,1024,2,48000,-16,experiment,3,odd,7,745569,742235,743333,2055,165939,743338,730477,2199,143071,747580,748315,744352,57245,747580,NA,Sternberg task,66,87236,109,yes,1024
60.90909091,60.90909091,800.7727273,800.7727273,black,experiment,legacy,legacy,legacy,0,uniform,1,undefined,1,left,109,109,109,0,0,109,109,0,0,109,109,109,0,109,0,Sat Oct 22 14:52:39 2022,The main experiment item,yes,Sternbergtask.osexp,/Users/katherinehays/Desktop/PSYC 5316 - R and OpenSesame/Lab 3,no,mono,no,18,no,white,no,no,768,legacy,97,11,/Users/katherinehays/Desktop/PSYC 5316 - R and OpenSesame/Lab 3/KH-subject-3.csv,legacy,4 3 2 5 8,Lentiform Loewenfeld,3.3.12,2,y,0,left,right,right,left,NA,849,54962,22867,849,NA,2,legacy,5,1024,2,48000,-16,experiment,3,odd,3,751658,748322,749426,2055,165939,749433,730477,2199,143071,753669,754518,750444,57245,753668,NA,Sternberg task,67,88085,110,yes,1024
61.26126126,61.26126126,799.1531532,799.1531532,black,experiment,legacy,legacy,legacy,0,uniform,1,undefined,1,right,110,110,110,0,0,110,110,0,0,110,110,110,0,110,0,Sat Oct 22 14:52:39 2022,The main experiment item,yes,Sternbergtask.osexp,/Users/katherinehays/Desktop/PSYC 5316 - R and OpenSesame/Lab 3,no,mono,no,18,no,white,no,no,768,legacy,98,11,/Users/katherinehays/Desktop/PSYC 5316 - R and OpenSesame/Lab 3/KH-subject-3.csv,legacy,2 8 6 3 1,Lentiform Loewenfeld,3.3.12,0,n,0,right,right,right,right,NA,621,54962,22867,621,NA,2,legacy,5,1024,2,48000,-16,experiment,3,odd,7,757839,754524,755612,2055,165939,755617,730477,2199,143071,759849,760470,756627,57245,759848,NA,Sternberg task,68,88706,111,yes,1024
61.60714286,61.60714286,797.8125,797.8125,black,experiment,legacy,legacy,legacy,0,uniform,1,undefined,1,left,111,111,111,0,0,111,111,0,0,111,111,111,0,111,0,Sat Oct 22 14:52:39 2022,The main experiment item,yes,Sternbergtask.osexp,/Users/katherinehays/Desktop/PSYC 5316 - R and OpenSesame/Lab 3,no,mono,no,18,no,white,no,no,768,legacy,99,11,/Users/katherinehays/Desktop/PSYC 5316 - R and OpenSesame/Lab 3/KH-subject-3.csv,legacy,8 3,Lentiform Loewenfeld,3.3.12,2,y,0,left,right,right,left,NA,649,54962,22867,649,NA,2,legacy,2,1024,2,48000,-16,experiment,3,odd,3,763805,760476,761566,2055,165939,761571,730477,2199,143071,765818,766468,762586,57245,765818,NA,Sternberg task,69,89355,112,yes,1024
61.0619469,61.0619469,795.0884956,795.0884956,black,experiment,legacy,legacy,legacy,0,uniform,0,undefined,0,right,112,112,112,0,0,112,112,0,0,112,112,112,0,112,0,Sat Oct 22 14:52:39 2022,The main experiment item,yes,Sternbergtask.osexp,/Users/katherinehays/Desktop/PSYC 5316 - R and OpenSesame/Lab 3,no,mono,no,18,no,white,no,no,768,legacy,100,11,/Users/katherinehays/Desktop/PSYC 5316 - R and OpenSesame/Lab 3/KH-subject-3.csv,legacy,1 4 9 2 5,Lentiform Loewenfeld,3.3.12,0,n,0,left,right,right,left,NA,490,54962,22867,490,NA,2,legacy,5,1024,2,48000,-16,experiment,3,odd,7,769809,766476,767570,2055,165939,767578,730477,2199,143071,771821,772312,768594,57245,771821,NA,Sternberg task,69,89845,113,yes,1024
61.40350877,61.40350877,793.6754386,793.6754386,black,experiment,legacy,legacy,legacy,0,uniform,1,undefined,1,right,113,113,113,0,0,113,113,0,0,113,113,113,0,113,0,Sat Oct 22 14:52:39 2022,The main experiment item,yes,Sternbergtask.osexp,/Users/katherinehays/Desktop/PSYC 5316 - R and OpenSesame/Lab 3,no,mono,no,18,no,white,no,no,768,legacy,101,11,/Users/katherinehays/Desktop/PSYC 5316 - R and OpenSesame/Lab 3/KH-subject-3.csv,legacy,7 8 6 1,Lentiform Loewenfeld,3.3.12,0,n,0,right,right,right,right,NA,634,54962,22867,634,NA,2,legacy,4,1024,2,48000,-16,experiment,3,odd,3,775641,766476,773410,2055,165939,773416,772318,2199,143071,777655,778289,774428,57245,777654,NA,Sternberg task,70,90479,114,yes,1024
61.73913043,61.73913043,792.0782609,792.0782609,black,experiment,legacy,legacy,legacy,0,uniform,1,undefined,1,left,114,114,114,0,0,114,114,0,0,114,114,114,0,114,0,Sat Oct 22 14:52:39 2022,The main experiment item,yes,Sternbergtask.osexp,/Users/katherinehays/Desktop/PSYC 5316 - R and OpenSesame/Lab 3,no,mono,no,18,no,white,no,no,768,legacy,102,11,/Users/katherinehays/Desktop/PSYC 5316 - R and OpenSesame/Lab 3/KH-subject-3.csv,legacy,2 8 5 1,Lentiform Loewenfeld,3.3.12,4,y,0,left,right,right,left,NA,610,54962,22867,610,NA,2,legacy,4,1024,2,48000,-16,experiment,3,odd,1,781625,778296,779390,2055,165939,779396,772318,2199,143071,783645,784255,780408,57245,783644,NA,Sternberg task,71,91089,115,yes,1024
61.20689655,61.20689655,789.9655172,789.9655172,black,experiment,legacy,legacy,legacy,0,uniform,0,undefined,0,right,115,115,115,0,0,115,115,0,0,115,115,115,0,115,0,Sat Oct 22 14:52:39 2022,The main experiment item,yes,Sternbergtask.osexp,/Users/katherinehays/Desktop/PSYC 5316 - R and OpenSesame/Lab 3,no,mono,no,18,no,white,no,no,768,legacy,103,11,/Users/katherinehays/Desktop/PSYC 5316 - R and OpenSesame/Lab 3/KH-subject-3.csv,legacy,8 6 3 4 7,Lentiform Loewenfeld,3.3.12,0,n,0,left,right,right,left,NA,547,54962,22867,547,NA,2,legacy,5,1024,2,48000,-16,experiment,3,odd,1,787599,784265,785358,2055,165939,785368,772318,2199,143071,789613,790161,786384,57245,789612,NA,Sternberg task,71,91636,116,yes,1024
61.53846154,61.53846154,788.0683761,788.0683761,black,experiment,legacy,legacy,legacy,0,uniform,1,undefined,1,right,116,116,116,0,0,116,116,0,0,116,116,116,0,116,0,Sat Oct 22 14:52:39 2022,The main experiment item,yes,Sternbergtask.osexp,/Users/katherinehays/Desktop/PSYC 5316 - R and OpenSesame/Lab 3,no,mono,no,18,no,white,no,no,768,legacy,104,11,/Users/katherinehays/Desktop/PSYC 5316 - R and OpenSesame/Lab 3/KH-subject-3.csv,legacy,1 4 3 6 5,Lentiform Loewenfeld,3.3.12,0,n,0,right,right,right,right,NA,568,54962,22867,568,NA,2,legacy,5,1024,2,48000,-16,experiment,3,odd,8,793491,784265,791258,2055,165939,791265,790166,2199,143071,795500,796069,792276,57245,795500,NA,Sternberg task,72,92204,117,yes,1024
61.86440678,61.86440678,786.4491525,786.4491525,black,experiment,legacy,legacy,legacy,0,uniform,1,undefined,1,right,117,117,117,0,0,117,117,0,0,117,117,117,0,117,0,Sat Oct 22 14:52:39 2022,The main experiment item,yes,Sternbergtask.osexp,/Users/katherinehays/Desktop/PSYC 5316 - R and OpenSesame/Lab 3,no,mono,no,18,no,white,no,no,768,legacy,105,11,/Users/katherinehays/Desktop/PSYC 5316 - R and OpenSesame/Lab 3/KH-subject-3.csv,legacy,3 4 2,Lentiform Loewenfeld,3.3.12,0,n,0,right,right,right,right,NA,597,54962,22867,597,NA,2,legacy,3,1024,2,48000,-16,experiment,3,odd,5,799400,796076,797166,2055,165939,797171,790166,2199,143071,801412,802010,798185,57245,801411,NA,Sternberg task,73,92801,118,yes,1024
61.34453782,61.34453782,785.0504202,785.0504202,black,experiment,legacy,legacy,legacy,0,uniform,0,undefined,0,right,118,118,118,0,0,118,118,0,0,118,118,118,0,118,0,Sat Oct 22 14:52:39 2022,The main experiment item,yes,Sternbergtask.osexp,/Users/katherinehays/Desktop/PSYC 5316 - R and OpenSesame/Lab 3,no,mono,no,18,no,white,no,no,768,legacy,106,11,/Users/katherinehays/Desktop/PSYC 5316 - R and OpenSesame/Lab 3/KH-subject-3.csv,legacy,1 8 7,Lentiform Loewenfeld,3.3.12,0,n,0,left,right,right,left,NA,620,54962,22867,620,NA,2,legacy,3,1024,2,48000,-16,experiment,3,odd,4,805338,802016,803108,2055,165939,803113,790166,2199,143071,807347,807967,804124,57245,807347,NA,Sternberg task,73,93421,119,yes,1024
61.66666667,61.66666667,789.275,789.275,black,experiment,legacy,legacy,legacy,0,uniform,1,undefined,1,right,119,119,119,0,0,119,119,0,0,119,119,119,0,119,0,Sat Oct 22 14:52:39 2022,The main experiment item,yes,Sternbergtask.osexp,/Users/katherinehays/Desktop/PSYC 5316 - R and OpenSesame/Lab 3,no,mono,no,18,no,white,no,no,768,legacy,107,11,/Users/katherinehays/Desktop/PSYC 5316 - R and OpenSesame/Lab 3/KH-subject-3.csv,legacy,5,Lentiform Loewenfeld,3.3.12,0,n,0,right,right,right,right,NA,1292,54962,22867,1292,NA,2,legacy,1,1024,2,48000,-16,experiment,3,odd,8,811298,802016,809067,2055,165939,809072,807974,2199,143071,813307,814600,810084,57245,813307,NA,Sternberg task,74,94713,120,yes,1024
61.15702479,61.15702479,792.0661157,792.0661157,black,experiment,legacy,legacy,legacy,0,uniform,0,undefined,0,right,120,120,120,0,0,120,120,0,0,120,120,120,0,120,0,Sat Oct 22 14:52:39 2022,The main experiment item,yes,Sternbergtask.osexp,/Users/katherinehays/Desktop/PSYC 5316 - R and OpenSesame/Lab 3,no,mono,no,18,no,white,no,no,768,legacy,108,11,/Users/katherinehays/Desktop/PSYC 5316 - R and OpenSesame/Lab 3/KH-subject-3.csv,legacy,5 9 2 3,Lentiform Loewenfeld,3.3.12,0,n,0,left,right,right,left,NA,1127,54962,22867,1127,NA,2,legacy,4,1024,2,48000,-16,experiment,3,odd,8,817913,814604,815684,2055,165939,815688,807974,2199,143071,819922,821050,816701,57245,819922,NA,Sternberg task,74,95840,121,yes,1024
60.6557377,60.6557377,790.0819672,790.0819672,black,experiment,legacy,legacy,legacy,0,uniform,0,undefined,0,left,121,121,121,0,0,121,121,0,0,121,121,121,0,121,0,Sat Oct 22 14:52:39 2022,The main experiment item,yes,Sternbergtask.osexp,/Users/katherinehays/Desktop/PSYC 5316 - R and OpenSesame/Lab 3,no,mono,no,18,no,white,no,no,768,legacy,109,11,/Users/katherinehays/Desktop/PSYC 5316 - R and OpenSesame/Lab 3/KH-subject-3.csv,legacy,9 3 8 2 1 4,Lentiform Loewenfeld,3.3.12,3,y,0,right,right,right,right,NA,550,54962,22867,550,NA,2,legacy,6,1024,2,48000,-16,experiment,3,odd,8,824379,814604,822148,2055,165939,822153,821057,2199,143071,826389,826940,823164,57245,826388,NA,Sternberg task,74,96390,122,yes,1024
60.16260163,60.16260163,787.8211382,787.8211382,black,experiment,legacy,legacy,legacy,0,uniform,0,undefined,0,right,122,122,122,0,0,122,122,0,0,122,122,122,0,122,0,Sat Oct 22 14:52:39 2022,The main experiment item,yes,Sternbergtask.osexp,/Users/katherinehays/Desktop/PSYC 5316 - R and OpenSesame/Lab 3,no,mono,no,18,no,white,no,no,768,legacy,110,11,/Users/katherinehays/Desktop/PSYC 5316 - R and OpenSesame/Lab 3/KH-subject-3.csv,legacy,6 7 5 9,Lentiform Loewenfeld,3.3.12,0,n,0,left,right,right,left,NA,512,54962,22867,512,NA,2,legacy,4,1024,2,48000,-16,experiment,3,odd,2,830261,814604,828032,2055,165939,828037,826946,2199,143071,832288,832801,829049,57245,832288,NA,Sternberg task,74,96902,123,yes,1024
60.48387097,60.48387097,787.5564516,787.5564516,black,experiment,legacy,legacy,legacy,0,uniform,1,undefined,1,left,123,123,123,0,0,123,123,0,0,123,123,123,0,123,0,Sat Oct 22 14:52:39 2022,The main experiment item,yes,Sternbergtask.osexp,/Users/katherinehays/Desktop/PSYC 5316 - R and OpenSesame/Lab 3,no,mono,no,18,no,white,no,no,768,legacy,111,11,/Users/katherinehays/Desktop/PSYC 5316 - R and OpenSesame/Lab 3/KH-subject-3.csv,legacy,2 3,Lentiform Loewenfeld,3.3.12,1,y,0,left,right,right,left,NA,755,54962,22867,755,NA,2,legacy,2,1024,2,48000,-16,experiment,3,odd,2,836130,814604,833898,2055,165939,833903,832806,2199,143071,838138,838893,834914,57245,838138,NA,Sternberg task,75,97657,124,yes,1024
60.8,60.8,786.32,786.32,black,experiment,legacy,legacy,legacy,0,uniform,1,undefined,1,right,124,124,124,0,0,124,124,0,0,124,124,124,0,124,0,Sat Oct 22 14:52:39 2022,The main experiment item,yes,Sternbergtask.osexp,/Users/katherinehays/Desktop/PSYC 5316 - R and OpenSesame/Lab 3,no,mono,no,18,no,white,no,no,768,legacy,112,11,/Users/katherinehays/Desktop/PSYC 5316 - R and OpenSesame/Lab 3/KH-subject-3.csv,legacy,1 7 5 2,Lentiform Loewenfeld,3.3.12,0,n,0,right,right,right,right,NA,633,54962,22867,633,NA,2,legacy,4,1024,2,48000,-16,experiment,3,odd,3,842233,838902,840006,2055,165939,840011,832806,2199,143071,844244,844878,841021,57245,844243,NA,Sternberg task,76,98290,125,yes,1024
60.31746032,60.31746032,784.9206349,784.9206349,black,experiment,legacy,legacy,legacy,0,uniform,0,undefined,0,right,125,125,125,0,0,125,125,0,0,125,125,125,0,125,0,Sat Oct 22 14:52:39 2022,The main experiment item,yes,Sternbergtask.osexp,/Users/katherinehays/Desktop/PSYC 5316 - R and OpenSesame/Lab 3,no,mono,no,18,no,white,no,no,768,legacy,113,11,/Users/katherinehays/Desktop/PSYC 5316 - R and OpenSesame/Lab 3/KH-subject-3.csv,legacy,1 7 8 3 9,Lentiform Loewenfeld,3.3.12,0,n,0,left,right,right,left,NA,610,54962,22867,610,NA,2,legacy,5,1024,2,48000,-16,experiment,3,odd,2,848208,844885,845977,2055,165939,845982,832806,2199,143071,850219,850830,846993,57245,850218,NA,Sternberg task,76,98900,126,yes,1024
60.62992126,60.62992126,782.6692913,782.6692913,black,experiment,legacy,legacy,legacy,0,uniform,1,undefined,1,right,126,126,126,0,0,126,126,0,0,126,126,126,0,126,0,Sat Oct 22 14:52:39 2022,The main experiment item,yes,Sternbergtask.osexp,/Users/katherinehays/Desktop/PSYC 5316 - R and OpenSesame/Lab 3,no,mono,no,18,no,white,no,no,768,legacy,114,11,/Users/katherinehays/Desktop/PSYC 5316 - R and OpenSesame/Lab 3/KH-subject-3.csv,legacy,7 4 2 8 1 9,Lentiform Loewenfeld,3.3.12,0,n,0,right,right,right,right,NA,499,54962,22867,499,NA,2,legacy,6,1024,2,48000,-16,experiment,3,odd,5,854158,844885,851932,2055,165939,851937,850840,2199,143071,856168,856667,852949,57245,856168,NA,Sternberg task,77,99399,127,yes,1024
60.9375,60.9375,781.28125,781.28125,black,experiment,legacy,legacy,legacy,0,uniform,1,undefined,1,right,127,127,127,0,0,127,127,0,0,127,127,127,0,127,0,Sat Oct 22 14:52:39 2022,The main experiment item,yes,Sternbergtask.osexp,/Users/katherinehays/Desktop/PSYC 5316 - R and OpenSesame/Lab 3,no,mono,no,18,no,white,no,no,768,legacy,115,11,/Users/katherinehays/Desktop/PSYC 5316 - R and OpenSesame/Lab 3/KH-subject-3.csv,legacy,4 2 6 9,Lentiform Loewenfeld,3.3.12,0,n,0,right,right,right,right,NA,605,54962,22867,605,NA,2,legacy,4,1024,2,48000,-16,experiment,3,odd,7,859995,856674,857767,2055,165939,857772,850840,2199,143071,862005,862611,858783,57245,862005,NA,Sternberg task,78,100004,128,yes,1024
61.24031008,61.24031008,779.4108527,779.4108527,black,experiment,legacy,legacy,legacy,0,uniform,1,undefined,1,left,128,128,128,0,0,128,128,0,0,128,128,128,0,128,0,Sat Oct 22 14:52:39 2022,The main experiment item,yes,Sternbergtask.osexp,/Users/katherinehays/Desktop/PSYC 5316 - R and OpenSesame/Lab 3,no,mono,no,18,no,white,no,no,768,legacy,116,11,/Users/katherinehays/Desktop/PSYC 5316 - R and OpenSesame/Lab 3/KH-subject-3.csv,legacy,6 2,Lentiform Loewenfeld,3.3.12,1,y,0,left,right,right,left,NA,540,54962,22867,540,NA,2,legacy,2,1024,2,48000,-16,experiment,3,odd,6,865938,862618,863710,2055,165939,863715,850840,2199,143071,867947,868488,864726,57245,867947,NA,Sternberg task,79,100544,129,yes,1024
61.53846154,61.53846154,776.1923077,776.1923077,black,experiment,legacy,legacy,legacy,0,uniform,1,undefined,1,right,129,129,129,0,0,129,129,0,0,129,129,129,0,129,0,Sat Oct 22 14:52:39 2022,The main experiment item,yes,Sternbergtask.osexp,/Users/katherinehays/Desktop/PSYC 5316 - R and OpenSesame/Lab 3,no,mono,no,18,no,white,no,no,768,legacy,117,11,/Users/katherinehays/Desktop/PSYC 5316 - R and OpenSesame/Lab 3/KH-subject-3.csv,legacy,2 5 1 4,Lentiform Loewenfeld,3.3.12,0,n,0,right,right,right,right,NA,361,54962,22867,361,NA,2,legacy,4,1024,2,48000,-16,experiment,3,odd,6,871803,868495,869579,2055,165939,869584,850840,2199,143071,873812,874174,870594,57245,873812,NA,Sternberg task,80,100905,130,yes,1024
61.83206107,61.83206107,775.2671756,775.2671756,black,experiment,legacy,legacy,legacy,0,uniform,1,undefined,1,left,130,130,130,0,0,130,130,0,0,130,130,130,0,130,0,Sat Oct 22 14:52:39 2022,The main experiment item,yes,Sternbergtask.osexp,/Users/katherinehays/Desktop/PSYC 5316 - R and OpenSesame/Lab 3,no,mono,no,18,no,white,no,no,768,legacy,118,11,/Users/katherinehays/Desktop/PSYC 5316 - R and OpenSesame/Lab 3/KH-subject-3.csv,legacy,3 9 7 6 4,Lentiform Loewenfeld,3.3.12,3,y,0,left,right,right,left,NA,655,54962,22867,655,NA,2,legacy,5,1024,2,48000,-16,experiment,3,odd,7,877502,874179,875273,2055,165939,875278,850840,2199,143071,879511,880166,876288,57245,879511,NA,Sternberg task,81,101560,131,yes,1024
62.12121212,62.12121212,774.2878788,774.2878788,black,experiment,legacy,legacy,legacy,0,uniform,1,undefined,1,left,131,131,131,0,0,131,131,0,0,131,131,131,0,131,0,Sat Oct 22 14:52:39 2022,The main experiment item,yes,Sternbergtask.osexp,/Users/katherinehays/Desktop/PSYC 5316 - R and OpenSesame/Lab 3,no,mono,no,18,no,white,no,no,768,legacy,119,11,/Users/katherinehays/Desktop/PSYC 5316 - R and OpenSesame/Lab 3/KH-subject-3.csv,legacy,6 8 9 3 4 9,Lentiform Loewenfeld,3.3.12,5,y,0,left,right,right,left,NA,646,54962,22867,646,NA,2,legacy,6,1024,2,48000,-16,experiment,3,odd,4,883493,880172,881264,2055,165939,881269,850840,2199,143071,885502,886149,882279,57245,885502,NA,Sternberg task,82,102206,132,yes,1024
62.40601504,62.40601504,772.3759398,772.3759398,black,experiment,legacy,legacy,legacy,0,uniform,1,undefined,1,left,132,132,132,0,0,132,132,0,0,132,132,132,0,132,0,Sat Oct 22 14:52:39 2022,The main experiment item,yes,Sternbergtask.osexp,/Users/katherinehays/Desktop/PSYC 5316 - R and OpenSesame/Lab 3,no,mono,no,18,no,white,no,no,768,legacy,120,11,/Users/katherinehays/Desktop/PSYC 5316 - R and OpenSesame/Lab 3/KH-subject-3.csv,legacy,6 7 9 3 1 2,Lentiform Loewenfeld,3.3.12,1,y,0,left,right,right,left,NA,520,54962,22867,520,NA,2,legacy,6,1024,2,48000,-16,experiment,3,odd,6,889472,886154,887246,2055,165939,887251,850840,2199,143071,891482,892003,888262,57245,891481,NA,Sternberg task,83,102726,133,yes,1024
62.68656716,62.68656716,769.619403,769.619403,black,experiment,legacy,legacy,legacy,0,uniform,1,undefined,1,left,133,133,133,0,0,133,133,0,0,133,133,133,0,133,0,Sat Oct 22 14:52:39 2022,The main experiment item,yes,Sternbergtask.osexp,/Users/katherinehays/Desktop/PSYC 5316 - R and OpenSesame/Lab 3,no,mono,no,18,no,white,no,no,768,legacy,121,11,/Users/katherinehays/Desktop/PSYC 5316 - R and OpenSesame/Lab 3/KH-subject-3.csv,legacy,8 9 5 7 1 6,Lentiform Loewenfeld,3.3.12,4,y,0,left,right,right,left,NA,403,54962,22867,403,NA,2,legacy,6,1024,2,48000,-16,experiment,3,odd,7,895332,892010,893101,2055,165939,893106,850840,2199,143071,897343,897750,894117,57245,897343,NA,Sternberg task,84,103129,134,yes,1024
62.96296296,62.96296296,767.6962963,767.6962963,black,experiment,legacy,legacy,legacy,0,uniform,1,undefined,1,left,134,134,134,0,0,134,134,0,0,134,134,134,0,134,0,Sat Oct 22 14:52:39 2022,The main experiment item,yes,Sternbergtask.osexp,/Users/katherinehays/Desktop/PSYC 5316 - R and OpenSesame/Lab 3,no,mono,no,18,no,white,no,no,768,legacy,122,11,/Users/katherinehays/Desktop/PSYC 5316 - R and OpenSesame/Lab 3/KH-subject-3.csv,legacy,8 5 1 3 9,Lentiform Loewenfeld,3.3.12,4,y,0,left,right,right,left,NA,510,54962,22867,510,NA,2,legacy,5,1024,2,48000,-16,experiment,3,odd,3,901074,897755,898847,2055,165939,898852,850840,2199,143071,903084,903595,899863,57245,903084,NA,Sternberg task,85,103639,135,yes,1024
63.23529412,63.23529412,766.5808824,766.5808824,black,experiment,legacy,legacy,legacy,0,uniform,1,undefined,1,left,135,135,135,0,0,135,135,0,0,135,135,135,0,135,0,Sat Oct 22 14:52:39 2022,The main experiment item,yes,Sternbergtask.osexp,/Users/katherinehays/Desktop/PSYC 5316 - R and OpenSesame/Lab 3,no,mono,no,18,no,white,no,no,768,legacy,123,11,/Users/katherinehays/Desktop/PSYC 5316 - R and OpenSesame/Lab 3/KH-subject-3.csv,legacy,6 5,Lentiform Loewenfeld,3.3.12,2,y,0,left,right,right,left,NA,616,54962,22867,616,NA,2,legacy,2,1024,2,48000,-16,experiment,3,odd,5,906923,903600,904693,2055,165939,904698,850840,2199,143071,908936,909552,905709,57245,908936,NA,Sternberg task,86,104255,136,yes,1024
63.50364964,63.50364964,766.8029197,766.8029197,black,experiment,legacy,legacy,legacy,0,uniform,1,undefined,1,left,136,136,136,0,0,136,136,0,0,136,136,136,0,136,0,Sat Oct 22 14:52:39 2022,The main experiment item,yes,Sternbergtask.osexp,/Users/katherinehays/Desktop/PSYC 5316 - R and OpenSesame/Lab 3,no,mono,no,18,no,white,no,no,768,legacy,124,11,/Users/katherinehays/Desktop/PSYC 5316 - R and OpenSesame/Lab 3/KH-subject-3.csv,legacy,8,Lentiform Loewenfeld,3.3.12,1,y,0,left,right,right,left,NA,797,54962,22867,797,NA,2,legacy,1,1024,2,48000,-16,experiment,3,odd,8,912876,909560,910646,2055,165939,910652,850840,2199,143071,914887,915684,911662,57245,914886,NA,Sternberg task,87,105052,137,yes,1024
63.76811594,63.76811594,767.0144928,767.0144928,black,experiment,legacy,legacy,legacy,0,uniform,1,undefined,1,left,137,137,137,0,0,137,137,0,0,137,137,137,0,137,0,Sat Oct 22 14:52:39 2022,The main experiment item,yes,Sternbergtask.osexp,/Users/katherinehays/Desktop/PSYC 5316 - R and OpenSesame/Lab 3,no,mono,no,18,no,white,no,no,768,legacy,125,11,/Users/katherinehays/Desktop/PSYC 5316 - R and OpenSesame/Lab 3/KH-subject-3.csv,legacy,8 5 4 7 3 1,Lentiform Loewenfeld,3.3.12,2,y,0,left,right,right,left,NA,796,54962,22867,796,NA,2,legacy,6,1024,2,48000,-16,experiment,3,odd,5,918985,915690,916761,2055,165939,916767,850840,2199,143071,920994,921791,917777,57245,920993,NA,Sternberg task,88,105848,138,yes,1024