"acc","accuracy","average_response_time","avg_rt","background","block","canvas_backend","clock_backend","color_backend","compensation","coordinates","correct","correct_Instruction1","correct_keyboard_response","correct_response","count_CorrectFeedback","count_ExpSequence","count_ExperimentLoop","count_Fixation","count_ISI","count_IncorrectFeedback","count_Instruction1","count_Instructions2","count_MemorySet","count_PracticeLoop","count_Probe","count_ThankYou","count_experiment","count_keyboard_response","count_logger","datetime","description","disable_garbage_collection","experiment_file","experiment_path","font_bold","font_family","font_italic","font_size","font_underline","foreground","form_clicks","fullscreen","height","keyboard_backend","live_row","live_row_PracticeLoop","logfile","mouse_backend","numberSet","opensesame_codename","opensesame_version","posInSet","present","repeat_cycle","response","response_Instruction1","response_Instructions2","response_ThankYou","response_keyboard_response","response_time","response_time_Instruction1","response_time_Instructions2","response_time_ThankYou","response_time_keyboard_response","round_decimals","sampler_backend","setSize","sound_buf_size","sound_channels","sound_freq","sound_sample_size","start","subject_nr","subject_parity","target","time_CorrectFeedback","time_ExpSequence","time_ExperimentLoop","time_Fixation","time_ISI","time_IncorrectFeedback","time_Instruction1","time_Instructions2","time_MemorySet","time_PracticeLoop","time_Probe","time_ThankYou","time_experiment","time_keyboard_response","time_logger","title","total_correct","total_response_time","total_responses","uniform_coordinates","width"
"100","100","713","713","black","practice","legacy","legacy","legacy","0","uniform","1","undefined","1","left","0","0","0","0","0","0","0","0","0","0","0","0","0","0","0","Mon Oct 17 19:52:44 2022","The main experiment item","yes","SternbergTask.osexp","C:\Users\Melissa\OneDrive\Desktop\ADVANCED QUANT\LAB 3.1","no","mono","no","18","no","white","no","no","768","legacy","0","0","C:/Users/Melissa/OneDrive/Desktop/ADVANCED QUANT/LAB 3.2/MM-subject-2.1.csv","legacy","1 7 9 8 5","Lentiform Loewenfeld","3.3.12","4","y","0","left","left","NA","NA","left","713","14830","NA","NA","713","2","legacy","5","1024","2","48000","-16","experiment","2","even","8","NA","18288","NA","18291","20493","NA","2410","NA","19292","17241","22494","NA","2406","22494","23207","Sternberg Task","1","713","1","yes","1024"
"100","100","571","571","black","practice","legacy","legacy","legacy","0","uniform","1","undefined","1","left","1","1","0","1","1","1","0","0","1","0","1","0","0","1","1","Mon Oct 17 19:52:44 2022","The main experiment item","yes","SternbergTask.osexp","C:\Users\Melissa\OneDrive\Desktop\ADVANCED QUANT\LAB 3.1","no","mono","no","18","no","white","no","no","768","legacy","1","1","C:/Users/Melissa/OneDrive/Desktop/ADVANCED QUANT/LAB 3.2/MM-subject-2.1.csv","legacy","1 5 2 9","Lentiform Loewenfeld","3.3.12","2","y","0","left","left","NA","NA","left","429","14830","NA","NA","429","2","legacy","4","1024","2","48000","-16","experiment","2","even","5","23304","24416","NA","24418","26620","NA","2410","NA","25419","17241","28621","NA","2406","28622","29051","Sternberg Task","2","1142","2","yes","1024"
"100","100","555.3333333333334","555.3333333333334","black","practice","legacy","legacy","legacy","0","uniform","1","undefined","1","right","2","2","0","2","2","2","0","0","2","0","2","0","0","2","2","Mon Oct 17 19:52:44 2022","The main experiment item","yes","SternbergTask.osexp","C:\Users\Melissa\OneDrive\Desktop\ADVANCED QUANT\LAB 3.1","no","mono","no","18","no","white","no","no","768","legacy","2","2","C:/Users/Melissa/OneDrive/Desktop/ADVANCED QUANT/LAB 3.2/MM-subject-2.1.csv","legacy","3 1 9 4","Lentiform Loewenfeld","3.3.12","0","n","0","right","left","NA","NA","right","524","14830","NA","NA","524","2","legacy","4","1024","2","48000","-16","experiment","2","even","6","29056","30166","NA","30167","32369","NA","2410","NA","31168","17241","34370","NA","2406","34370","34895","Sternberg Task","3","1666","3","yes","1024"
"100","100","540.5","540.5","black","practice","legacy","legacy","legacy","0","uniform","1","undefined","1","right","3","3","0","3","3","3","0","0","3","0","3","0","0","3","3","Mon Oct 17 19:52:44 2022","The main experiment item","yes","SternbergTask.osexp","C:\Users\Melissa\OneDrive\Desktop\ADVANCED QUANT\LAB 3.1","no","mono","no","18","no","white","no","no","768","legacy","3","3","C:/Users/Melissa/OneDrive/Desktop/ADVANCED QUANT/LAB 3.2/MM-subject-2.1.csv","legacy","5","Lentiform Loewenfeld","3.3.12","0","n","0","right","left","NA","NA","right","496","14830","NA","NA","496","2","legacy","1","1024","2","48000","-16","experiment","2","even","3","34901","36019","NA","36021","38223","NA","2410","NA","37022","17241","40224","NA","2406","40224","40721","Sternberg Task","4","2162","4","yes","1024"
"100","100","522","522","black","practice","legacy","legacy","legacy","0","uniform","1","undefined","1","left","4","4","0","4","4","4","0","0","4","0","4","0","0","4","4","Mon Oct 17 19:52:44 2022","The main experiment item","yes","SternbergTask.osexp","C:\Users\Melissa\OneDrive\Desktop\ADVANCED QUANT\LAB 3.1","no","mono","no","18","no","white","no","no","768","legacy","4","4","C:/Users/Melissa/OneDrive/Desktop/ADVANCED QUANT/LAB 3.2/MM-subject-2.1.csv","legacy","4 8","Lentiform Loewenfeld","3.3.12","1","y","0","left","left","NA","NA","left","448","14830","NA","NA","448","2","legacy","2","1024","2","48000","-16","experiment","2","even","4","40726","41835","NA","41836","44038","NA","2410","NA","42837","17241","46039","NA","2406","46039","46488","Sternberg Task","5","2610","5","yes","1024"
"100","100","519.3333333333334","519.3333333333334","black","practice","legacy","legacy","legacy","0","uniform","1","undefined","1","left","5","5","0","5","5","5","0","0","5","0","5","0","0","5","5","Mon Oct 17 19:52:44 2022","The main experiment item","yes","SternbergTask.osexp","C:\Users\Melissa\OneDrive\Desktop\ADVANCED QUANT\LAB 3.1","no","mono","no","18","no","white","no","no","768","legacy","5","5","C:/Users/Melissa/OneDrive/Desktop/ADVANCED QUANT/LAB 3.2/MM-subject-2.1.csv","legacy","6","Lentiform Loewenfeld","3.3.12","1","y","0","left","left","NA","NA","left","506","14830","NA","NA","506","2","legacy","1","1024","2","48000","-16","experiment","2","even","6","46493","47602","NA","47605","49807","NA","2410","NA","48606","17241","51808","NA","2406","51808","52314","Sternberg Task","6","3116","6","yes","1024"
"100","100","542.8571428571429","542.8571428571429","black","practice","legacy","legacy","legacy","0","uniform","1","undefined","1","right","6","6","0","6","6","6","0","0","6","0","6","0","0","6","6","Mon Oct 17 19:52:44 2022","The main experiment item","yes","SternbergTask.osexp","C:\Users\Melissa\OneDrive\Desktop\ADVANCED QUANT\LAB 3.1","no","mono","no","18","no","white","no","no","768","legacy","6","6","C:/Users/Melissa/OneDrive/Desktop/ADVANCED QUANT/LAB 3.2/MM-subject-2.1.csv","legacy","5 7 8 4 1 2","Lentiform Loewenfeld","3.3.12","0","n","0","right","left","NA","NA","right","684","14830","NA","NA","684","2","legacy","6","1024","2","48000","-16","experiment","2","even","6","52320","53425","NA","53426","55629","NA","2410","NA","54428","17241","57630","NA","2406","57630","58314","Sternberg Task","7","3800","7","yes","1024"
"100","100","554.75","554.75","black","practice","legacy","legacy","legacy","0","uniform","1","undefined","1","left","7","7","0","7","7","7","0","0","7","0","7","0","0","7","7","Mon Oct 17 19:52:44 2022","The main experiment item","yes","SternbergTask.osexp","C:\Users\Melissa\OneDrive\Desktop\ADVANCED QUANT\LAB 3.1","no","mono","no","18","no","white","no","no","768","legacy","7","7","C:/Users/Melissa/OneDrive/Desktop/ADVANCED QUANT/LAB 3.2/MM-subject-2.1.csv","legacy","4 3 1 7 9 8","Lentiform Loewenfeld","3.3.12","1","y","0","left","left","NA","NA","left","638","14830","NA","NA","638","2","legacy","6","1024","2","48000","-16","experiment","2","even","4","58323","59425","NA","59427","61629","NA","2410","NA","60428","17241","63630","NA","2406","63630","64269","Sternberg Task","8","4438","8","yes","1024"
"100","100","542.8888888888889","542.8888888888889","black","practice","legacy","legacy","legacy","0","uniform","1","undefined","1","right","8","8","0","8","8","8","0","0","8","0","8","0","0","8","8","Mon Oct 17 19:52:44 2022","The main experiment item","yes","SternbergTask.osexp","C:\Users\Melissa\OneDrive\Desktop\ADVANCED QUANT\LAB 3.1","no","mono","no","18","no","white","no","no","768","legacy","8","8","C:/Users/Melissa/OneDrive/Desktop/ADVANCED QUANT/LAB 3.2/MM-subject-2.1.csv","legacy","2 1","Lentiform Loewenfeld","3.3.12","0","n","0","right","left","NA","NA","right","448","14830","NA","NA","448","2","legacy","2","1024","2","48000","-16","experiment","2","even","5","64283","65383","NA","65385","67587","NA","2410","NA","66386","17241","69588","NA","2406","69588","70037","Sternberg Task","9","4886","9","yes","1024"
"100","100","544.1","544.1","black","practice","legacy","legacy","legacy","0","uniform","1","undefined","1","right","9","9","0","9","9","9","0","0","9","0","9","0","0","9","9","Mon Oct 17 19:52:44 2022","The main experiment item","yes","SternbergTask.osexp","C:\Users\Melissa\OneDrive\Desktop\ADVANCED QUANT\LAB 3.1","no","mono","no","18","no","white","no","no","768","legacy","9","9","C:/Users/Melissa/OneDrive/Desktop/ADVANCED QUANT/LAB 3.2/MM-subject-2.1.csv","legacy","9 6 7 4 5","Lentiform Loewenfeld","3.3.12","0","n","0","right","left","NA","NA","right","555","14830","NA","NA","555","2","legacy","5","1024","2","48000","-16","experiment","2","even","3","70044","71144","NA","71146","73348","NA","2410","NA","72147","17241","75349","NA","2406","75349","75904","Sternberg Task","10","5441","10","yes","1024"
"100","100","541.1818181818181","541.1818181818181","black","practice","legacy","legacy","legacy","0","uniform","1","undefined","1","right","10","10","0","10","10","10","0","0","10","0","10","0","0","10","10","Mon Oct 17 19:52:44 2022","The main experiment item","yes","SternbergTask.osexp","C:\Users\Melissa\OneDrive\Desktop\ADVANCED QUANT\LAB 3.1","no","mono","no","18","no","white","no","no","768","legacy","10","10","C:/Users/Melissa/OneDrive/Desktop/ADVANCED QUANT/LAB 3.2/MM-subject-2.1.csv","legacy","4 1 5","Lentiform Loewenfeld","3.3.12","0","n","0","right","left","NA","NA","right","512","14830","NA","NA","512","2","legacy","3","1024","2","48000","-16","experiment","2","even","2","75917","77016","NA","77018","79220","NA","2410","NA","78019","17241","81221","NA","2406","81221","81733","Sternberg Task","11","5953","11","yes","1024"
"100","100","555.6666666666666","555.6666666666666","black","practice","legacy","legacy","legacy","0","uniform","1","undefined","1","left","11","11","0","11","11","11","0","0","11","0","11","0","0","11","11","Mon Oct 17 19:52:44 2022","The main experiment item","yes","SternbergTask.osexp","C:\Users\Melissa\OneDrive\Desktop\ADVANCED QUANT\LAB 3.1","no","mono","no","18","no","white","no","no","768","legacy","11","11","C:/Users/Melissa/OneDrive/Desktop/ADVANCED QUANT/LAB 3.2/MM-subject-2.1.csv","legacy","2 9 4","Lentiform Loewenfeld","3.3.12","3","y","0","left","left","NA","NA","left","715","14830","NA","NA","715","2","legacy","3","1024","2","48000","-16","experiment","2","even","4","81743","82849","NA","82851","85053","NA","2410","NA","83852","17241","87054","NA","2406","87054","87769","Sternberg Task","12","6668","12","yes","1024"
"100","100","552.8461538461538","552.8461538461538","black","experiment","legacy","legacy","legacy","0","uniform","1","undefined","1","right","12","12","0","12","12","12","0","0","12","0","12","0","0","12","12","Mon Oct 17 19:52:44 2022","The main experiment item","yes","SternbergTask.osexp","C:\Users\Melissa\OneDrive\Desktop\ADVANCED QUANT\LAB 3.1","no","mono","no","18","no","white","no","no","768","legacy","0","11","C:/Users/Melissa/OneDrive/Desktop/ADVANCED QUANT/LAB 3.2/MM-subject-2.1.csv","legacy","9 8 2 7 4","Lentiform Loewenfeld","3.3.12","0","n","0","right","left","left","NA","right","519","14830","7601","NA","519","2","legacy","5","1024","2","48000","-16","experiment","2","even","5","87776","96555","96428","96559","98763","NA","2410","88826","97561","17241","100763","NA","2406","100763","101283","Sternberg Task","13","7187","13","yes","1024"
"100","100","596.5","596.5","black","experiment","legacy","legacy","legacy","0","uniform","1","undefined","1","left","13","13","0","13","13","13","0","0","13","0","13","0","0","13","13","Mon Oct 17 19:52:44 2022","The main experiment item","yes","SternbergTask.osexp","C:\Users\Melissa\OneDrive\Desktop\ADVANCED QUANT\LAB 3.1","no","mono","no","18","no","white","no","no","768","legacy","1","11","C:/Users/Melissa/OneDrive/Desktop/ADVANCED QUANT/LAB 3.2/MM-subject-2.1.csv","legacy","5 2 6","Lentiform Loewenfeld","3.3.12","2","y","0","left","left","left","NA","left","1164","14830","7601","NA","1164","2","legacy","3","1024","2","48000","-16","experiment","2","even","2","101292","102406","96428","102408","104610","NA","2410","88826","103409","17241","106611","NA","2406","106611","107776","Sternberg Task","14","8351","14","yes","1024"
"100","100","616.3333333333334","616.3333333333334","black","experiment","legacy","legacy","legacy","0","uniform","1","undefined","1","left","14","14","0","14","14","14","0","0","14","0","14","0","0","14","14","Mon Oct 17 19:52:44 2022","The main experiment item","yes","SternbergTask.osexp","C:\Users\Melissa\OneDrive\Desktop\ADVANCED QUANT\LAB 3.1","no","mono","no","18","no","white","no","no","768","legacy","2","11","C:/Users/Melissa/OneDrive/Desktop/ADVANCED QUANT/LAB 3.2/MM-subject-2.1.csv","legacy","4 1 5","Lentiform Loewenfeld","3.3.12","2","y","0","left","left","left","NA","left","894","14830","7601","NA","894","2","legacy","3","1024","2","48000","-16","experiment","2","even","1","107789","108917","96428","108919","111121","NA","2410","88826","109920","17241","113122","NA","2406","113122","114016","Sternberg Task","15","9245","15","yes","1024"
"100","100","612.625","612.625","black","experiment","legacy","legacy","legacy","0","uniform","1","undefined","1","left","15","15","0","15","15","15","0","0","15","0","15","0","0","15","15","Mon Oct 17 19:52:44 2022","The main experiment item","yes","SternbergTask.osexp","C:\Users\Melissa\OneDrive\Desktop\ADVANCED QUANT\LAB 3.1","no","mono","no","18","no","white","no","no","768","legacy","3","11","C:/Users/Melissa/OneDrive/Desktop/ADVANCED QUANT/LAB 3.2/MM-subject-2.1.csv","legacy","8 9 5 7 1 6","Lentiform Loewenfeld","3.3.12","4","y","0","left","left","left","NA","left","557","14830","7601","NA","557","2","legacy","6","1024","2","48000","-16","experiment","2","even","7","114023","115132","96428","115134","117336","NA","2410","88826","116135","17241","119337","NA","2406","119337","119894","Sternberg Task","16","9802","16","yes","1024"
"100","100","602.1176470588235","602.1176470588235","black","experiment","legacy","legacy","legacy","0","uniform","1","undefined","1","left","16","16","0","16","16","16","0","0","16","0","16","0","0","16","16","Mon Oct 17 19:52:44 2022","The main experiment item","yes","SternbergTask.osexp","C:\Users\Melissa\OneDrive\Desktop\ADVANCED QUANT\LAB 3.1","no","mono","no","18","no","white","no","no","768","legacy","4","11","C:/Users/Melissa/OneDrive/Desktop/ADVANCED QUANT/LAB 3.2/MM-subject-2.1.csv","legacy","9 8 4","Lentiform Loewenfeld","3.3.12","1","y","0","left","left","left","NA","left","434","14830","7601","NA","434","2","legacy","3","1024","2","48000","-16","experiment","2","even","9","119900","121001","96428","121003","123205","NA","2410","88826","122004","17241","125206","NA","2406","125207","125642","Sternberg Task","17","10236","17","yes","1024"
"100","100","599.8888888888889","599.8888888888889","black","experiment","legacy","legacy","legacy","0","uniform","1","undefined","1","right","17","17","0","17","17","17","0","0","17","0","17","0","0","17","17","Mon Oct 17 19:52:44 2022","The main experiment item","yes","SternbergTask.osexp","C:\Users\Melissa\OneDrive\Desktop\ADVANCED QUANT\LAB 3.1","no","mono","no","18","no","white","no","no","768","legacy","5","11","C:/Users/Melissa/OneDrive/Desktop/ADVANCED QUANT/LAB 3.2/MM-subject-2.1.csv","legacy","8 5 4 2 9 6","Lentiform Loewenfeld","3.3.12","0","n","0","right","left","left","NA","right","562","14830","7601","NA","562","2","legacy","6","1024","2","48000","-16","experiment","2","even","3","125652","126766","96428","126769","128971","NA","2410","88826","127770","17241","130972","NA","2406","130972","131535","Sternberg Task","18","10798","18","yes","1024"
"100","100","599.1578947368421","599.1578947368421","black","experiment","legacy","legacy","legacy","0","uniform","1","undefined","1","left","18","18","0","18","18","18","0","0","18","0","18","0","0","18","18","Mon Oct 17 19:52:44 2022","The main experiment item","yes","SternbergTask.osexp","C:\Users\Melissa\OneDrive\Desktop\ADVANCED QUANT\LAB 3.1","no","mono","no","18","no","white","no","no","768","legacy","6","11","C:/Users/Melissa/OneDrive/Desktop/ADVANCED QUANT/LAB 3.2/MM-subject-2.1.csv","legacy","7 4 2 6 3 5","Lentiform Loewenfeld","3.3.12","6","y","0","left","left","left","NA","left","586","14830","7601","NA","586","2","legacy","6","1024","2","48000","-16","experiment","2","even","5","131545","132662","96428","132664","134866","NA","2410","88826","133665","17241","136867","NA","2406","136867","137453","Sternberg Task","19","11384","19","yes","1024"
"100","100","596.15","596.15","black","experiment","legacy","legacy","legacy","0","uniform","1","undefined","1","right","19","19","0","19","19","19","0","0","19","0","19","0","0","19","19","Mon Oct 17 19:52:44 2022","The main experiment item","yes","SternbergTask.osexp","C:\Users\Melissa\OneDrive\Desktop\ADVANCED QUANT\LAB 3.1","no","mono","no","18","no","white","no","no","768","legacy","7","11","C:/Users/Melissa/OneDrive/Desktop/ADVANCED QUANT/LAB 3.2/MM-subject-2.1.csv","legacy","9","Lentiform Loewenfeld","3.3.12","0","n","0","right","left","left","NA","right","539","14830","7601","NA","539","2","legacy","1","1024","2","48000","-16","experiment","2","even","6","137461","138575","96428","138577","140779","NA","2410","88826","139578","17241","142780","NA","2406","142780","143320","Sternberg Task","20","11923","20","yes","1024"
"100","100","594.3333333333334","594.3333333333334","black","experiment","legacy","legacy","legacy","0","uniform","1","undefined","1","left","20","20","0","20","20","20","0","0","20","0","20","0","0","20","20","Mon Oct 17 19:52:44 2022","The main experiment item","yes","SternbergTask.osexp","C:\Users\Melissa\OneDrive\Desktop\ADVANCED QUANT\LAB 3.1","no","mono","no","18","no","white","no","no","768","legacy","8","11","C:/Users/Melissa/OneDrive/Desktop/ADVANCED QUANT/LAB 3.2/MM-subject-2.1.csv","legacy","1 4 9 3 2 5","Lentiform Loewenfeld","3.3.12","3","y","0","left","left","left","NA","left","558","14830","7601","NA","558","2","legacy","6","1024","2","48000","-16","experiment","2","even","9","143329","144436","96428","144438","146641","NA","2410","88826","145439","17241","148642","NA","2406","148642","149200","Sternberg Task","21","12481","21","yes","1024"
"100","100","618.1363636363636","618.1363636363636","black","experiment","legacy","legacy","legacy","0","uniform","1","undefined","1","left","21","21","0","21","21","21","0","0","21","0","21","0","0","21","21","Mon Oct 17 19:52:44 2022","The main experiment item","yes","SternbergTask.osexp","C:\Users\Melissa\OneDrive\Desktop\ADVANCED QUANT\LAB 3.1","no","mono","no","18","no","white","no","no","768","legacy","9","11","C:/Users/Melissa/OneDrive/Desktop/ADVANCED QUANT/LAB 3.2/MM-subject-2.1.csv","legacy","4 6 2 5 1","Lentiform Loewenfeld","3.3.12","5","y","0","left","left","left","NA","left","1118","14830","7601","NA","1118","2","legacy","5","1024","2","48000","-16","experiment","2","even","1","149208","150311","96428","150312","152514","NA","2410","88826","151313","17241","154515","NA","2406","154515","155634","Sternberg Task","22","13599","22","yes","1024"
"100","100","618.7826086956521","618.7826086956521","black","experiment","legacy","legacy","legacy","0","uniform","1","undefined","1","left","22","22","0","22","22","22","0","0","22","0","22","0","0","22","22","Mon Oct 17 19:52:44 2022","The main experiment item","yes","SternbergTask.osexp","C:\Users\Melissa\OneDrive\Desktop\ADVANCED QUANT\LAB 3.1","no","mono","no","18","no","white","no","no","768","legacy","10","11","C:/Users/Melissa/OneDrive/Desktop/ADVANCED QUANT/LAB 3.2/MM-subject-2.1.csv","legacy","3 9 6 2","Lentiform Loewenfeld","3.3.12","4","y","0","left","left","left","NA","left","633","14830","7601","NA","633","2","legacy","4","1024","2","48000","-16","experiment","2","even","2","155652","156774","96428","156776","158978","NA","2410","88826","157777","17241","160979","NA","2406","160979","161612","Sternberg Task","23","14232","23","yes","1024"
"100","100","612.9166666666666","612.9166666666666","black","experiment","legacy","legacy","legacy","0","uniform","1","undefined","1","left","23","23","0","23","23","23","0","0","23","0","23","0","0","23","23","Mon Oct 17 19:52:44 2022","The main experiment item","yes","SternbergTask.osexp","C:\Users\Melissa\OneDrive\Desktop\ADVANCED QUANT\LAB 3.1","no","mono","no","18","no","white","no","no","768","legacy","11","11","C:/Users/Melissa/OneDrive/Desktop/ADVANCED QUANT/LAB 3.2/MM-subject-2.1.csv","legacy","2 6 1 7 4","Lentiform Loewenfeld","3.3.12","2","y","0","left","left","left","NA","left","478","14830","7601","NA","478","2","legacy","5","1024","2","48000","-16","experiment","2","even","6","161620","162741","96428","162743","164945","NA","2410","88826","163744","17241","166946","NA","2406","166946","167424","Sternberg Task","24","14710","24","yes","1024"
"100","100","618.92","618.92","black","experiment","legacy","legacy","legacy","0","uniform","1","undefined","1","right","24","24","0","24","24","24","0","0","24","0","24","0","0","24","24","Mon Oct 17 19:52:44 2022","The main experiment item","yes","SternbergTask.osexp","C:\Users\Melissa\OneDrive\Desktop\ADVANCED QUANT\LAB 3.1","no","mono","no","18","no","white","no","no","768","legacy","12","11","C:/Users/Melissa/OneDrive/Desktop/ADVANCED QUANT/LAB 3.2/MM-subject-2.1.csv","legacy","8 9","Lentiform Loewenfeld","3.3.12","0","n","0","right","left","left","NA","right","763","14830","7601","NA","763","2","legacy","2","1024","2","48000","-16","experiment","2","even","5","167430","168549","96428","168550","170752","NA","2410","88826","169551","17241","172754","NA","2406","172754","173518","Sternberg Task","25","15473","25","yes","1024"
"100","100","622.6538461538462","622.6538461538462","black","experiment","legacy","legacy","legacy","0","uniform","1","undefined","1","right","25","25","0","25","25","25","0","0","25","0","25","0","0","25","25","Mon Oct 17 19:52:44 2022","The main experiment item","yes","SternbergTask.osexp","C:\Users\Melissa\OneDrive\Desktop\ADVANCED QUANT\LAB 3.1","no","mono","no","18","no","white","no","no","768","legacy","13","11","C:/Users/Melissa/OneDrive/Desktop/ADVANCED QUANT/LAB 3.2/MM-subject-2.1.csv","legacy","6 2 9 3 8 4","Lentiform Loewenfeld","3.3.12","0","n","0","right","left","left","NA","right","716","14830","7601","NA","716","2","legacy","6","1024","2","48000","-16","experiment","2","even","1","173523","174665","96428","174667","176874","NA","2410","88826","175672","17241","178875","NA","2406","178875","179592","Sternberg Task","26","16189","26","yes","1024"
"100","100","615.5555555555555","615.5555555555555","black","experiment","legacy","legacy","legacy","0","uniform","1","undefined","1","left","26","26","0","26","26","26","0","0","26","0","26","0","0","26","26","Mon Oct 17 19:52:44 2022","The main experiment item","yes","SternbergTask.osexp","C:\Users\Melissa\OneDrive\Desktop\ADVANCED QUANT\LAB 3.1","no","mono","no","18","no","white","no","no","768","legacy","14","11","C:/Users/Melissa/OneDrive/Desktop/ADVANCED QUANT/LAB 3.2/MM-subject-2.1.csv","legacy","2 3","Lentiform Loewenfeld","3.3.12","1","y","0","left","left","left","NA","left","431","14830","7601","NA","431","2","legacy","2","1024","2","48000","-16","experiment","2","even","2","179600","180724","96428","180726","182929","NA","2410","88826","181728","17241","184930","NA","2406","184930","185362","Sternberg Task","27","16620","27","yes","1024"
"100","100","615.3571428571429","615.3571428571429","black","experiment","legacy","legacy","legacy","0","uniform","1","undefined","1","right","27","27","0","27","27","27","0","0","27","0","27","0","0","27","27","Mon Oct 17 19:52:44 2022","The main experiment item","yes","SternbergTask.osexp","C:\Users\Melissa\OneDrive\Desktop\ADVANCED QUANT\LAB 3.1","no","mono","no","18","no","white","no","no","768","legacy","15","11","C:/Users/Melissa/OneDrive/Desktop/ADVANCED QUANT/LAB 3.2/MM-subject-2.1.csv","legacy","7 1 5 6 3","Lentiform Loewenfeld","3.3.12","0","n","0","right","left","left","NA","right","610","14830","7601","NA","610","2","legacy","5","1024","2","48000","-16","experiment","2","even","8","185370","186477","96428","186478","188680","NA","2410","88826","187479","17241","190681","NA","2406","190681","191292","Sternberg Task","28","17230","28","yes","1024"
"100","100","612.8620689655172","612.8620689655172","black","experiment","legacy","legacy","legacy","0","uniform","1","undefined","1","right","28","28","0","28","28","28","0","0","28","0","28","0","0","28","28","Mon Oct 17 19:52:44 2022","The main experiment item","yes","SternbergTask.osexp","C:\Users\Melissa\OneDrive\Desktop\ADVANCED QUANT\LAB 3.1","no","mono","no","18","no","white","no","no","768","legacy","16","11","C:/Users/Melissa/OneDrive/Desktop/ADVANCED QUANT/LAB 3.2/MM-subject-2.1.csv","legacy","6 7 5 9","Lentiform Loewenfeld","3.3.12","0","n","0","right","left","left","NA","right","543","14830","7601","NA","543","2","legacy","4","1024","2","48000","-16","experiment","2","even","2","191297","192405","96428","192407","194609","NA","2410","88826","193408","17241","196610","NA","2406","196610","197154","Sternberg Task","29","17773","29","yes","1024"
"100","100","607.3333333333334","607.3333333333334","black","experiment","legacy","legacy","legacy","0","uniform","1","undefined","1","left","29","29","0","29","29","29","0","0","29","0","29","0","0","29","29","Mon Oct 17 19:52:44 2022","The main experiment item","yes","SternbergTask.osexp","C:\Users\Melissa\OneDrive\Desktop\ADVANCED QUANT\LAB 3.1","no","mono","no","18","no","white","no","no","768","legacy","17","11","C:/Users/Melissa/OneDrive/Desktop/ADVANCED QUANT/LAB 3.2/MM-subject-2.1.csv","legacy","4 9 7 8 5 3","Lentiform Loewenfeld","3.3.12","4","y","0","left","left","left","NA","left","447","14830","7601","NA","447","2","legacy","6","1024","2","48000","-16","experiment","2","even","8","197160","198266","96428","198268","200470","NA","2410","88826","199269","17241","202471","NA","2406","202471","202919","Sternberg Task","30","18220","30","yes","1024"
"100","100","601.258064516129","601.258064516129","black","experiment","legacy","legacy","legacy","0","uniform","1","undefined","1","left","30","30","0","30","30","30","0","0","30","0","30","0","0","30","30","Mon Oct 17 19:52:44 2022","The main experiment item","yes","SternbergTask.osexp","C:\Users\Melissa\OneDrive\Desktop\ADVANCED QUANT\LAB 3.1","no","mono","no","18","no","white","no","no","768","legacy","18","11","C:/Users/Melissa/OneDrive/Desktop/ADVANCED QUANT/LAB 3.2/MM-subject-2.1.csv","legacy","2 8 5 1","Lentiform Loewenfeld","3.3.12","4","y","0","left","left","left","NA","left","419","14830","7601","NA","419","2","legacy","4","1024","2","48000","-16","experiment","2","even","1","202926","204042","96428","204043","206248","NA","2410","88826","205044","17241","208249","NA","2406","208249","208668","Sternberg Task","31","18639","31","yes","1024"
"100","100","597.75","597.75","black","experiment","legacy","legacy","legacy","0","uniform","1","undefined","1","left","31","31","0","31","31","31","0","0","31","0","31","0","0","31","31","Mon Oct 17 19:52:44 2022","The main experiment item","yes","SternbergTask.osexp","C:\Users\Melissa\OneDrive\Desktop\ADVANCED QUANT\LAB 3.1","no","mono","no","18","no","white","no","no","768","legacy","19","11","C:/Users/Melissa/OneDrive/Desktop/ADVANCED QUANT/LAB 3.2/MM-subject-2.1.csv","legacy","9 5 3 8 4","Lentiform Loewenfeld","3.3.12","1","y","0","left","left","left","NA","left","489","14830","7601","NA","489","2","legacy","5","1024","2","48000","-16","experiment","2","even","9","208682","209785","96428","209787","211990","NA","2410","88826","210788","17241","213991","NA","2406","213991","214481","Sternberg Task","32","19128","32","yes","1024"
"100","100","597.6363636363636","597.6363636363636","black","experiment","legacy","legacy","legacy","0","uniform","1","undefined","1","left","32","32","0","32","32","32","0","0","32","0","32","0","0","32","32","Mon Oct 17 19:52:44 2022","The main experiment item","yes","SternbergTask.osexp","C:\Users\Melissa\OneDrive\Desktop\ADVANCED QUANT\LAB 3.1","no","mono","no","18","no","white","no","no","768","legacy","20","11","C:/Users/Melissa/OneDrive/Desktop/ADVANCED QUANT/LAB 3.2/MM-subject-2.1.csv","legacy","6 1 2","Lentiform Loewenfeld","3.3.12","3","y","0","left","left","left","NA","left","594","14830","7601","NA","594","2","legacy","3","1024","2","48000","-16","experiment","2","even","2","214487","215583","96428","215585","217787","NA","2410","88826","216586","17241","219789","NA","2406","219789","220384","Sternberg Task","33","19722","33","yes","1024"
"100","100","596.8529411764706","596.8529411764706","black","experiment","legacy","legacy","legacy","0","uniform","1","undefined","1","right","33","33","0","33","33","33","0","0","33","0","33","0","0","33","33","Mon Oct 17 19:52:44 2022","The main experiment item","yes","SternbergTask.osexp","C:\Users\Melissa\OneDrive\Desktop\ADVANCED QUANT\LAB 3.1","no","mono","no","18","no","white","no","no","768","legacy","21","11","C:/Users/Melissa/OneDrive/Desktop/ADVANCED QUANT/LAB 3.2/MM-subject-2.1.csv","legacy","7 8 6 1","Lentiform Loewenfeld","3.3.12","0","n","0","right","left","left","NA","right","571","14830","7601","NA","571","2","legacy","4","1024","2","48000","-16","experiment","2","even","3","220406","221526","96428","221528","223730","NA","2410","88826","222529","17241","225731","NA","2406","225731","226302","Sternberg Task","34","20293","34","yes","1024"
"100","100","595.6","595.6","black","experiment","legacy","legacy","legacy","0","uniform","1","undefined","1","right","34","34","0","34","34","34","0","0","34","0","34","0","0","34","34","Mon Oct 17 19:52:44 2022","The main experiment item","yes","SternbergTask.osexp","C:\Users\Melissa\OneDrive\Desktop\ADVANCED QUANT\LAB 3.1","no","mono","no","18","no","white","no","no","768","legacy","22","11","C:/Users/Melissa/OneDrive/Desktop/ADVANCED QUANT/LAB 3.2/MM-subject-2.1.csv","legacy","7 3 2 8","Lentiform Loewenfeld","3.3.12","0","n","0","right","left","left","NA","right","553","14830","7601","NA","553","2","legacy","4","1024","2","48000","-16","experiment","2","even","4","226313","227419","96428","227420","229622","NA","2410","88826","228421","17241","231622","NA","2406","231624","232177","Sternberg Task","35","20846","35","yes","1024"
"100","100","598.1666666666666","598.1666666666666","black","experiment","legacy","legacy","legacy","0","uniform","1","undefined","1","right","35","35","0","35","35","35","0","0","35","0","35","0","0","35","35","Mon Oct 17 19:52:44 2022","The main experiment item","yes","SternbergTask.osexp","C:\Users\Melissa\OneDrive\Desktop\ADVANCED QUANT\LAB 3.1","no","mono","no","18","no","white","no","no","768","legacy","23","11","C:/Users/Melissa/OneDrive/Desktop/ADVANCED QUANT/LAB 3.2/MM-subject-2.1.csv","legacy","6 9 7 3 8 2","Lentiform Loewenfeld","3.3.12","0","n","0","right","left","left","NA","right","688","14830","7601","NA","688","2","legacy","6","1024","2","48000","-16","experiment","2","even","5","232185","233301","96428","233304","235506","NA","2410","88826","234305","17241","237507","NA","2406","237507","238195","Sternberg Task","36","21534","36","yes","1024"
"100","100","603.8108108108108","603.8108108108108","black","experiment","legacy","legacy","legacy","0","uniform","1","undefined","1","left","36","36","0","36","36","36","0","0","36","0","36","0","0","36","36","Mon Oct 17 19:52:44 2022","The main experiment item","yes","SternbergTask.osexp","C:\Users\Melissa\OneDrive\Desktop\ADVANCED QUANT\LAB 3.1","no","mono","no","18","no","white","no","no","768","legacy","24","11","C:/Users/Melissa/OneDrive/Desktop/ADVANCED QUANT/LAB 3.2/MM-subject-2.1.csv","legacy","9 6 2 4 1","Lentiform Loewenfeld","3.3.12","4","y","0","left","left","left","NA","left","807","14830","7601","NA","807","2","legacy","5","1024","2","48000","-16","experiment","2","even","4","238201","239308","96428","239310","241513","NA","2410","88826","240312","17241","243514","NA","2406","243514","244322","Sternberg Task","37","22341","37","yes","1024"
"100","100","621.921052631579","621.921052631579","black","experiment","legacy","legacy","legacy","0","uniform","1","undefined","1","right","37","37","0","37","37","37","0","0","37","0","37","0","0","37","37","Mon Oct 17 19:52:44 2022","The main experiment item","yes","SternbergTask.osexp","C:\Users\Melissa\OneDrive\Desktop\ADVANCED QUANT\LAB 3.1","no","mono","no","18","no","white","no","no","768","legacy","25","11","C:/Users/Melissa/OneDrive/Desktop/ADVANCED QUANT/LAB 3.2/MM-subject-2.1.csv","legacy","2 8 7 9 5 3","Lentiform Loewenfeld","3.3.12","0","n","0","right","left","left","NA","right","1292","14830","7601","NA","1292","2","legacy","6","1024","2","48000","-16","experiment","2","even","6","244339","245438","96428","245440","247642","NA","2410","88826","246441","17241","249643","NA","2406","249643","250936","Sternberg Task","38","23633","38","yes","1024"
"97.43589743589743","97.43589743589743","621.2051282051282","621.2051282051282","black","experiment","legacy","legacy","legacy","0","uniform","0","undefined","0","left","38","38","0","38","38","38","0","0","38","0","38","0","0","38","38","Mon Oct 17 19:52:44 2022","The main experiment item","yes","SternbergTask.osexp","C:\Users\Melissa\OneDrive\Desktop\ADVANCED QUANT\LAB 3.1","no","mono","no","18","no","white","no","no","768","legacy","26","11","C:/Users/Melissa/OneDrive/Desktop/ADVANCED QUANT/LAB 3.2/MM-subject-2.1.csv","legacy","6 5","Lentiform Loewenfeld","3.3.12","2","y","0","right","left","left","NA","right","594","14830","7601","NA","594","2","legacy","2","1024","2","48000","-16","experiment","2","even","5","250942","252055","96428","252057","254259","NA","2410","88826","253058","17241","256260","NA","2406","256260","256855","Sternberg Task","38","24227","39","yes","1024"
"97.5","97.5","620.55","620.55","black","experiment","legacy","legacy","legacy","0","uniform","1","undefined","1","left","39","39","0","39","39","39","0","0","39","0","39","0","0","39","39","Mon Oct 17 19:52:44 2022","The main experiment item","yes","SternbergTask.osexp","C:\Users\Melissa\OneDrive\Desktop\ADVANCED QUANT\LAB 3.1","no","mono","no","18","no","white","no","no","768","legacy","27","11","C:/Users/Melissa/OneDrive/Desktop/ADVANCED QUANT/LAB 3.2/MM-subject-2.1.csv","legacy","8 3","Lentiform Loewenfeld","3.3.12","2","y","0","left","left","left","NA","left","595","14830","7601","NA","595","2","legacy","2","1024","2","48000","-16","experiment","2","even","3","250942","257960","96428","257961","260163","256863","2410","88826","258962","17241","262164","NA","2406","262164","262760","Sternberg Task","39","24822","40","yes","1024"
"97.5609756097561","97.5609756097561","632.3414634146342","632.3414634146342","black","experiment","legacy","legacy","legacy","0","uniform","1","undefined","1","left","40","40","0","40","40","40","0","0","40","0","40","0","0","40","40","Mon Oct 17 19:52:44 2022","The main experiment item","yes","SternbergTask.osexp","C:\Users\Melissa\OneDrive\Desktop\ADVANCED QUANT\LAB 3.1","no","mono","no","18","no","white","no","no","768","legacy","28","11","C:/Users/Melissa/OneDrive/Desktop/ADVANCED QUANT/LAB 3.2/MM-subject-2.1.csv","legacy","7 6","Lentiform Loewenfeld","3.3.12","2","y","0","left","left","left","NA","left","1104","14830","7601","NA","1104","2","legacy","2","1024","2","48000","-16","experiment","2","even","6","262768","263860","96428","263862","266064","256863","2410","88826","264863","17241","268065","NA","2406","268065","269170","Sternberg Task","40","25926","41","yes","1024"
"97.61904761904762","97.61904761904762","645.3809523809524","645.3809523809524","black","experiment","legacy","legacy","legacy","0","uniform","1","undefined","1","right","41","41","0","41","41","41","0","0","41","0","41","0","0","41","41","Mon Oct 17 19:52:44 2022","The main experiment item","yes","SternbergTask.osexp","C:\Users\Melissa\OneDrive\Desktop\ADVANCED QUANT\LAB 3.1","no","mono","no","18","no","white","no","no","768","legacy","29","11","C:/Users/Melissa/OneDrive/Desktop/ADVANCED QUANT/LAB 3.2/MM-subject-2.1.csv","legacy","6 8","Lentiform Loewenfeld","3.3.12","0","n","0","right","left","left","NA","right","1180","14830","7601","NA","1180","2","legacy","2","1024","2","48000","-16","experiment","2","even","9","269176","270282","96428","270284","272486","256863","2410","88826","271285","17241","274487","NA","2406","274487","275668","Sternberg Task","41","27106","42","yes","1024"
"97.67441860465117","97.67441860465117","642.8372093023256","642.8372093023256","black","experiment","legacy","legacy","legacy","0","uniform","1","undefined","1","left","42","42","0","42","42","42","0","0","42","0","42","0","0","42","42","Mon Oct 17 19:52:44 2022","The main experiment item","yes","SternbergTask.osexp","C:\Users\Melissa\OneDrive\Desktop\ADVANCED QUANT\LAB 3.1","no","mono","no","18","no","white","no","no","768","legacy","30","11","C:/Users/Melissa/OneDrive/Desktop/ADVANCED QUANT/LAB 3.2/MM-subject-2.1.csv","legacy","6 2","Lentiform Loewenfeld","3.3.12","1","y","0","left","left","left","NA","left","536","14830","7601","NA","536","2","legacy","2","1024","2","48000","-16","experiment","2","even","6","275675","276767","96428","276769","278971","256863","2410","88826","277770","17241","280972","NA","2406","280972","281509","Sternberg Task","42","27642","43","yes","1024"
"97.72727272727273","97.72727272727273","650.25","650.25","black","experiment","legacy","legacy","legacy","0","uniform","1","undefined","1","left","43","43","0","43","43","43","0","0","43","0","43","0","0","43","43","Mon Oct 17 19:52:44 2022","The main experiment item","yes","SternbergTask.osexp","C:\Users\Melissa\OneDrive\Desktop\ADVANCED QUANT\LAB 3.1","no","mono","no","18","no","white","no","no","768","legacy","31","11","C:/Users/Melissa/OneDrive/Desktop/ADVANCED QUANT/LAB 3.2/MM-subject-2.1.csv","legacy","6 8 9 3 4 9","Lentiform Loewenfeld","3.3.12","5","y","0","left","left","left","NA","left","969","14830","7601","NA","969","2","legacy","6","1024","2","48000","-16","experiment","2","even","4","281516","282608","96428","282610","284812","256863","2410","88826","283611","17241","286813","NA","2406","286813","287783","Sternberg Task","43","28611","44","yes","1024"
"97.77777777777777","97.77777777777777","649.5111111111111","649.5111111111111","black","experiment","legacy","legacy","legacy","0","uniform","1","undefined","1","right","44","44","0","44","44","44","0","0","44","0","44","0","0","44","44","Mon Oct 17 19:52:44 2022","The main experiment item","yes","SternbergTask.osexp","C:\Users\Melissa\OneDrive\Desktop\ADVANCED QUANT\LAB 3.1","no","mono","no","18","no","white","no","no","768","legacy","32","11","C:/Users/Melissa/OneDrive/Desktop/ADVANCED QUANT/LAB 3.2/MM-subject-2.1.csv","legacy","7 4 2 8 1 9","Lentiform Loewenfeld","3.3.12","0","n","0","right","left","left","NA","right","617","14830","7601","NA","617","2","legacy","6","1024","2","48000","-16","experiment","2","even","5","287788","288886","96428","288888","291090","256863","2410","88826","289889","17241","293091","NA","2406","293091","293708","Sternberg Task","44","29228","45","yes","1024"
"97.82608695652173","97.82608695652173","654.4347826086956","654.4347826086956","black","experiment","legacy","legacy","legacy","0","uniform","1","undefined","1","right","45","45","0","45","45","45","0","0","45","0","45","0","0","45","45","Mon Oct 17 19:52:44 2022","The main experiment item","yes","SternbergTask.osexp","C:\Users\Melissa\OneDrive\Desktop\ADVANCED QUANT\LAB 3.1","no","mono","no","18","no","white","no","no","768","legacy","33","11","C:/Users/Melissa/OneDrive/Desktop/ADVANCED QUANT/LAB 3.2/MM-subject-2.1.csv","legacy","1 7 8 3 9","Lentiform Loewenfeld","3.3.12","0","n","0","right","left","left","NA","right","876","14830","7601","NA","876","2","legacy","5","1024","2","48000","-16","experiment","2","even","2","293720","294828","96428","294830","297032","256863","2410","88826","295831","17241","299033","NA","2406","299033","299910","Sternberg Task","45","30104","46","yes","1024"
"97.87234042553192","97.87234042553192","656.5744680851063","656.5744680851063","black","experiment","legacy","legacy","legacy","0","uniform","1","undefined","1","right","46","46","0","46","46","46","0","0","46","0","46","0","0","46","46","Mon Oct 17 19:52:44 2022","The main experiment item","yes","SternbergTask.osexp","C:\Users\Melissa\OneDrive\Desktop\ADVANCED QUANT\LAB 3.1","no","mono","no","18","no","white","no","no","768","legacy","34","11","C:/Users/Melissa/OneDrive/Desktop/ADVANCED QUANT/LAB 3.2/MM-subject-2.1.csv","legacy","5 9 2 3","Lentiform Loewenfeld","3.3.12","0","n","0","right","left","left","NA","right","755","14830","7601","NA","755","2","legacy","4","1024","2","48000","-16","experiment","2","even","8","299917","301020","96428","301022","303224","256863","2410","88826","302023","17241","305225","NA","2406","305225","305981","Sternberg Task","46","30859","47","yes","1024"
"97.91666666666667","97.91666666666667","662.6666666666666","662.6666666666666","black","experiment","legacy","legacy","legacy","0","uniform","1","undefined","1","right","47","47","0","47","47","47","0","0","47","0","47","0","0","47","47","Mon Oct 17 19:52:44 2022","The main experiment item","yes","SternbergTask.osexp","C:\Users\Melissa\OneDrive\Desktop\ADVANCED QUANT\LAB 3.1","no","mono","no","18","no","white","no","no","768","legacy","35","11","C:/Users/Melissa/OneDrive/Desktop/ADVANCED QUANT/LAB 3.2/MM-subject-2.1.csv","legacy","6 9 4 5 3 2","Lentiform Loewenfeld","3.3.12","0","n","0","right","left","left","NA","right","949","14830","7601","NA","949","2","legacy","6","1024","2","48000","-16","experiment","2","even","8","305992","307093","96428","307094","309296","256863","2410","88826","308095","17241","311297","NA","2406","311297","312246","Sternberg Task","47","31808","48","yes","1024"
"97.95918367346938","97.95918367346938","659.469387755102","659.469387755102","black","experiment","legacy","legacy","legacy","0","uniform","1","undefined","1","left","48","48","0","48","48","48","0","0","48","0","48","0","0","48","48","Mon Oct 17 19:52:44 2022","The main experiment item","yes","SternbergTask.osexp","C:\Users\Melissa\OneDrive\Desktop\ADVANCED QUANT\LAB 3.1","no","mono","no","18","no","white","no","no","768","legacy","36","11","C:/Users/Melissa/OneDrive/Desktop/ADVANCED QUANT/LAB 3.2/MM-subject-2.1.csv","legacy","8 9 5 6 7","Lentiform Loewenfeld","3.3.12","1","y","0","left","left","left","NA","left","506","14830","7601","NA","506","2","legacy","5","1024","2","48000","-16","experiment","2","even","8","312259","313370","96428","313372","315574","256863","2410","88826","314373","17241","317575","NA","2406","317575","318082","Sternberg Task","48","32314","49","yes","1024"
"98","98","660.48","660.48","black","experiment","legacy","legacy","legacy","0","uniform","1","undefined","1","left","49","49","0","49","49","49","0","0","49","0","49","0","0","49","49","Mon Oct 17 19:52:44 2022","The main experiment item","yes","SternbergTask.osexp","C:\Users\Melissa\OneDrive\Desktop\ADVANCED QUANT\LAB 3.1","no","mono","no","18","no","white","no","no","768","legacy","37","11","C:/Users/Melissa/OneDrive/Desktop/ADVANCED QUANT/LAB 3.2/MM-subject-2.1.csv","legacy","4 3 2 5 8","Lentiform Loewenfeld","3.3.12","2","y","0","left","left","left","NA","left","710","14830","7601","NA","710","2","legacy","5","1024","2","48000","-16","experiment","2","even","3","318090","319186","96428","319188","321390","256863","2410","88826","320189","17241","323391","NA","2406","323391","324102","Sternberg Task","49","33024","50","yes","1024"
"98.03921568627452","98.03921568627452","658.5490196078431","658.5490196078431","black","experiment","legacy","legacy","legacy","0","uniform","1","undefined","1","left","50","50","0","50","50","50","0","0","50","0","50","0","0","50","50","Mon Oct 17 19:52:44 2022","The main experiment item","yes","SternbergTask.osexp","C:\Users\Melissa\OneDrive\Desktop\ADVANCED QUANT\LAB 3.1","no","mono","no","18","no","white","no","no","768","legacy","38","11","C:/Users/Melissa/OneDrive/Desktop/ADVANCED QUANT/LAB 3.2/MM-subject-2.1.csv","legacy","8 5 1 3 9","Lentiform Loewenfeld","3.3.12","4","y","0","left","left","left","NA","left","562","14830","7601","NA","562","2","legacy","5","1024","2","48000","-16","experiment","2","even","3","324116","325221","96428","325223","327425","256863","2410","88826","326224","17241","329426","NA","2406","329426","329988","Sternberg Task","50","33586","51","yes","1024"
"98.07692307692308","98.07692307692308","656.1730769230769","656.1730769230769","black","experiment","legacy","legacy","legacy","0","uniform","1","undefined","1","right","51","51","0","51","51","51","0","0","51","0","51","0","0","51","51","Mon Oct 17 19:52:44 2022","The main experiment item","yes","SternbergTask.osexp","C:\Users\Melissa\OneDrive\Desktop\ADVANCED QUANT\LAB 3.1","no","mono","no","18","no","white","no","no","768","legacy","39","11","C:/Users/Melissa/OneDrive/Desktop/ADVANCED QUANT/LAB 3.2/MM-subject-2.1.csv","legacy","4 8 1 2","Lentiform Loewenfeld","3.3.12","0","n","0","right","left","left","NA","right","535","14830","7601","NA","535","2","legacy","4","1024","2","48000","-16","experiment","2","even","7","330006","331114","96428","331116","333318","256863","2410","88826","332117","17241","335319","NA","2406","335319","335854","Sternberg Task","51","34121","52","yes","1024"
"98.11320754716981","98.11320754716981","660.188679245283","660.188679245283","black","experiment","legacy","legacy","legacy","0","uniform","1","undefined","1","right","52","52","0","52","52","52","0","0","52","0","52","0","0","52","52","Mon Oct 17 19:52:44 2022","The main experiment item","yes","SternbergTask.osexp","C:\Users\Melissa\OneDrive\Desktop\ADVANCED QUANT\LAB 3.1","no","mono","no","18","no","white","no","no","768","legacy","40","11","C:/Users/Melissa/OneDrive/Desktop/ADVANCED QUANT/LAB 3.2/MM-subject-2.1.csv","legacy","6 9 5","Lentiform Loewenfeld","3.3.12","0","n","0","right","left","left","NA","right","869","14830","7601","NA","869","2","legacy","3","1024","2","48000","-16","experiment","2","even","8","335865","336962","96428","336964","339166","256863","2410","88826","337965","17241","341167","NA","2406","341167","342037","Sternberg Task","52","34990","53","yes","1024"
"98.14814814814815","98.14814814814815","662.9629629629629","662.9629629629629","black","experiment","legacy","legacy","legacy","0","uniform","1","undefined","1","right","53","53","0","53","53","53","0","0","53","0","53","0","0","53","53","Mon Oct 17 19:52:44 2022","The main experiment item","yes","SternbergTask.osexp","C:\Users\Melissa\OneDrive\Desktop\ADVANCED QUANT\LAB 3.1","no","mono","no","18","no","white","no","no","768","legacy","41","11","C:/Users/Melissa/OneDrive/Desktop/ADVANCED QUANT/LAB 3.2/MM-subject-2.1.csv","legacy","1 4 9 3","Lentiform Loewenfeld","3.3.12","0","n","0","right","left","left","NA","right","810","14830","7601","NA","810","2","legacy","4","1024","2","48000","-16","experiment","2","even","5","342044","343145","96428","343147","345349","256863","2410","88826","344148","17241","347351","NA","2406","347351","348161","Sternberg Task","53","35800","54","yes","1024"
"98.18181818181819","98.18181818181819","661.7636363636364","661.7636363636364","black","experiment","legacy","legacy","legacy","0","uniform","1","undefined","1","right","54","54","0","54","54","54","0","0","54","0","54","0","0","54","54","Mon Oct 17 19:52:44 2022","The main experiment item","yes","SternbergTask.osexp","C:\Users\Melissa\OneDrive\Desktop\ADVANCED QUANT\LAB 3.1","no","mono","no","18","no","white","no","no","768","legacy","42","11","C:/Users/Melissa/OneDrive/Desktop/ADVANCED QUANT/LAB 3.2/MM-subject-2.1.csv","legacy","5 2","Lentiform Loewenfeld","3.3.12","0","n","0","right","left","left","NA","right","597","14830","7601","NA","597","2","legacy","2","1024","2","48000","-16","experiment","2","even","7","348165","349256","96428","349258","351460","256863","2410","88826","350259","17241","353461","NA","2406","353461","354059","Sternberg Task","54","36397","55","yes","1024"
"98.21428571428571","98.21428571428571","660.2142857142857","660.2142857142857","black","experiment","legacy","legacy","legacy","0","uniform","1","undefined","1","right","55","55","0","55","55","55","0","0","55","0","55","0","0","55","55","Mon Oct 17 19:52:44 2022","The main experiment item","yes","SternbergTask.osexp","C:\Users\Melissa\OneDrive\Desktop\ADVANCED QUANT\LAB 3.1","no","mono","no","18","no","white","no","no","768","legacy","43","11","C:/Users/Melissa/OneDrive/Desktop/ADVANCED QUANT/LAB 3.2/MM-subject-2.1.csv","legacy","7 1 8 4 9 3","Lentiform Loewenfeld","3.3.12","0","n","0","right","left","left","NA","right","575","14830","7601","NA","575","2","legacy","6","1024","2","48000","-16","experiment","2","even","6","354068","355167","96428","355169","357371","256863","2410","88826","356170","17241","359372","NA","2406","359372","359948","Sternberg Task","55","36972","56","yes","1024"
"98.24561403508773","98.24561403508773","660.0701754385965","660.0701754385965","black","experiment","legacy","legacy","legacy","0","uniform","1","undefined","1","left","56","56","0","56","56","56","0","0","56","0","56","0","0","56","56","Mon Oct 17 19:52:44 2022","The main experiment item","yes","SternbergTask.osexp","C:\Users\Melissa\OneDrive\Desktop\ADVANCED QUANT\LAB 3.1","no","mono","no","18","no","white","no","no","768","legacy","44","11","C:/Users/Melissa/OneDrive/Desktop/ADVANCED QUANT/LAB 3.2/MM-subject-2.1.csv","legacy","5 2 9 6 1 7","Lentiform Loewenfeld","3.3.12","3","y","0","left","left","left","NA","left","652","14830","7601","NA","652","2","legacy","6","1024","2","48000","-16","experiment","2","even","9","359953","361057","96428","361059","363261","256863","2410","88826","362060","17241","365262","NA","2406","365262","365915","Sternberg Task","56","37624","57","yes","1024"
"98.27586206896552","98.27586206896552","660.1034482758621","660.1034482758621","black","experiment","legacy","legacy","legacy","0","uniform","1","undefined","1","right","57","57","0","57","57","57","0","0","57","0","57","0","0","57","57","Mon Oct 17 19:52:44 2022","The main experiment item","yes","SternbergTask.osexp","C:\Users\Melissa\OneDrive\Desktop\ADVANCED QUANT\LAB 3.1","no","mono","no","18","no","white","no","no","768","legacy","45","11","C:/Users/Melissa/OneDrive/Desktop/ADVANCED QUANT/LAB 3.2/MM-subject-2.1.csv","legacy","1 6 4","Lentiform Loewenfeld","3.3.12","0","n","0","right","left","left","NA","right","662","14830","7601","NA","662","2","legacy","3","1024","2","48000","-16","experiment","2","even","7","365921","367039","96428","367041","369243","256863","2410","88826","368042","17241","371244","NA","2406","371244","371907","Sternberg Task","57","38286","58","yes","1024"
"98.30508474576271","98.30508474576271","660.7457627118644","660.7457627118644","black","experiment","legacy","legacy","legacy","0","uniform","1","undefined","1","right","58","58","0","58","58","58","0","0","58","0","58","0","0","58","58","Mon Oct 17 19:52:44 2022","The main experiment item","yes","SternbergTask.osexp","C:\Users\Melissa\OneDrive\Desktop\ADVANCED QUANT\LAB 3.1","no","mono","no","18","no","white","no","no","768","legacy","46","11","C:/Users/Melissa/OneDrive/Desktop/ADVANCED QUANT/LAB 3.2/MM-subject-2.1.csv","legacy","8 6 3 4 7","Lentiform Loewenfeld","3.3.12","0","n","0","right","left","left","NA","right","698","14830","7601","NA","698","2","legacy","5","1024","2","48000","-16","experiment","2","even","1","371916","373036","96428","373038","375241","256863","2410","88826","374039","17241","377242","NA","2406","377243","377942","Sternberg Task","58","38984","59","yes","1024"
"98.33333333333333","98.33333333333333","661.3","661.3","black","experiment","legacy","legacy","legacy","0","uniform","1","undefined","1","right","59","59","0","59","59","59","0","0","59","0","59","0","0","59","59","Mon Oct 17 19:52:44 2022","The main experiment item","yes","SternbergTask.osexp","C:\Users\Melissa\OneDrive\Desktop\ADVANCED QUANT\LAB 3.1","no","mono","no","18","no","white","no","no","768","legacy","47","11","C:/Users/Melissa/OneDrive/Desktop/ADVANCED QUANT/LAB 3.2/MM-subject-2.1.csv","legacy","1 8 7","Lentiform Loewenfeld","3.3.12","0","n","0","right","left","left","NA","right","694","14830","7601","NA","694","2","legacy","3","1024","2","48000","-16","experiment","2","even","4","377958","379074","96428","379076","381278","256863","2410","88826","380077","17241","383279","NA","2406","383279","383974","Sternberg Task","59","39678","60","yes","1024"
"98.36065573770492","98.36065573770492","656.5901639344262","656.5901639344262","black","experiment","legacy","legacy","legacy","0","uniform","1","undefined","1","left","60","60","0","60","60","60","0","0","60","0","60","0","0","60","60","Mon Oct 17 19:52:44 2022","The main experiment item","yes","SternbergTask.osexp","C:\Users\Melissa\OneDrive\Desktop\ADVANCED QUANT\LAB 3.1","no","mono","no","18","no","white","no","no","768","legacy","48","11","C:/Users/Melissa/OneDrive/Desktop/ADVANCED QUANT/LAB 3.2/MM-subject-2.1.csv","legacy","8 7 3","Lentiform Loewenfeld","3.3.12","1","y","0","left","left","left","NA","left","374","14830","7601","NA","374","2","legacy","3","1024","2","48000","-16","experiment","2","even","8","383985","385104","96428","385107","387309","256863","2410","88826","386108","17241","389310","NA","2406","389310","389685","Sternberg Task","60","40052","61","yes","1024"
"98.38709677419355","98.38709677419355","653.7258064516129","653.7258064516129","black","experiment","legacy","legacy","legacy","0","uniform","1","undefined","1","right","61","61","0","61","61","61","0","0","61","0","61","0","0","61","61","Mon Oct 17 19:52:44 2022","The main experiment item","yes","SternbergTask.osexp","C:\Users\Melissa\OneDrive\Desktop\ADVANCED QUANT\LAB 3.1","no","mono","no","18","no","white","no","no","768","legacy","49","11","C:/Users/Melissa/OneDrive/Desktop/ADVANCED QUANT/LAB 3.2/MM-subject-2.1.csv","legacy","1 3 2 6 9","Lentiform Loewenfeld","3.3.12","0","n","0","right","left","left","NA","right","479","14830","7601","NA","479","2","legacy","5","1024","2","48000","-16","experiment","2","even","5","389690","390810","96428","390812","393014","256863","2410","88826","391813","17241","395015","NA","2406","395015","395495","Sternberg Task","61","40531","62","yes","1024"
"98.41269841269842","98.41269841269842","653.984126984127","653.984126984127","black","experiment","legacy","legacy","legacy","0","uniform","1","undefined","1","left","62","62","0","62","62","62","0","0","62","0","62","0","0","62","62","Mon Oct 17 19:52:44 2022","The main experiment item","yes","SternbergTask.osexp","C:\Users\Melissa\OneDrive\Desktop\ADVANCED QUANT\LAB 3.1","no","mono","no","18","no","white","no","no","768","legacy","50","11","C:/Users/Melissa/OneDrive/Desktop/ADVANCED QUANT/LAB 3.2/MM-subject-2.1.csv","legacy","6 7 9 3 1 2","Lentiform Loewenfeld","3.3.12","1","y","0","left","left","left","NA","left","670","14830","7601","NA","670","2","legacy","6","1024","2","48000","-16","experiment","2","even","6","395501","396606","96428","396608","398810","256863","2410","88826","397609","17241","400811","NA","2406","400811","401482","Sternberg Task","62","41201","63","yes","1024"
"98.4375","98.4375","649.515625","649.515625","black","experiment","legacy","legacy","legacy","0","uniform","1","undefined","1","left","63","63","0","63","63","63","0","0","63","0","63","0","0","63","63","Mon Oct 17 19:52:44 2022","The main experiment item","yes","SternbergTask.osexp","C:\Users\Melissa\OneDrive\Desktop\ADVANCED QUANT\LAB 3.1","no","mono","no","18","no","white","no","no","768","legacy","51","11","C:/Users/Melissa/OneDrive/Desktop/ADVANCED QUANT/LAB 3.2/MM-subject-2.1.csv","legacy","3 4","Lentiform Loewenfeld","3.3.12","1","y","0","left","left","left","NA","left","368","14830","7601","NA","368","2","legacy","2","1024","2","48000","-16","experiment","2","even","3","401488","402600","96428","402602","404804","256863","2410","88826","403603","17241","406806","NA","2406","406806","407175","Sternberg Task","63","41569","64","yes","1024"
"98.46153846153847","98.46153846153847","650.5384615384615","650.5384615384615","black","experiment","legacy","legacy","legacy","0","uniform","1","undefined","1","right","64","64","0","64","64","64","0","0","64","0","64","0","0","64","64","Mon Oct 17 19:52:44 2022","The main experiment item","yes","SternbergTask.osexp","C:\Users\Melissa\OneDrive\Desktop\ADVANCED QUANT\LAB 3.1","no","mono","no","18","no","white","no","no","768","legacy","52","11","C:/Users/Melissa/OneDrive/Desktop/ADVANCED QUANT/LAB 3.2/MM-subject-2.1.csv","legacy","9 7 4 5 8","Lentiform Loewenfeld","3.3.12","0","n","0","right","left","left","NA","right","716","14830","7601","NA","716","2","legacy","5","1024","2","48000","-16","experiment","2","even","6","407182","408293","96428","408294","410496","256863","2410","88826","409295","17241","412497","NA","2406","412497","413213","Sternberg Task","64","42285","65","yes","1024"
"98.48484848484848","98.48484848484848","651.1818181818181","651.1818181818181","black","experiment","legacy","legacy","legacy","0","uniform","1","undefined","1","right","65","65","0","65","65","65","0","0","65","0","65","0","0","65","65","Mon Oct 17 19:52:44 2022","The main experiment item","yes","SternbergTask.osexp","C:\Users\Melissa\OneDrive\Desktop\ADVANCED QUANT\LAB 3.1","no","mono","no","18","no","white","no","no","768","legacy","53","11","C:/Users/Melissa/OneDrive/Desktop/ADVANCED QUANT/LAB 3.2/MM-subject-2.1.csv","legacy","5 3 2 6 9 8","Lentiform Loewenfeld","3.3.12","0","n","0","right","left","left","NA","right","693","14830","7601","NA","693","2","legacy","6","1024","2","48000","-16","experiment","2","even","4","413218","414325","96428","414327","416530","256863","2410","88826","415329","17241","418536","NA","2406","418536","419230","Sternberg Task","65","42978","66","yes","1024"
"98.50746268656717","98.50746268656717","651.0149253731344","651.0149253731344","black","experiment","legacy","legacy","legacy","0","uniform","1","undefined","1","left","66","66","0","66","66","66","0","0","66","0","66","0","0","66","66","Mon Oct 17 19:52:44 2022","The main experiment item","yes","SternbergTask.osexp","C:\Users\Melissa\OneDrive\Desktop\ADVANCED QUANT\LAB 3.1","no","mono","no","18","no","white","no","no","768","legacy","54","11","C:/Users/Melissa/OneDrive/Desktop/ADVANCED QUANT/LAB 3.2/MM-subject-2.1.csv","legacy","3 4 9 6 2 9","Lentiform Loewenfeld","3.3.12","5","y","0","left","left","left","NA","left","640","14830","7601","NA","640","2","legacy","6","1024","2","48000","-16","experiment","2","even","2","419238","420332","96428","420333","422539","256863","2410","88826","421334","17241","424540","NA","2406","424540","425181","Sternberg Task","66","43618","67","yes","1024"
"98.52941176470588","98.52941176470588","649.3382352941177","649.3382352941177","black","experiment","legacy","legacy","legacy","0","uniform","1","undefined","1","right","67","67","0","67","67","67","0","0","67","0","67","0","0","67","67","Mon Oct 17 19:52:44 2022","The main experiment item","yes","SternbergTask.osexp","C:\Users\Melissa\OneDrive\Desktop\ADVANCED QUANT\LAB 3.1","no","mono","no","18","no","white","no","no","768","legacy","55","11","C:/Users/Melissa/OneDrive/Desktop/ADVANCED QUANT/LAB 3.2/MM-subject-2.1.csv","legacy","7 1","Lentiform Loewenfeld","3.3.12","0","n","0","right","left","left","NA","right","537","14830","7601","NA","537","2","legacy","2","1024","2","48000","-16","experiment","2","even","8","425187","426281","96428","426282","428490","256863","2410","88826","427284","17241","430496","NA","2406","430496","431034","Sternberg Task","67","44155","68","yes","1024"
"98.55072463768116","98.55072463768116","650.0289855072464","650.0289855072464","black","experiment","legacy","legacy","legacy","0","uniform","1","undefined","1","right","68","68","0","68","68","68","0","0","68","0","68","0","0","68","68","Mon Oct 17 19:52:44 2022","The main experiment item","yes","SternbergTask.osexp","C:\Users\Melissa\OneDrive\Desktop\ADVANCED QUANT\LAB 3.1","no","mono","no","18","no","white","no","no","768","legacy","56","11","C:/Users/Melissa/OneDrive/Desktop/ADVANCED QUANT/LAB 3.2/MM-subject-2.1.csv","legacy","1 4 3 6 5","Lentiform Loewenfeld","3.3.12","0","n","0","right","left","left","NA","right","697","14830","7601","NA","697","2","legacy","5","1024","2","48000","-16","experiment","2","even","8","431039","432139","96428","432141","434348","256863","2410","88826","433142","17241","436352","NA","2406","436352","437050","Sternberg Task","68","44852","69","yes","1024"
"98.57142857142857","98.57142857142857","649.5571428571428","649.5571428571428","black","experiment","legacy","legacy","legacy","0","uniform","1","undefined","1","right","69","69","0","69","69","69","0","0","69","0","69","0","0","69","69","Mon Oct 17 19:52:44 2022","The main experiment item","yes","SternbergTask.osexp","C:\Users\Melissa\OneDrive\Desktop\ADVANCED QUANT\LAB 3.1","no","mono","no","18","no","white","no","no","768","legacy","57","11","C:/Users/Melissa/OneDrive/Desktop/ADVANCED QUANT/LAB 3.2/MM-subject-2.1.csv","legacy","8 4 3 5","Lentiform Loewenfeld","3.3.12","0","n","0","right","left","left","NA","right","617","14830","7601","NA","617","2","legacy","4","1024","2","48000","-16","experiment","2","even","6","437056","438157","96428","438158","440366","256863","2410","88826","439159","17241","442367","NA","2406","442367","442985","Sternberg Task","69","45469","70","yes","1024"
"97.1830985915493","97.1830985915493","651.2112676056338","651.2112676056338","black","experiment","legacy","legacy","legacy","0","uniform","0","undefined","0","right","70","70","0","70","70","70","0","0","70","0","70","0","0","70","70","Mon Oct 17 19:52:44 2022","The main experiment item","yes","SternbergTask.osexp","C:\Users\Melissa\OneDrive\Desktop\ADVANCED QUANT\LAB 3.1","no","mono","no","18","no","white","no","no","768","legacy","58","11","C:/Users/Melissa/OneDrive/Desktop/ADVANCED QUANT/LAB 3.2/MM-subject-2.1.csv","legacy","3 9 1","Lentiform Loewenfeld","3.3.12","0","n","0","left","left","left","NA","left","767","14830","7601","NA","767","2","legacy","3","1024","2","48000","-16","experiment","2","even","7","442992","444090","96428","444092","446298","256863","2410","88826","445093","17241","448300","NA","2406","448300","449069","Sternberg Task","69","46236","71","yes","1024"
"97.22222222222223","97.22222222222223","656.5416666666666","656.5416666666666","black","experiment","legacy","legacy","legacy","0","uniform","1","undefined","1","left","71","71","0","71","71","71","0","0","71","0","71","0","0","71","71","Mon Oct 17 19:52:44 2022","The main experiment item","yes","SternbergTask.osexp","C:\Users\Melissa\OneDrive\Desktop\ADVANCED QUANT\LAB 3.1","no","mono","no","18","no","white","no","no","768","legacy","59","11","C:/Users/Melissa/OneDrive/Desktop/ADVANCED QUANT/LAB 3.2/MM-subject-2.1.csv","legacy","4 1 8 7 5","Lentiform Loewenfeld","3.3.12","3","y","0","left","left","left","NA","left","1035","14830","7601","NA","1035","2","legacy","5","1024","2","48000","-16","experiment","2","even","8","442992","450181","96428","450183","452391","449083","2410","88826","451185","17241","454394","NA","2406","454394","455430","Sternberg Task","70","47271","72","yes","1024"
"97.26027397260275","97.26027397260275","657.6027397260274","657.6027397260274","black","experiment","legacy","legacy","legacy","0","uniform","1","undefined","1","left","72","72","0","72","72","72","0","0","72","0","72","0","0","72","72","Mon Oct 17 19:52:44 2022","The main experiment item","yes","SternbergTask.osexp","C:\Users\Melissa\OneDrive\Desktop\ADVANCED QUANT\LAB 3.1","no","mono","no","18","no","white","no","no","768","legacy","60","11","C:/Users/Melissa/OneDrive/Desktop/ADVANCED QUANT/LAB 3.2/MM-subject-2.1.csv","legacy","2 5 4 8 7","Lentiform Loewenfeld","3.3.12","3","y","0","left","left","left","NA","left","734","14830","7601","NA","734","2","legacy","5","1024","2","48000","-16","experiment","2","even","4","455437","456547","96428","456549","458752","449083","2410","88826","457550","17241","460752","NA","2406","460752","461487","Sternberg Task","71","48005","73","yes","1024"
"97.29729729729729","97.29729729729729","654.5405405405405","654.5405405405405","black","experiment","legacy","legacy","legacy","0","uniform","1","undefined","1","right","73","73","0","73","73","73","0","0","73","0","73","0","0","73","73","Mon Oct 17 19:52:44 2022","The main experiment item","yes","SternbergTask.osexp","C:\Users\Melissa\OneDrive\Desktop\ADVANCED QUANT\LAB 3.1","no","mono","no","18","no","white","no","no","768","legacy","61","11","C:/Users/Melissa/OneDrive/Desktop/ADVANCED QUANT/LAB 3.2/MM-subject-2.1.csv","legacy","5","Lentiform Loewenfeld","3.3.12","0","n","0","right","left","left","NA","right","431","14830","7601","NA","431","2","legacy","1","1024","2","48000","-16","experiment","2","even","8","461498","462596","96428","462598","464803","449083","2410","88826","463599","17241","466805","NA","2406","466805","467237","Sternberg Task","72","48436","74","yes","1024"
"96","96","672.48","672.48","black","experiment","legacy","legacy","legacy","0","uniform","0","undefined","0","right","74","74","0","74","74","74","0","0","74","0","74","0","0","74","74","Mon Oct 17 19:52:44 2022","The main experiment item","yes","SternbergTask.osexp","C:\Users\Melissa\OneDrive\Desktop\ADVANCED QUANT\LAB 3.1","no","mono","no","18","no","white","no","no","768","legacy","62","11","C:/Users/Melissa/OneDrive/Desktop/ADVANCED QUANT/LAB 3.2/MM-subject-2.1.csv","legacy","2 5 1 4","Lentiform Loewenfeld","3.3.12","0","n","0","None","left","left","NA","None","2000","14830","7601","NA","2000","2","legacy","4","1024","2","48000","-16","experiment","2","even","6","467245","468349","96428","468350","470558","449083","2410","88826","469353","17241","472559","NA","2406","472559","474559","Sternberg Task","72","50436","75","yes","1024"
"96.05263157894737","96.05263157894737","671.2236842105264","671.2236842105264","black","experiment","legacy","legacy","legacy","0","uniform","1","undefined","1","left","75","75","0","75","75","75","0","0","75","0","75","0","0","75","75","Mon Oct 17 19:52:44 2022","The main experiment item","yes","SternbergTask.osexp","C:\Users\Melissa\OneDrive\Desktop\ADVANCED QUANT\LAB 3.1","no","mono","no","18","no","white","no","no","768","legacy","63","11","C:/Users/Melissa/OneDrive/Desktop/ADVANCED QUANT/LAB 3.2/MM-subject-2.1.csv","legacy","5 7 8 2 3 8","Lentiform Loewenfeld","3.3.12","5","y","0","left","left","left","NA","left","577","14830","7601","NA","577","2","legacy","6","1024","2","48000","-16","experiment","2","even","3","467245","475695","96428","475698","477903","474565","2410","88826","476699","17241","479909","NA","2406","479909","480487","Sternberg Task","73","51013","76","yes","1024"
"96.1038961038961","96.1038961038961","675.6233766233767","675.6233766233767","black","experiment","legacy","legacy","legacy","0","uniform","1","undefined","1","left","76","76","0","76","76","76","0","0","76","0","76","0","0","76","76","Mon Oct 17 19:52:44 2022","The main experiment item","yes","SternbergTask.osexp","C:\Users\Melissa\OneDrive\Desktop\ADVANCED QUANT\LAB 3.1","no","mono","no","18","no","white","no","no","768","legacy","64","11","C:/Users/Melissa/OneDrive/Desktop/ADVANCED QUANT/LAB 3.2/MM-subject-2.1.csv","legacy","3 5 7 1","Lentiform Loewenfeld","3.3.12","3","y","0","left","left","left","NA","left","1010","14830","7601","NA","1010","2","legacy","4","1024","2","48000","-16","experiment","2","even","7","480493","481593","96428","481595","483802","474565","2410","88826","482597","17241","485803","NA","2406","485803","486814","Sternberg Task","74","52023","77","yes","1024"
"96.15384615384616","96.15384615384616","674.6153846153846","674.6153846153846","black","experiment","legacy","legacy","legacy","0","uniform","1","undefined","1","left","77","77","0","77","77","77","0","0","77","0","77","0","0","77","77","Mon Oct 17 19:52:44 2022","The main experiment item","yes","SternbergTask.osexp","C:\Users\Melissa\OneDrive\Desktop\ADVANCED QUANT\LAB 3.1","no","mono","no","18","no","white","no","no","768","legacy","65","11","C:/Users/Melissa/OneDrive/Desktop/ADVANCED QUANT/LAB 3.2/MM-subject-2.1.csv","legacy","7 8 6 3 1","Lentiform Loewenfeld","3.3.12","5","y","0","left","left","left","NA","left","597","14830","7601","NA","597","2","legacy","5","1024","2","48000","-16","experiment","2","even","1","486821","487936","96428","487939","490145","474565","2410","88826","488940","17241","492146","NA","2406","492146","492743","Sternberg Task","75","52620","78","yes","1024"
"96.20253164556962","96.20253164556962","674.2784810126582","674.2784810126582","black","experiment","legacy","legacy","legacy","0","uniform","1","undefined","1","right","78","78","0","78","78","78","0","0","78","0","78","0","0","78","78","Mon Oct 17 19:52:44 2022","The main experiment item","yes","SternbergTask.osexp","C:\Users\Melissa\OneDrive\Desktop\ADVANCED QUANT\LAB 3.1","no","mono","no","18","no","white","no","no","768","legacy","66","11","C:/Users/Melissa/OneDrive/Desktop/ADVANCED QUANT/LAB 3.2/MM-subject-2.1.csv","legacy","8 2 1 4 5 9","Lentiform Loewenfeld","3.3.12","0","n","0","right","left","left","NA","right","648","14830","7601","NA","648","2","legacy","6","1024","2","48000","-16","experiment","2","even","7","492748","493843","96428","493844","496051","474565","2410","88826","494845","17241","498052","NA","2406","498052","498701","Sternberg Task","76","53268","79","yes","1024"
"96.25","96.25","676.95","676.95","black","experiment","legacy","legacy","legacy","0","uniform","1","undefined","1","right","79","79","0","79","79","79","0","0","79","0","79","0","0","79","79","Mon Oct 17 19:52:44 2022","The main experiment item","yes","SternbergTask.osexp","C:\Users\Melissa\OneDrive\Desktop\ADVANCED QUANT\LAB 3.1","no","mono","no","18","no","white","no","no","768","legacy","67","11","C:/Users/Melissa/OneDrive/Desktop/ADVANCED QUANT/LAB 3.2/MM-subject-2.1.csv","legacy","4 2 7 6 1 3","Lentiform Loewenfeld","3.3.12","0","n","0","right","left","left","NA","right","888","14830","7601","NA","888","2","legacy","6","1024","2","48000","-16","experiment","2","even","8","498707","499802","96428","499804","502010","474565","2410","88826","500805","17241","504011","NA","2406","504011","504900","Sternberg Task","77","54156","80","yes","1024"
"96.29629629629629","96.29629629629629","676.8148148148148","676.8148148148148","black","experiment","legacy","legacy","legacy","0","uniform","1","undefined","1","right","80","80","0","80","80","80","0","0","80","0","80","0","0","80","80","Mon Oct 17 19:52:44 2022","The main experiment item","yes","SternbergTask.osexp","C:\Users\Melissa\OneDrive\Desktop\ADVANCED QUANT\LAB 3.1","no","mono","no","18","no","white","no","no","768","legacy","68","11","C:/Users/Melissa/OneDrive/Desktop/ADVANCED QUANT/LAB 3.2/MM-subject-2.1.csv","legacy","6 3 1 7 9 8","Lentiform Loewenfeld","3.3.12","0","n","0","right","left","left","NA","right","666","14830","7601","NA","666","2","legacy","6","1024","2","48000","-16","experiment","2","even","4","504914","506013","96428","506015","508222","474565","2410","88826","507016","17241","510223","NA","2406","510223","510890","Sternberg Task","78","54822","81","yes","1024"
"96.34146341463415","96.34146341463415","678.8780487804878","678.8780487804878","black","experiment","legacy","legacy","legacy","0","uniform","1","undefined","1","left","81","81","0","81","81","81","0","0","81","0","81","0","0","81","81","Mon Oct 17 19:52:44 2022","The main experiment item","yes","SternbergTask.osexp","C:\Users\Melissa\OneDrive\Desktop\ADVANCED QUANT\LAB 3.1","no","mono","no","18","no","white","no","no","768","legacy","69","11","C:/Users/Melissa/OneDrive/Desktop/ADVANCED QUANT/LAB 3.2/MM-subject-2.1.csv","legacy","9 3 8 2 1 4","Lentiform Loewenfeld","3.3.12","3","y","0","left","left","left","NA","left","846","14830","7601","NA","846","2","legacy","6","1024","2","48000","-16","experiment","2","even","8","510896","511990","96428","511991","514197","474565","2410","88826","512992","17241","516199","NA","2406","516199","517046","Sternberg Task","79","55668","82","yes","1024"
"96.3855421686747","96.3855421686747","676.4457831325301","676.4457831325301","black","experiment","legacy","legacy","legacy","0","uniform","1","undefined","1","left","82","82","0","82","82","82","0","0","82","0","82","0","0","82","82","Mon Oct 17 19:52:44 2022","The main experiment item","yes","SternbergTask.osexp","C:\Users\Melissa\OneDrive\Desktop\ADVANCED QUANT\LAB 3.1","no","mono","no","18","no","white","no","no","768","legacy","70","11","C:/Users/Melissa/OneDrive/Desktop/ADVANCED QUANT/LAB 3.2/MM-subject-2.1.csv","legacy","7 1 3","Lentiform Loewenfeld","3.3.12","2","y","0","left","left","left","NA","left","477","14830","7601","NA","477","2","legacy","3","1024","2","48000","-16","experiment","2","even","1","517052","518170","96428","518172","520380","474565","2410","88826","519174","17241","522381","NA","2406","522381","522859","Sternberg Task","80","56145","83","yes","1024"
"96.42857142857143","96.42857142857143","675.452380952381","675.452380952381","black","experiment","legacy","legacy","legacy","0","uniform","1","undefined","1","right","83","83","0","83","83","83","0","0","83","0","83","0","0","83","83","Mon Oct 17 19:52:44 2022","The main experiment item","yes","SternbergTask.osexp","C:\Users\Melissa\OneDrive\Desktop\ADVANCED QUANT\LAB 3.1","no","mono","no","18","no","white","no","no","768","legacy","71","11","C:/Users/Melissa/OneDrive/Desktop/ADVANCED QUANT/LAB 3.2/MM-subject-2.1.csv","legacy","2 8 9","Lentiform Loewenfeld","3.3.12","0","n","0","right","left","left","NA","right","593","14830","7601","NA","593","2","legacy","3","1024","2","48000","-16","experiment","2","even","6","522875","523981","96428","523983","526186","474565","2410","88826","524985","17241","528187","NA","2406","528187","528781","Sternberg Task","81","56738","84","yes","1024"
"96.47058823529412","96.47058823529412","672.5882352941177","672.5882352941177","black","experiment","legacy","legacy","legacy","0","uniform","1","undefined","1","left","84","84","0","84","84","84","0","0","84","0","84","0","0","84","84","Mon Oct 17 19:52:44 2022","The main experiment item","yes","SternbergTask.osexp","C:\Users\Melissa\OneDrive\Desktop\ADVANCED QUANT\LAB 3.1","no","mono","no","18","no","white","no","no","768","legacy","72","11","C:/Users/Melissa/OneDrive/Desktop/ADVANCED QUANT/LAB 3.2/MM-subject-2.1.csv","legacy","2 4 6 9","Lentiform Loewenfeld","3.3.12","3","y","0","left","left","left","NA","left","432","14830","7601","NA","432","2","legacy","4","1024","2","48000","-16","experiment","2","even","6","528786","529879","96428","529881","532089","474565","2410","88826","530885","17241","534095","NA","2406","534095","534528","Sternberg Task","82","57170","85","yes","1024"
"96.51162790697674","96.51162790697674","673.0116279069767","673.0116279069767","black","experiment","legacy","legacy","legacy","0","uniform","1","undefined","1","left","85","85","0","85","85","85","0","0","85","0","85","0","0","85","85","Mon Oct 17 19:52:44 2022","The main experiment item","yes","SternbergTask.osexp","C:\Users\Melissa\OneDrive\Desktop\ADVANCED QUANT\LAB 3.1","no","mono","no","18","no","white","no","no","768","legacy","73","11","C:/Users/Melissa/OneDrive/Desktop/ADVANCED QUANT/LAB 3.2/MM-subject-2.1.csv","legacy","4 7 6 8 2 3","Lentiform Loewenfeld","3.3.12","6","y","0","left","left","left","NA","left","709","14830","7601","NA","709","2","legacy","6","1024","2","48000","-16","experiment","2","even","3","534534","535625","96428","535627","537833","474565","2410","88826","536628","17241","539835","NA","2406","539835","540545","Sternberg Task","83","57879","86","yes","1024"
"96.55172413793103","96.55172413793103","674.8045977011494","674.8045977011494","black","experiment","legacy","legacy","legacy","0","uniform","1","undefined","1","right","86","86","0","86","86","86","0","0","86","0","86","0","0","86","86","Mon Oct 17 19:52:44 2022","The main experiment item","yes","SternbergTask.osexp","C:\Users\Melissa\OneDrive\Desktop\ADVANCED QUANT\LAB 3.1","no","mono","no","18","no","white","no","no","768","legacy","74","11","C:/Users/Melissa/OneDrive/Desktop/ADVANCED QUANT/LAB 3.2/MM-subject-2.1.csv","legacy","2 6 4 3 9","Lentiform Loewenfeld","3.3.12","0","n","0","right","left","left","NA","right","829","14830","7601","NA","829","2","legacy","5","1024","2","48000","-16","experiment","2","even","1","540552","541644","96428","541646","543852","474565","2410","88826","542647","17241","545853","NA","2406","545853","546683","Sternberg Task","84","58708","87","yes","1024"
"96.5909090909091","96.5909090909091","672.0227272727273","672.0227272727273","black","experiment","legacy","legacy","legacy","0","uniform","1","undefined","1","left","87","87","0","87","87","87","0","0","87","0","87","0","0","87","87","Mon Oct 17 19:52:44 2022","The main experiment item","yes","SternbergTask.osexp","C:\Users\Melissa\OneDrive\Desktop\ADVANCED QUANT\LAB 3.1","no","mono","no","18","no","white","no","no","768","legacy","75","11","C:/Users/Melissa/OneDrive/Desktop/ADVANCED QUANT/LAB 3.2/MM-subject-2.1.csv","legacy","3 5 9 6 2 4","Lentiform Loewenfeld","3.3.12","1","y","0","left","left","left","NA","left","430","14830","7601","NA","430","2","legacy","6","1024","2","48000","-16","experiment","2","even","3","546690","547782","96428","547784","549991","474565","2410","88826","548785","17241","551996","NA","2406","551997","552428","Sternberg Task","85","59138","88","yes","1024"
"96.62921348314607","96.62921348314607","674.8314606741573","674.8314606741573","black","experiment","legacy","legacy","legacy","0","uniform","1","undefined","1","left","88","88","0","88","88","88","0","0","88","0","88","0","0","88","88","Mon Oct 17 19:52:44 2022","The main experiment item","yes","SternbergTask.osexp","C:\Users\Melissa\OneDrive\Desktop\ADVANCED QUANT\LAB 3.1","no","mono","no","18","no","white","no","no","768","legacy","76","11","C:/Users/Melissa/OneDrive/Desktop/ADVANCED QUANT/LAB 3.2/MM-subject-2.1.csv","legacy","3 2 1 4 7","Lentiform Loewenfeld","3.3.12","2","y","0","left","left","left","NA","left","922","14830","7601","NA","922","2","legacy","5","1024","2","48000","-16","experiment","2","even","2","552444","553538","96428","553540","555745","474565","2410","88826","554541","17241","557746","NA","2406","557746","558669","Sternberg Task","86","60060","89","yes","1024"
"96.66666666666667","96.66666666666667","681.9555555555555","681.9555555555555","black","experiment","legacy","legacy","legacy","0","uniform","1","undefined","1","left","89","89","0","89","89","89","0","0","89","0","89","0","0","89","89","Mon Oct 17 19:52:44 2022","The main experiment item","yes","SternbergTask.osexp","C:\Users\Melissa\OneDrive\Desktop\ADVANCED QUANT\LAB 3.1","no","mono","no","18","no","white","no","no","768","legacy","77","11","C:/Users/Melissa/OneDrive/Desktop/ADVANCED QUANT/LAB 3.2/MM-subject-2.1.csv","legacy","4 6 5 8","Lentiform Loewenfeld","3.3.12","1","y","0","left","left","left","NA","left","1316","14830","7601","NA","1316","2","legacy","4","1024","2","48000","-16","experiment","2","even","4","558678","559774","96428","559777","561984","474565","2410","88826","560778","17241","563985","NA","2406","563985","565302","Sternberg Task","87","61376","90","yes","1024"
"96.7032967032967","96.7032967032967","681.5604395604396","681.5604395604396","black","experiment","legacy","legacy","legacy","0","uniform","1","undefined","1","right","90","90","0","90","90","90","0","0","90","0","90","0","0","90","90","Mon Oct 17 19:52:44 2022","The main experiment item","yes","SternbergTask.osexp","C:\Users\Melissa\OneDrive\Desktop\ADVANCED QUANT\LAB 3.1","no","mono","no","18","no","white","no","no","768","legacy","78","11","C:/Users/Melissa/OneDrive/Desktop/ADVANCED QUANT/LAB 3.2/MM-subject-2.1.csv","legacy","1 5 3 2 8","Lentiform Loewenfeld","3.3.12","0","n","0","right","left","left","NA","right","646","14830","7601","NA","646","2","legacy","5","1024","2","48000","-16","experiment","2","even","4","565307","566444","96428","566446","568656","474565","2410","88826","567450","17241","570657","NA","2406","570657","571304","Sternberg Task","88","62022","91","yes","1024"
"96.73913043478261","96.73913043478261","678.195652173913","678.195652173913","black","experiment","legacy","legacy","legacy","0","uniform","1","undefined","1","left","91","91","0","91","91","91","0","0","91","0","91","0","0","91","91","Mon Oct 17 19:52:44 2022","The main experiment item","yes","SternbergTask.osexp","C:\Users\Melissa\OneDrive\Desktop\ADVANCED QUANT\LAB 3.1","no","mono","no","18","no","white","no","no","768","legacy","79","11","C:/Users/Melissa/OneDrive/Desktop/ADVANCED QUANT/LAB 3.2/MM-subject-2.1.csv","legacy","7 2 3","Lentiform Loewenfeld","3.3.12","3","y","0","left","left","left","NA","left","372","14830","7601","NA","372","2","legacy","3","1024","2","48000","-16","experiment","2","even","3","571308","572404","96428","572406","574613","474565","2410","88826","573408","17241","576615","NA","2406","576615","576988","Sternberg Task","89","62394","92","yes","1024"
"96.7741935483871","96.7741935483871","676.1397849462365","676.1397849462365","black","experiment","legacy","legacy","legacy","0","uniform","1","undefined","1","left","92","92","0","92","92","92","0","0","92","0","92","0","0","92","92","Mon Oct 17 19:52:44 2022","The main experiment item","yes","SternbergTask.osexp","C:\Users\Melissa\OneDrive\Desktop\ADVANCED QUANT\LAB 3.1","no","mono","no","18","no","white","no","no","768","legacy","80","11","C:/Users/Melissa/OneDrive/Desktop/ADVANCED QUANT/LAB 3.2/MM-subject-2.1.csv","legacy","3 5 4 7","Lentiform Loewenfeld","3.3.12","1","y","0","left","left","left","NA","left","487","14830","7601","NA","487","2","legacy","4","1024","2","48000","-16","experiment","2","even","3","576992","578091","96428","578093","580298","474565","2410","88826","579094","17241","582303","NA","2406","582303","582791","Sternberg Task","90","62881","93","yes","1024"
"96.80851063829788","96.80851063829788","675.8191489361702","675.8191489361702","black","experiment","legacy","legacy","legacy","0","uniform","1","undefined","1","right","93","93","0","93","93","93","0","0","93","0","93","0","0","93","93","Mon Oct 17 19:52:44 2022","The main experiment item","yes","SternbergTask.osexp","C:\Users\Melissa\OneDrive\Desktop\ADVANCED QUANT\LAB 3.1","no","mono","no","18","no","white","no","no","768","legacy","81","11","C:/Users/Melissa/OneDrive/Desktop/ADVANCED QUANT/LAB 3.2/MM-subject-2.1.csv","legacy","2 3 8 5 6 7","Lentiform Loewenfeld","3.3.12","0","n","0","right","left","left","NA","right","646","14830","7601","NA","646","2","legacy","6","1024","2","48000","-16","experiment","2","even","1","582798","583893","96428","583895","586102","474565","2410","88826","584896","17241","588104","NA","2406","588104","588751","Sternberg Task","91","63527","94","yes","1024"
"96.84210526315789","96.84210526315789","674.6421052631579","674.6421052631579","black","experiment","legacy","legacy","legacy","0","uniform","1","undefined","1","right","94","94","0","94","94","94","0","0","94","0","94","0","0","94","94","Mon Oct 17 19:52:44 2022","The main experiment item","yes","SternbergTask.osexp","C:\Users\Melissa\OneDrive\Desktop\ADVANCED QUANT\LAB 3.1","no","mono","no","18","no","white","no","no","768","legacy","82","11","C:/Users/Melissa/OneDrive/Desktop/ADVANCED QUANT/LAB 3.2/MM-subject-2.1.csv","legacy","5 3 8 7 2 4","Lentiform Loewenfeld","3.3.12","0","n","0","right","left","left","NA","right","564","14830","7601","NA","564","2","legacy","6","1024","2","48000","-16","experiment","2","even","9","588756","589847","96428","589849","592055","474565","2410","88826","590850","17241","594056","NA","2406","594056","594621","Sternberg Task","92","64091","95","yes","1024"
"96.875","96.875","676.6041666666666","676.6041666666666","black","experiment","legacy","legacy","legacy","0","uniform","1","undefined","1","right","95","95","0","95","95","95","0","0","95","0","95","0","0","95","95","Mon Oct 17 19:52:44 2022","The main experiment item","yes","SternbergTask.osexp","C:\Users\Melissa\OneDrive\Desktop\ADVANCED QUANT\LAB 3.1","no","mono","no","18","no","white","no","no","768","legacy","83","11","C:/Users/Melissa/OneDrive/Desktop/ADVANCED QUANT/LAB 3.2/MM-subject-2.1.csv","legacy","1 6 4 3 9 7","Lentiform Loewenfeld","3.3.12","0","n","0","right","left","left","NA","right","863","14830","7601","NA","863","2","legacy","6","1024","2","48000","-16","experiment","2","even","8","594633","595736","96428","595737","597943","474565","2410","88826","596738","17241","599944","NA","2406","599945","600809","Sternberg Task","93","64954","96","yes","1024"
"96.90721649484536","96.90721649484536","676.680412371134","676.680412371134","black","experiment","legacy","legacy","legacy","0","uniform","1","undefined","1","right","96","96","0","96","96","96","0","0","96","0","96","0","0","96","96","Mon Oct 17 19:52:44 2022","The main experiment item","yes","SternbergTask.osexp","C:\Users\Melissa\OneDrive\Desktop\ADVANCED QUANT\LAB 3.1","no","mono","no","18","no","white","no","no","768","legacy","84","11","C:/Users/Melissa/OneDrive/Desktop/ADVANCED QUANT/LAB 3.2/MM-subject-2.1.csv","legacy","7 9 1 6","Lentiform Loewenfeld","3.3.12","0","n","0","right","left","left","NA","right","684","14830","7601","NA","684","2","legacy","4","1024","2","48000","-16","experiment","2","even","4","600815","601906","96428","601908","604114","474565","2410","88826","602910","17241","606119","NA","2406","606119","606804","Sternberg Task","94","65638","97","yes","1024"
"95.91836734693878","95.91836734693878","683.204081632653","683.204081632653","black","experiment","legacy","legacy","legacy","0","uniform","0","undefined","0","right","97","97","0","97","97","97","0","0","97","0","97","0","0","97","97","Mon Oct 17 19:52:44 2022","The main experiment item","yes","SternbergTask.osexp","C:\Users\Melissa\OneDrive\Desktop\ADVANCED QUANT\LAB 3.1","no","mono","no","18","no","white","no","no","768","legacy","85","11","C:/Users/Melissa/OneDrive/Desktop/ADVANCED QUANT/LAB 3.2/MM-subject-2.1.csv","legacy","8 5 7 3 6","Lentiform Loewenfeld","3.3.12","0","n","0","left","left","left","NA","left","1316","14830","7601","NA","1316","2","legacy","5","1024","2","48000","-16","experiment","2","even","9","606811","607906","96428","607908","610114","474565","2410","88826","608909","17241","612115","NA","2406","612115","613432","Sternberg Task","94","66954","98","yes","1024"
"95.95959595959596","95.95959595959596","681.4949494949495","681.4949494949495","black","experiment","legacy","legacy","legacy","0","uniform","1","undefined","1","right","98","98","0","98","98","98","0","0","98","0","98","0","0","98","98","Mon Oct 17 19:52:44 2022","The main experiment item","yes","SternbergTask.osexp","C:\Users\Melissa\OneDrive\Desktop\ADVANCED QUANT\LAB 3.1","no","mono","no","18","no","white","no","no","768","legacy","86","11","C:/Users/Melissa/OneDrive/Desktop/ADVANCED QUANT/LAB 3.2/MM-subject-2.1.csv","legacy","3 4 2","Lentiform Loewenfeld","3.3.12","0","n","0","right","left","left","NA","right","514","14830","7601","NA","514","2","legacy","3","1024","2","48000","-16","experiment","2","even","5","606811","614549","96428","614553","616764","613437","2410","88826","615559","17241","618769","NA","2406","618769","619283","Sternberg Task","95","67468","99","yes","1024"
"96","96","680.34","680.34","black","experiment","legacy","legacy","legacy","0","uniform","1","undefined","1","right","99","99","0","99","99","99","0","0","99","0","99","0","0","99","99","Mon Oct 17 19:52:44 2022","The main experiment item","yes","SternbergTask.osexp","C:\Users\Melissa\OneDrive\Desktop\ADVANCED QUANT\LAB 3.1","no","mono","no","18","no","white","no","no","768","legacy","87","11","C:/Users/Melissa/OneDrive/Desktop/ADVANCED QUANT/LAB 3.2/MM-subject-2.1.csv","legacy","8 4 3 9","Lentiform Loewenfeld","3.3.12","0","n","0","right","left","left","NA","right","566","14830","7601","NA","566","2","legacy","4","1024","2","48000","-16","experiment","2","even","5","619288","620385","96428","620386","622591","613437","2410","88826","621387","17241","624593","NA","2406","624593","625160","Sternberg Task","96","68034","100","yes","1024"
"96.03960396039604","96.03960396039604","686.0792079207921","686.0792079207921","black","experiment","legacy","legacy","legacy","0","uniform","1","undefined","1","left","100","100","0","100","100","100","0","0","100","0","100","0","0","100","100","Mon Oct 17 19:52:44 2022","The main experiment item","yes","SternbergTask.osexp","C:\Users\Melissa\OneDrive\Desktop\ADVANCED QUANT\LAB 3.1","no","mono","no","18","no","white","no","no","768","legacy","88","11","C:/Users/Melissa/OneDrive/Desktop/ADVANCED QUANT/LAB 3.2/MM-subject-2.1.csv","legacy","6 7 8 5","Lentiform Loewenfeld","3.3.12","3","y","0","left","left","left","NA","left","1260","14830","7601","NA","1260","2","legacy","4","1024","2","48000","-16","experiment","2","even","8","625165","626258","96428","626260","628466","613437","2410","88826","627261","17241","630467","NA","2406","630467","631728","Sternberg Task","97","69294","101","yes","1024"
"96.07843137254902","96.07843137254902","683.5392156862745","683.5392156862745","black","experiment","legacy","legacy","legacy","0","uniform","1","undefined","1","right","101","101","0","101","101","101","0","0","101","0","101","0","0","101","101","Mon Oct 17 19:52:44 2022","The main experiment item","yes","SternbergTask.osexp","C:\Users\Melissa\OneDrive\Desktop\ADVANCED QUANT\LAB 3.1","no","mono","no","18","no","white","no","no","768","legacy","89","11","C:/Users/Melissa/OneDrive/Desktop/ADVANCED QUANT/LAB 3.2/MM-subject-2.1.csv","legacy","6 8 4","Lentiform Loewenfeld","3.3.12","0","n","0","right","left","left","NA","right","427","14830","7601","NA","427","2","legacy","3","1024","2","48000","-16","experiment","2","even","1","631740","632879","96428","632881","635088","613437","2410","88826","633883","17241","637089","NA","2406","637089","637517","Sternberg Task","98","69721","102","yes","1024"
"96.11650485436893","96.11650485436893","684.8155339805825","684.8155339805825","black","experiment","legacy","legacy","legacy","0","uniform","1","undefined","1","right","102","102","0","102","102","102","0","0","102","0","102","0","0","102","102","Mon Oct 17 19:52:44 2022","The main experiment item","yes","SternbergTask.osexp","C:\Users\Melissa\OneDrive\Desktop\ADVANCED QUANT\LAB 3.1","no","mono","no","18","no","white","no","no","768","legacy","90","11","C:/Users/Melissa/OneDrive/Desktop/ADVANCED QUANT/LAB 3.2/MM-subject-2.1.csv","legacy","1 7 5 2 9","Lentiform Loewenfeld","3.3.12","0","n","0","right","left","left","NA","right","815","14830","7601","NA","815","2","legacy","5","1024","2","48000","-16","experiment","2","even","3","637524","638619","96428","638621","640827","613437","2410","88826","639622","17241","642828","NA","2406","642828","643644","Sternberg Task","99","70536","103","yes","1024"
"96.15384615384616","96.15384615384616","683.9134615384615","683.9134615384615","black","experiment","legacy","legacy","legacy","0","uniform","1","undefined","1","left","103","103","0","103","103","103","0","0","103","0","103","0","0","103","103","Mon Oct 17 19:52:44 2022","The main experiment item","yes","SternbergTask.osexp","C:\Users\Melissa\OneDrive\Desktop\ADVANCED QUANT\LAB 3.1","no","mono","no","18","no","white","no","no","768","legacy","91","11","C:/Users/Melissa/OneDrive/Desktop/ADVANCED QUANT/LAB 3.2/MM-subject-2.1.csv","legacy","6 9 7 4 5 1","Lentiform Loewenfeld","3.3.12","2","y","0","left","left","left","NA","left","591","14830","7601","NA","591","2","legacy","6","1024","2","48000","-16","experiment","2","even","9","643661","644752","96428","644754","646960","613437","2410","88826","645755","17241","648961","NA","2406","648961","649553","Sternberg Task","100","71127","104","yes","1024"
"96.19047619047619","96.19047619047619","683.6095238095238","683.6095238095238","black","experiment","legacy","legacy","legacy","0","uniform","1","undefined","1","right","104","104","0","104","104","104","0","0","104","0","104","0","0","104","104","Mon Oct 17 19:52:44 2022","The main experiment item","yes","SternbergTask.osexp","C:\Users\Melissa\OneDrive\Desktop\ADVANCED QUANT\LAB 3.1","no","mono","no","18","no","white","no","no","768","legacy","92","11","C:/Users/Melissa/OneDrive/Desktop/ADVANCED QUANT/LAB 3.2/MM-subject-2.1.csv","legacy","1 4 9 2 5","Lentiform Loewenfeld","3.3.12","0","n","0","right","left","left","NA","right","652","14830","7601","NA","652","2","legacy","5","1024","2","48000","-16","experiment","2","even","7","649561","650664","96428","650666","652872","613437","2410","88826","651667","17241","654874","NA","2406","654874","655527","Sternberg Task","101","71779","105","yes","1024"
"96.22641509433963","96.22641509433963","683.1132075471698","683.1132075471698","black","experiment","legacy","legacy","legacy","0","uniform","1","undefined","1","left","105","105","0","105","105","105","0","0","105","0","105","0","0","105","105","Mon Oct 17 19:52:44 2022","The main experiment item","yes","SternbergTask.osexp","C:\Users\Melissa\OneDrive\Desktop\ADVANCED QUANT\LAB 3.1","no","mono","no","18","no","white","no","no","768","legacy","93","11","C:/Users/Melissa/OneDrive/Desktop/ADVANCED QUANT/LAB 3.2/MM-subject-2.1.csv","legacy","3 9 7 6 4","Lentiform Loewenfeld","3.3.12","3","y","0","left","left","left","NA","left","631","14830","7601","NA","631","2","legacy","5","1024","2","48000","-16","experiment","2","even","7","655536","656667","96428","656670","658876","613437","2410","88826","657672","17241","660877","NA","2406","660877","661509","Sternberg Task","102","72410","106","yes","1024"
"96.26168224299066","96.26168224299066","681.5046728971963","681.5046728971963","black","experiment","legacy","legacy","legacy","0","uniform","1","undefined","1","left","106","106","0","106","106","106","0","0","106","0","106","0","0","106","106","Mon Oct 17 19:52:44 2022","The main experiment item","yes","SternbergTask.osexp","C:\Users\Melissa\OneDrive\Desktop\ADVANCED QUANT\LAB 3.1","no","mono","no","18","no","white","no","no","768","legacy","94","11","C:/Users/Melissa/OneDrive/Desktop/ADVANCED QUANT/LAB 3.2/MM-subject-2.1.csv","legacy","7","Lentiform Loewenfeld","3.3.12","1","y","0","left","left","left","NA","left","511","14830","7601","NA","511","2","legacy","1","1024","2","48000","-16","experiment","2","even","7","661522","662615","96428","662616","664822","613437","2410","88826","663617","17241","666823","NA","2406","666823","667335","Sternberg Task","103","72921","107","yes","1024"
"96.29629629629629","96.29629629629629","683.0555555555555","683.0555555555555","black","experiment","legacy","legacy","legacy","0","uniform","1","undefined","1","right","107","107","0","107","107","107","0","0","107","0","107","0","0","107","107","Mon Oct 17 19:52:44 2022","The main experiment item","yes","SternbergTask.osexp","C:\Users\Melissa\OneDrive\Desktop\ADVANCED QUANT\LAB 3.1","no","mono","no","18","no","white","no","no","768","legacy","95","11","C:/Users/Melissa/OneDrive/Desktop/ADVANCED QUANT/LAB 3.2/MM-subject-2.1.csv","legacy","1 7 5 2","Lentiform Loewenfeld","3.3.12","0","n","0","right","left","left","NA","right","849","14830","7601","NA","849","2","legacy","4","1024","2","48000","-16","experiment","2","even","3","667352","668451","96428","668452","670658","613437","2410","88826","669453","17241","672659","NA","2406","672659","673509","Sternberg Task","104","73770","108","yes","1024"
"96.3302752293578","96.3302752293578","682.7339449541284","682.7339449541284","black","experiment","legacy","legacy","legacy","0","uniform","1","undefined","1","right","108","108","0","108","108","108","0","0","108","0","108","0","0","108","108","Mon Oct 17 19:52:44 2022","The main experiment item","yes","SternbergTask.osexp","C:\Users\Melissa\OneDrive\Desktop\ADVANCED QUANT\LAB 3.1","no","mono","no","18","no","white","no","no","768","legacy","96","11","C:/Users/Melissa/OneDrive/Desktop/ADVANCED QUANT/LAB 3.2/MM-subject-2.1.csv","legacy","4 2 6 9","Lentiform Loewenfeld","3.3.12","0","n","0","right","left","left","NA","right","648","14830","7601","NA","648","2","legacy","4","1024","2","48000","-16","experiment","2","even","7","673513","674605","96428","674607","676813","613437","2410","88826","675608","17241","678814","NA","2406","678814","679464","Sternberg Task","105","74418","109","yes","1024"
"96.36363636363636","96.36363636363636","680.7636363636364","680.7636363636364","black","experiment","legacy","legacy","legacy","0","uniform","1","undefined","1","right","109","109","0","109","109","109","0","0","109","0","109","0","0","109","109","Mon Oct 17 19:52:44 2022","The main experiment item","yes","SternbergTask.osexp","C:\Users\Melissa\OneDrive\Desktop\ADVANCED QUANT\LAB 3.1","no","mono","no","18","no","white","no","no","768","legacy","97","11","C:/Users/Melissa/OneDrive/Desktop/ADVANCED QUANT/LAB 3.2/MM-subject-2.1.csv","legacy","4 1","Lentiform Loewenfeld","3.3.12","0","n","0","right","left","left","NA","right","466","14830","7601","NA","466","2","legacy","2","1024","2","48000","-16","experiment","2","even","6","679471","680565","96428","680566","682772","613437","2410","88826","681567","17241","684773","NA","2406","684773","685241","Sternberg Task","106","74884","110","yes","1024"
"96.3963963963964","96.3963963963964","682.5765765765766","682.5765765765766","black","experiment","legacy","legacy","legacy","0","uniform","1","undefined","1","left","110","110","0","110","110","110","0","0","110","0","110","0","0","110","110","Mon Oct 17 19:52:44 2022","The main experiment item","yes","SternbergTask.osexp","C:\Users\Melissa\OneDrive\Desktop\ADVANCED QUANT\LAB 3.1","no","mono","no","18","no","white","no","no","768","legacy","98","11","C:/Users/Melissa/OneDrive/Desktop/ADVANCED QUANT/LAB 3.2/MM-subject-2.1.csv","legacy","9 3 1 2 5","Lentiform Loewenfeld","3.3.12","4","y","0","left","left","left","NA","left","882","14830","7601","NA","882","2","legacy","5","1024","2","48000","-16","experiment","2","even","2","685248","686351","96428","686352","688557","613437","2410","88826","687353","17241","690559","NA","2406","690559","691442","Sternberg Task","107","75766","111","yes","1024"
