"acc","accuracy","average_response_time","avg_rt","background","block","canvas_backend","clock_backend","color_backend","compensation","coordinates","correct","correct_instruction1","correct_keyboard_response","correct_response","count_ISI","count_Practice_loop","count_correctFeedback","count_expSequence","count_experiment","count_experiment_loop","count_fixation","count_incorrectFeedback","count_instruction1","count_instructions2","count_keyboard_response","count_logger","count_memorySet","count_probe","count_thankYou","datetime","description","disable_garbage_collection","experiment_file","experiment_path","font_bold","font_family","font_italic","font_size","font_underline","foreground","form_clicks","fullscreen","height","keyboard_backend","live_row","live_row_Practice_loop","logfile","mouse_backend","numberSet","opensesame_codename","opensesame_version","posInSet","present","repeat_cycle","response","response_instruction1","response_instructions2","response_keyboard_response","response_thankYou","response_time","response_time_instruction1","response_time_instructions2","response_time_keyboard_response","response_time_thankYou","round_decimals","sampler_backend","setSize","sound_buf_size","sound_channels","sound_freq","sound_sample_size","start","subject_nr","subject_parity","target","time_ISI","time_Practice_loop","time_correctFeedback","time_expSequence","time_experiment","time_experiment_loop","time_fixation","time_incorrectFeedback","time_instruction1","time_instructions2","time_keyboard_response","time_logger","time_memorySet","time_probe","time_thankYou","title","total_correct","total_response_time","total_responses","uniform_coordinates","width"
"0","0","2000","2000","black","practice","legacy","legacy","legacy","0","uniform","0","undefined","0","right","0","0","0","0","0","0","0","0","0","0","0","0","0","0","0","Wed Oct 19 14:58:44 2022","The main experiment item","yes","Sternbergtask.osexp","C:/Users/cici_/Downloads","no","mono","no","18","no","white","no","yes","768","legacy","0","0","C:/Users/cici_/OneDrive/Documents/R/26F-subject-2.csv","legacy","9 6 7 4 5","Lentiform Loewenfeld","3.3.12","0","n","0","None","left","NA","None","NA","2000","31050","NA","2000","NA","2","legacy","5","1024","2","48000","-16","experiment","2","even","3","38336","34733","NA","36132","3677","NA","36134","NA","3682","NA","40347","42348","37134","40346","NA","Sternberg task","0","2000","1","yes","1024"
"0","0","2000","2000","black","practice","legacy","legacy","legacy","0","uniform","0","undefined","0","right","1","0","1","1","0","0","1","1","0","0","1","1","1","1","0","Wed Oct 19 14:58:44 2022","The main experiment item","yes","Sternbergtask.osexp","C:/Users/cici_/Downloads","no","mono","no","18","no","white","no","yes","768","legacy","1","1","C:/Users/cici_/OneDrive/Documents/R/26F-subject-2.csv","legacy","3 1 9 4","Lentiform Loewenfeld","3.3.12","0","n","0","None","left","NA","None","NA","2000","31050","NA","2000","NA","2","legacy","4","1024","2","48000","-16","experiment","2","even","6","46405","34733","NA","44175","3677","NA","44185","42703","3682","NA","48419","50420","45195","48414","NA","Sternberg task","0","4000","2","yes","1024"
"0","0","2000","2000","black","practice","legacy","legacy","legacy","0","uniform","0","undefined","0","left","2","0","2","2","0","0","2","2","0","0","2","2","2","2","0","Wed Oct 19 14:58:44 2022","The main experiment item","yes","Sternbergtask.osexp","C:/Users/cici_/Downloads","no","mono","no","18","no","white","no","yes","768","legacy","2","2","C:/Users/cici_/OneDrive/Documents/R/26F-subject-2.csv","legacy","1 5 2 9","Lentiform Loewenfeld","3.3.12","2","y","0","None","left","NA","None","NA","2000","31050","NA","2000","NA","2","legacy","4","1024","2","48000","-16","experiment","2","even","5","54146","34733","NA","51915","3677","NA","51925","50451","3682","NA","56157","58158","52936","56156","NA","Sternberg task","0","6000","3","yes","1024"
"25","25","1790","1790","black","practice","legacy","legacy","legacy","0","uniform","1","undefined","1","left","3","0","3","3","0","0","3","3","0","0","3","3","3","3","0","Wed Oct 19 14:58:44 2022","The main experiment item","yes","Sternbergtask.osexp","C:/Users/cici_/Downloads","no","mono","no","18","no","white","no","yes","768","legacy","3","3","C:/Users/cici_/OneDrive/Documents/R/26F-subject-2.csv","legacy","6","Lentiform Loewenfeld","3.3.12","1","y","0","left","left","NA","left","NA","1160","31050","NA","1160","NA","2","legacy","1","1024","2","48000","-16","experiment","2","even","6","61858","34733","NA","59627","3677","NA","59637","58178","3682","NA","63868","65031","60648","63868","NA","Sternberg task","1","7160","4","yes","1024"
"40","40","1646.6","1646.6","black","practice","legacy","legacy","legacy","0","uniform","1","undefined","1","right","4","0","4","4","0","0","4","4","0","0","4","4","4","4","0","Wed Oct 19 14:58:44 2022","The main experiment item","yes","Sternbergtask.osexp","C:/Users/cici_/Downloads","no","mono","no","18","no","white","no","yes","768","legacy","4","4","C:/Users/cici_/OneDrive/Documents/R/26F-subject-2.csv","legacy","4 1 5","Lentiform Loewenfeld","3.3.12","0","n","0","right","left","NA","right","NA","1073","31050","NA","1073","NA","2","legacy","3","1024","2","48000","-16","experiment","2","even","2","68760","34733","65053","66528","3677","NA","66540","58178","3682","NA","70774","71850","67550","70770","NA","Sternberg task","2","8233","5","yes","1024"
"50","50","1513.8333333333333","1513.8333333333333","black","practice","legacy","legacy","legacy","0","uniform","1","undefined","1","left","5","0","5","5","0","0","5","5","0","0","5","5","5","5","0","Wed Oct 19 14:58:44 2022","The main experiment item","yes","Sternbergtask.osexp","C:/Users/cici_/Downloads","no","mono","no","18","no","white","no","yes","768","legacy","5","5","C:/Users/cici_/OneDrive/Documents/R/26F-subject-2.csv","legacy","4 3 1 7 9 8","Lentiform Loewenfeld","3.3.12","1","y","0","left","left","NA","left","NA","850","31050","NA","850","NA","2","legacy","6","1024","2","48000","-16","experiment","2","even","4","75562","34733","71871","73338","3677","NA","73351","58178","3682","NA","77564","78415","74361","77563","NA","Sternberg task","3","9083","6","yes","1024"
"57.142857142857146","57.142857142857146","1399.857142857143","1399.857142857143","black","practice","legacy","legacy","legacy","0","uniform","1","undefined","1","right","6","0","6","6","0","0","6","6","0","0","6","6","6","6","0","Wed Oct 19 14:58:44 2022","The main experiment item","yes","Sternbergtask.osexp","C:/Users/cici_/Downloads","no","mono","no","18","no","white","no","yes","768","legacy","6","6","C:/Users/cici_/OneDrive/Documents/R/26F-subject-2.csv","legacy","2 1","Lentiform Loewenfeld","3.3.12","0","n","0","right","left","NA","right","NA","716","31050","NA","716","NA","2","legacy","2","1024","2","48000","-16","experiment","2","even","5","81694","34733","78429","79491","3677","NA","79492","58178","3682","NA","83695","84411","80493","83695","NA","Sternberg task","4","9799","7","yes","1024"
"62.5","62.5","1321","1321","black","practice","legacy","legacy","legacy","0","uniform","1","undefined","1","right","7","0","7","7","0","0","7","7","0","0","7","7","7","7","0","Wed Oct 19 14:58:44 2022","The main experiment item","yes","Sternbergtask.osexp","C:/Users/cici_/Downloads","no","mono","no","18","no","white","no","yes","768","legacy","7","7","C:/Users/cici_/OneDrive/Documents/R/26F-subject-2.csv","legacy","5","Lentiform Loewenfeld","3.3.12","0","n","0","right","left","NA","right","NA","769","31050","NA","769","NA","2","legacy","1","1024","2","48000","-16","experiment","2","even","3","87690","34733","84426","85487","3677","NA","85488","58178","3682","NA","89691","90461","86489","89691","NA","Sternberg task","5","10568","8","yes","1024"
"66.66666666666667","66.66666666666667","1245.4444444444443","1245.4444444444443","black","practice","legacy","legacy","legacy","0","uniform","1","undefined","1","right","8","0","8","8","0","0","8","8","0","0","8","8","8","8","0","Wed Oct 19 14:58:44 2022","The main experiment item","yes","Sternbergtask.osexp","C:/Users/cici_/Downloads","no","mono","no","18","no","white","no","yes","768","legacy","8","8","C:/Users/cici_/OneDrive/Documents/R/26F-subject-2.csv","legacy","5 7 8 4 1 2","Lentiform Loewenfeld","3.3.12","0","n","0","right","left","NA","right","NA","641","31050","NA","641","NA","2","legacy","6","1024","2","48000","-16","experiment","2","even","6","93732","34733","90467","91529","3677","NA","91530","58178","3682","NA","95733","96374","92531","95733","NA","Sternberg task","6","11209","9","yes","1024"
"70","70","1191.9","1191.9","black","practice","legacy","legacy","legacy","0","uniform","1","undefined","1","left","9","0","9","9","0","0","9","9","0","0","9","9","9","9","0","Wed Oct 19 14:58:44 2022","The main experiment item","yes","Sternbergtask.osexp","C:/Users/cici_/Downloads","no","mono","no","18","no","white","no","yes","768","legacy","9","9","C:/Users/cici_/OneDrive/Documents/R/26F-subject-2.csv","legacy","4 8","Lentiform Loewenfeld","3.3.12","1","y","0","left","left","NA","left","NA","710","31050","NA","710","NA","2","legacy","2","1024","2","48000","-16","experiment","2","even","4","99645","34733","96380","97442","3677","NA","97443","58178","3682","NA","101646","102357","98443","101646","NA","Sternberg task","7","11919","10","yes","1024"
"72.72727272727273","72.72727272727273","1234.2727272727273","1234.2727272727273","black","practice","legacy","legacy","legacy","0","uniform","1","undefined","1","left","10","0","10","10","0","0","10","10","0","0","10","10","10","10","0","Wed Oct 19 14:58:44 2022","The main experiment item","yes","Sternbergtask.osexp","C:/Users/cici_/Downloads","no","mono","no","18","no","white","no","yes","768","legacy","10","10","C:/Users/cici_/OneDrive/Documents/R/26F-subject-2.csv","legacy","2 9 4","Lentiform Loewenfeld","3.3.12","3","y","0","left","left","NA","left","NA","1658","31050","NA","1658","NA","2","legacy","3","1024","2","48000","-16","experiment","2","even","4","105627","34733","102362","103424","3677","NA","103425","58178","3682","NA","107628","109287","104426","107628","NA","Sternberg task","8","13577","11","yes","1024"
"75","75","1241.6666666666667","1241.6666666666667","black","practice","legacy","legacy","legacy","0","uniform","1","undefined","1","left","11","0","11","11","0","0","11","11","0","0","11","11","11","11","0","Wed Oct 19 14:58:44 2022","The main experiment item","yes","Sternbergtask.osexp","C:/Users/cici_/Downloads","no","mono","no","18","no","white","no","yes","768","legacy","11","11","C:/Users/cici_/OneDrive/Documents/R/26F-subject-2.csv","legacy","1 7 9 8 5","Lentiform Loewenfeld","3.3.12","4","y","0","left","left","NA","left","NA","1323","31050","NA","1323","NA","2","legacy","5","1024","2","48000","-16","experiment","2","even","8","112557","34733","109292","110354","3677","NA","110355","58178","3682","NA","114558","115882","111356","114558","NA","Sternberg task","9","14900","12","yes","1024"
"76.92307692307692","76.92307692307692","1192.1538461538462","1192.1538461538462","black","experiment","legacy","legacy","legacy","0","uniform","1","undefined","1","right","12","0","12","12","0","0","12","12","0","0","12","12","12","12","0","Wed Oct 19 14:58:44 2022","The main experiment item","yes","Sternbergtask.osexp","C:/Users/cici_/Downloads","no","mono","no","18","no","white","no","yes","768","legacy","0","11","C:/Users/cici_/OneDrive/Documents/R/26F-subject-2.csv","legacy","1 8 7","Lentiform Loewenfeld","3.3.12","0","n","0","right","left","left","right","NA","598","31050","14977","598","NA","2","legacy","3","1024","2","48000","-16","experiment","2","even","4","134159","34733","115894","131955","3677","131898","131957","58178","3682","116921","136161","136759","132958","136160","NA","Sternberg task","10","15498","13","yes","1024"
"78.57142857142857","78.57142857142857","1156.357142857143","1156.357142857143","black","experiment","legacy","legacy","legacy","0","uniform","1","undefined","1","left","13","0","13","13","0","0","13","13","0","0","13","13","13","13","0","Wed Oct 19 14:58:44 2022","The main experiment item","yes","Sternbergtask.osexp","C:/Users/cici_/Downloads","no","mono","no","18","no","white","no","yes","768","legacy","1","11","C:/Users/cici_/OneDrive/Documents/R/26F-subject-2.csv","legacy","2 3 7 4","Lentiform Loewenfeld","3.3.12","1","y","0","left","left","left","left","NA","691","31050","14977","691","NA","2","legacy","4","1024","2","48000","-16","experiment","2","even","2","140031","34733","136764","137826","3677","131898","137828","58178","3682","116921","142033","142725","138830","142033","NA","Sternberg task","11","16189","14","yes","1024"
"80","80","1129.4","1129.4","black","experiment","legacy","legacy","legacy","0","uniform","1","undefined","1","right","14","0","14","14","0","0","14","14","0","0","14","14","14","14","0","Wed Oct 19 14:58:44 2022","The main experiment item","yes","Sternbergtask.osexp","C:/Users/cici_/Downloads","no","mono","no","18","no","white","no","yes","768","legacy","2","11","C:/Users/cici_/OneDrive/Documents/R/26F-subject-2.csv","legacy","7 1 5 6 3","Lentiform Loewenfeld","3.3.12","0","n","0","right","left","left","right","NA","752","31050","14977","752","NA","2","legacy","5","1024","2","48000","-16","experiment","2","even","8","146013","34733","142740","143810","3677","131898","143811","58178","3682","116921","148014","148767","144812","148014","NA","Sternberg task","12","16941","15","yes","1024"
"75","75","1097.625","1097.625","black","experiment","legacy","legacy","legacy","0","uniform","0","undefined","0","right","15","0","15","15","0","0","15","15","0","0","15","15","15","15","0","Wed Oct 19 14:58:44 2022","The main experiment item","yes","Sternbergtask.osexp","C:/Users/cici_/Downloads","no","mono","no","18","no","white","no","yes","768","legacy","3","11","C:/Users/cici_/OneDrive/Documents/R/26F-subject-2.csv","legacy","5 7 3","Lentiform Loewenfeld","3.3.12","0","n","0","left","left","left","left","NA","621","31050","14977","621","NA","2","legacy","3","1024","2","48000","-16","experiment","2","even","9","152048","34733","148783","149845","3677","131898","149846","58178","3682","116921","154049","154671","150847","154049","NA","Sternberg task","12","17562","16","yes","1024"
"76.47058823529412","76.47058823529412","1116.4117647058824","1116.4117647058824","black","experiment","legacy","legacy","legacy","0","uniform","1","undefined","1","right","16","0","16","16","0","0","16","16","0","0","16","16","16","16","0","Wed Oct 19 14:58:44 2022","The main experiment item","yes","Sternbergtask.osexp","C:/Users/cici_/Downloads","no","mono","no","18","no","white","no","yes","768","legacy","4","11","C:/Users/cici_/OneDrive/Documents/R/26F-subject-2.csv","legacy","7 3 2 8","Lentiform Loewenfeld","3.3.12","0","n","0","right","left","left","right","NA","1417","31050","14977","1417","NA","2","legacy","4","1024","2","48000","-16","experiment","2","even","4","157943","34733","148783","155738","3677","131898","155740","154675","3682","116921","159944","161362","156741","159944","NA","Sternberg task","13","18979","17","yes","1024"
"77.77777777777777","77.77777777777777","1101.2222222222222","1101.2222222222222","black","experiment","legacy","legacy","legacy","0","uniform","1","undefined","1","left","17","0","17","17","0","0","17","17","0","0","17","17","17","17","0","Wed Oct 19 14:58:44 2022","The main experiment item","yes","Sternbergtask.osexp","C:/Users/cici_/Downloads","no","mono","no","18","no","white","no","yes","768","legacy","5","11","C:/Users/cici_/OneDrive/Documents/R/26F-subject-2.csv","legacy","3 9 7 6 4","Lentiform Loewenfeld","3.3.12","3","y","0","left","left","left","left","NA","843","31050","14977","843","NA","2","legacy","5","1024","2","48000","-16","experiment","2","even","7","164644","34733","161377","162440","3677","131898","162442","154675","3682","116921","166645","167489","163443","166645","NA","Sternberg task","14","19822","18","yes","1024"
"78.94736842105263","78.94736842105263","1076.3157894736842","1076.3157894736842","black","experiment","legacy","legacy","legacy","0","uniform","1","undefined","1","right","18","0","18","18","0","0","18","18","0","0","18","18","18","18","0","Wed Oct 19 14:58:44 2022","The main experiment item","yes","Sternbergtask.osexp","C:/Users/cici_/Downloads","no","mono","no","18","no","white","no","yes","768","legacy","6","11","C:/Users/cici_/OneDrive/Documents/R/26F-subject-2.csv","legacy","1 4 3 6 5","Lentiform Loewenfeld","3.3.12","0","n","0","right","left","left","right","NA","628","31050","14977","628","NA","2","legacy","5","1024","2","48000","-16","experiment","2","even","8","170759","34733","167494","168556","3677","131898","168557","154675","3682","116921","172760","173389","169558","172760","NA","Sternberg task","15","20450","19","yes","1024"
"80","80","1089.55","1089.55","black","experiment","legacy","legacy","legacy","0","uniform","1","undefined","1","left","19","0","19","19","0","0","19","19","0","0","19","19","19","19","0","Wed Oct 19 14:58:44 2022","The main experiment item","yes","Sternbergtask.osexp","C:/Users/cici_/Downloads","no","mono","no","18","no","white","no","yes","768","legacy","7","11","C:/Users/cici_/OneDrive/Documents/R/26F-subject-2.csv","legacy","4 3 2 5 8","Lentiform Loewenfeld","3.3.12","2","y","0","left","left","left","left","NA","1341","31050","14977","1341","NA","2","legacy","5","1024","2","48000","-16","experiment","2","even","3","176658","34733","173393","174455","3677","131898","174456","154675","3682","116921","178659","180000","175457","178659","NA","Sternberg task","16","21791","20","yes","1024"
"80.95238095238095","80.95238095238095","1072.095238095238","1072.095238095238","black","experiment","legacy","legacy","legacy","0","uniform","1","undefined","1","right","20","0","20","20","0","0","20","20","0","0","20","20","20","20","0","Wed Oct 19 14:58:44 2022","The main experiment item","yes","Sternbergtask.osexp","C:/Users/cici_/Downloads","no","mono","no","18","no","white","no","yes","768","legacy","8","11","C:/Users/cici_/OneDrive/Documents/R/26F-subject-2.csv","legacy","7 4 2 8 1 9","Lentiform Loewenfeld","3.3.12","0","n","0","right","left","left","right","NA","723","31050","14977","723","NA","2","legacy","6","1024","2","48000","-16","experiment","2","even","5","183280","34733","180014","181077","3677","131898","181078","154675","3682","116921","185281","186004","182079","185281","NA","Sternberg task","17","22514","21","yes","1024"
"81.81818181818181","81.81818181818181","1060.6363636363637","1060.6363636363637","black","experiment","legacy","legacy","legacy","0","uniform","1","undefined","1","right","21","0","21","21","0","0","21","21","0","0","21","21","21","21","0","Wed Oct 19 14:58:44 2022","The main experiment item","yes","Sternbergtask.osexp","C:/Users/cici_/Downloads","no","mono","no","18","no","white","no","yes","768","legacy","9","11","C:/Users/cici_/OneDrive/Documents/R/26F-subject-2.csv","legacy","9 7 4 5 8","Lentiform Loewenfeld","3.3.12","0","n","0","right","left","left","right","NA","820","31050","14977","820","NA","2","legacy","5","1024","2","48000","-16","experiment","2","even","6","189274","34733","186009","187071","3677","131898","187072","154675","3682","116921","191275","192095","188073","191275","NA","Sternberg task","18","23334","22","yes","1024"
"82.6086956521739","82.6086956521739","1052.2608695652175","1052.2608695652175","black","experiment","legacy","legacy","legacy","0","uniform","1","undefined","1","left","22","0","22","22","0","0","22","22","0","0","22","22","22","22","0","Wed Oct 19 14:58:44 2022","The main experiment item","yes","Sternbergtask.osexp","C:/Users/cici_/Downloads","no","mono","no","18","no","white","no","yes","768","legacy","10","11","C:/Users/cici_/OneDrive/Documents/R/26F-subject-2.csv","legacy","4 7 6 8 2 3","Lentiform Loewenfeld","3.3.12","6","y","0","left","left","left","left","NA","868","31050","14977","868","NA","2","legacy","6","1024","2","48000","-16","experiment","2","even","3","195373","34733","192109","193170","3677","131898","193171","154675","3682","116921","197375","198244","194171","197375","NA","Sternberg task","19","24202","23","yes","1024"
"83.33333333333333","83.33333333333333","1043.5","1043.5","black","experiment","legacy","legacy","legacy","0","uniform","1","undefined","1","left","23","0","23","23","0","0","23","23","0","0","23","23","23","23","0","Wed Oct 19 14:58:44 2022","The main experiment item","yes","Sternbergtask.osexp","C:/Users/cici_/Downloads","no","mono","no","18","no","white","no","yes","768","legacy","11","11","C:/Users/cici_/OneDrive/Documents/R/26F-subject-2.csv","legacy","7 2 3","Lentiform Loewenfeld","3.3.12","3","y","0","left","left","left","left","NA","842","31050","14977","842","NA","2","legacy","3","1024","2","48000","-16","experiment","2","even","3","201528","34733","198259","199324","3677","131898","199326","154675","3682","116921","203529","204372","200327","203529","NA","Sternberg task","20","25044","24","yes","1024"
"84","84","1031.68","1031.68","black","experiment","legacy","legacy","legacy","0","uniform","1","undefined","1","right","24","0","24","24","0","0","24","24","0","0","24","24","24","24","0","Wed Oct 19 14:58:44 2022","The main experiment item","yes","Sternbergtask.osexp","C:/Users/cici_/Downloads","no","mono","no","18","no","white","no","yes","768","legacy","12","11","C:/Users/cici_/OneDrive/Documents/R/26F-subject-2.csv","legacy","9","Lentiform Loewenfeld","3.3.12","0","n","0","right","left","left","right","NA","748","31050","14977","748","NA","2","legacy","1","1024","2","48000","-16","experiment","2","even","6","207652","34733","204386","205448","3677","131898","205450","154675","3682","116921","209653","210402","206451","209653","NA","Sternberg task","21","25792","25","yes","1024"
"84.61538461538461","84.61538461538461","1023.8076923076923","1023.8076923076923","black","experiment","legacy","legacy","legacy","0","uniform","1","undefined","1","right","25","0","25","25","0","0","25","25","0","0","25","25","25","25","0","Wed Oct 19 14:58:44 2022","The main experiment item","yes","Sternbergtask.osexp","C:/Users/cici_/Downloads","no","mono","no","18","no","white","no","yes","768","legacy","13","11","C:/Users/cici_/OneDrive/Documents/R/26F-subject-2.csv","legacy","1 6 4 3 9 7","Lentiform Loewenfeld","3.3.12","0","n","0","right","left","left","right","NA","827","31050","14977","827","NA","2","legacy","6","1024","2","48000","-16","experiment","2","even","8","213678","34733","210413","211474","3677","131898","211476","154675","3682","116921","215679","216507","212477","215679","NA","Sternberg task","22","26619","26","yes","1024"
"85.18518518518519","85.18518518518519","1010.074074074074","1010.074074074074","black","experiment","legacy","legacy","legacy","0","uniform","1","undefined","1","right","26","0","26","26","0","0","26","26","0","0","26","26","26","26","0","Wed Oct 19 14:58:44 2022","The main experiment item","yes","Sternbergtask.osexp","C:/Users/cici_/Downloads","no","mono","no","18","no","white","no","yes","768","legacy","14","11","C:/Users/cici_/OneDrive/Documents/R/26F-subject-2.csv","legacy","8 5 7 3 6","Lentiform Loewenfeld","3.3.12","0","n","0","right","left","left","right","NA","653","31050","14977","653","NA","2","legacy","5","1024","2","48000","-16","experiment","2","even","9","219787","34733","216521","217583","3677","131898","217585","154675","3682","116921","221788","222441","218586","221788","NA","Sternberg task","23","27272","27","yes","1024"
"85.71428571428571","85.71428571428571","1008.4285714285714","1008.4285714285714","black","experiment","legacy","legacy","legacy","0","uniform","1","undefined","1","right","27","0","27","27","0","0","27","27","0","0","27","27","27","27","0","Wed Oct 19 14:58:44 2022","The main experiment item","yes","Sternbergtask.osexp","C:/Users/cici_/Downloads","no","mono","no","18","no","white","no","yes","768","legacy","15","11","C:/Users/cici_/OneDrive/Documents/R/26F-subject-2.csv","legacy","7 8 6 1","Lentiform Loewenfeld","3.3.12","0","n","0","right","left","left","right","NA","964","31050","14977","964","NA","2","legacy","4","1024","2","48000","-16","experiment","2","even","3","225713","34733","222446","223509","3677","131898","223511","154675","3682","116921","227714","228679","224512","227714","NA","Sternberg task","24","28236","28","yes","1024"
"82.75862068965517","82.75862068965517","1032.7931034482758","1032.7931034482758","black","experiment","legacy","legacy","legacy","0","uniform","0","undefined","0","left","28","0","28","28","0","0","28","28","0","0","28","28","28","28","0","Wed Oct 19 14:58:44 2022","The main experiment item","yes","Sternbergtask.osexp","C:/Users/cici_/Downloads","no","mono","no","18","no","white","no","yes","768","legacy","16","11","C:/Users/cici_/OneDrive/Documents/R/26F-subject-2.csv","legacy","2 4 6 9","Lentiform Loewenfeld","3.3.12","3","y","0","right","left","left","right","NA","1715","31050","14977","1715","NA","2","legacy","4","1024","2","48000","-16","experiment","2","even","6","231963","34733","228694","229759","3677","131898","229761","154675","3682","116921","233964","235679","230762","233964","NA","Sternberg task","24","29951","29","yes","1024"
"83.33333333333333","83.33333333333333","1043.6","1043.6","black","experiment","legacy","legacy","legacy","0","uniform","1","undefined","1","left","29","0","29","29","0","0","29","29","0","0","29","29","29","29","0","Wed Oct 19 14:58:44 2022","The main experiment item","yes","Sternbergtask.osexp","C:/Users/cici_/Downloads","no","mono","no","18","no","white","no","yes","768","legacy","17","11","C:/Users/cici_/OneDrive/Documents/R/26F-subject-2.csv","legacy","6 9 3 1","Lentiform Loewenfeld","3.3.12","4","y","0","left","left","left","left","NA","1357","31050","14977","1357","NA","2","legacy","4","1024","2","48000","-16","experiment","2","even","1","238966","34733","228694","236762","3677","131898","236764","235695","3682","116921","240967","242324","237765","240967","NA","Sternberg task","25","31308","30","yes","1024"
"80.64516129032258","80.64516129032258","1029.8387096774193","1029.8387096774193","black","experiment","legacy","legacy","legacy","0","uniform","0","undefined","0","right","30","0","30","30","0","0","30","30","0","0","30","30","30","30","0","Wed Oct 19 14:58:44 2022","The main experiment item","yes","Sternbergtask.osexp","C:/Users/cici_/Downloads","no","mono","no","18","no","white","no","yes","768","legacy","18","11","C:/Users/cici_/OneDrive/Documents/R/26F-subject-2.csv","legacy","2 8 7 9 5 3","Lentiform Loewenfeld","3.3.12","0","n","0","left","left","left","left","NA","617","31050","14977","617","NA","2","legacy","6","1024","2","48000","-16","experiment","2","even","6","245606","34733","242339","243401","3677","131898","243403","235695","3682","116921","247607","248225","244404","247607","NA","Sternberg task","25","31925","31","yes","1024"
"81.25","81.25","1041.5625","1041.5625","black","experiment","legacy","legacy","legacy","0","uniform","1","undefined","1","left","31","0","31","31","0","0","31","31","0","0","31","31","31","31","0","Wed Oct 19 14:58:44 2022","The main experiment item","yes","Sternbergtask.osexp","C:/Users/cici_/Downloads","no","mono","no","18","no","white","no","yes","768","legacy","19","11","C:/Users/cici_/OneDrive/Documents/R/26F-subject-2.csv","legacy","5 2 6","Lentiform Loewenfeld","3.3.12","2","y","0","left","left","left","left","NA","1405","31050","14977","1405","NA","2","legacy","3","1024","2","48000","-16","experiment","2","even","2","251512","34733","242339","249308","3677","131898","249309","248239","3682","116921","253513","254919","250310","253513","NA","Sternberg task","26","33330","32","yes","1024"
"81.81818181818181","81.81818181818181","1032.939393939394","1032.939393939394","black","experiment","legacy","legacy","legacy","0","uniform","1","undefined","1","left","32","0","32","32","0","0","32","32","0","0","32","32","32","32","0","Wed Oct 19 14:58:44 2022","The main experiment item","yes","Sternbergtask.osexp","C:/Users/cici_/Downloads","no","mono","no","18","no","white","no","yes","768","legacy","20","11","C:/Users/cici_/OneDrive/Documents/R/26F-subject-2.csv","legacy","8 5 4 7 3 1","Lentiform Loewenfeld","3.3.12","2","y","0","left","left","left","left","NA","757","31050","14977","757","NA","2","legacy","6","1024","2","48000","-16","experiment","2","even","5","258192","34733","254924","255988","3677","131898","255990","248239","3682","116921","260193","260950","256991","260193","NA","Sternberg task","27","34087","33","yes","1024"
"82.3529411764706","82.3529411764706","1023.4705882352941","1023.4705882352941","black","experiment","legacy","legacy","legacy","0","uniform","1","undefined","1","left","33","0","33","33","0","0","33","33","0","0","33","33","33","33","0","Wed Oct 19 14:58:44 2022","The main experiment item","yes","Sternbergtask.osexp","C:/Users/cici_/Downloads","no","mono","no","18","no","white","no","yes","768","legacy","21","11","C:/Users/cici_/OneDrive/Documents/R/26F-subject-2.csv","legacy","2 6 1 7 4","Lentiform Loewenfeld","3.3.12","2","y","0","left","left","left","left","NA","711","31050","14977","711","NA","2","legacy","5","1024","2","48000","-16","experiment","2","even","6","264221","34733","260956","262017","3677","131898","262019","248239","3682","116921","266222","266933","263020","266222","NA","Sternberg task","28","34798","34","yes","1024"
"82.85714285714286","82.85714285714286","1020.5714285714286","1020.5714285714286","black","experiment","legacy","legacy","legacy","0","uniform","1","undefined","1","right","34","0","34","34","0","0","34","34","0","0","34","34","34","34","0","Wed Oct 19 14:58:44 2022","The main experiment item","yes","Sternbergtask.osexp","C:/Users/cici_/Downloads","no","mono","no","18","no","white","no","yes","768","legacy","22","11","C:/Users/cici_/OneDrive/Documents/R/26F-subject-2.csv","legacy","5 3 8 7 2 4","Lentiform Loewenfeld","3.3.12","0","n","0","right","left","left","right","NA","922","31050","14977","922","NA","2","legacy","6","1024","2","48000","-16","experiment","2","even","9","270214","34733","266948","268009","3677","131898","268012","248239","3682","116921","272215","273138","269013","272215","NA","Sternberg task","29","35720","35","yes","1024"
"83.33333333333333","83.33333333333333","1009.4444444444445","1009.4444444444445","black","experiment","legacy","legacy","legacy","0","uniform","1","undefined","1","left","35","0","35","35","0","0","35","35","0","0","35","35","35","35","0","Wed Oct 19 14:58:44 2022","The main experiment item","yes","Sternbergtask.osexp","C:/Users/cici_/Downloads","no","mono","no","18","no","white","no","yes","768","legacy","23","11","C:/Users/cici_/OneDrive/Documents/R/26F-subject-2.csv","legacy","8","Lentiform Loewenfeld","3.3.12","1","y","0","left","left","left","left","NA","620","31050","14977","620","NA","2","legacy","1","1024","2","48000","-16","experiment","2","even","8","276412","34733","273147","274208","3677","131898","274210","248239","3682","116921","278413","279033","275211","278413","NA","Sternberg task","30","36340","36","yes","1024"
"83.78378378378379","83.78378378378379","1014.8108108108108","1014.8108108108108","black","experiment","legacy","legacy","legacy","0","uniform","1","undefined","1","left","36","0","36","36","0","0","36","36","0","0","36","36","36","36","0","Wed Oct 19 14:58:44 2022","The main experiment item","yes","Sternbergtask.osexp","C:/Users/cici_/Downloads","no","mono","no","18","no","white","no","yes","768","legacy","24","11","C:/Users/cici_/OneDrive/Documents/R/26F-subject-2.csv","legacy","9 5 8 1","Lentiform Loewenfeld","3.3.12","2","y","0","left","left","left","left","NA","1208","31050","14977","1208","NA","2","legacy","4","1024","2","48000","-16","experiment","2","even","5","282314","34733","279048","280110","3677","131898","280112","248239","3682","116921","284315","285524","281113","284315","NA","Sternberg task","31","37548","37","yes","1024"
"84.21052631578948","84.21052631578948","1014.8684210526316","1014.8684210526316","black","experiment","legacy","legacy","legacy","0","uniform","1","undefined","1","right","37","0","37","37","0","0","37","37","0","0","37","37","37","37","0","Wed Oct 19 14:58:44 2022","The main experiment item","yes","Sternbergtask.osexp","C:/Users/cici_/Downloads","no","mono","no","18","no","white","no","yes","768","legacy","25","11","C:/Users/cici_/OneDrive/Documents/R/26F-subject-2.csv","legacy","4 2 7 6 1 3","Lentiform Loewenfeld","3.3.12","0","n","0","right","left","left","right","NA","1017","31050","14977","1017","NA","2","legacy","6","1024","2","48000","-16","experiment","2","even","8","288804","34733","285539","286601","3677","131898","286602","248239","3682","116921","290805","291823","287603","290805","NA","Sternberg task","32","38565","38","yes","1024"
"84.61538461538461","84.61538461538461","1018.2564102564103","1018.2564102564103","black","experiment","legacy","legacy","legacy","0","uniform","1","undefined","1","left","38","0","38","38","0","0","38","38","0","0","38","38","38","38","0","Wed Oct 19 14:58:44 2022","The main experiment item","yes","Sternbergtask.osexp","C:/Users/cici_/Downloads","no","mono","no","18","no","white","no","yes","768","legacy","26","11","C:/Users/cici_/OneDrive/Documents/R/26F-subject-2.csv","legacy","2 8 5 1","Lentiform Loewenfeld","3.3.12","4","y","0","left","left","left","left","NA","1147","31050","14977","1147","NA","2","legacy","4","1024","2","48000","-16","experiment","2","even","1","295102","34733","291838","292899","3677","131898","292900","248239","3682","116921","297103","298250","293901","297103","NA","Sternberg task","33","39712","39","yes","1024"
"85","85","1010","1010","black","experiment","legacy","legacy","legacy","0","uniform","1","undefined","1","right","39","0","39","39","0","0","39","39","0","0","39","39","39","39","0","Wed Oct 19 14:58:44 2022","The main experiment item","yes","Sternbergtask.osexp","C:/Users/cici_/Downloads","no","mono","no","18","no","white","no","yes","768","legacy","27","11","C:/Users/cici_/OneDrive/Documents/R/26F-subject-2.csv","legacy","8 6 3 4 7","Lentiform Loewenfeld","3.3.12","0","n","0","right","left","left","right","NA","688","31050","14977","688","NA","2","legacy","5","1024","2","48000","-16","experiment","2","even","1","301533","34733","298266","299328","3677","131898","299330","248239","3682","116921","303534","304222","300331","303534","NA","Sternberg task","34","40400","40","yes","1024"
"85.36585365853658","85.36585365853658","1007.8536585365854","1007.8536585365854","black","experiment","legacy","legacy","legacy","0","uniform","1","undefined","1","left","40","0","40","40","0","0","40","40","0","0","40","40","40","40","0","Wed Oct 19 14:58:44 2022","The main experiment item","yes","Sternbergtask.osexp","C:/Users/cici_/Downloads","no","mono","no","18","no","white","no","yes","768","legacy","28","11","C:/Users/cici_/OneDrive/Documents/R/26F-subject-2.csv","legacy","7 6","Lentiform Loewenfeld","3.3.12","2","y","0","left","left","left","left","NA","922","31050","14977","922","NA","2","legacy","2","1024","2","48000","-16","experiment","2","even","6","307503","34733","304238","305299","3677","131898","305301","248239","3682","116921","309504","310426","306302","309504","NA","Sternberg task","35","41322","41","yes","1024"
"85.71428571428571","85.71428571428571","999.5238095238095","999.5238095238095","black","experiment","legacy","legacy","legacy","0","uniform","1","undefined","1","right","41","0","41","41","0","0","41","41","0","0","41","41","41","41","0","Wed Oct 19 14:58:44 2022","The main experiment item","yes","Sternbergtask.osexp","C:/Users/cici_/Downloads","no","mono","no","18","no","white","no","yes","768","legacy","29","11","C:/Users/cici_/OneDrive/Documents/R/26F-subject-2.csv","legacy","8 2 1 4 5 9","Lentiform Loewenfeld","3.3.12","0","n","0","right","left","left","right","NA","658","31050","14977","658","NA","2","legacy","6","1024","2","48000","-16","experiment","2","even","7","313715","34733","310442","311511","3677","131898","311513","248239","3682","116921","315716","316374","312514","315716","NA","Sternberg task","36","41980","42","yes","1024"
"86.04651162790698","86.04651162790698","993.5116279069767","993.5116279069767","black","experiment","legacy","legacy","legacy","0","uniform","1","undefined","1","left","42","0","42","42","0","0","42","42","0","0","42","42","42","42","0","Wed Oct 19 14:58:44 2022","The main experiment item","yes","Sternbergtask.osexp","C:/Users/cici_/Downloads","no","mono","no","18","no","white","no","yes","768","legacy","30","11","C:/Users/cici_/OneDrive/Documents/R/26F-subject-2.csv","legacy","3 5 7 1","Lentiform Loewenfeld","3.3.12","3","y","0","left","left","left","left","NA","741","31050","14977","741","NA","2","legacy","4","1024","2","48000","-16","experiment","2","even","7","319656","34733","316391","317453","3677","131898","317455","248239","3682","116921","321657","322399","318456","321657","NA","Sternberg task","37","42721","43","yes","1024"
"86.36363636363636","86.36363636363636","987.3181818181819","987.3181818181819","black","experiment","legacy","legacy","legacy","0","uniform","1","undefined","1","right","43","0","43","43","0","0","43","43","0","0","43","43","43","43","0","Wed Oct 19 14:58:44 2022","The main experiment item","yes","Sternbergtask.osexp","C:/Users/cici_/Downloads","no","mono","no","18","no","white","no","yes","768","legacy","31","11","C:/Users/cici_/OneDrive/Documents/R/26F-subject-2.csv","legacy","7 6 4 8 1 2","Lentiform Loewenfeld","3.3.12","0","n","0","right","left","left","right","NA","721","31050","14977","721","NA","2","legacy","6","1024","2","48000","-16","experiment","2","even","9","325667","34733","322403","323464","3677","131898","323465","248239","3682","116921","327668","328390","324466","327668","NA","Sternberg task","38","43442","44","yes","1024"
"86.66666666666667","86.66666666666667","985.6222222222223","985.6222222222223","black","experiment","legacy","legacy","legacy","0","uniform","1","undefined","1","left","44","0","44","44","0","0","44","44","0","0","44","44","44","44","0","Wed Oct 19 14:58:44 2022","The main experiment item","yes","Sternbergtask.osexp","C:/Users/cici_/Downloads","no","mono","no","18","no","white","no","yes","768","legacy","32","11","C:/Users/cici_/OneDrive/Documents/R/26F-subject-2.csv","legacy","7 8 6 3 1","Lentiform Loewenfeld","3.3.12","5","y","0","left","left","left","left","NA","911","31050","14977","911","NA","2","legacy","5","1024","2","48000","-16","experiment","2","even","1","331671","34733","328405","329467","3677","131898","329469","248239","3682","116921","333673","334585","330470","333673","NA","Sternberg task","39","44353","45","yes","1024"
"86.95652173913044","86.95652173913044","975.9130434782609","975.9130434782609","black","experiment","legacy","legacy","legacy","0","uniform","1","undefined","1","right","45","0","45","45","0","0","45","45","0","0","45","45","45","45","0","Wed Oct 19 14:58:44 2022","The main experiment item","yes","Sternbergtask.osexp","C:/Users/cici_/Downloads","no","mono","no","18","no","white","no","yes","768","legacy","33","11","C:/Users/cici_/OneDrive/Documents/R/26F-subject-2.csv","legacy","5","Lentiform Loewenfeld","3.3.12","0","n","0","right","left","left","right","NA","539","31050","14977","539","NA","2","legacy","1","1024","2","48000","-16","experiment","2","even","8","337864","34733","334600","335661","3677","131898","335662","248239","3682","116921","339865","340404","336663","339865","NA","Sternberg task","40","44892","46","yes","1024"
"87.23404255319149","87.23404255319149","981.7872340425532","981.7872340425532","black","experiment","legacy","legacy","legacy","0","uniform","1","undefined","1","left","46","0","46","46","0","0","46","46","0","0","46","46","46","46","0","Wed Oct 19 14:58:44 2022","The main experiment item","yes","Sternbergtask.osexp","C:/Users/cici_/Downloads","no","mono","no","18","no","white","no","yes","768","legacy","34","11","C:/Users/cici_/OneDrive/Documents/R/26F-subject-2.csv","legacy","2 5 4 8 7","Lentiform Loewenfeld","3.3.12","3","y","0","left","left","left","left","NA","1252","31050","14977","1252","NA","2","legacy","5","1024","2","48000","-16","experiment","2","even","4","343684","34733","340419","341480","3677","131898","341482","248239","3682","116921","345685","346938","342483","345685","NA","Sternberg task","41","46144","47","yes","1024"
"87.5","87.5","980.1041666666666","980.1041666666666","black","experiment","legacy","legacy","legacy","0","uniform","1","undefined","1","right","47","0","47","47","0","0","47","47","0","0","47","47","47","47","0","Wed Oct 19 14:58:44 2022","The main experiment item","yes","Sternbergtask.osexp","C:/Users/cici_/Downloads","no","mono","no","18","no","white","no","yes","768","legacy","35","11","C:/Users/cici_/OneDrive/Documents/R/26F-subject-2.csv","legacy","7 9 1 6","Lentiform Loewenfeld","3.3.12","0","n","0","right","left","left","right","NA","901","31050","14977","901","NA","2","legacy","4","1024","2","48000","-16","experiment","2","even","4","350209","34733","346942","348004","3677","131898","348006","248239","3682","116921","352210","353111","349008","352210","NA","Sternberg task","42","47045","48","yes","1024"
"87.75510204081633","87.75510204081633","980.8163265306123","980.8163265306123","black","experiment","legacy","legacy","legacy","0","uniform","1","undefined","1","left","48","0","48","48","0","0","48","48","0","0","48","48","48","48","0","Wed Oct 19 14:58:44 2022","The main experiment item","yes","Sternbergtask.osexp","C:/Users/cici_/Downloads","no","mono","no","18","no","white","no","yes","768","legacy","36","11","C:/Users/cici_/OneDrive/Documents/R/26F-subject-2.csv","legacy","4 6 2 5 1","Lentiform Loewenfeld","3.3.12","5","y","0","left","left","left","left","NA","1015","31050","14977","1015","NA","2","legacy","5","1024","2","48000","-16","experiment","2","even","1","356392","34733","353126","354188","3677","131898","354189","248239","3682","116921","358393","359408","355191","358393","NA","Sternberg task","43","48060","49","yes","1024"
"88","88","976.62","976.62","black","experiment","legacy","legacy","legacy","0","uniform","1","undefined","1","right","49","0","49","49","0","0","49","49","0","0","49","49","49","49","0","Wed Oct 19 14:58:44 2022","The main experiment item","yes","Sternbergtask.osexp","C:/Users/cici_/Downloads","no","mono","no","18","no","white","no","yes","768","legacy","37","11","C:/Users/cici_/OneDrive/Documents/R/26F-subject-2.csv","legacy","6 8 4","Lentiform Loewenfeld","3.3.12","0","n","0","right","left","left","right","NA","771","31050","14977","771","NA","2","legacy","3","1024","2","48000","-16","experiment","2","even","1","362687","34733","359423","360484","3677","131898","360485","248239","3682","116921","364688","365460","361486","364688","NA","Sternberg task","44","48831","50","yes","1024"
"88.23529411764706","88.23529411764706","973.0980392156863","973.0980392156863","black","experiment","legacy","legacy","legacy","0","uniform","1","undefined","1","left","50","0","50","50","0","0","50","50","0","0","50","50","50","50","0","Wed Oct 19 14:58:44 2022","The main experiment item","yes","Sternbergtask.osexp","C:/Users/cici_/Downloads","no","mono","no","18","no","white","no","yes","768","legacy","38","11","C:/Users/cici_/OneDrive/Documents/R/26F-subject-2.csv","legacy","3 9 6 2","Lentiform Loewenfeld","3.3.12","4","y","0","left","left","left","left","NA","797","31050","14977","797","NA","2","legacy","4","1024","2","48000","-16","experiment","2","even","2","368739","34733","365475","366536","3677","131898","366537","248239","3682","116921","370740","371538","367538","370740","NA","Sternberg task","45","49628","51","yes","1024"
"88.46153846153847","88.46153846153847","966.5384615384615","966.5384615384615","black","experiment","legacy","legacy","legacy","0","uniform","1","undefined","1","left","51","0","51","51","0","0","51","51","0","0","51","51","51","51","0","Wed Oct 19 14:58:44 2022","The main experiment item","yes","Sternbergtask.osexp","C:/Users/cici_/Downloads","no","mono","no","18","no","white","no","yes","768","legacy","39","11","C:/Users/cici_/OneDrive/Documents/R/26F-subject-2.csv","legacy","7 1 3","Lentiform Loewenfeld","3.3.12","2","y","0","left","left","left","left","NA","632","31050","14977","632","NA","2","legacy","3","1024","2","48000","-16","experiment","2","even","1","374809","34733","371542","372604","3677","131898","372607","248239","3682","116921","376810","377443","373608","376810","NA","Sternberg task","46","50260","52","yes","1024"
"88.67924528301887","88.67924528301887","959.6603773584906","959.6603773584906","black","experiment","legacy","legacy","legacy","0","uniform","1","undefined","1","right","52","0","52","52","0","0","52","52","0","0","52","52","52","52","0","Wed Oct 19 14:58:44 2022","The main experiment item","yes","Sternbergtask.osexp","C:/Users/cici_/Downloads","no","mono","no","18","no","white","no","yes","768","legacy","40","11","C:/Users/cici_/OneDrive/Documents/R/26F-subject-2.csv","legacy","3 4 2","Lentiform Loewenfeld","3.3.12","0","n","0","right","left","left","right","NA","602","31050","14977","602","NA","2","legacy","3","1024","2","48000","-16","experiment","2","even","5","380723","34733","377458","378520","3677","131898","378521","248239","3682","116921","382724","383326","379522","382724","NA","Sternberg task","47","50862","53","yes","1024"
"88.88888888888889","88.88888888888889","951.8888888888889","951.8888888888889","black","experiment","legacy","legacy","legacy","0","uniform","1","undefined","1","left","53","0","53","53","0","0","53","53","0","0","53","53","53","53","0","Wed Oct 19 14:58:44 2022","The main experiment item","yes","Sternbergtask.osexp","C:/Users/cici_/Downloads","no","mono","no","18","no","white","no","yes","768","legacy","41","11","C:/Users/cici_/OneDrive/Documents/R/26F-subject-2.csv","legacy","5 2 9 6 1 7","Lentiform Loewenfeld","3.3.12","3","y","0","left","left","left","left","NA","540","31050","14977","540","NA","2","legacy","6","1024","2","48000","-16","experiment","2","even","9","386606","34733","383341","384402","3677","131898","384404","248239","3682","116921","388607","389148","385405","388607","NA","Sternberg task","48","51402","54","yes","1024"
"89.0909090909091","89.0909090909091","947.290909090909","947.290909090909","black","experiment","legacy","legacy","legacy","0","uniform","1","undefined","1","right","54","0","54","54","0","0","54","54","0","0","54","54","54","54","0","Wed Oct 19 14:58:44 2022","The main experiment item","yes","Sternbergtask.osexp","C:/Users/cici_/Downloads","no","mono","no","18","no","white","no","yes","768","legacy","42","11","C:/Users/cici_/OneDrive/Documents/R/26F-subject-2.csv","legacy","4 1","Lentiform Loewenfeld","3.3.12","0","n","0","right","left","left","right","NA","699","31050","14977","699","NA","2","legacy","2","1024","2","48000","-16","experiment","2","even","6","392422","34733","389154","390218","3677","131898","390220","248239","3682","116921","394423","395123","391221","394423","NA","Sternberg task","49","52101","55","yes","1024"
"89.28571428571429","89.28571428571429","941.5714285714286","941.5714285714286","black","experiment","legacy","legacy","legacy","0","uniform","1","undefined","1","right","55","0","55","55","0","0","55","55","0","0","55","55","55","55","0","Wed Oct 19 14:58:44 2022","The main experiment item","yes","Sternbergtask.osexp","C:/Users/cici_/Downloads","no","mono","no","18","no","white","no","yes","768","legacy","43","11","C:/Users/cici_/OneDrive/Documents/R/26F-subject-2.csv","legacy","1 4 9 3","Lentiform Loewenfeld","3.3.12","0","n","0","right","left","left","right","NA","627","31050","14977","627","NA","2","legacy","4","1024","2","48000","-16","experiment","2","even","5","398403","34733","395138","396199","3677","131898","396201","248239","3682","116921","400404","401031","397202","400404","NA","Sternberg task","50","52728","56","yes","1024"
"89.47368421052632","89.47368421052632","938.3157894736842","938.3157894736842","black","experiment","legacy","legacy","legacy","0","uniform","1","undefined","1","left","56","0","56","56","0","0","56","56","0","0","56","56","56","56","0","Wed Oct 19 14:58:44 2022","The main experiment item","yes","Sternbergtask.osexp","C:/Users/cici_/Downloads","no","mono","no","18","no","white","no","yes","768","legacy","44","11","C:/Users/cici_/OneDrive/Documents/R/26F-subject-2.csv","legacy","6 9 7 4 5 1","Lentiform Loewenfeld","3.3.12","2","y","0","left","left","left","left","NA","756","31050","14977","756","NA","2","legacy","6","1024","2","48000","-16","experiment","2","even","9","404311","34733","401046","402107","3677","131898","402109","248239","3682","116921","406312","407069","403110","406312","NA","Sternberg task","51","53484","57","yes","1024"
"89.65517241379311","89.65517241379311","934.0344827586207","934.0344827586207","black","experiment","legacy","legacy","legacy","0","uniform","1","undefined","1","right","57","0","57","57","0","0","57","57","0","0","57","57","57","57","0","Wed Oct 19 14:58:44 2022","The main experiment item","yes","Sternbergtask.osexp","C:/Users/cici_/Downloads","no","mono","no","18","no","white","no","yes","768","legacy","45","11","C:/Users/cici_/OneDrive/Documents/R/26F-subject-2.csv","legacy","7 9","Lentiform Loewenfeld","3.3.12","0","n","0","right","left","left","right","NA","690","31050","14977","690","NA","2","legacy","2","1024","2","48000","-16","experiment","2","even","1","410352","34733","407083","408147","3677","131898","408149","248239","3682","116921","412353","413043","409150","412353","NA","Sternberg task","52","54174","58","yes","1024"
"89.83050847457628","89.83050847457628","932.3220338983051","932.3220338983051","black","experiment","legacy","legacy","legacy","0","uniform","1","undefined","1","right","58","0","58","58","0","0","58","58","0","0","58","58","58","58","0","Wed Oct 19 14:58:44 2022","The main experiment item","yes","Sternbergtask.osexp","C:/Users/cici_/Downloads","no","mono","no","18","no","white","no","yes","768","legacy","46","11","C:/Users/cici_/OneDrive/Documents/R/26F-subject-2.csv","legacy","2 8 6 3 1","Lentiform Loewenfeld","3.3.12","0","n","0","right","left","left","right","NA","833","31050","14977","833","NA","2","legacy","5","1024","2","48000","-16","experiment","2","even","7","416325","34733","413058","414120","3677","131898","414122","248239","3682","116921","418326","419160","415123","418326","NA","Sternberg task","53","55007","59","yes","1024"
"90","90","930.1833333333333","930.1833333333333","black","experiment","legacy","legacy","legacy","0","uniform","1","undefined","1","right","59","0","59","59","0","0","59","59","0","0","59","59","59","59","0","Wed Oct 19 14:58:44 2022","The main experiment item","yes","Sternbergtask.osexp","C:/Users/cici_/Downloads","no","mono","no","18","no","white","no","yes","768","legacy","47","11","C:/Users/cici_/OneDrive/Documents/R/26F-subject-2.csv","legacy","3 4 9 6 7 8","Lentiform Loewenfeld","3.3.12","0","n","0","right","left","left","right","NA","804","31050","14977","804","NA","2","legacy","6","1024","2","48000","-16","experiment","2","even","2","422442","34733","419175","420237","3677","131898","420239","248239","3682","116921","424443","425248","421240","424443","NA","Sternberg task","54","55811","60","yes","1024"
"90.1639344262295","90.1639344262295","925.2295081967213","925.2295081967213","black","experiment","legacy","legacy","legacy","0","uniform","1","undefined","1","left","60","0","60","60","0","0","60","60","0","0","60","60","60","60","0","Wed Oct 19 14:58:44 2022","The main experiment item","yes","Sternbergtask.osexp","C:/Users/cici_/Downloads","no","mono","no","18","no","white","no","yes","768","legacy","48","11","C:/Users/cici_/OneDrive/Documents/R/26F-subject-2.csv","legacy","4 6 5 8","Lentiform Loewenfeld","3.3.12","1","y","0","left","left","left","left","NA","628","31050","14977","628","NA","2","legacy","4","1024","2","48000","-16","experiment","2","even","4","428532","34733","425265","426327","3677","131898","426330","248239","3682","116921","430533","431161","427331","430533","NA","Sternberg task","55","56439","61","yes","1024"
"90.3225806451613","90.3225806451613","920.4516129032259","920.4516129032259","black","experiment","legacy","legacy","legacy","0","uniform","1","undefined","1","right","61","0","61","61","0","0","61","61","0","0","61","61","61","61","0","Wed Oct 19 14:58:44 2022","The main experiment item","yes","Sternbergtask.osexp","C:/Users/cici_/Downloads","no","mono","no","18","no","white","no","yes","768","legacy","49","11","C:/Users/cici_/OneDrive/Documents/R/26F-subject-2.csv","legacy","2 8 9","Lentiform Loewenfeld","3.3.12","0","n","0","right","left","left","right","NA","629","31050","14977","629","NA","2","legacy","3","1024","2","48000","-16","experiment","2","even","6","434443","34733","431176","432238","3677","131898","432241","248239","3682","116921","436445","437075","433242","436445","NA","Sternberg task","56","57068","62","yes","1024"
"90.47619047619048","90.47619047619048","916.4603174603175","916.4603174603175","black","experiment","legacy","legacy","legacy","0","uniform","1","undefined","1","left","62","0","62","62","0","0","62","62","0","0","62","62","62","62","0","Wed Oct 19 14:58:44 2022","The main experiment item","yes","Sternbergtask.osexp","C:/Users/cici_/Downloads","no","mono","no","18","no","white","no","yes","768","legacy","50","11","C:/Users/cici_/OneDrive/Documents/R/26F-subject-2.csv","legacy","6 5","Lentiform Loewenfeld","3.3.12","2","y","0","left","left","left","left","NA","669","31050","14977","669","NA","2","legacy","2","1024","2","48000","-16","experiment","2","even","5","440347","34733","437079","438142","3677","131898","438144","248239","3682","116921","442348","443018","439145","442348","NA","Sternberg task","57","57737","63","yes","1024"
"90.625","90.625","911.65625","911.65625","black","experiment","legacy","legacy","legacy","0","uniform","1","undefined","1","left","63","0","63","63","0","0","63","63","0","0","63","63","63","63","0","Wed Oct 19 14:58:44 2022","The main experiment item","yes","Sternbergtask.osexp","C:/Users/cici_/Downloads","no","mono","no","18","no","white","no","yes","768","legacy","51","11","C:/Users/cici_/OneDrive/Documents/R/26F-subject-2.csv","legacy","6 7 8 5","Lentiform Loewenfeld","3.3.12","3","y","0","left","left","left","left","NA","609","31050","14977","609","NA","2","legacy","4","1024","2","48000","-16","experiment","2","even","8","446299","34733","443033","444096","3677","131898","444097","248239","3682","116921","448300","448910","445098","448300","NA","Sternberg task","58","58346","64","yes","1024"
"89.23076923076923","89.23076923076923","907.7076923076924","907.7076923076924","black","experiment","legacy","legacy","legacy","0","uniform","0","undefined","0","left","64","0","64","64","0","0","64","64","0","0","64","64","64","64","0","Wed Oct 19 14:58:44 2022","The main experiment item","yes","Sternbergtask.osexp","C:/Users/cici_/Downloads","no","mono","no","18","no","white","no","yes","768","legacy","52","11","C:/Users/cici_/OneDrive/Documents/R/26F-subject-2.csv","legacy","7 1 8 5 6 2","Lentiform Loewenfeld","3.3.12","2","y","0","right","left","left","right","NA","655","31050","14977","655","NA","2","legacy","6","1024","2","48000","-16","experiment","2","even","1","452191","34733","448925","449988","3677","131898","449989","248239","3682","116921","454192","454848","450990","454192","NA","Sternberg task","58","59001","65","yes","1024"
"89.39393939393939","89.39393939393939","905.3939393939394","905.3939393939394","black","experiment","legacy","legacy","legacy","0","uniform","1","undefined","1","right","65","0","65","65","0","0","65","65","0","0","65","65","65","65","0","Wed Oct 19 14:58:44 2022","The main experiment item","yes","Sternbergtask.osexp","C:/Users/cici_/Downloads","no","mono","no","18","no","white","no","yes","768","legacy","53","11","C:/Users/cici_/OneDrive/Documents/R/26F-subject-2.csv","legacy","6 9 4 5 3 2","Lentiform Loewenfeld","3.3.12","0","n","0","right","left","left","right","NA","755","31050","14977","755","NA","2","legacy","6","1024","2","48000","-16","experiment","2","even","8","458127","34733","448925","455924","3677","131898","455925","454863","3682","116921","460128","460884","456926","460128","NA","Sternberg task","59","59756","66","yes","1024"
"89.55223880597015","89.55223880597015","901.6865671641791","901.6865671641791","black","experiment","legacy","legacy","legacy","0","uniform","1","undefined","1","left","66","0","66","66","0","0","66","66","0","0","66","66","66","66","0","Wed Oct 19 14:58:44 2022","The main experiment item","yes","Sternbergtask.osexp","C:/Users/cici_/Downloads","no","mono","no","18","no","white","no","yes","768","legacy","54","11","C:/Users/cici_/OneDrive/Documents/R/26F-subject-2.csv","legacy","6 2","Lentiform Loewenfeld","3.3.12","1","y","0","left","left","left","left","NA","657","31050","14977","657","NA","2","legacy","2","1024","2","48000","-16","experiment","2","even","6","464165","34733","460898","461961","3677","131898","461963","454863","3682","116921","466166","466824","462964","466166","NA","Sternberg task","60","60413","67","yes","1024"
"89.70588235294117","89.70588235294117","896.8529411764706","896.8529411764706","black","experiment","legacy","legacy","legacy","0","uniform","1","undefined","1","left","67","0","67","67","0","0","67","67","0","0","67","67","67","67","0","Wed Oct 19 14:58:44 2022","The main experiment item","yes","Sternbergtask.osexp","C:/Users/cici_/Downloads","no","mono","no","18","no","white","no","yes","768","legacy","55","11","C:/Users/cici_/OneDrive/Documents/R/26F-subject-2.csv","legacy","9 5 3 8 4","Lentiform Loewenfeld","3.3.12","1","y","0","left","left","left","left","NA","573","31050","14977","573","NA","2","legacy","5","1024","2","48000","-16","experiment","2","even","9","470095","34733","466829","467891","3677","131898","467892","454863","3682","116921","472096","472669","468894","472096","NA","Sternberg task","61","60986","68","yes","1024"
"89.85507246376811","89.85507246376811","893.4347826086956","893.4347826086956","black","experiment","legacy","legacy","legacy","0","uniform","1","undefined","1","right","68","0","68","68","0","0","68","68","0","0","68","68","68","68","0","Wed Oct 19 14:58:44 2022","The main experiment item","yes","Sternbergtask.osexp","C:/Users/cici_/Downloads","no","mono","no","18","no","white","no","yes","768","legacy","56","11","C:/Users/cici_/OneDrive/Documents/R/26F-subject-2.csv","legacy","2 6 4 3 9","Lentiform Loewenfeld","3.3.12","0","n","0","right","left","left","right","NA","661","31050","14977","661","NA","2","legacy","5","1024","2","48000","-16","experiment","2","even","1","475952","34733","472684","473748","3677","131898","473750","454863","3682","116921","477953","478615","474751","477953","NA","Sternberg task","62","61647","69","yes","1024"
"90","90","891","891","black","experiment","legacy","legacy","legacy","0","uniform","1","undefined","1","right","69","0","69","69","0","0","69","69","0","0","69","69","69","69","0","Wed Oct 19 14:58:44 2022","The main experiment item","yes","Sternbergtask.osexp","C:/Users/cici_/Downloads","no","mono","no","18","no","white","no","yes","768","legacy","57","11","C:/Users/cici_/OneDrive/Documents/R/26F-subject-2.csv","legacy","6 3 1 7 9 8","Lentiform Loewenfeld","3.3.12","0","n","0","right","left","left","right","NA","723","31050","14977","723","NA","2","legacy","6","1024","2","48000","-16","experiment","2","even","4","481888","34733","478621","479683","3677","131898","479685","454863","3682","116921","483889","484613","480686","483889","NA","Sternberg task","63","62370","70","yes","1024"
"90.14084507042253","90.14084507042253","887.9718309859155","887.9718309859155","black","experiment","legacy","legacy","legacy","0","uniform","1","undefined","1","right","70","0","70","70","0","0","70","70","0","0","70","70","70","70","0","Wed Oct 19 14:58:44 2022","The main experiment item","yes","Sternbergtask.osexp","C:/Users/cici_/Downloads","no","mono","no","18","no","white","no","yes","768","legacy","58","11","C:/Users/cici_/OneDrive/Documents/R/26F-subject-2.csv","legacy","2 7 5","Lentiform Loewenfeld","3.3.12","0","n","0","right","left","left","right","NA","676","31050","14977","676","NA","2","legacy","3","1024","2","48000","-16","experiment","2","even","8","487893","34733","484627","485690","3677","131898","485691","454863","3682","116921","489894","490571","486692","489894","NA","Sternberg task","64","63046","71","yes","1024"
"90.27777777777777","90.27777777777777","881.9583333333334","881.9583333333334","black","experiment","legacy","legacy","legacy","0","uniform","1","undefined","1","right","71","0","71","71","0","0","71","71","0","0","71","71","71","71","0","Wed Oct 19 14:58:44 2022","The main experiment item","yes","Sternbergtask.osexp","C:/Users/cici_/Downloads","no","mono","no","18","no","white","no","yes","768","legacy","59","11","C:/Users/cici_/OneDrive/Documents/R/26F-subject-2.csv","legacy","2 5 1 4","Lentiform Loewenfeld","3.3.12","0","n","0","right","left","left","right","NA","455","31050","14977","455","NA","2","legacy","4","1024","2","48000","-16","experiment","2","even","6","493852","34733","490586","491647","3677","131898","491649","454863","3682","116921","495853","496309","492650","495853","NA","Sternberg task","65","63501","72","yes","1024"
"90.41095890410959","90.41095890410959","881.6301369863014","881.6301369863014","black","experiment","legacy","legacy","legacy","0","uniform","1","undefined","1","left","72","0","72","72","0","0","72","72","0","0","72","72","72","72","0","Wed Oct 19 14:58:44 2022","The main experiment item","yes","Sternbergtask.osexp","C:/Users/cici_/Downloads","no","mono","no","18","no","white","no","yes","768","legacy","60","11","C:/Users/cici_/OneDrive/Documents/R/26F-subject-2.csv","legacy","7 4 2 6 3 5","Lentiform Loewenfeld","3.3.12","6","y","0","left","left","left","left","NA","858","31050","14977","858","NA","2","legacy","6","1024","2","48000","-16","experiment","2","even","5","499580","34733","496315","497377","3677","131898","497379","454863","3682","116921","501582","502441","498380","501582","NA","Sternberg task","66","64359","73","yes","1024"
"90.54054054054055","90.54054054054055","879.2567567567568","879.2567567567568","black","experiment","legacy","legacy","legacy","0","uniform","1","undefined","1","left","73","0","73","73","0","0","73","73","0","0","73","73","73","73","0","Wed Oct 19 14:58:44 2022","The main experiment item","yes","Sternbergtask.osexp","C:/Users/cici_/Downloads","no","mono","no","18","no","white","no","yes","768","legacy","61","11","C:/Users/cici_/OneDrive/Documents/R/26F-subject-2.csv","legacy","8 9 5 7 1 6","Lentiform Loewenfeld","3.3.12","4","y","0","left","left","left","left","NA","706","31050","14977","706","NA","2","legacy","6","1024","2","48000","-16","experiment","2","even","7","505711","34733","502446","503508","3677","131898","503509","454863","3682","116921","507712","508420","504510","507712","NA","Sternberg task","67","65065","74","yes","1024"
"90.66666666666667","90.66666666666667","875.4933333333333","875.4933333333333","black","experiment","legacy","legacy","legacy","0","uniform","1","undefined","1","left","74","0","74","74","0","0","74","74","0","0","74","74","74","74","0","Wed Oct 19 14:58:44 2022","The main experiment item","yes","Sternbergtask.osexp","C:/Users/cici_/Downloads","no","mono","no","18","no","white","no","yes","768","legacy","62","11","C:/Users/cici_/OneDrive/Documents/R/26F-subject-2.csv","legacy","9 3 8 2 1 4","Lentiform Loewenfeld","3.3.12","3","y","0","left","left","left","left","NA","597","31050","14977","597","NA","2","legacy","6","1024","2","48000","-16","experiment","2","even","8","511701","34733","508434","509497","3677","131898","509499","454863","3682","116921","513702","514300","510500","513702","NA","Sternberg task","68","65662","75","yes","1024"
"90.78947368421052","90.78947368421052","874.9078947368421","874.9078947368421","black","experiment","legacy","legacy","legacy","0","uniform","1","undefined","1","left","75","0","75","75","0","0","75","75","0","0","75","75","75","75","0","Wed Oct 19 14:58:44 2022","The main experiment item","yes","Sternbergtask.osexp","C:/Users/cici_/Downloads","no","mono","no","18","no","white","no","yes","768","legacy","63","11","C:/Users/cici_/OneDrive/Documents/R/26F-subject-2.csv","legacy","7","Lentiform Loewenfeld","3.3.12","1","y","0","left","left","left","left","NA","831","31050","14977","831","NA","2","legacy","1","1024","2","48000","-16","experiment","2","even","7","517582","34733","514316","515379","3677","131898","515380","454863","3682","116921","519583","520415","516381","519583","NA","Sternberg task","69","66493","76","yes","1024"
"89.6103896103896","89.6103896103896","869.6883116883117","869.6883116883117","black","experiment","legacy","legacy","legacy","0","uniform","0","undefined","0","right","76","0","76","76","0","0","76","76","0","0","76","76","76","76","0","Wed Oct 19 14:58:44 2022","The main experiment item","yes","Sternbergtask.osexp","C:/Users/cici_/Downloads","no","mono","no","18","no","white","no","yes","768","legacy","64","11","C:/Users/cici_/OneDrive/Documents/R/26F-subject-2.csv","legacy","4 8 1 2","Lentiform Loewenfeld","3.3.12","0","n","0","left","left","left","left","NA","473","31050","14977","473","NA","2","legacy","4","1024","2","48000","-16","experiment","2","even","7","523696","34733","520430","521491","3677","131898","521494","454863","3682","116921","525697","526172","522495","525697","NA","Sternberg task","69","66966","77","yes","1024"
"89.74358974358974","89.74358974358974","867.1538461538462","867.1538461538462","black","experiment","legacy","legacy","legacy","0","uniform","1","undefined","1","right","77","0","77","77","0","0","77","77","0","0","77","77","77","77","0","Wed Oct 19 14:58:44 2022","The main experiment item","yes","Sternbergtask.osexp","C:/Users/cici_/Downloads","no","mono","no","18","no","white","no","yes","768","legacy","65","11","C:/Users/cici_/OneDrive/Documents/R/26F-subject-2.csv","legacy","2 3 8 5 6 7","Lentiform Loewenfeld","3.3.12","0","n","0","right","left","left","right","NA","672","31050","14977","672","NA","2","legacy","6","1024","2","48000","-16","experiment","2","even","1","529452","34733","520430","527249","3677","131898","527250","526186","3682","116921","531454","532127","528251","531454","NA","Sternberg task","70","67638","78","yes","1024"
"89.87341772151899","89.87341772151899","862.2151898734177","862.2151898734177","black","experiment","legacy","legacy","legacy","0","uniform","1","undefined","1","left","78","0","78","78","0","0","78","78","0","0","78","78","78","78","0","Wed Oct 19 14:58:44 2022","The main experiment item","yes","Sternbergtask.osexp","C:/Users/cici_/Downloads","no","mono","no","18","no","white","no","yes","768","legacy","66","11","C:/Users/cici_/OneDrive/Documents/R/26F-subject-2.csv","legacy","8 3","Lentiform Loewenfeld","3.3.12","2","y","0","left","left","left","left","NA","477","31050","14977","477","NA","2","legacy","2","1024","2","48000","-16","experiment","2","even","3","535409","34733","532143","533205","3677","131898","533207","526186","3682","116921","537410","537888","534208","537410","NA","Sternberg task","71","68115","79","yes","1024"
"90","90","859.5","859.5","black","experiment","legacy","legacy","legacy","0","uniform","1","undefined","1","right","79","0","79","79","0","0","79","79","0","0","79","79","79","79","0","Wed Oct 19 14:58:44 2022","The main experiment item","yes","Sternbergtask.osexp","C:/Users/cici_/Downloads","no","mono","no","18","no","white","no","yes","768","legacy","67","11","C:/Users/cici_/OneDrive/Documents/R/26F-subject-2.csv","legacy","8 5 4 2 9 6","Lentiform Loewenfeld","3.3.12","0","n","0","right","left","left","right","NA","645","31050","14977","645","NA","2","legacy","6","1024","2","48000","-16","experiment","2","even","3","541170","34733","537903","538966","3677","131898","538968","526186","3682","116921","543171","543817","539969","543171","NA","Sternberg task","72","68760","80","yes","1024"
"90.12345679012346","90.12345679012346","856.1481481481482","856.1481481481482","black","experiment","legacy","legacy","legacy","0","uniform","1","undefined","1","right","80","0","80","80","0","0","80","80","0","0","80","80","80","80","0","Wed Oct 19 14:58:44 2022","The main experiment item","yes","Sternbergtask.osexp","C:/Users/cici_/Downloads","no","mono","no","18","no","white","no","yes","768","legacy","68","11","C:/Users/cici_/OneDrive/Documents/R/26F-subject-2.csv","legacy","7 1","Lentiform Loewenfeld","3.3.12","0","n","0","right","left","left","right","NA","588","31050","14977","588","NA","2","legacy","2","1024","2","48000","-16","experiment","2","even","8","547098","34733","543832","544894","3677","131898","544895","526186","3682","116921","549099","549688","545897","549099","NA","Sternberg task","73","69348","81","yes","1024"
"90.2439024390244","90.2439024390244","853.439024390244","853.439024390244","black","experiment","legacy","legacy","legacy","0","uniform","1","undefined","1","right","81","0","81","81","0","0","81","81","0","0","81","81","81","81","0","Wed Oct 19 14:58:44 2022","The main experiment item","yes","Sternbergtask.osexp","C:/Users/cici_/Downloads","no","mono","no","18","no","white","no","yes","768","legacy","69","11","C:/Users/cici_/OneDrive/Documents/R/26F-subject-2.csv","legacy","1","Lentiform Loewenfeld","3.3.12","0","n","0","right","left","left","right","NA","634","31050","14977","634","NA","2","legacy","1","1024","2","48000","-16","experiment","2","even","7","552969","34733","549703","550765","3677","131898","550767","526186","3682","116921","554970","555605","551768","554970","NA","Sternberg task","74","69982","82","yes","1024"
"90.36144578313252","90.36144578313252","851.722891566265","851.722891566265","black","experiment","legacy","legacy","legacy","0","uniform","1","undefined","1","right","82","0","82","82","0","0","82","82","0","0","82","82","82","82","0","Wed Oct 19 14:58:44 2022","The main experiment item","yes","Sternbergtask.osexp","C:/Users/cici_/Downloads","no","mono","no","18","no","white","no","yes","768","legacy","70","11","C:/Users/cici_/OneDrive/Documents/R/26F-subject-2.csv","legacy","8 4 3 5","Lentiform Loewenfeld","3.3.12","0","n","0","right","left","left","right","NA","711","31050","14977","711","NA","2","legacy","4","1024","2","48000","-16","experiment","2","even","6","558886","34733","555619","556682","3677","131898","556684","526186","3682","116921","560887","561599","557685","560887","NA","Sternberg task","75","70693","83","yes","1024"
"90.47619047619048","90.47619047619048","852.202380952381","852.202380952381","black","experiment","legacy","legacy","legacy","0","uniform","1","undefined","1","right","83","0","83","83","0","0","83","83","0","0","83","83","83","83","0","Wed Oct 19 14:58:44 2022","The main experiment item","yes","Sternbergtask.osexp","C:/Users/cici_/Downloads","no","mono","no","18","no","white","no","yes","768","legacy","71","11","C:/Users/cici_/OneDrive/Documents/R/26F-subject-2.csv","legacy","1 5 3 2 8","Lentiform Loewenfeld","3.3.12","0","n","0","right","left","left","right","NA","892","31050","14977","892","NA","2","legacy","5","1024","2","48000","-16","experiment","2","even","4","564880","34733","561614","562676","3677","131898","562678","526186","3682","116921","566881","567774","563679","566881","NA","Sternberg task","76","71585","84","yes","1024"
"90.58823529411765","90.58823529411765","858.4235294117647","858.4235294117647","black","experiment","legacy","legacy","legacy","0","uniform","1","undefined","1","left","84","0","84","84","0","0","84","84","0","0","84","84","84","84","0","Wed Oct 19 14:58:44 2022","The main experiment item","yes","Sternbergtask.osexp","C:/Users/cici_/Downloads","no","mono","no","18","no","white","no","yes","768","legacy","72","11","C:/Users/cici_/OneDrive/Documents/R/26F-subject-2.csv","legacy","3 5 4 7","Lentiform Loewenfeld","3.3.12","1","y","0","left","left","left","left","NA","1381","31050","14977","1381","NA","2","legacy","4","1024","2","48000","-16","experiment","2","even","3","571045","34733","567779","568841","3677","131898","568843","526186","3682","116921","573046","574429","569844","573046","NA","Sternberg task","77","72966","85","yes","1024"
"90.69767441860465","90.69767441860465","857.0581395348837","857.0581395348837","black","experiment","legacy","legacy","legacy","0","uniform","1","undefined","1","right","85","0","85","85","0","0","85","85","0","0","85","85","85","85","0","Wed Oct 19 14:58:44 2022","The main experiment item","yes","Sternbergtask.osexp","C:/Users/cici_/Downloads","no","mono","no","18","no","white","no","yes","768","legacy","73","11","C:/Users/cici_/OneDrive/Documents/R/26F-subject-2.csv","legacy","5 2","Lentiform Loewenfeld","3.3.12","0","n","0","right","left","left","right","NA","741","31050","14977","741","NA","2","legacy","2","1024","2","48000","-16","experiment","2","even","7","577709","34733","574443","575504","3677","131898","575506","526186","3682","116921","579710","580451","576508","579710","NA","Sternberg task","78","73707","86","yes","1024"
"90.80459770114942","90.80459770114942","855.2068965517242","855.2068965517242","black","experiment","legacy","legacy","legacy","0","uniform","1","undefined","1","right","86","0","86","86","0","0","86","86","0","0","86","86","86","86","0","Wed Oct 19 14:58:44 2022","The main experiment item","yes","Sternbergtask.osexp","C:/Users/cici_/Downloads","no","mono","no","18","no","white","no","yes","768","legacy","74","11","C:/Users/cici_/OneDrive/Documents/R/26F-subject-2.csv","legacy","3 9 1","Lentiform Loewenfeld","3.3.12","0","n","0","right","left","left","right","NA","696","31050","14977","696","NA","2","legacy","3","1024","2","48000","-16","experiment","2","even","7","583731","34733","580467","581527","3677","131898","581529","526186","3682","116921","585732","586429","582530","585732","NA","Sternberg task","79","74403","87","yes","1024"
"90.9090909090909","90.9090909090909","853.4659090909091","853.4659090909091","black","experiment","legacy","legacy","legacy","0","uniform","1","undefined","1","right","87","0","87","87","0","0","87","87","0","0","87","87","87","87","0","Wed Oct 19 14:58:44 2022","The main experiment item","yes","Sternbergtask.osexp","C:/Users/cici_/Downloads","no","mono","no","18","no","white","no","yes","768","legacy","75","11","C:/Users/cici_/OneDrive/Documents/R/26F-subject-2.csv","legacy","8 4 3 9","Lentiform Loewenfeld","3.3.12","0","n","0","right","left","left","right","NA","702","31050","14977","702","NA","2","legacy","4","1024","2","48000","-16","experiment","2","even","5","589711","34733","586444","587506","3677","131898","587509","526186","3682","116921","591712","592416","588510","591712","NA","Sternberg task","80","75105","88","yes","1024"
"91.01123595505618","91.01123595505618","852.7078651685393","852.7078651685393","black","experiment","legacy","legacy","legacy","0","uniform","1","undefined","1","left","88","0","88","88","0","0","88","88","0","0","88","88","88","88","0","Wed Oct 19 14:58:44 2022","The main experiment item","yes","Sternbergtask.osexp","C:/Users/cici_/Downloads","no","mono","no","18","no","white","no","yes","768","legacy","76","11","C:/Users/cici_/OneDrive/Documents/R/26F-subject-2.csv","legacy","9 6 2 4 1","Lentiform Loewenfeld","3.3.12","4","y","0","left","left","left","left","NA","786","31050","14977","786","NA","2","legacy","5","1024","2","48000","-16","experiment","2","even","4","595696","34733","592431","593492","3677","131898","593494","526186","3682","116921","597698","598485","594495","597698","NA","Sternberg task","81","75891","89","yes","1024"
"91.11111111111111","91.11111111111111","850.1333333333333","850.1333333333333","black","experiment","legacy","legacy","legacy","0","uniform","1","undefined","1","left","89","0","89","89","0","0","89","89","0","0","89","89","89","89","0","Wed Oct 19 14:58:44 2022","The main experiment item","yes","Sternbergtask.osexp","C:/Users/cici_/Downloads","no","mono","no","18","no","white","no","yes","768","legacy","77","11","C:/Users/cici_/OneDrive/Documents/R/26F-subject-2.csv","legacy","9 8 4","Lentiform Loewenfeld","3.3.12","1","y","0","left","left","left","left","NA","621","31050","14977","621","NA","2","legacy","3","1024","2","48000","-16","experiment","2","even","9","601765","34733","598500","599561","3677","131898","599563","526186","3682","116921","603766","604389","600564","603766","NA","Sternberg task","82","76512","90","yes","1024"
"91.20879120879121","91.20879120879121","847.4065934065934","847.4065934065934","black","experiment","legacy","legacy","legacy","0","uniform","1","undefined","1","right","90","0","90","90","0","0","90","90","0","0","90","90","90","90","0","Wed Oct 19 14:58:44 2022","The main experiment item","yes","Sternbergtask.osexp","C:/Users/cici_/Downloads","no","mono","no","18","no","white","no","yes","768","legacy","78","11","C:/Users/cici_/OneDrive/Documents/R/26F-subject-2.csv","legacy","1 6 4","Lentiform Loewenfeld","3.3.12","0","n","0","right","left","left","right","NA","602","31050","14977","602","NA","2","legacy","3","1024","2","48000","-16","experiment","2","even","7","607669","34733","604403","605466","3677","131898","605467","526186","3682","116921","609670","610273","606468","609670","NA","Sternberg task","83","77114","91","yes","1024"
"91.30434782608695","91.30434782608695","844.3478260869565","844.3478260869565","black","experiment","legacy","legacy","legacy","0","uniform","1","undefined","1","right","91","0","91","91","0","0","91","91","0","0","91","91","91","91","0","Wed Oct 19 14:58:44 2022","The main experiment item","yes","Sternbergtask.osexp","C:/Users/cici_/Downloads","no","mono","no","18","no","white","no","yes","768","legacy","79","11","C:/Users/cici_/OneDrive/Documents/R/26F-subject-2.csv","legacy","6 9 5","Lentiform Loewenfeld","3.3.12","0","n","0","right","left","left","right","NA","566","31050","14977","566","NA","2","legacy","3","1024","2","48000","-16","experiment","2","even","8","613553","34733","610287","611349","3677","131898","611351","526186","3682","116921","615554","616120","612352","615554","NA","Sternberg task","84","77680","92","yes","1024"
"91.39784946236558","91.39784946236558","845.0537634408602","845.0537634408602","black","experiment","legacy","legacy","legacy","0","uniform","1","undefined","1","left","92","0","92","92","0","0","92","92","0","0","92","92","92","92","0","Wed Oct 19 14:58:44 2022","The main experiment item","yes","Sternbergtask.osexp","C:/Users/cici_/Downloads","no","mono","no","18","no","white","no","yes","768","legacy","80","11","C:/Users/cici_/OneDrive/Documents/R/26F-subject-2.csv","legacy","4 9 7 8 5 3","Lentiform Loewenfeld","3.3.12","4","y","0","left","left","left","left","NA","910","31050","14977","910","NA","2","legacy","6","1024","2","48000","-16","experiment","2","even","8","619401","34733","616134","617198","3677","131898","617199","526186","3682","116921","621402","622313","618200","621402","NA","Sternberg task","85","78590","93","yes","1024"
"91.48936170212765","91.48936170212765","846.1382978723404","846.1382978723404","black","experiment","legacy","legacy","legacy","0","uniform","1","undefined","1","right","93","0","93","93","0","0","93","93","0","0","93","93","93","93","0","Wed Oct 19 14:58:44 2022","The main experiment item","yes","Sternbergtask.osexp","C:/Users/cici_/Downloads","no","mono","no","18","no","white","no","yes","768","legacy","81","11","C:/Users/cici_/OneDrive/Documents/R/26F-subject-2.csv","legacy","1 4 9 2 5","Lentiform Loewenfeld","3.3.12","0","n","0","right","left","left","right","NA","947","31050","14977","947","NA","2","legacy","5","1024","2","48000","-16","experiment","2","even","7","625583","34733","622318","623380","3677","131898","623381","526186","3682","116921","627584","628532","624382","627584","NA","Sternberg task","86","79537","94","yes","1024"
"91.57894736842105","91.57894736842105","843.2842105263157","843.2842105263157","black","experiment","legacy","legacy","legacy","0","uniform","1","undefined","1","right","94","0","94","94","0","0","94","94","0","0","94","94","94","94","0","Wed Oct 19 14:58:44 2022","The main experiment item","yes","Sternbergtask.osexp","C:/Users/cici_/Downloads","no","mono","no","18","no","white","no","yes","768","legacy","82","11","C:/Users/cici_/OneDrive/Documents/R/26F-subject-2.csv","legacy","6 8","Lentiform Loewenfeld","3.3.12","0","n","0","right","left","left","right","NA","575","31050","14977","575","NA","2","legacy","2","1024","2","48000","-16","experiment","2","even","9","631802","34733","628537","629598","3677","131898","629600","526186","3682","116921","633803","634379","630601","633803","NA","Sternberg task","87","80112","95","yes","1024"
"91.66666666666667","91.66666666666667","845.25","845.25","black","experiment","legacy","legacy","legacy","0","uniform","1","undefined","1","left","95","0","95","95","0","0","95","95","0","0","95","95","95","95","0","Wed Oct 19 14:58:44 2022","The main experiment item","yes","Sternbergtask.osexp","C:/Users/cici_/Downloads","no","mono","no","18","no","white","no","yes","768","legacy","83","11","C:/Users/cici_/OneDrive/Documents/R/26F-subject-2.csv","legacy","8 1 6","Lentiform Loewenfeld","3.3.12","3","y","0","left","left","left","left","NA","1032","31050","14977","1032","NA","2","legacy","3","1024","2","48000","-16","experiment","2","even","6","637648","34733","634384","635445","3677","131898","635446","526186","3682","116921","639649","640681","636447","639649","NA","Sternberg task","88","81144","96","yes","1024"
"91.75257731958763","91.75257731958763","854.0824742268042","854.0824742268042","black","experiment","legacy","legacy","legacy","0","uniform","1","undefined","1","left","96","0","96","96","0","0","96","96","0","0","96","96","96","96","0","Wed Oct 19 14:58:44 2022","The main experiment item","yes","Sternbergtask.osexp","C:/Users/cici_/Downloads","no","mono","no","18","no","white","no","yes","768","legacy","84","11","C:/Users/cici_/OneDrive/Documents/R/26F-subject-2.csv","legacy","9 4 2","Lentiform Loewenfeld","3.3.12","1","y","0","left","left","left","left","NA","1702","31050","14977","1702","NA","2","legacy","3","1024","2","48000","-16","experiment","2","even","9","643952","34733","640686","641749","3677","131898","641750","526186","3682","116921","645953","647656","642751","645953","NA","Sternberg task","89","82846","97","yes","1024"
"91.83673469387755","91.83673469387755","852.1836734693877","852.1836734693877","black","experiment","legacy","legacy","legacy","0","uniform","1","undefined","1","left","97","0","97","97","0","0","97","97","0","0","97","97","97","97","0","Wed Oct 19 14:58:44 2022","The main experiment item","yes","Sternbergtask.osexp","C:/Users/cici_/Downloads","no","mono","no","18","no","white","no","yes","768","legacy","85","11","C:/Users/cici_/OneDrive/Documents/R/26F-subject-2.csv","legacy","3 5 9 6 2 4","Lentiform Loewenfeld","3.3.12","1","y","0","left","left","left","left","NA","668","31050","14977","668","NA","2","legacy","6","1024","2","48000","-16","experiment","2","even","3","650936","34733","647661","648732","3677","131898","648734","526186","3682","116921","652937","653606","649735","652937","NA","Sternberg task","90","83514","98","yes","1024"
"91.91919191919192","91.91919191919192","857.4646464646464","857.4646464646464","black","experiment","legacy","legacy","legacy","0","uniform","1","undefined","1","left","98","0","98","98","0","0","98","98","0","0","98","98","98","98","0","Wed Oct 19 14:58:44 2022","The main experiment item","yes","Sternbergtask.osexp","C:/Users/cici_/Downloads","no","mono","no","18","no","white","no","yes","768","legacy","86","11","C:/Users/cici_/OneDrive/Documents/R/26F-subject-2.csv","legacy","8 5 1 3 9","Lentiform Loewenfeld","3.3.12","4","y","0","left","left","left","left","NA","1375","31050","14977","1375","NA","2","legacy","5","1024","2","48000","-16","experiment","2","even","3","656887","34733","653622","654683","3677","131898","654685","526186","3682","116921","658887","660263","655686","658887","NA","Sternberg task","91","84889","99","yes","1024"
"92","92","856.2","856.2","black","experiment","legacy","legacy","legacy","0","uniform","1","undefined","1","right","99","0","99","99","0","0","99","99","0","0","99","99","99","99","0","Wed Oct 19 14:58:44 2022","The main experiment item","yes","Sternbergtask.osexp","C:/Users/cici_/Downloads","no","mono","no","18","no","white","no","yes","768","legacy","87","11","C:/Users/cici_/OneDrive/Documents/R/26F-subject-2.csv","legacy","1 7 8 3 9","Lentiform Loewenfeld","3.3.12","0","n","0","right","left","left","right","NA","731","31050","14977","731","NA","2","legacy","5","1024","2","48000","-16","experiment","2","even","2","663537","34733","660272","661333","3677","131898","661335","526186","3682","116921","665538","666270","662336","665538","NA","Sternberg task","92","85620","100","yes","1024"
"92.07920792079207","92.07920792079207","854.009900990099","854.009900990099","black","experiment","legacy","legacy","legacy","0","uniform","1","undefined","1","left","100","0","100","100","0","0","100","100","0","0","100","100","100","100","0","Wed Oct 19 14:58:44 2022","The main experiment item","yes","Sternbergtask.osexp","C:/Users/cici_/Downloads","no","mono","no","18","no","white","no","yes","768","legacy","88","11","C:/Users/cici_/OneDrive/Documents/R/26F-subject-2.csv","legacy","1 4 9 3 2 5","Lentiform Loewenfeld","3.3.12","3","y","0","left","left","left","left","NA","635","31050","14977","635","NA","2","legacy","6","1024","2","48000","-16","experiment","2","even","9","669550","34733","666285","667347","3677","131898","667348","526186","3682","116921","671551","672187","668349","671551","NA","Sternberg task","93","86255","101","yes","1024"
"92.15686274509804","92.15686274509804","850.7156862745098","850.7156862745098","black","experiment","legacy","legacy","legacy","0","uniform","1","undefined","1","left","101","0","101","101","0","0","101","101","0","0","101","101","101","101","0","Wed Oct 19 14:58:44 2022","The main experiment item","yes","Sternbergtask.osexp","C:/Users/cici_/Downloads","no","mono","no","18","no","white","no","yes","768","legacy","89","11","C:/Users/cici_/OneDrive/Documents/R/26F-subject-2.csv","legacy","8 7 3","Lentiform Loewenfeld","3.3.12","1","y","0","left","left","left","left","NA","518","31050","14977","518","NA","2","legacy","3","1024","2","48000","-16","experiment","2","even","8","675467","34733","672202","673263","3677","131898","673265","526186","3682","116921","677468","677987","674266","677468","NA","Sternberg task","94","86773","102","yes","1024"
"91.2621359223301","91.2621359223301","849.2621359223301","849.2621359223301","black","experiment","legacy","legacy","legacy","0","uniform","0","undefined","0","left","102","0","102","102","0","0","102","102","0","0","102","102","102","102","0","Wed Oct 19 14:58:44 2022","The main experiment item","yes","Sternbergtask.osexp","C:/Users/cici_/Downloads","no","mono","no","18","no","white","no","yes","768","legacy","90","11","C:/Users/cici_/OneDrive/Documents/R/26F-subject-2.csv","legacy","2 4 8 5 1 3","Lentiform Loewenfeld","3.3.12","1","y","0","right","left","left","right","NA","701","31050","14977","701","NA","2","legacy","6","1024","2","48000","-16","experiment","2","even","2","681268","34733","678001","679063","3677","131898","679065","526186","3682","116921","683269","683972","680066","683269","NA","Sternberg task","94","87474","103","yes","1024"
"91.34615384615384","91.34615384615384","851.1346153846154","851.1346153846154","black","experiment","legacy","legacy","legacy","0","uniform","1","undefined","1","right","103","0","103","103","0","0","103","103","0","0","103","103","103","103","0","Wed Oct 19 14:58:44 2022","The main experiment item","yes","Sternbergtask.osexp","C:/Users/cici_/Downloads","no","mono","no","18","no","white","no","yes","768","legacy","91","11","C:/Users/cici_/OneDrive/Documents/R/26F-subject-2.csv","legacy","4 2 6 9","Lentiform Loewenfeld","3.3.12","0","n","0","right","left","left","right","NA","1044","31050","14977","1044","NA","2","legacy","4","1024","2","48000","-16","experiment","2","even","7","687251","34733","678001","685046","3677","131898","685049","683985","3682","116921","689252","690297","686050","689252","NA","Sternberg task","95","88518","104","yes","1024"
"91.42857142857143","91.42857142857143","849.4380952380952","849.4380952380952","black","experiment","legacy","legacy","legacy","0","uniform","1","undefined","1","right","104","0","104","104","0","0","104","104","0","0","104","104","104","104","0","Wed Oct 19 14:58:44 2022","The main experiment item","yes","Sternbergtask.osexp","C:/Users/cici_/Downloads","no","mono","no","18","no","white","no","yes","768","legacy","92","11","C:/Users/cici_/OneDrive/Documents/R/26F-subject-2.csv","legacy","6 9 7 3 8 2","Lentiform Loewenfeld","3.3.12","0","n","0","right","left","left","right","NA","673","31050","14977","673","NA","2","legacy","6","1024","2","48000","-16","experiment","2","even","5","693567","34733","690302","691363","3677","131898","691365","683985","3682","116921","695568","696241","692366","695568","NA","Sternberg task","96","89191","105","yes","1024"
"91.50943396226415","91.50943396226415","847.6792452830189","847.6792452830189","black","experiment","legacy","legacy","legacy","0","uniform","1","undefined","1","right","105","0","105","105","0","0","105","105","0","0","105","105","105","105","0","Wed Oct 19 14:58:44 2022","The main experiment item","yes","Sternbergtask.osexp","C:/Users/cici_/Downloads","no","mono","no","18","no","white","no","yes","768","legacy","93","11","C:/Users/cici_/OneDrive/Documents/R/26F-subject-2.csv","legacy","1 3 2 6 9","Lentiform Loewenfeld","3.3.12","0","n","0","right","left","left","right","NA","663","31050","14977","663","NA","2","legacy","5","1024","2","48000","-16","experiment","2","even","5","699521","34733","696256","697317","3677","131898","697319","683985","3682","116921","701522","702186","698320","701522","NA","Sternberg task","97","89854","106","yes","1024"
"91.58878504672897","91.58878504672897","846.1869158878504","846.1869158878504","black","experiment","legacy","legacy","legacy","0","uniform","1","undefined","1","left","106","0","106","106","0","0","106","106","0","0","106","106","106","106","0","Wed Oct 19 14:58:44 2022","The main experiment item","yes","Sternbergtask.osexp","C:/Users/cici_/Downloads","no","mono","no","18","no","white","no","yes","768","legacy","94","11","C:/Users/cici_/OneDrive/Documents/R/26F-subject-2.csv","legacy","6 7 9 3 1 2","Lentiform Loewenfeld","3.3.12","1","y","0","left","left","left","left","NA","688","31050","14977","688","NA","2","legacy","6","1024","2","48000","-16","experiment","2","even","6","705467","34733","702200","703262","3677","131898","703265","683985","3682","116921","707468","708157","704266","707468","NA","Sternberg task","98","90542","107","yes","1024"
"91.66666666666667","91.66666666666667","844.2962962962963","844.2962962962963","black","experiment","legacy","legacy","legacy","0","uniform","1","undefined","1","right","107","0","107","107","0","0","107","107","0","0","107","107","107","107","0","Wed Oct 19 14:58:44 2022","The main experiment item","yes","Sternbergtask.osexp","C:/Users/cici_/Downloads","no","mono","no","18","no","white","no","yes","768","legacy","95","11","C:/Users/cici_/OneDrive/Documents/R/26F-subject-2.csv","legacy","5 9 2 3","Lentiform Loewenfeld","3.3.12","0","n","0","right","left","left","right","NA","642","31050","14977","642","NA","2","legacy","4","1024","2","48000","-16","experiment","2","even","8","711437","34733","708172","709233","3677","131898","709235","683985","3682","116921","713438","714081","710236","713438","NA","Sternberg task","99","91184","108","yes","1024"
"91.74311926605505","91.74311926605505","842.954128440367","842.954128440367","black","experiment","legacy","legacy","legacy","0","uniform","1","undefined","1","right","108","0","108","108","0","0","108","108","0","0","108","108","108","108","0","Wed Oct 19 14:58:44 2022","The main experiment item","yes","Sternbergtask.osexp","C:/Users/cici_/Downloads","no","mono","no","18","no","white","no","yes","768","legacy","96","11","C:/Users/cici_/OneDrive/Documents/R/26F-subject-2.csv","legacy","6 2 9 3 8 4","Lentiform Loewenfeld","3.3.12","0","n","0","right","left","left","right","NA","698","31050","14977","698","NA","2","legacy","6","1024","2","48000","-16","experiment","2","even","1","717366","34733","714096","715161","3677","131898","715163","683985","3682","116921","719367","720066","716164","719367","NA","Sternberg task","100","91882","109","yes","1024"
"91.81818181818181","91.81818181818181","841.4909090909091","841.4909090909091","black","experiment","legacy","legacy","legacy","0","uniform","1","undefined","1","left","109","0","109","109","0","0","109","109","0","0","109","109","109","109","0","Wed Oct 19 14:58:44 2022","The main experiment item","yes","Sternbergtask.osexp","C:/Users/cici_/Downloads","no","mono","no","18","no","white","no","yes","768","legacy","97","11","C:/Users/cici_/OneDrive/Documents/R/26F-subject-2.csv","legacy","7 8 4 6 9 5","Lentiform Loewenfeld","3.3.12","4","y","0","left","left","left","left","NA","682","31050","14977","682","NA","2","legacy","6","1024","2","48000","-16","experiment","2","even","6","723355","34733","720081","721151","3677","131898","721153","683985","3682","116921","725356","726039","722154","725356","NA","Sternberg task","101","92564","110","yes","1024"
"91.89189189189189","91.89189189189189","840.6126126126126","840.6126126126126","black","experiment","legacy","legacy","legacy","0","uniform","1","undefined","1","right","110","0","110","110","0","0","110","110","0","0","110","110","110","110","0","Wed Oct 19 14:58:44 2022","The main experiment item","yes","Sternbergtask.osexp","C:/Users/cici_/Downloads","no","mono","no","18","no","white","no","yes","768","legacy","98","11","C:/Users/cici_/OneDrive/Documents/R/26F-subject-2.csv","legacy","1 7 5 2 9","Lentiform Loewenfeld","3.3.12","0","n","0","right","left","left","right","NA","744","31050","14977","744","NA","2","legacy","5","1024","2","48000","-16","experiment","2","even","3","729319","34733","726054","727115","3677","131898","727117","683985","3682","116921","731320","732064","728118","731320","NA","Sternberg task","102","93308","111","yes","1024"
"91.96428571428571","91.96428571428571","840.6964285714286","840.6964285714286","black","experiment","legacy","legacy","legacy","0","uniform","1","undefined","1","right","111","0","111","111","0","0","111","111","0","0","111","111","111","111","0","Wed Oct 19 14:58:44 2022","The main experiment item","yes","Sternbergtask.osexp","C:/Users/cici_/Downloads","no","mono","no","18","no","white","no","yes","768","legacy","99","11","C:/Users/cici_/OneDrive/Documents/R/26F-subject-2.csv","legacy","6 7 5 9","Lentiform Loewenfeld","3.3.12","0","n","0","right","left","left","right","NA","850","31050","14977","850","NA","2","legacy","4","1024","2","48000","-16","experiment","2","even","2","735344","34733","732078","733140","3677","131898","733142","683985","3682","116921","737346","738197","734142","737346","NA","Sternberg task","103","94158","112","yes","1024"
"92.03539823008849","92.03539823008849","838.3451327433628","838.3451327433628","black","experiment","legacy","legacy","legacy","0","uniform","1","undefined","1","right","112","0","112","112","0","0","112","112","0","0","112","112","112","112","0","Wed Oct 19 14:58:44 2022","The main experiment item","yes","Sternbergtask.osexp","C:/Users/cici_/Downloads","no","mono","no","18","no","white","no","yes","768","legacy","100","11","C:/Users/cici_/OneDrive/Documents/R/26F-subject-2.csv","legacy","6 9 4 5 2","Lentiform Loewenfeld","3.3.12","0","n","0","right","left","left","right","NA","575","31050","14977","575","NA","2","legacy","5","1024","2","48000","-16","experiment","2","even","1","741468","34733","738203","739264","3677","131898","739266","683985","3682","116921","743469","744045","740267","743469","NA","Sternberg task","104","94733","113","yes","1024"
"92.10526315789474","92.10526315789474","832.1052631578947","832.1052631578947","black","experiment","legacy","legacy","legacy","0","uniform","1","undefined","1","left","113","0","113","113","0","0","113","113","0","0","113","113","113","113","0","Wed Oct 19 14:58:44 2022","The main experiment item","yes","Sternbergtask.osexp","C:/Users/cici_/Downloads","no","mono","no","18","no","white","no","yes","768","legacy","101","11","C:/Users/cici_/OneDrive/Documents/R/26F-subject-2.csv","legacy","3 4","Lentiform Loewenfeld","3.3.12","1","y","0","left","left","left","left","NA","127","31050","14977","127","NA","2","legacy","2","1024","2","48000","-16","experiment","2","even","3","747324","34733","744059","745121","3677","131898","745122","683985","3682","116921","749325","749453","746123","749325","NA","Sternberg task","105","94860","114","yes","1024"
"92.17391304347827","92.17391304347827","830.3130434782609","830.3130434782609","black","experiment","legacy","legacy","legacy","0","uniform","1","undefined","1","left","114","0","114","114","0","0","114","114","0","0","114","114","114","114","0","Wed Oct 19 14:58:44 2022","The main experiment item","yes","Sternbergtask.osexp","C:/Users/cici_/Downloads","no","mono","no","18","no","white","no","yes","768","legacy","102","11","C:/Users/cici_/OneDrive/Documents/R/26F-subject-2.csv","legacy","9 1 6 7 8","Lentiform Loewenfeld","3.3.12","1","y","0","left","left","left","left","NA","626","31050","14977","626","NA","2","legacy","5","1024","2","48000","-16","experiment","2","even","9","752736","34733","749468","750532","3677","131898","750534","683985","3682","116921","754737","755364","751535","754737","NA","Sternberg task","106","95486","115","yes","1024"
"92.24137931034483","92.24137931034483","827.6637931034483","827.6637931034483","black","experiment","legacy","legacy","legacy","0","uniform","1","undefined","1","right","115","0","115","115","0","0","115","115","0","0","115","115","115","115","0","Wed Oct 19 14:58:44 2022","The main experiment item","yes","Sternbergtask.osexp","C:/Users/cici_/Downloads","no","mono","no","18","no","white","no","yes","768","legacy","103","11","C:/Users/cici_/OneDrive/Documents/R/26F-subject-2.csv","legacy","2 8 9 4 1","Lentiform Loewenfeld","3.3.12","0","n","0","right","left","left","right","NA","523","31050","14977","523","NA","2","legacy","5","1024","2","48000","-16","experiment","2","even","5","758645","34733","755380","756442","3677","131898","756443","683985","3682","116921","760646","761170","757444","760646","NA","Sternberg task","107","96009","116","yes","1024"
"92.3076923076923","92.3076923076923","826.3418803418804","826.3418803418804","black","experiment","legacy","legacy","legacy","0","uniform","1","undefined","1","left","116","0","116","116","0","0","116","116","0","0","116","116","116","116","0","Wed Oct 19 14:58:44 2022","The main experiment item","yes","Sternbergtask.osexp","C:/Users/cici_/Downloads","no","mono","no","18","no","white","no","yes","768","legacy","104","11","C:/Users/cici_/OneDrive/Documents/R/26F-subject-2.csv","legacy","2 3","Lentiform Loewenfeld","3.3.12","1","y","0","left","left","left","left","NA","673","31050","14977","673","NA","2","legacy","2","1024","2","48000","-16","experiment","2","even","2","764451","34733","761185","762247","3677","131898","762249","683985","3682","116921","766452","767126","763250","766452","NA","Sternberg task","108","96682","117","yes","1024"
