"acc","accuracy","average_response_time","avg_rt","background","block","canvas_backend","clock_backend","color_backend","compensation","coordinates","correct","correct_instruction1","correct_keyboard_response","correct_response","count_ISI","count_correctFeedback","count_expSequence","count_experiment","count_experimentLoop","count_fixation","count_incorrectFeedback","count_instruction1","count_instruction2","count_keyboard_response","count_logger","count_memorySet","count_practiceLoop","count_probe","count_thankYou","datetime","description","disable_garbage_collection","experiment_file","experiment_path","font_bold","font_family","font_italic","font_size","font_underline","foreground","form_clicks","fullscreen","height","keyboard_backend","live_row","live_row_practiceLoop","logfile","mouse_backend","numberSet","opensesame_codename","opensesame_version","posInSet","present","repeat_cycle","response","response_instruction1","response_instruction2","response_keyboard_response","response_thankYou","response_time","response_time_instruction1","response_time_instruction2","response_time_keyboard_response","response_time_thankYou","round_decimals","sampler_backend","setSize","sound_buf_size","sound_channels","sound_freq","sound_sample_size","start","subject_nr","subject_parity","target","time_ISI","time_correctFeedback","time_expSequence","time_experiment","time_experimentLoop","time_fixation","time_incorrectFeedback","time_instruction1","time_instruction2","time_keyboard_response","time_logger","time_memorySet","time_practiceLoop","time_probe","time_thankYou","title","total_correct","total_response_time","total_responses","uniform_coordinates","width"
"100","100","600","600","black","practice","legacy","legacy","legacy","0","uniform","1","undefined","1","left","0","0","0","0","0","0","0","0","0","0","0","0","0","0","0","Sun Oct 23 14:28:00 2022","The main experiment item","yes","Sternbergtask.osexp","/Users/andrea/Desktop/Adv. Quant Methods/Lab 3.1","no","mono","no","18","no","white","no","no","768","legacy","0","0","/Users/andrea/Desktop/Adv. Quant Methods/Lab 3.1/AS-subject-2.csv","legacy","1 5 2 9","Lentiform Loewenfeld","3.3.12","2","y","0","left","left","NA","left","NA","600","6377","NA","600","NA","2","legacy","4","1024","2","48000","-16","experiment","2","even","5","10021","NA","7807","1307","NA","7810","NA","1373","NA","12026","12633","8815","7762","12026","NA","Sternberg task","1","600","1","yes","1024"
"100","100","675.5","675.5","black","practice","legacy","legacy","legacy","0","uniform","1","undefined","1","right","1","1","1","0","0","1","1","0","0","1","1","1","0","1","0","Sun Oct 23 14:28:00 2022","The main experiment item","yes","Sternbergtask.osexp","/Users/andrea/Desktop/Adv. Quant Methods/Lab 3.1","no","mono","no","18","no","white","no","no","768","legacy","1","1","/Users/andrea/Desktop/Adv. Quant Methods/Lab 3.1/AS-subject-2.csv","legacy","3 1 9 4","Lentiform Loewenfeld","3.3.12","0","n","0","right","left","NA","right","NA","751","6377","NA","751","NA","2","legacy","4","1024","2","48000","-16","experiment","2","even","6","15962","12656","13750","1307","NA","13752","NA","1373","NA","17967","18718","14757","7762","17967","NA","Sternberg task","2","1351","2","yes","1024"
"100","100","717.3333333333334","717.3333333333334","black","practice","legacy","legacy","legacy","0","uniform","1","undefined","1","left","2","2","2","0","0","2","2","0","0","2","2","2","0","2","0","Sun Oct 23 14:28:00 2022","The main experiment item","yes","Sternbergtask.osexp","/Users/andrea/Desktop/Adv. Quant Methods/Lab 3.1","no","mono","no","18","no","white","no","no","768","legacy","2","2","/Users/andrea/Desktop/Adv. Quant Methods/Lab 3.1/AS-subject-2.csv","legacy","1 7 9 8 5","Lentiform Loewenfeld","3.3.12","4","y","0","left","left","NA","left","NA","801","6377","NA","801","NA","2","legacy","5","1024","2","48000","-16","experiment","2","even","8","22051","18729","19836","1307","NA","19839","NA","1373","NA","24056","24858","20843","7762","24056","NA","Sternberg task","3","2152","3","yes","1024"
"100","100","700.5","700.5","black","practice","legacy","legacy","legacy","0","uniform","1","undefined","1","right","3","3","3","0","0","3","3","0","0","3","3","3","0","3","0","Sun Oct 23 14:28:00 2022","The main experiment item","yes","Sternbergtask.osexp","/Users/andrea/Desktop/Adv. Quant Methods/Lab 3.1","no","mono","no","18","no","white","no","no","768","legacy","3","3","/Users/andrea/Desktop/Adv. Quant Methods/Lab 3.1/AS-subject-2.csv","legacy","2 1","Lentiform Loewenfeld","3.3.12","0","n","0","right","left","NA","right","NA","650","6377","NA","650","NA","2","legacy","2","1024","2","48000","-16","experiment","2","even","5","28197","24870","25981","1307","NA","25988","NA","1373","NA","30202","30853","26992","7762","30201","NA","Sternberg task","4","2802","4","yes","1024"
"100","100","657.8","657.8","black","practice","legacy","legacy","legacy","0","uniform","1","undefined","1","left","4","4","4","0","0","4","4","0","0","4","4","4","0","4","0","Sun Oct 23 14:28:00 2022","The main experiment item","yes","Sternbergtask.osexp","/Users/andrea/Desktop/Adv. Quant Methods/Lab 3.1","no","mono","no","18","no","white","no","no","768","legacy","4","4","/Users/andrea/Desktop/Adv. Quant Methods/Lab 3.1/AS-subject-2.csv","legacy","4 3 1 7 9 8","Lentiform Loewenfeld","3.3.12","1","y","0","left","left","NA","left","NA","487","6377","NA","487","NA","2","legacy","6","1024","2","48000","-16","experiment","2","even","4","34185","30858","31963","1307","NA","31970","NA","1373","NA","36189","36677","32975","7762","36189","NA","Sternberg task","5","3289","5","yes","1024"
"100","100","663.8333333333334","663.8333333333334","black","practice","legacy","legacy","legacy","0","uniform","1","undefined","1","right","5","5","5","0","0","5","5","0","0","5","5","5","0","5","0","Sun Oct 23 14:28:00 2022","The main experiment item","yes","Sternbergtask.osexp","/Users/andrea/Desktop/Adv. Quant Methods/Lab 3.1","no","mono","no","18","no","white","no","no","768","legacy","5","5","/Users/andrea/Desktop/Adv. Quant Methods/Lab 3.1/AS-subject-2.csv","legacy","5 7 8 4 1 2","Lentiform Loewenfeld","3.3.12","0","n","0","right","left","NA","right","NA","694","6377","NA","694","NA","2","legacy","6","1024","2","48000","-16","experiment","2","even","6","40004","36684","37789","1307","NA","37794","NA","1373","NA","42009","42704","38798","7762","42009","NA","Sternberg task","6","3983","6","yes","1024"
"100","100","631.5714285714286","631.5714285714286","black","practice","legacy","legacy","legacy","0","uniform","1","undefined","1","left","6","6","6","0","0","6","6","0","0","6","6","6","0","6","0","Sun Oct 23 14:28:00 2022","The main experiment item","yes","Sternbergtask.osexp","/Users/andrea/Desktop/Adv. Quant Methods/Lab 3.1","no","mono","no","18","no","white","no","no","768","legacy","6","6","/Users/andrea/Desktop/Adv. Quant Methods/Lab 3.1/AS-subject-2.csv","legacy","6","Lentiform Loewenfeld","3.3.12","1","y","0","left","left","NA","left","NA","438","6377","NA","438","NA","2","legacy","1","1024","2","48000","-16","experiment","2","even","6","46036","42709","43823","1307","NA","43827","NA","1373","NA","48041","48479","44831","7762","48040","NA","Sternberg task","7","4421","7","yes","1024"
"100","100","623.875","623.875","black","practice","legacy","legacy","legacy","0","uniform","1","undefined","1","right","7","7","7","0","0","7","7","0","0","7","7","7","0","7","0","Sun Oct 23 14:28:00 2022","The main experiment item","yes","Sternbergtask.osexp","/Users/andrea/Desktop/Adv. Quant Methods/Lab 3.1","no","mono","no","18","no","white","no","no","768","legacy","7","7","/Users/andrea/Desktop/Adv. Quant Methods/Lab 3.1/AS-subject-2.csv","legacy","4 1 5","Lentiform Loewenfeld","3.3.12","0","n","0","right","left","NA","right","NA","570","6377","NA","570","NA","2","legacy","3","1024","2","48000","-16","experiment","2","even","2","51797","48486","49583","1307","NA","49587","NA","1373","NA","53802","54373","50592","7762","53801","NA","Sternberg task","8","4991","8","yes","1024"
"100","100","615.7777777777778","615.7777777777778","black","practice","legacy","legacy","legacy","0","uniform","1","undefined","1","right","8","8","8","0","0","8","8","0","0","8","8","8","0","8","0","Sun Oct 23 14:28:00 2022","The main experiment item","yes","Sternbergtask.osexp","/Users/andrea/Desktop/Adv. Quant Methods/Lab 3.1","no","mono","no","18","no","white","no","no","768","legacy","8","8","/Users/andrea/Desktop/Adv. Quant Methods/Lab 3.1/AS-subject-2.csv","legacy","9 6 7 4 5","Lentiform Loewenfeld","3.3.12","0","n","0","right","left","NA","right","NA","551","6377","NA","551","NA","2","legacy","5","1024","2","48000","-16","experiment","2","even","3","57704","54377","55490","1307","NA","55493","NA","1373","NA","59708","60259","56497","7762","59708","NA","Sternberg task","9","5542","9","yes","1024"
"100","100","607.8","607.8","black","practice","legacy","legacy","legacy","0","uniform","1","undefined","1","left","9","9","9","0","0","9","9","0","0","9","9","9","0","9","0","Sun Oct 23 14:28:00 2022","The main experiment item","yes","Sternbergtask.osexp","/Users/andrea/Desktop/Adv. Quant Methods/Lab 3.1","no","mono","no","18","no","white","no","no","768","legacy","9","9","/Users/andrea/Desktop/Adv. Quant Methods/Lab 3.1/AS-subject-2.csv","legacy","2 9 4","Lentiform Loewenfeld","3.3.12","3","y","0","left","left","NA","left","NA","536","6377","NA","536","NA","2","legacy","3","1024","2","48000","-16","experiment","2","even","4","63597","60265","61381","1307","NA","61385","NA","1373","NA","65602","66139","62389","7762","65601","NA","Sternberg task","10","6078","10","yes","1024"
"100","100","601.1818181818181","601.1818181818181","black","practice","legacy","legacy","legacy","0","uniform","1","undefined","1","right","10","10","10","0","0","10","10","0","0","10","10","10","0","10","0","Sun Oct 23 14:28:00 2022","The main experiment item","yes","Sternbergtask.osexp","/Users/andrea/Desktop/Adv. Quant Methods/Lab 3.1","no","mono","no","18","no","white","no","no","768","legacy","10","10","/Users/andrea/Desktop/Adv. Quant Methods/Lab 3.1/AS-subject-2.csv","legacy","5","Lentiform Loewenfeld","3.3.12","0","n","0","right","left","NA","right","NA","535","6377","NA","535","NA","2","legacy","1","1024","2","48000","-16","experiment","2","even","3","69462","66146","67248","1307","NA","67251","NA","1373","NA","71467","72003","68255","7762","71467","NA","Sternberg task","11","6613","11","yes","1024"
"100","100","601.5833333333334","601.5833333333334","black","practice","legacy","legacy","legacy","0","uniform","1","undefined","1","left","11","11","11","0","0","11","11","0","0","11","11","11","0","11","0","Sun Oct 23 14:28:00 2022","The main experiment item","yes","Sternbergtask.osexp","/Users/andrea/Desktop/Adv. Quant Methods/Lab 3.1","no","mono","no","18","no","white","no","no","768","legacy","11","11","/Users/andrea/Desktop/Adv. Quant Methods/Lab 3.1/AS-subject-2.csv","legacy","4 8","Lentiform Loewenfeld","3.3.12","1","y","0","left","left","NA","left","NA","606","6377","NA","606","NA","2","legacy","2","1024","2","48000","-16","experiment","2","even","4","75318","72007","73104","1307","NA","73108","NA","1373","NA","77323","77929","74113","7762","77323","NA","Sternberg task","12","7219","12","yes","1024"
"100","100","595.5384615384615","595.5384615384615","black","experiment","legacy","legacy","legacy","0","uniform","1","undefined","1","right","12","12","12","0","0","12","12","0","0","12","12","12","0","12","0","Sun Oct 23 14:28:00 2022","The main experiment item","yes","Sternbergtask.osexp","/Users/andrea/Desktop/Adv. Quant Methods/Lab 3.1","no","mono","no","18","no","white","no","no","768","legacy","0","11","/Users/andrea/Desktop/Adv. Quant Methods/Lab 3.1/AS-subject-2.csv","legacy","6 9 5","Lentiform Loewenfeld","3.3.12","0","n","0","right","left","left","right","NA","523","6377","3690","523","NA","2","legacy","3","1024","2","48000","-16","experiment","2","even","8","84975","77936","82766","1307","82684","82768","NA","1373","78993","86979","87503","83772","7762","86979","NA","Sternberg task","13","7742","13","yes","1024"
"100","100","589.9285714285714","589.9285714285714","black","experiment","legacy","legacy","legacy","0","uniform","1","undefined","1","left","13","13","13","0","0","13","13","0","0","13","13","13","0","13","0","Sun Oct 23 14:28:00 2022","The main experiment item","yes","Sternbergtask.osexp","/Users/andrea/Desktop/Adv. Quant Methods/Lab 3.1","no","mono","no","18","no","white","no","no","768","legacy","1","11","/Users/andrea/Desktop/Adv. Quant Methods/Lab 3.1/AS-subject-2.csv","legacy","8 9 5 7 1 6","Lentiform Loewenfeld","3.3.12","4","y","0","left","left","left","left","NA","517","6377","3690","517","NA","2","legacy","6","1024","2","48000","-16","experiment","2","even","7","90839","87511","88623","1307","82684","88629","NA","1373","78993","92843","93361","89633","7762","92843","NA","Sternberg task","14","8259","14","yes","1024"
"100","100","593","593","black","experiment","legacy","legacy","legacy","0","uniform","1","undefined","1","left","14","14","14","0","0","14","14","0","0","14","14","14","0","14","0","Sun Oct 23 14:28:00 2022","The main experiment item","yes","Sternbergtask.osexp","/Users/andrea/Desktop/Adv. Quant Methods/Lab 3.1","no","mono","no","18","no","white","no","no","768","legacy","2","11","/Users/andrea/Desktop/Adv. Quant Methods/Lab 3.1/AS-subject-2.csv","legacy","1 4 9 3 2 5","Lentiform Loewenfeld","3.3.12","3","y","0","left","left","left","left","NA","636","6377","3690","636","NA","2","legacy","6","1024","2","48000","-16","experiment","2","even","9","96681","93368","94467","1307","82684","94471","NA","1373","78993","98685","99322","95475","7762","98685","NA","Sternberg task","15","8895","15","yes","1024"
"93.75","93.75","641.8125","641.8125","black","experiment","legacy","legacy","legacy","0","uniform","0","undefined","0","left","15","15","15","0","0","15","15","0","0","15","15","15","0","15","0","Sun Oct 23 14:28:00 2022","The main experiment item","yes","Sternbergtask.osexp","/Users/andrea/Desktop/Adv. Quant Methods/Lab 3.1","no","mono","no","18","no","white","no","no","768","legacy","3","11","/Users/andrea/Desktop/Adv. Quant Methods/Lab 3.1/AS-subject-2.csv","legacy","4 1 8 7 5","Lentiform Loewenfeld","3.3.12","3","y","0","right","left","left","right","NA","1374","6377","3690","1374","NA","2","legacy","5","1024","2","48000","-16","experiment","2","even","8","102644","99327","100430","1307","82684","100434","NA","1373","78993","104648","106022","101438","7762","104648","NA","Sternberg task","15","10269","16","yes","1024"
"94.11764705882354","94.11764705882354","639.4117647058823","639.4117647058823","black","experiment","legacy","legacy","legacy","0","uniform","1","undefined","1","right","16","16","16","0","0","16","16","0","0","16","16","16","0","16","0","Sun Oct 23 14:28:00 2022","The main experiment item","yes","Sternbergtask.osexp","/Users/andrea/Desktop/Adv. Quant Methods/Lab 3.1","no","mono","no","18","no","white","no","no","768","legacy","4","11","/Users/andrea/Desktop/Adv. Quant Methods/Lab 3.1/AS-subject-2.csv","legacy","7 1 8 4 9 3","Lentiform Loewenfeld","3.3.12","0","n","0","right","left","left","right","NA","601","6377","3690","601","NA","2","legacy","6","1024","2","48000","-16","experiment","2","even","6","109331","99327","107119","1307","82684","107121","106026","1373","78993","111335","111936","108126","7762","111335","NA","Sternberg task","16","10870","17","yes","1024"
"94.44444444444444","94.44444444444444","636.5","636.5","black","experiment","legacy","legacy","legacy","0","uniform","1","undefined","1","left","17","17","17","0","0","17","17","0","0","17","17","17","0","17","0","Sun Oct 23 14:28:00 2022","The main experiment item","yes","Sternbergtask.osexp","/Users/andrea/Desktop/Adv. Quant Methods/Lab 3.1","no","mono","no","18","no","white","no","no","768","legacy","5","11","/Users/andrea/Desktop/Adv. Quant Methods/Lab 3.1/AS-subject-2.csv","legacy","6 5","Lentiform Loewenfeld","3.3.12","2","y","0","left","left","left","left","NA","587","6377","3690","587","NA","2","legacy","2","1024","2","48000","-16","experiment","2","even","5","115236","111939","113024","1307","82684","113026","106026","1373","78993","117240","117828","114030","7762","117240","NA","Sternberg task","17","11457","18","yes","1024"
"94.73684210526316","94.73684210526316","675.0526315789474","675.0526315789474","black","experiment","legacy","legacy","legacy","0","uniform","1","undefined","1","left","18","18","18","0","0","18","18","0","0","18","18","18","0","18","0","Sun Oct 23 14:28:00 2022","The main experiment item","yes","Sternbergtask.osexp","/Users/andrea/Desktop/Adv. Quant Methods/Lab 3.1","no","mono","no","18","no","white","no","no","768","legacy","6","11","/Users/andrea/Desktop/Adv. Quant Methods/Lab 3.1/AS-subject-2.csv","legacy","8 5 3 7 4 6","Lentiform Loewenfeld","3.3.12","6","y","0","left","left","left","left","NA","1369","6377","3690","1369","NA","2","legacy","6","1024","2","48000","-16","experiment","2","even","6","121141","117839","118929","1307","82684","118931","106026","1373","78993","123145","124515","119936","7762","123145","NA","Sternberg task","18","12826","19","yes","1024"
"95","95","671.6","671.6","black","experiment","legacy","legacy","legacy","0","uniform","1","undefined","1","right","19","19","19","0","0","19","19","0","0","19","19","19","0","19","0","Sun Oct 23 14:28:00 2022","The main experiment item","yes","Sternbergtask.osexp","/Users/andrea/Desktop/Adv. Quant Methods/Lab 3.1","no","mono","no","18","no","white","no","no","768","legacy","7","11","/Users/andrea/Desktop/Adv. Quant Methods/Lab 3.1/AS-subject-2.csv","legacy","8 2 1 4 5 9","Lentiform Loewenfeld","3.3.12","0","n","0","right","left","left","right","NA","606","6377","3690","606","NA","2","legacy","6","1024","2","48000","-16","experiment","2","even","7","127826","124518","125613","1307","82684","125615","106026","1373","78993","129830","130437","126620","7762","129829","NA","Sternberg task","19","13432","20","yes","1024"
"95.23809523809524","95.23809523809524","686.9047619047619","686.9047619047619","black","experiment","legacy","legacy","legacy","0","uniform","1","undefined","1","right","20","20","20","0","0","20","20","0","0","20","20","20","0","20","0","Sun Oct 23 14:28:00 2022","The main experiment item","yes","Sternbergtask.osexp","/Users/andrea/Desktop/Adv. Quant Methods/Lab 3.1","no","mono","no","18","no","white","no","no","768","legacy","8","11","/Users/andrea/Desktop/Adv. Quant Methods/Lab 3.1/AS-subject-2.csv","legacy","7 1","Lentiform Loewenfeld","3.3.12","0","n","0","right","left","left","right","NA","993","6377","3690","993","NA","2","legacy","2","1024","2","48000","-16","experiment","2","even","8","133736","130440","131525","1307","82684","131527","106026","1373","78993","135740","136734","132531","7762","135740","NA","Sternberg task","20","14425","21","yes","1024"
"95.45454545454545","95.45454545454545","688.7272727272727","688.7272727272727","black","experiment","legacy","legacy","legacy","0","uniform","1","undefined","1","left","21","21","21","0","0","21","21","0","0","21","21","21","0","21","0","Sun Oct 23 14:28:00 2022","The main experiment item","yes","Sternbergtask.osexp","/Users/andrea/Desktop/Adv. Quant Methods/Lab 3.1","no","mono","no","18","no","white","no","no","768","legacy","9","11","/Users/andrea/Desktop/Adv. Quant Methods/Lab 3.1/AS-subject-2.csv","legacy","7 4 2 6 3 5","Lentiform Loewenfeld","3.3.12","6","y","0","left","left","left","left","NA","727","6377","3690","727","NA","2","legacy","6","1024","2","48000","-16","experiment","2","even","5","140055","136741","137842","1307","82684","137844","106026","1373","78993","142059","142787","138848","7762","142059","NA","Sternberg task","21","15152","22","yes","1024"
"95.65217391304348","95.65217391304348","686.3913043478261","686.3913043478261","black","experiment","legacy","legacy","legacy","0","uniform","1","undefined","1","right","22","22","22","0","0","22","22","0","0","22","22","22","0","22","0","Sun Oct 23 14:28:00 2022","The main experiment item","yes","Sternbergtask.osexp","/Users/andrea/Desktop/Adv. Quant Methods/Lab 3.1","no","mono","no","18","no","white","no","no","768","legacy","10","11","/Users/andrea/Desktop/Adv. Quant Methods/Lab 3.1/AS-subject-2.csv","legacy","8 6 3 4 7","Lentiform Loewenfeld","3.3.12","0","n","0","right","left","left","right","NA","635","6377","3690","635","NA","2","legacy","5","1024","2","48000","-16","experiment","2","even","1","146126","142795","143908","1307","82684","143914","106026","1373","78993","148131","148767","144918","7762","148131","NA","Sternberg task","22","15787","23","yes","1024"
"95.83333333333333","95.83333333333333","684.6666666666666","684.6666666666666","black","experiment","legacy","legacy","legacy","0","uniform","1","undefined","1","right","23","23","23","0","0","23","23","0","0","23","23","23","0","23","0","Sun Oct 23 14:28:00 2022","The main experiment item","yes","Sternbergtask.osexp","/Users/andrea/Desktop/Adv. Quant Methods/Lab 3.1","no","mono","no","18","no","white","no","no","768","legacy","11","11","/Users/andrea/Desktop/Adv. Quant Methods/Lab 3.1/AS-subject-2.csv","legacy","3 4 2","Lentiform Loewenfeld","3.3.12","0","n","0","right","left","left","right","NA","645","6377","3690","645","NA","2","legacy","3","1024","2","48000","-16","experiment","2","even","5","152090","148773","149878","1307","82684","149881","106026","1373","78993","154095","154740","150884","7762","154095","NA","Sternberg task","23","16432","24","yes","1024"
"96","96","686.24","686.24","black","experiment","legacy","legacy","legacy","0","uniform","1","undefined","1","right","24","24","24","0","0","24","24","0","0","24","24","24","0","24","0","Sun Oct 23 14:28:00 2022","The main experiment item","yes","Sternbergtask.osexp","/Users/andrea/Desktop/Adv. Quant Methods/Lab 3.1","no","mono","no","18","no","white","no","no","768","legacy","12","11","/Users/andrea/Desktop/Adv. Quant Methods/Lab 3.1/AS-subject-2.csv","legacy","2 7 5","Lentiform Loewenfeld","3.3.12","0","n","0","right","left","left","right","NA","724","6377","3690","724","NA","2","legacy","3","1024","2","48000","-16","experiment","2","even","8","158086","154750","155873","1307","82684","155875","106026","1373","78993","160091","160816","156879","7762","160091","NA","Sternberg task","24","17156","25","yes","1024"
"96.15384615384616","96.15384615384616","678.8846153846154","678.8846153846154","black","experiment","legacy","legacy","legacy","0","uniform","1","undefined","1","right","25","25","25","0","0","25","25","0","0","25","25","25","0","25","0","Sun Oct 23 14:28:00 2022","The main experiment item","yes","Sternbergtask.osexp","/Users/andrea/Desktop/Adv. Quant Methods/Lab 3.1","no","mono","no","18","no","white","no","no","768","legacy","13","11","/Users/andrea/Desktop/Adv. Quant Methods/Lab 3.1/AS-subject-2.csv","legacy","5 2","Lentiform Loewenfeld","3.3.12","0","n","0","right","left","left","right","NA","495","6377","3690","495","NA","2","legacy","2","1024","2","48000","-16","experiment","2","even","7","164140","160821","161927","1307","82684","161930","106026","1373","78993","166144","166639","162934","7762","166143","NA","Sternberg task","25","17651","26","yes","1024"
"96.29629629629629","96.29629629629629","675.7037037037037","675.7037037037037","black","experiment","legacy","legacy","legacy","0","uniform","1","undefined","1","right","26","26","26","0","0","26","26","0","0","26","26","26","0","26","0","Sun Oct 23 14:28:00 2022","The main experiment item","yes","Sternbergtask.osexp","/Users/andrea/Desktop/Adv. Quant Methods/Lab 3.1","no","mono","no","18","no","white","no","no","768","legacy","14","11","/Users/andrea/Desktop/Adv. Quant Methods/Lab 3.1/AS-subject-2.csv","legacy","7 9 1 6","Lentiform Loewenfeld","3.3.12","0","n","0","right","left","left","right","NA","593","6377","3690","593","NA","2","legacy","4","1024","2","48000","-16","experiment","2","even","4","169964","166646","167751","1307","82684","167754","106026","1373","78993","171968","172562","168758","7762","171968","NA","Sternberg task","26","18244","27","yes","1024"
"92.85714285714286","92.85714285714286","716.9285714285714","716.9285714285714","black","experiment","legacy","legacy","legacy","0","uniform","0","undefined","0","left","27","27","27","0","0","27","27","0","0","27","27","27","0","27","0","Sun Oct 23 14:28:00 2022","The main experiment item","yes","Sternbergtask.osexp","/Users/andrea/Desktop/Adv. Quant Methods/Lab 3.1","no","mono","no","18","no","white","no","no","768","legacy","15","11","/Users/andrea/Desktop/Adv. Quant Methods/Lab 3.1/AS-subject-2.csv","legacy","4 9 7 8 5 3","Lentiform Loewenfeld","3.3.12","4","y","0","right","left","left","right","NA","1830","6377","3690","1830","NA","2","legacy","6","1024","2","48000","-16","experiment","2","even","8","175897","172566","173681","1307","82684","173683","106026","1373","78993","177901","179731","174687","7762","177900","NA","Sternberg task","26","20074","28","yes","1024"
"93.10344827586206","93.10344827586206","719","719","black","experiment","legacy","legacy","legacy","0","uniform","1","undefined","1","left","28","28","28","0","0","28","28","0","0","28","28","28","0","28","0","Sun Oct 23 14:28:00 2022","The main experiment item","yes","Sternbergtask.osexp","/Users/andrea/Desktop/Adv. Quant Methods/Lab 3.1","no","mono","no","18","no","white","no","no","768","legacy","16","11","/Users/andrea/Desktop/Adv. Quant Methods/Lab 3.1/AS-subject-2.csv","legacy","5 2 9 6 1 7","Lentiform Loewenfeld","3.3.12","3","y","0","left","left","left","left","NA","777","6377","3690","777","NA","2","legacy","6","1024","2","48000","-16","experiment","2","even","9","183046","172566","180834","1307","82684","180836","179735","1373","78993","185052","185829","181841","7762","185051","NA","Sternberg task","27","20851","29","yes","1024"
"93.33333333333333","93.33333333333333","742.8333333333334","742.8333333333334","black","experiment","legacy","legacy","legacy","0","uniform","1","undefined","1","left","29","29","29","0","0","29","29","0","0","29","29","29","0","29","0","Sun Oct 23 14:28:00 2022","The main experiment item","yes","Sternbergtask.osexp","/Users/andrea/Desktop/Adv. Quant Methods/Lab 3.1","no","mono","no","18","no","white","no","no","768","legacy","17","11","/Users/andrea/Desktop/Adv. Quant Methods/Lab 3.1/AS-subject-2.csv","legacy","9 8 4","Lentiform Loewenfeld","3.3.12","1","y","0","left","left","left","left","NA","1434","6377","3690","1434","NA","2","legacy","3","1024","2","48000","-16","experiment","2","even","9","189166","185836","186953","1307","82684","186957","179735","1373","78993","191170","192604","187962","7762","191170","NA","Sternberg task","28","22285","30","yes","1024"
"93.54838709677419","93.54838709677419","743.516129032258","743.516129032258","black","experiment","legacy","legacy","legacy","0","uniform","1","undefined","1","right","30","30","30","0","0","30","30","0","0","30","30","30","0","30","0","Sun Oct 23 14:28:00 2022","The main experiment item","yes","Sternbergtask.osexp","/Users/andrea/Desktop/Adv. Quant Methods/Lab 3.1","no","mono","no","18","no","white","no","no","768","legacy","18","11","/Users/andrea/Desktop/Adv. Quant Methods/Lab 3.1/AS-subject-2.csv","legacy","1 7 5 2 9","Lentiform Loewenfeld","3.3.12","0","n","0","right","left","left","right","NA","764","6377","3690","764","NA","2","legacy","5","1024","2","48000","-16","experiment","2","even","3","195905","192608","193693","1307","82684","193694","179735","1373","78993","197910","198675","194699","7762","197910","NA","Sternberg task","29","23049","31","yes","1024"
"93.75","93.75","764.59375","764.59375","black","experiment","legacy","legacy","legacy","0","uniform","1","undefined","1","left","31","31","31","0","0","31","31","0","0","31","31","31","0","31","0","Sun Oct 23 14:28:00 2022","The main experiment item","yes","Sternbergtask.osexp","/Users/andrea/Desktop/Adv. Quant Methods/Lab 3.1","no","mono","no","18","no","white","no","no","768","legacy","19","11","/Users/andrea/Desktop/Adv. Quant Methods/Lab 3.1/AS-subject-2.csv","legacy","7 1 3","Lentiform Loewenfeld","3.3.12","2","y","0","left","left","left","left","NA","1418","6377","3690","1418","NA","2","legacy","3","1024","2","48000","-16","experiment","2","even","1","201976","198678","199764","1307","82684","199766","179735","1373","78993","203980","205398","200770","7762","203980","NA","Sternberg task","30","24467","32","yes","1024"
"93.93939393939394","93.93939393939394","772.030303030303","772.030303030303","black","experiment","legacy","legacy","legacy","0","uniform","1","undefined","1","right","32","32","32","0","0","32","32","0","0","32","32","32","0","32","0","Sun Oct 23 14:28:00 2022","The main experiment item","yes","Sternbergtask.osexp","/Users/andrea/Desktop/Adv. Quant Methods/Lab 3.1","no","mono","no","18","no","white","no","no","768","legacy","20","11","/Users/andrea/Desktop/Adv. Quant Methods/Lab 3.1/AS-subject-2.csv","legacy","5 9 2 3","Lentiform Loewenfeld","3.3.12","0","n","0","right","left","left","right","NA","1010","6377","3690","1010","NA","2","legacy","4","1024","2","48000","-16","experiment","2","even","8","208708","205402","206494","1307","82684","206497","179735","1373","78993","210714","211724","207503","7762","210713","NA","Sternberg task","31","25477","33","yes","1024"
"91.17647058823529","91.17647058823529","774.5882352941177","774.5882352941177","black","experiment","legacy","legacy","legacy","0","uniform","0","undefined","0","right","33","33","33","0","0","33","33","0","0","33","33","33","0","33","0","Sun Oct 23 14:28:00 2022","The main experiment item","yes","Sternbergtask.osexp","/Users/andrea/Desktop/Adv. Quant Methods/Lab 3.1","no","mono","no","18","no","white","no","no","768","legacy","21","11","/Users/andrea/Desktop/Adv. Quant Methods/Lab 3.1/AS-subject-2.csv","legacy","6 9 4 5 3 2","Lentiform Loewenfeld","3.3.12","0","n","0","left","left","left","left","NA","859","6377","3690","859","NA","2","legacy","6","1024","2","48000","-16","experiment","2","even","8","215028","211727","212815","1307","82684","212818","179735","1373","78993","217035","217895","213822","7762","217035","NA","Sternberg task","31","26336","34","yes","1024"
"91.42857142857143","91.42857142857143","771.7714285714286","771.7714285714286","black","experiment","legacy","legacy","legacy","0","uniform","1","undefined","1","right","34","34","34","0","0","34","34","0","0","34","34","34","0","34","0","Sun Oct 23 14:28:00 2022","The main experiment item","yes","Sternbergtask.osexp","/Users/andrea/Desktop/Adv. Quant Methods/Lab 3.1","no","mono","no","18","no","white","no","no","768","legacy","22","11","/Users/andrea/Desktop/Adv. Quant Methods/Lab 3.1/AS-subject-2.csv","legacy","9 5 3 2 8 6","Lentiform Loewenfeld","3.3.12","0","n","0","right","left","left","right","NA","676","6377","3690","676","NA","2","legacy","6","1024","2","48000","-16","experiment","2","even","7","221204","211727","218992","1307","82684","218997","217900","1373","78993","223209","223886","220002","7762","223208","NA","Sternberg task","32","27012","35","yes","1024"
"91.66666666666667","91.66666666666667","791.6388888888889","791.6388888888889","black","experiment","legacy","legacy","legacy","0","uniform","1","undefined","1","right","35","35","35","0","0","35","35","0","0","35","35","35","0","35","0","Sun Oct 23 14:28:00 2022","The main experiment item","yes","Sternbergtask.osexp","/Users/andrea/Desktop/Adv. Quant Methods/Lab 3.1","no","mono","no","18","no","white","no","no","768","legacy","23","11","/Users/andrea/Desktop/Adv. Quant Methods/Lab 3.1/AS-subject-2.csv","legacy","1 4 3 6 5","Lentiform Loewenfeld","3.3.12","0","n","0","right","left","left","right","NA","1487","6377","3690","1487","NA","2","legacy","5","1024","2","48000","-16","experiment","2","even","8","227214","223891","224999","1307","82684","225001","217900","1373","78993","229218","230706","226005","7762","229218","NA","Sternberg task","33","28499","36","yes","1024"
"89.1891891891892","89.1891891891892","795.5945945945946","795.5945945945946","black","experiment","legacy","legacy","legacy","0","uniform","0","undefined","0","right","36","36","36","0","0","36","36","0","0","36","36","36","0","36","0","Sun Oct 23 14:28:00 2022","The main experiment item","yes","Sternbergtask.osexp","/Users/andrea/Desktop/Adv. Quant Methods/Lab 3.1","no","mono","no","18","no","white","no","no","768","legacy","24","11","/Users/andrea/Desktop/Adv. Quant Methods/Lab 3.1/AS-subject-2.csv","legacy","8 5 4 2 9 6","Lentiform Loewenfeld","3.3.12","0","n","0","left","left","left","left","NA","938","6377","3690","938","NA","2","legacy","6","1024","2","48000","-16","experiment","2","even","3","234015","230709","231803","1307","82684","231805","217900","1373","78993","236019","236958","232810","7762","236019","NA","Sternberg task","33","29437","37","yes","1024"
"89.47368421052632","89.47368421052632","789.2368421052631","789.2368421052631","black","experiment","legacy","legacy","legacy","0","uniform","1","undefined","1","left","37","37","37","0","0","37","37","0","0","37","37","37","0","37","0","Sun Oct 23 14:28:00 2022","The main experiment item","yes","Sternbergtask.osexp","/Users/andrea/Desktop/Adv. Quant Methods/Lab 3.1","no","mono","no","18","no","white","no","no","768","legacy","25","11","/Users/andrea/Desktop/Adv. Quant Methods/Lab 3.1/AS-subject-2.csv","legacy","9 5 8 1","Lentiform Loewenfeld","3.3.12","2","y","0","left","left","left","left","NA","554","6377","3690","554","NA","2","legacy","4","1024","2","48000","-16","experiment","2","even","5","240264","230709","238052","1307","82684","238054","236962","1373","78993","242269","242824","239058","7762","242269","NA","Sternberg task","34","29991","38","yes","1024"
"89.74358974358974","89.74358974358974","797.9230769230769","797.9230769230769","black","experiment","legacy","legacy","legacy","0","uniform","1","undefined","1","right","38","38","38","0","0","38","38","0","0","38","38","38","0","38","0","Sun Oct 23 14:28:00 2022","The main experiment item","yes","Sternbergtask.osexp","/Users/andrea/Desktop/Adv. Quant Methods/Lab 3.1","no","mono","no","18","no","white","no","no","768","legacy","26","11","/Users/andrea/Desktop/Adv. Quant Methods/Lab 3.1/AS-subject-2.csv","legacy","8 9","Lentiform Loewenfeld","3.3.12","0","n","0","right","left","left","right","NA","1128","6377","3690","1128","NA","2","legacy","2","1024","2","48000","-16","experiment","2","even","5","246147","242828","243932","1307","82684","243937","236962","1373","78993","248152","249281","244942","7762","248152","NA","Sternberg task","35","31119","39","yes","1024"
"90","90","801.275","801.275","black","experiment","legacy","legacy","legacy","0","uniform","1","undefined","1","right","39","39","39","0","0","39","39","0","0","39","39","39","0","39","0","Sun Oct 23 14:28:00 2022","The main experiment item","yes","Sternbergtask.osexp","/Users/andrea/Desktop/Adv. Quant Methods/Lab 3.1","no","mono","no","18","no","white","no","no","768","legacy","27","11","/Users/andrea/Desktop/Adv. Quant Methods/Lab 3.1/AS-subject-2.csv","legacy","5","Lentiform Loewenfeld","3.3.12","0","n","0","right","left","left","right","NA","932","6377","3690","932","NA","2","legacy","1","1024","2","48000","-16","experiment","2","even","8","252610","249295","250396","1307","82684","250401","236962","1373","78993","254614","255547","251405","7762","254614","NA","Sternberg task","36","32051","40","yes","1024"
"90.2439024390244","90.2439024390244","815.2439024390244","815.2439024390244","black","experiment","legacy","legacy","legacy","0","uniform","1","undefined","1","left","40","40","40","0","0","40","40","0","0","40","40","40","0","40","0","Sun Oct 23 14:28:00 2022","The main experiment item","yes","Sternbergtask.osexp","/Users/andrea/Desktop/Adv. Quant Methods/Lab 3.1","no","mono","no","18","no","white","no","no","768","legacy","28","11","/Users/andrea/Desktop/Adv. Quant Methods/Lab 3.1/AS-subject-2.csv","legacy","2 4 8 5 1 3","Lentiform Loewenfeld","3.3.12","1","y","0","left","left","left","left","NA","1374","6377","3690","1374","NA","2","legacy","6","1024","2","48000","-16","experiment","2","even","2","258882","255555","256663","1307","82684","256670","236962","1373","78993","260886","262261","257675","7762","260885","NA","Sternberg task","37","33425","41","yes","1024"
"88.0952380952381","88.0952380952381","820.8571428571429","820.8571428571429","black","experiment","legacy","legacy","legacy","0","uniform","0","undefined","0","left","41","41","41","0","0","41","41","0","0","41","41","41","0","41","0","Sun Oct 23 14:28:00 2022","The main experiment item","yes","Sternbergtask.osexp","/Users/andrea/Desktop/Adv. Quant Methods/Lab 3.1","no","mono","no","18","no","white","no","no","768","legacy","29","11","/Users/andrea/Desktop/Adv. Quant Methods/Lab 3.1/AS-subject-2.csv","legacy","6 7 9 3 1 2","Lentiform Loewenfeld","3.3.12","1","y","0","right","left","left","right","NA","1051","6377","3690","1051","NA","2","legacy","6","1024","2","48000","-16","experiment","2","even","6","265569","262264","263356","1307","82684","263359","236962","1373","78993","267573","268625","264363","7762","267573","NA","Sternberg task","37","34476","42","yes","1024"
"88.37209302325581","88.37209302325581","821.2093023255813","821.2093023255813","black","experiment","legacy","legacy","legacy","0","uniform","1","undefined","1","left","42","42","42","0","0","42","42","0","0","42","42","42","0","42","0","Sun Oct 23 14:28:00 2022","The main experiment item","yes","Sternbergtask.osexp","/Users/andrea/Desktop/Adv. Quant Methods/Lab 3.1","no","mono","no","18","no","white","no","no","768","legacy","30","11","/Users/andrea/Desktop/Adv. Quant Methods/Lab 3.1/AS-subject-2.csv","legacy","8 9 6 1","Lentiform Loewenfeld","3.3.12","2","y","0","left","left","left","left","NA","836","6377","3690","836","NA","2","legacy","4","1024","2","48000","-16","experiment","2","even","9","271930","262264","269718","1307","82684","269721","268631","1373","78993","273935","274772","270725","7762","273935","NA","Sternberg task","38","35312","43","yes","1024"
"88.63636363636364","88.63636363636364","820.9090909090909","820.9090909090909","black","experiment","legacy","legacy","legacy","0","uniform","1","undefined","1","left","43","43","43","0","0","43","43","0","0","43","43","43","0","43","0","Sun Oct 23 14:28:00 2022","The main experiment item","yes","Sternbergtask.osexp","/Users/andrea/Desktop/Adv. Quant Methods/Lab 3.1","no","mono","no","18","no","white","no","no","768","legacy","31","11","/Users/andrea/Desktop/Adv. Quant Methods/Lab 3.1/AS-subject-2.csv","legacy","3 2 1 4 7","Lentiform Loewenfeld","3.3.12","2","y","0","left","left","left","left","NA","808","6377","3690","808","NA","2","legacy","5","1024","2","48000","-16","experiment","2","even","2","278101","274780","275887","1307","82684","275890","268631","1373","78993","280105","280914","276894","7762","280105","NA","Sternberg task","39","36120","44","yes","1024"
"88.88888888888889","88.88888888888889","814.9333333333333","814.9333333333333","black","experiment","legacy","legacy","legacy","0","uniform","1","undefined","1","right","44","44","44","0","0","44","44","0","0","44","44","44","0","44","0","Sun Oct 23 14:28:00 2022","The main experiment item","yes","Sternbergtask.osexp","/Users/andrea/Desktop/Adv. Quant Methods/Lab 3.1","no","mono","no","18","no","white","no","no","768","legacy","32","11","/Users/andrea/Desktop/Adv. Quant Methods/Lab 3.1/AS-subject-2.csv","legacy","6 9 7 3 8 2","Lentiform Loewenfeld","3.3.12","0","n","0","right","left","left","right","NA","552","6377","3690","552","NA","2","legacy","6","1024","2","48000","-16","experiment","2","even","5","284242","280920","282023","1307","82684","282026","268631","1373","78993","286246","286799","283030","7762","286246","NA","Sternberg task","40","36672","45","yes","1024"
"89.1304347826087","89.1304347826087","824.4347826086956","824.4347826086956","black","experiment","legacy","legacy","legacy","0","uniform","1","undefined","1","left","45","45","45","0","0","45","45","0","0","45","45","45","0","45","0","Sun Oct 23 14:28:00 2022","The main experiment item","yes","Sternbergtask.osexp","/Users/andrea/Desktop/Adv. Quant Methods/Lab 3.1","no","mono","no","18","no","white","no","no","768","legacy","33","11","/Users/andrea/Desktop/Adv. Quant Methods/Lab 3.1/AS-subject-2.csv","legacy","4 3 2 5 8","Lentiform Loewenfeld","3.3.12","2","y","0","left","left","left","left","NA","1252","6377","3690","1252","NA","2","legacy","5","1024","2","48000","-16","experiment","2","even","3","290145","286810","287929","1307","82684","287933","268631","1373","78993","292149","293402","288937","7762","292149","NA","Sternberg task","41","37924","46","yes","1024"
"89.36170212765957","89.36170212765957","825.5744680851063","825.5744680851063","black","experiment","legacy","legacy","legacy","0","uniform","1","undefined","1","right","46","46","46","0","0","46","46","0","0","46","46","46","0","46","0","Sun Oct 23 14:28:00 2022","The main experiment item","yes","Sternbergtask.osexp","/Users/andrea/Desktop/Adv. Quant Methods/Lab 3.1","no","mono","no","18","no","white","no","no","768","legacy","34","11","/Users/andrea/Desktop/Adv. Quant Methods/Lab 3.1/AS-subject-2.csv","legacy","9 7 4 5 8","Lentiform Loewenfeld","3.3.12","0","n","0","right","left","left","right","NA","878","6377","3690","878","NA","2","legacy","5","1024","2","48000","-16","experiment","2","even","6","296707","293406","294498","1307","82684","294500","268631","1373","78993","298712","299591","295502","7762","298711","NA","Sternberg task","42","38802","47","yes","1024"
"89.58333333333333","89.58333333333333","826.4583333333334","826.4583333333334","black","experiment","legacy","legacy","legacy","0","uniform","1","undefined","1","right","47","47","47","0","0","47","47","0","0","47","47","47","0","47","0","Sun Oct 23 14:28:00 2022","The main experiment item","yes","Sternbergtask.osexp","/Users/andrea/Desktop/Adv. Quant Methods/Lab 3.1","no","mono","no","18","no","white","no","no","768","legacy","35","11","/Users/andrea/Desktop/Adv. Quant Methods/Lab 3.1/AS-subject-2.csv","legacy","4 2 6 9","Lentiform Loewenfeld","3.3.12","0","n","0","right","left","left","right","NA","868","6377","3690","868","NA","2","legacy","4","1024","2","48000","-16","experiment","2","even","7","302892","299594","300680","1307","82684","300682","268631","1373","78993","304899","305768","301686","7762","304899","NA","Sternberg task","43","39670","48","yes","1024"
"89.79591836734694","89.79591836734694","831.9591836734694","831.9591836734694","black","experiment","legacy","legacy","legacy","0","uniform","1","undefined","1","right","48","48","48","0","0","48","48","0","0","48","48","48","0","48","0","Sun Oct 23 14:28:00 2022","The main experiment item","yes","Sternbergtask.osexp","/Users/andrea/Desktop/Adv. Quant Methods/Lab 3.1","no","mono","no","18","no","white","no","no","768","legacy","36","11","/Users/andrea/Desktop/Adv. Quant Methods/Lab 3.1/AS-subject-2.csv","legacy","3 9 1","Lentiform Loewenfeld","3.3.12","0","n","0","right","left","left","right","NA","1096","6377","3690","1096","NA","2","legacy","3","1024","2","48000","-16","experiment","2","even","7","309107","305777","306894","1307","82684","306898","268631","1373","78993","311112","312209","307902","7762","311112","NA","Sternberg task","44","40766","49","yes","1024"
"90","90","843.2","843.2","black","experiment","legacy","legacy","legacy","0","uniform","1","undefined","1","left","49","49","49","0","0","49","49","0","0","49","49","49","0","49","0","Sun Oct 23 14:28:00 2022","The main experiment item","yes","Sternbergtask.osexp","/Users/andrea/Desktop/Adv. Quant Methods/Lab 3.1","no","mono","no","18","no","white","no","no","768","legacy","37","11","/Users/andrea/Desktop/Adv. Quant Methods/Lab 3.1/AS-subject-2.csv","legacy","9 6 2 4 1","Lentiform Loewenfeld","3.3.12","4","y","0","left","left","left","left","NA","1394","6377","3690","1394","NA","2","legacy","5","1024","2","48000","-16","experiment","2","even","4","315509","312216","313299","1307","82684","313301","268631","1373","78993","317513","318908","314303","7762","317513","NA","Sternberg task","45","42160","50","yes","1024"
"90.19607843137256","90.19607843137256","847.6470588235294","847.6470588235294","black","experiment","legacy","legacy","legacy","0","uniform","1","undefined","1","right","50","50","50","0","0","50","50","0","0","50","50","50","0","50","0","Sun Oct 23 14:28:00 2022","The main experiment item","yes","Sternbergtask.osexp","/Users/andrea/Desktop/Adv. Quant Methods/Lab 3.1","no","mono","no","18","no","white","no","no","768","legacy","38","11","/Users/andrea/Desktop/Adv. Quant Methods/Lab 3.1/AS-subject-2.csv","legacy","1 7 8 3 9","Lentiform Loewenfeld","3.3.12","0","n","0","right","left","left","right","NA","1070","6377","3690","1070","NA","2","legacy","5","1024","2","48000","-16","experiment","2","even","2","322211","318911","319999","1307","82684","320001","268631","1373","78993","324215","325286","321005","7762","324215","NA","Sternberg task","46","43230","51","yes","1024"
"90.38461538461539","90.38461538461539","853.2307692307693","853.2307692307693","black","experiment","legacy","legacy","legacy","0","uniform","1","undefined","1","left","51","51","51","0","0","51","51","0","0","51","51","51","0","51","0","Sun Oct 23 14:28:00 2022","The main experiment item","yes","Sternbergtask.osexp","/Users/andrea/Desktop/Adv. Quant Methods/Lab 3.1","no","mono","no","18","no","white","no","no","768","legacy","39","11","/Users/andrea/Desktop/Adv. Quant Methods/Lab 3.1/AS-subject-2.csv","legacy","7 8 4 6 9 5","Lentiform Loewenfeld","3.3.12","4","y","0","left","left","left","left","NA","1138","6377","3690","1138","NA","2","legacy","6","1024","2","48000","-16","experiment","2","even","6","328611","325296","326397","1307","82684","326399","268631","1373","78993","330615","331754","327404","7762","330615","NA","Sternberg task","47","44368","52","yes","1024"
"90.56603773584905","90.56603773584905","848.0188679245283","848.0188679245283","black","experiment","legacy","legacy","legacy","0","uniform","1","undefined","1","right","52","52","52","0","0","52","52","0","0","52","52","52","0","52","0","Sun Oct 23 14:28:00 2022","The main experiment item","yes","Sternbergtask.osexp","/Users/andrea/Desktop/Adv. Quant Methods/Lab 3.1","no","mono","no","18","no","white","no","no","768","legacy","40","11","/Users/andrea/Desktop/Adv. Quant Methods/Lab 3.1/AS-subject-2.csv","legacy","9","Lentiform Loewenfeld","3.3.12","0","n","0","right","left","left","right","NA","577","6377","3690","577","NA","2","legacy","1","1024","2","48000","-16","experiment","2","even","6","335070","331760","332858","1307","82684","332860","268631","1373","78993","337080","337657","333865","7762","337080","NA","Sternberg task","48","44945","53","yes","1024"
"90.74074074074075","90.74074074074075","848.4074074074074","848.4074074074074","black","experiment","legacy","legacy","legacy","0","uniform","1","undefined","1","left","53","53","53","0","0","53","53","0","0","53","53","53","0","53","0","Sun Oct 23 14:28:00 2022","The main experiment item","yes","Sternbergtask.osexp","/Users/andrea/Desktop/Adv. Quant Methods/Lab 3.1","no","mono","no","18","no","white","no","no","768","legacy","41","11","/Users/andrea/Desktop/Adv. Quant Methods/Lab 3.1/AS-subject-2.csv","legacy","6 8 9 3 4 9","Lentiform Loewenfeld","3.3.12","5","y","0","left","left","left","left","NA","869","6377","3690","869","NA","2","legacy","6","1024","2","48000","-16","experiment","2","even","4","340973","337663","338758","1307","82684","338763","268631","1373","78993","342977","343847","339767","7762","342977","NA","Sternberg task","49","45814","54","yes","1024"
"90.9090909090909","90.9090909090909","863.8","863.8","black","experiment","legacy","legacy","legacy","0","uniform","1","undefined","1","right","54","54","54","0","0","54","54","0","0","54","54","54","0","54","0","Sun Oct 23 14:28:00 2022","The main experiment item","yes","Sternbergtask.osexp","/Users/andrea/Desktop/Adv. Quant Methods/Lab 3.1","no","mono","no","18","no","white","no","no","768","legacy","42","11","/Users/andrea/Desktop/Adv. Quant Methods/Lab 3.1/AS-subject-2.csv","legacy","5 7 3","Lentiform Loewenfeld","3.3.12","0","n","0","right","left","left","right","NA","1695","6377","3690","1695","NA","2","legacy","3","1024","2","48000","-16","experiment","2","even","9","347173","343855","344960","1307","82684","344963","268631","1373","78993","349177","350872","345967","7762","349177","NA","Sternberg task","50","47509","55","yes","1024"
"91.07142857142857","91.07142857142857","861.2857142857143","861.2857142857143","black","experiment","legacy","legacy","legacy","0","uniform","1","undefined","1","right","55","55","55","0","0","55","55","0","0","55","55","55","0","55","0","Sun Oct 23 14:28:00 2022","The main experiment item","yes","Sternbergtask.osexp","/Users/andrea/Desktop/Adv. Quant Methods/Lab 3.1","no","mono","no","18","no","white","no","no","768","legacy","43","11","/Users/andrea/Desktop/Adv. Quant Methods/Lab 3.1/AS-subject-2.csv","legacy","7 6 4 8 1 2","Lentiform Loewenfeld","3.3.12","0","n","0","right","left","left","right","NA","723","6377","3690","723","NA","2","legacy","6","1024","2","48000","-16","experiment","2","even","9","354182","350876","351969","1307","82684","351972","268631","1373","78993","356186","356910","352976","7762","356185","NA","Sternberg task","51","48232","56","yes","1024"
"91.2280701754386","91.2280701754386","858.2280701754386","858.2280701754386","black","experiment","legacy","legacy","legacy","0","uniform","1","undefined","1","right","56","56","56","0","0","56","56","0","0","56","56","56","0","56","0","Sun Oct 23 14:28:00 2022","The main experiment item","yes","Sternbergtask.osexp","/Users/andrea/Desktop/Adv. Quant Methods/Lab 3.1","no","mono","no","18","no","white","no","no","768","legacy","44","11","/Users/andrea/Desktop/Adv. Quant Methods/Lab 3.1/AS-subject-2.csv","legacy","7 3 2 8","Lentiform Loewenfeld","3.3.12","0","n","0","right","left","left","right","NA","687","6377","3690","687","NA","2","legacy","4","1024","2","48000","-16","experiment","2","even","4","360210","356914","358000","1307","82684","358002","268631","1373","78993","362215","362903","359006","7762","362215","NA","Sternberg task","52","48919","57","yes","1024"
"89.65517241379311","89.65517241379311","860.2413793103449","860.2413793103449","black","experiment","legacy","legacy","legacy","0","uniform","0","undefined","0","left","57","57","57","0","0","57","57","0","0","57","57","57","0","57","0","Sun Oct 23 14:28:00 2022","The main experiment item","yes","Sternbergtask.osexp","/Users/andrea/Desktop/Adv. Quant Methods/Lab 3.1","no","mono","no","18","no","white","no","no","768","legacy","45","11","/Users/andrea/Desktop/Adv. Quant Methods/Lab 3.1/AS-subject-2.csv","legacy","3 5 7 1","Lentiform Loewenfeld","3.3.12","3","y","0","right","left","left","right","NA","975","6377","3690","975","NA","2","legacy","4","1024","2","48000","-16","experiment","2","even","7","366227","362910","364012","1307","82684","364017","268631","1373","78993","368231","369207","365021","7762","368231","NA","Sternberg task","52","49894","58","yes","1024"
"89.83050847457628","89.83050847457628","858.5084745762712","858.5084745762712","black","experiment","legacy","legacy","legacy","0","uniform","1","undefined","1","right","58","58","58","0","0","58","58","0","0","58","58","58","0","58","0","Sun Oct 23 14:28:00 2022","The main experiment item","yes","Sternbergtask.osexp","/Users/andrea/Desktop/Adv. Quant Methods/Lab 3.1","no","mono","no","18","no","white","no","no","768","legacy","46","11","/Users/andrea/Desktop/Adv. Quant Methods/Lab 3.1/AS-subject-2.csv","legacy","8 4 3 9","Lentiform Loewenfeld","3.3.12","0","n","0","right","left","left","right","NA","758","6377","3690","758","NA","2","legacy","4","1024","2","48000","-16","experiment","2","even","5","372527","362910","370314","1307","82684","370318","369212","1373","78993","374531","375290","371322","7762","374531","NA","Sternberg task","53","50652","59","yes","1024"
"90","90","852.95","852.95","black","experiment","legacy","legacy","legacy","0","uniform","1","undefined","1","left","59","59","59","0","0","59","59","0","0","59","59","59","0","59","0","Sun Oct 23 14:28:00 2022","The main experiment item","yes","Sternbergtask.osexp","/Users/andrea/Desktop/Adv. Quant Methods/Lab 3.1","no","mono","no","18","no","white","no","no","768","legacy","47","11","/Users/andrea/Desktop/Adv. Quant Methods/Lab 3.1/AS-subject-2.csv","legacy","8 9 5 6 7","Lentiform Loewenfeld","3.3.12","1","y","0","left","left","left","left","NA","525","6377","3690","525","NA","2","legacy","5","1024","2","48000","-16","experiment","2","even","8","378610","375296","376398","1307","82684","376401","369212","1373","78993","380614","381140","377405","7762","380614","NA","Sternberg task","54","51177","60","yes","1024"
"90.1639344262295","90.1639344262295","858.5573770491803","858.5573770491803","black","experiment","legacy","legacy","legacy","0","uniform","1","undefined","1","left","60","60","60","0","0","60","60","0","0","60","60","60","0","60","0","Sun Oct 23 14:28:00 2022","The main experiment item","yes","Sternbergtask.osexp","/Users/andrea/Desktop/Adv. Quant Methods/Lab 3.1","no","mono","no","18","no","white","no","no","768","legacy","48","11","/Users/andrea/Desktop/Adv. Quant Methods/Lab 3.1/AS-subject-2.csv","legacy","8 5 1 3 9","Lentiform Loewenfeld","3.3.12","4","y","0","left","left","left","left","NA","1195","6377","3690","1195","NA","2","legacy","5","1024","2","48000","-16","experiment","2","even","3","384473","381145","382250","1307","82684","382257","369212","1373","78993","386477","387673","383262","7762","386477","NA","Sternberg task","55","52372","61","yes","1024"
"90.3225806451613","90.3225806451613","865.2741935483871","865.2741935483871","black","experiment","legacy","legacy","legacy","0","uniform","1","undefined","1","right","61","61","61","0","0","61","61","0","0","61","61","61","0","61","0","Sun Oct 23 14:28:00 2022","The main experiment item","yes","Sternbergtask.osexp","/Users/andrea/Desktop/Adv. Quant Methods/Lab 3.1","no","mono","no","18","no","white","no","no","768","legacy","49","11","/Users/andrea/Desktop/Adv. Quant Methods/Lab 3.1/AS-subject-2.csv","legacy","6 3 1 7 9 8","Lentiform Loewenfeld","3.3.12","0","n","0","right","left","left","right","NA","1275","6377","3690","1275","NA","2","legacy","6","1024","2","48000","-16","experiment","2","even","4","390976","387676","388766","1307","82684","388769","369212","1373","78993","392981","394257","389771","7762","392981","NA","Sternberg task","56","53647","62","yes","1024"
"88.88888888888889","88.88888888888889","864.4761904761905","864.4761904761905","black","experiment","legacy","legacy","legacy","0","uniform","0","undefined","0","right","62","62","62","0","0","62","62","0","0","62","62","62","0","62","0","Sun Oct 23 14:28:00 2022","The main experiment item","yes","Sternbergtask.osexp","/Users/andrea/Desktop/Adv. Quant Methods/Lab 3.1","no","mono","no","18","no","white","no","no","768","legacy","50","11","/Users/andrea/Desktop/Adv. Quant Methods/Lab 3.1/AS-subject-2.csv","legacy","1 6 4 3 9 7","Lentiform Loewenfeld","3.3.12","0","n","0","left","left","left","left","NA","815","6377","3690","815","NA","2","legacy","6","1024","2","48000","-16","experiment","2","even","8","397558","394260","395347","1307","82684","395349","369212","1373","78993","399562","400378","396353","7762","399562","NA","Sternberg task","56","54462","63","yes","1024"
"89.0625","89.0625","861.09375","861.09375","black","experiment","legacy","legacy","legacy","0","uniform","1","undefined","1","left","63","63","63","0","0","63","63","0","0","63","63","63","0","63","0","Sun Oct 23 14:28:00 2022","The main experiment item","yes","Sternbergtask.osexp","/Users/andrea/Desktop/Adv. Quant Methods/Lab 3.1","no","mono","no","18","no","white","no","no","768","legacy","51","11","/Users/andrea/Desktop/Adv. Quant Methods/Lab 3.1/AS-subject-2.csv","legacy","9 5 3 8 4","Lentiform Loewenfeld","3.3.12","1","y","0","left","left","left","left","NA","648","6377","3690","648","NA","2","legacy","5","1024","2","48000","-16","experiment","2","even","9","403685","394260","401473","1307","82684","401475","400385","1373","78993","405689","406338","402479","7762","405689","NA","Sternberg task","57","55110","64","yes","1024"
"89.23076923076923","89.23076923076923","857.0153846153846","857.0153846153846","black","experiment","legacy","legacy","legacy","0","uniform","1","undefined","1","left","64","64","64","0","0","64","64","0","0","64","64","64","0","64","0","Sun Oct 23 14:28:00 2022","The main experiment item","yes","Sternbergtask.osexp","/Users/andrea/Desktop/Adv. Quant Methods/Lab 3.1","no","mono","no","18","no","white","no","no","768","legacy","52","11","/Users/andrea/Desktop/Adv. Quant Methods/Lab 3.1/AS-subject-2.csv","legacy","6 7 8 5","Lentiform Loewenfeld","3.3.12","3","y","0","left","left","left","left","NA","596","6377","3690","596","NA","2","legacy","4","1024","2","48000","-16","experiment","2","even","8","409674","406346","407461","1307","82684","407465","400385","1373","78993","411678","412275","408470","7762","411678","NA","Sternberg task","58","55706","65","yes","1024"
"89.39393939393939","89.39393939393939","855","855","black","experiment","legacy","legacy","legacy","0","uniform","1","undefined","1","right","65","65","65","0","0","65","65","0","0","65","65","65","0","65","0","Sun Oct 23 14:28:00 2022","The main experiment item","yes","Sternbergtask.osexp","/Users/andrea/Desktop/Adv. Quant Methods/Lab 3.1","no","mono","no","18","no","white","no","no","768","legacy","53","11","/Users/andrea/Desktop/Adv. Quant Methods/Lab 3.1/AS-subject-2.csv","legacy","8 4 3 5","Lentiform Loewenfeld","3.3.12","0","n","0","right","left","left","right","NA","724","6377","3690","724","NA","2","legacy","4","1024","2","48000","-16","experiment","2","even","6","415609","412281","413391","1307","82684","413398","400385","1373","78993","417613","418338","414405","7762","417613","NA","Sternberg task","59","56430","66","yes","1024"
"89.55223880597015","89.55223880597015","850.6716417910447","850.6716417910447","black","experiment","legacy","legacy","legacy","0","uniform","1","undefined","1","right","66","66","66","0","0","66","66","0","0","66","66","66","0","66","0","Sun Oct 23 14:28:00 2022","The main experiment item","yes","Sternbergtask.osexp","/Users/andrea/Desktop/Adv. Quant Methods/Lab 3.1","no","mono","no","18","no","white","no","no","768","legacy","54","11","/Users/andrea/Desktop/Adv. Quant Methods/Lab 3.1/AS-subject-2.csv","legacy","4 1","Lentiform Loewenfeld","3.3.12","0","n","0","right","left","left","right","NA","565","6377","3690","565","NA","2","legacy","2","1024","2","48000","-16","experiment","2","even","6","421658","418344","419443","1307","82684","419448","400385","1373","78993","423662","424228","420452","7762","423662","NA","Sternberg task","60","56995","67","yes","1024"
"89.70588235294117","89.70588235294117","846.8676470588235","846.8676470588235","black","experiment","legacy","legacy","legacy","0","uniform","1","undefined","1","left","67","67","67","0","0","67","67","0","0","67","67","67","0","67","0","Sun Oct 23 14:28:00 2022","The main experiment item","yes","Sternbergtask.osexp","/Users/andrea/Desktop/Adv. Quant Methods/Lab 3.1","no","mono","no","18","no","white","no","no","768","legacy","55","11","/Users/andrea/Desktop/Adv. Quant Methods/Lab 3.1/AS-subject-2.csv","legacy","3 5 4 7","Lentiform Loewenfeld","3.3.12","1","y","0","left","left","left","left","NA","592","6377","3690","592","NA","2","legacy","4","1024","2","48000","-16","experiment","2","even","3","427560","424232","425347","1307","82684","425351","400385","1373","78993","429564","430157","426355","7762","429564","NA","Sternberg task","61","57587","68","yes","1024"
"89.85507246376811","89.85507246376811","848.4927536231884","848.4927536231884","black","experiment","legacy","legacy","legacy","0","uniform","1","undefined","1","left","68","68","68","0","0","68","68","0","0","68","68","68","0","68","0","Sun Oct 23 14:28:00 2022","The main experiment item","yes","Sternbergtask.osexp","/Users/andrea/Desktop/Adv. Quant Methods/Lab 3.1","no","mono","no","18","no","white","no","no","768","legacy","56","11","/Users/andrea/Desktop/Adv. Quant Methods/Lab 3.1/AS-subject-2.csv","legacy","2 4 6 9","Lentiform Loewenfeld","3.3.12","3","y","0","left","left","left","left","NA","959","6377","3690","959","NA","2","legacy","4","1024","2","48000","-16","experiment","2","even","6","433477","430161","431264","1307","82684","431267","400385","1373","78993","435481","436441","432271","7762","435481","NA","Sternberg task","62","58546","69","yes","1024"
"90","90","852.9428571428572","852.9428571428572","black","experiment","legacy","legacy","legacy","0","uniform","1","undefined","1","right","69","69","69","0","0","69","69","0","0","69","69","69","0","69","0","Sun Oct 23 14:28:00 2022","The main experiment item","yes","Sternbergtask.osexp","/Users/andrea/Desktop/Adv. Quant Methods/Lab 3.1","no","mono","no","18","no","white","no","no","768","legacy","57","11","/Users/andrea/Desktop/Adv. Quant Methods/Lab 3.1/AS-subject-2.csv","legacy","1 7 5 2","Lentiform Loewenfeld","3.3.12","0","n","0","right","left","left","right","NA","1160","6377","3690","1160","NA","2","legacy","4","1024","2","48000","-16","experiment","2","even","3","439762","436446","437550","1307","82684","437553","400385","1373","78993","441766","442927","438557","7762","441766","NA","Sternberg task","63","59706","70","yes","1024"
"90.14084507042253","90.14084507042253","867.1408450704225","867.1408450704225","black","experiment","legacy","legacy","legacy","0","uniform","1","undefined","1","right","70","70","70","0","0","70","70","0","0","70","70","70","0","70","0","Sun Oct 23 14:28:00 2022","The main experiment item","yes","Sternbergtask.osexp","/Users/andrea/Desktop/Adv. Quant Methods/Lab 3.1","no","mono","no","18","no","white","no","no","768","legacy","58","11","/Users/andrea/Desktop/Adv. Quant Methods/Lab 3.1/AS-subject-2.csv","legacy","3 4 9 6 7 8","Lentiform Loewenfeld","3.3.12","0","n","0","right","left","left","right","NA","1861","6377","3690","1861","NA","2","legacy","6","1024","2","48000","-16","experiment","2","even","2","446228","442931","444015","1307","82684","444017","400385","1373","78993","448232","450094","445023","7762","448232","NA","Sternberg task","64","61567","71","yes","1024"
"88.88888888888889","88.88888888888889","882.875","882.875","black","experiment","legacy","legacy","legacy","0","uniform","0","undefined","0","right","71","71","71","0","0","71","71","0","0","71","71","71","0","71","0","Sun Oct 23 14:28:00 2022","The main experiment item","yes","Sternbergtask.osexp","/Users/andrea/Desktop/Adv. Quant Methods/Lab 3.1","no","mono","no","18","no","white","no","no","768","legacy","59","11","/Users/andrea/Desktop/Adv. Quant Methods/Lab 3.1/AS-subject-2.csv","legacy","1 5 3 2 8","Lentiform Loewenfeld","3.3.12","0","n","0","None","left","left","None","NA","2000","6377","3690","2000","NA","2","legacy","5","1024","2","48000","-16","experiment","2","even","4","453404","450099","451187","1307","82684","451190","400385","1373","78993","455416","457416","452194","7762","455415","NA","Sternberg task","64","63567","72","yes","1024"
"89.04109589041096","89.04109589041096","884.1369863013699","884.1369863013699","black","experiment","legacy","legacy","legacy","0","uniform","1","undefined","1","right","72","72","72","0","0","72","72","0","0","72","72","72","0","72","0","Sun Oct 23 14:28:00 2022","The main experiment item","yes","Sternbergtask.osexp","/Users/andrea/Desktop/Adv. Quant Methods/Lab 3.1","no","mono","no","18","no","white","no","no","768","legacy","60","11","/Users/andrea/Desktop/Adv. Quant Methods/Lab 3.1/AS-subject-2.csv","legacy","2 8 9","Lentiform Loewenfeld","3.3.12","0","n","0","right","left","left","right","NA","975","6377","3690","975","NA","2","legacy","3","1024","2","48000","-16","experiment","2","even","6","460723","450099","458512","1307","82684","458514","457419","1373","78993","462727","463703","459518","7762","462727","NA","Sternberg task","65","64542","73","yes","1024"
"89.1891891891892","89.1891891891892","880.6621621621622","880.6621621621622","black","experiment","legacy","legacy","legacy","0","uniform","1","undefined","1","left","73","73","73","0","0","73","73","0","0","73","73","73","0","73","0","Sun Oct 23 14:28:00 2022","The main experiment item","yes","Sternbergtask.osexp","/Users/andrea/Desktop/Adv. Quant Methods/Lab 3.1","no","mono","no","18","no","white","no","no","768","legacy","61","11","/Users/andrea/Desktop/Adv. Quant Methods/Lab 3.1/AS-subject-2.csv","legacy","2 3 7 4","Lentiform Loewenfeld","3.3.12","1","y","0","left","left","left","left","NA","627","6377","3690","627","NA","2","legacy","4","1024","2","48000","-16","experiment","2","even","2","467027","463709","464813","1307","82684","464815","457419","1373","78993","469033","469660","465820","7762","469032","NA","Sternberg task","66","65169","74","yes","1024"
"89.33333333333333","89.33333333333333","876.2266666666667","876.2266666666667","black","experiment","legacy","legacy","legacy","0","uniform","1","undefined","1","left","74","74","74","0","0","74","74","0","0","74","74","74","0","74","0","Sun Oct 23 14:28:00 2022","The main experiment item","yes","Sternbergtask.osexp","/Users/andrea/Desktop/Adv. Quant Methods/Lab 3.1","no","mono","no","18","no","white","no","no","768","legacy","62","11","/Users/andrea/Desktop/Adv. Quant Methods/Lab 3.1/AS-subject-2.csv","legacy","3 4 9 6 2 9","Lentiform Loewenfeld","3.3.12","5","y","0","left","left","left","left","NA","548","6377","3690","548","NA","2","legacy","6","1024","2","48000","-16","experiment","2","even","2","473024","469672","470793","1307","82684","470801","457419","1373","78993","475035","475584","471808","7762","475035","NA","Sternberg task","67","65717","75","yes","1024"
"88.15789473684211","88.15789473684211","887.8947368421053","887.8947368421053","black","experiment","legacy","legacy","legacy","0","uniform","0","undefined","0","left","75","75","75","0","0","75","75","0","0","75","75","75","0","75","0","Sun Oct 23 14:28:00 2022","The main experiment item","yes","Sternbergtask.osexp","/Users/andrea/Desktop/Adv. Quant Methods/Lab 3.1","no","mono","no","18","no","white","no","no","768","legacy","63","11","/Users/andrea/Desktop/Adv. Quant Methods/Lab 3.1/AS-subject-2.csv","legacy","8 7 3","Lentiform Loewenfeld","3.3.12","1","y","0","right","left","left","right","NA","1763","6377","3690","1763","NA","2","legacy","3","1024","2","48000","-16","experiment","2","even","8","478920","475590","476698","1307","82684","476701","457419","1373","78993","480924","482688","477708","7762","480924","NA","Sternberg task","67","67480","76","yes","1024"
"87.01298701298701","87.01298701298701","898.2597402597403","898.2597402597403","black","experiment","legacy","legacy","legacy","0","uniform","0","undefined","0","left","76","76","76","0","0","76","76","0","0","76","76","76","0","76","0","Sun Oct 23 14:28:00 2022","The main experiment item","yes","Sternbergtask.osexp","/Users/andrea/Desktop/Adv. Quant Methods/Lab 3.1","no","mono","no","18","no","white","no","no","768","legacy","64","11","/Users/andrea/Desktop/Adv. Quant Methods/Lab 3.1/AS-subject-2.csv","legacy","8 5 4 7 3 1","Lentiform Loewenfeld","3.3.12","2","y","0","right","left","left","right","NA","1686","6377","3690","1686","NA","2","legacy","6","1024","2","48000","-16","experiment","2","even","5","485995","475590","483784","1307","82684","483786","482691","1373","78993","488000","489687","484790","7762","488000","NA","Sternberg task","67","69166","77","yes","1024"
"87.17948717948718","87.17948717948718","896.1153846153846","896.1153846153846","black","experiment","legacy","legacy","legacy","0","uniform","1","undefined","1","right","77","77","77","0","0","77","77","0","0","77","77","77","0","77","0","Sun Oct 23 14:28:00 2022","The main experiment item","yes","Sternbergtask.osexp","/Users/andrea/Desktop/Adv. Quant Methods/Lab 3.1","no","mono","no","18","no","white","no","no","768","legacy","65","11","/Users/andrea/Desktop/Adv. Quant Methods/Lab 3.1/AS-subject-2.csv","legacy","1 4 9 2 5","Lentiform Loewenfeld","3.3.12","0","n","0","right","left","left","right","NA","731","6377","3690","731","NA","2","legacy","5","1024","2","48000","-16","experiment","2","even","7","492997","475590","490783","1307","82684","490785","489690","1373","78993","495001","495732","491790","7762","495001","NA","Sternberg task","68","69897","78","yes","1024"
"87.34177215189874","87.34177215189874","901.4810126582279","901.4810126582279","black","experiment","legacy","legacy","legacy","0","uniform","1","undefined","1","right","78","78","78","0","0","78","78","0","0","78","78","78","0","78","0","Sun Oct 23 14:28:00 2022","The main experiment item","yes","Sternbergtask.osexp","/Users/andrea/Desktop/Adv. Quant Methods/Lab 3.1","no","mono","no","18","no","white","no","no","768","legacy","66","11","/Users/andrea/Desktop/Adv. Quant Methods/Lab 3.1/AS-subject-2.csv","legacy","3 9 8 1 6 4","Lentiform Loewenfeld","3.3.12","0","n","0","right","left","left","right","NA","1320","6377","3690","1320","NA","2","legacy","6","1024","2","48000","-16","experiment","2","even","7","499035","495736","496822","1307","82684","496825","489690","1373","78993","501043","502364","497829","7762","501043","NA","Sternberg task","69","71217","79","yes","1024"
"87.5","87.5","896.9625","896.9625","black","experiment","legacy","legacy","legacy","0","uniform","1","undefined","1","left","79","79","79","0","0","79","79","0","0","79","79","79","0","79","0","Sun Oct 23 14:28:00 2022","The main experiment item","yes","Sternbergtask.osexp","/Users/andrea/Desktop/Adv. Quant Methods/Lab 3.1","no","mono","no","18","no","white","no","no","768","legacy","67","11","/Users/andrea/Desktop/Adv. Quant Methods/Lab 3.1/AS-subject-2.csv","legacy","9 1 6 7 8","Lentiform Loewenfeld","3.3.12","1","y","0","left","left","left","left","NA","540","6377","3690","540","NA","2","legacy","5","1024","2","48000","-16","experiment","2","even","9","505693","502369","503476","1307","82684","503479","489690","1373","78993","507697","508238","504481","7762","507697","NA","Sternberg task","70","71757","80","yes","1024"
"87.65432098765432","87.65432098765432","896.2716049382716","896.2716049382716","black","experiment","legacy","legacy","legacy","0","uniform","1","undefined","1","left","80","80","80","0","0","80","80","0","0","80","80","80","0","80","0","Sun Oct 23 14:28:00 2022","The main experiment item","yes","Sternbergtask.osexp","/Users/andrea/Desktop/Adv. Quant Methods/Lab 3.1","no","mono","no","18","no","white","no","no","768","legacy","68","11","/Users/andrea/Desktop/Adv. Quant Methods/Lab 3.1/AS-subject-2.csv","legacy","6 9 3 1","Lentiform Loewenfeld","3.3.12","4","y","0","left","left","left","left","NA","841","6377","3690","841","NA","2","legacy","4","1024","2","48000","-16","experiment","2","even","1","511561","508248","509348","1307","82684","509351","489690","1373","78993","513566","514409","510355","7762","513566","NA","Sternberg task","71","72598","81","yes","1024"
"86.58536585365853","86.58536585365853","909.7317073170732","909.7317073170732","black","experiment","legacy","legacy","legacy","0","uniform","0","undefined","0","right","81","81","81","0","0","81","81","0","0","81","81","81","0","81","0","Sun Oct 23 14:28:00 2022","The main experiment item","yes","Sternbergtask.osexp","/Users/andrea/Desktop/Adv. Quant Methods/Lab 3.1","no","mono","no","18","no","white","no","no","768","legacy","69","11","/Users/andrea/Desktop/Adv. Quant Methods/Lab 3.1/AS-subject-2.csv","legacy","2 5 1 4","Lentiform Loewenfeld","3.3.12","0","n","0","None","left","left","None","NA","2000","6377","3690","2000","NA","2","legacy","4","1024","2","48000","-16","experiment","2","even","6","517737","514413","515523","1307","82684","515526","489690","1373","78993","519743","521743","516530","7762","519743","NA","Sternberg task","71","74598","82","yes","1024"
"86.74698795180723","86.74698795180723","910.2409638554217","910.2409638554217","black","experiment","legacy","legacy","legacy","0","uniform","1","undefined","1","right","82","82","82","0","0","82","82","0","0","82","82","82","0","82","0","Sun Oct 23 14:28:00 2022","The main experiment item","yes","Sternbergtask.osexp","/Users/andrea/Desktop/Adv. Quant Methods/Lab 3.1","no","mono","no","18","no","white","no","no","768","legacy","70","11","/Users/andrea/Desktop/Adv. Quant Methods/Lab 3.1/AS-subject-2.csv","legacy","9 8 2 7 4","Lentiform Loewenfeld","3.3.12","0","n","0","right","left","left","right","NA","952","6377","3690","952","NA","2","legacy","5","1024","2","48000","-16","experiment","2","even","5","525051","514413","522839","1307","82684","522842","521747","1373","78993","527056","528009","523846","7762","527056","NA","Sternberg task","72","75550","83","yes","1024"
"86.9047619047619","86.9047619047619","904.8095238095239","904.8095238095239","black","experiment","legacy","legacy","legacy","0","uniform","1","undefined","1","left","83","83","83","0","0","83","83","0","0","83","83","83","0","83","0","Sun Oct 23 14:28:00 2022","The main experiment item","yes","Sternbergtask.osexp","/Users/andrea/Desktop/Adv. Quant Methods/Lab 3.1","no","mono","no","18","no","white","no","no","768","legacy","71","11","/Users/andrea/Desktop/Adv. Quant Methods/Lab 3.1/AS-subject-2.csv","legacy","9 3 1 2 5","Lentiform Loewenfeld","3.3.12","4","y","0","left","left","left","left","NA","454","6377","3690","454","NA","2","legacy","5","1024","2","48000","-16","experiment","2","even","2","531333","528014","529118","1307","82684","529121","521747","1373","78993","533337","533792","530125","7762","533337","NA","Sternberg task","73","76004","84","yes","1024"
"87.05882352941177","87.05882352941177","904.8470588235294","904.8470588235294","black","experiment","legacy","legacy","legacy","0","uniform","1","undefined","1","right","84","84","84","0","0","84","84","0","0","84","84","84","0","84","0","Sun Oct 23 14:28:00 2022","The main experiment item","yes","Sternbergtask.osexp","/Users/andrea/Desktop/Adv. Quant Methods/Lab 3.1","no","mono","no","18","no","white","no","no","768","legacy","72","11","/Users/andrea/Desktop/Adv. Quant Methods/Lab 3.1/AS-subject-2.csv","legacy","2 3 8 5 6 7","Lentiform Loewenfeld","3.3.12","0","n","0","right","left","left","right","NA","908","6377","3690","908","NA","2","legacy","6","1024","2","48000","-16","experiment","2","even","1","537120","533803","534904","1307","82684","534910","521747","1373","78993","539124","540033","535914","7762","539124","NA","Sternberg task","74","76912","85","yes","1024"
"87.20930232558139","87.20930232558139","910.046511627907","910.046511627907","black","experiment","legacy","legacy","legacy","0","uniform","1","undefined","1","right","85","85","85","0","0","85","85","0","0","85","85","85","0","85","0","Sun Oct 23 14:28:00 2022","The main experiment item","yes","Sternbergtask.osexp","/Users/andrea/Desktop/Adv. Quant Methods/Lab 3.1","no","mono","no","18","no","white","no","no","768","legacy","73","11","/Users/andrea/Desktop/Adv. Quant Methods/Lab 3.1/AS-subject-2.csv","legacy","2 6 4 3 9","Lentiform Loewenfeld","3.3.12","0","n","0","right","left","left","right","NA","1352","6377","3690","1352","NA","2","legacy","5","1024","2","48000","-16","experiment","2","even","1","543355","540038","541141","1307","82684","541144","521747","1373","78993","545359","546711","542148","7762","545359","NA","Sternberg task","75","78264","86","yes","1024"
"87.35632183908046","87.35632183908046","906.1264367816092","906.1264367816092","black","experiment","legacy","legacy","legacy","0","uniform","1","undefined","1","left","86","86","86","0","0","86","86","0","0","86","86","86","0","86","0","Sun Oct 23 14:28:00 2022","The main experiment item","yes","Sternbergtask.osexp","/Users/andrea/Desktop/Adv. Quant Methods/Lab 3.1","no","mono","no","18","no","white","no","no","768","legacy","74","11","/Users/andrea/Desktop/Adv. Quant Methods/Lab 3.1/AS-subject-2.csv","legacy","8","Lentiform Loewenfeld","3.3.12","1","y","0","left","left","left","left","NA","569","6377","3690","569","NA","2","legacy","1","1024","2","48000","-16","experiment","2","even","8","550018","546715","547807","1307","82684","547809","521747","1373","78993","552020","552590","548813","7762","552020","NA","Sternberg task","76","78833","87","yes","1024"
"87.5","87.5","907.9545454545455","907.9545454545455","black","experiment","legacy","legacy","legacy","0","uniform","1","undefined","1","left","87","87","87","0","0","87","87","0","0","87","87","87","0","87","0","Sun Oct 23 14:28:00 2022","The main experiment item","yes","Sternbergtask.osexp","/Users/andrea/Desktop/Adv. Quant Methods/Lab 3.1","no","mono","no","18","no","white","no","no","768","legacy","75","11","/Users/andrea/Desktop/Adv. Quant Methods/Lab 3.1/AS-subject-2.csv","legacy","3 5 9 6 2 4","Lentiform Loewenfeld","3.3.12","1","y","0","left","left","left","left","NA","1067","6377","3690","1067","NA","2","legacy","6","1024","2","48000","-16","experiment","2","even","3","555894","552594","553682","1307","82684","553684","521747","1373","78993","557898","558966","554688","7762","557898","NA","Sternberg task","77","79900","88","yes","1024"
"87.64044943820225","87.64044943820225","903.5280898876405","903.5280898876405","black","experiment","legacy","legacy","legacy","0","uniform","1","undefined","1","left","88","88","88","0","0","88","88","0","0","88","88","88","0","88","0","Sun Oct 23 14:28:00 2022","The main experiment item","yes","Sternbergtask.osexp","/Users/andrea/Desktop/Adv. Quant Methods/Lab 3.1","no","mono","no","18","no","white","no","no","768","legacy","76","11","/Users/andrea/Desktop/Adv. Quant Methods/Lab 3.1/AS-subject-2.csv","legacy","4","Lentiform Loewenfeld","3.3.12","1","y","0","left","left","left","left","NA","514","6377","3690","514","NA","2","legacy","1","1024","2","48000","-16","experiment","2","even","4","562286","558970","560073","1307","82684","560077","521747","1373","78993","564290","564805","561081","7762","564290","NA","Sternberg task","78","80414","89","yes","1024"
"87.77777777777777","87.77777777777777","906.2333333333333","906.2333333333333","black","experiment","legacy","legacy","legacy","0","uniform","1","undefined","1","right","89","89","89","0","0","89","89","0","0","89","89","89","0","89","0","Sun Oct 23 14:28:00 2022","The main experiment item","yes","Sternbergtask.osexp","/Users/andrea/Desktop/Adv. Quant Methods/Lab 3.1","no","mono","no","18","no","white","no","no","768","legacy","77","11","/Users/andrea/Desktop/Adv. Quant Methods/Lab 3.1/AS-subject-2.csv","legacy","2 8 9 4 1","Lentiform Loewenfeld","3.3.12","0","n","0","right","left","left","right","NA","1147","6377","3690","1147","NA","2","legacy","5","1024","2","48000","-16","experiment","2","even","5","568125","564810","565910","1307","82684","565913","521747","1373","78993","570129","571277","566919","7762","570129","NA","Sternberg task","79","81561","90","yes","1024"
"87.91208791208791","87.91208791208791","903.4835164835165","903.4835164835165","black","experiment","legacy","legacy","legacy","0","uniform","1","undefined","1","left","90","90","90","0","0","90","90","0","0","90","90","90","0","90","0","Sun Oct 23 14:28:00 2022","The main experiment item","yes","Sternbergtask.osexp","/Users/andrea/Desktop/Adv. Quant Methods/Lab 3.1","no","mono","no","18","no","white","no","no","768","legacy","78","11","/Users/andrea/Desktop/Adv. Quant Methods/Lab 3.1/AS-subject-2.csv","legacy","9 3 8 2 1 4","Lentiform Loewenfeld","3.3.12","3","y","0","left","left","left","left","NA","656","6377","3690","656","NA","2","legacy","6","1024","2","48000","-16","experiment","2","even","8","574622","571289","572404","1307","82684","572407","521747","1373","78993","576627","577284","573415","7762","576626","NA","Sternberg task","80","82217","91","yes","1024"
"88.04347826086956","88.04347826086956","904.4347826086956","904.4347826086956","black","experiment","legacy","legacy","legacy","0","uniform","1","undefined","1","left","91","91","91","0","0","91","91","0","0","91","91","91","0","91","0","Sun Oct 23 14:28:00 2022","The main experiment item","yes","Sternbergtask.osexp","/Users/andrea/Desktop/Adv. Quant Methods/Lab 3.1","no","mono","no","18","no","white","no","no","768","legacy","79","11","/Users/andrea/Desktop/Adv. Quant Methods/Lab 3.1/AS-subject-2.csv","legacy","5 7 3 6 2","Lentiform Loewenfeld","3.3.12","5","y","0","left","left","left","left","NA","991","6377","3690","991","NA","2","legacy","5","1024","2","48000","-16","experiment","2","even","2","580606","577292","578391","1307","82684","578395","521747","1373","78993","582610","583602","579400","7762","582609","NA","Sternberg task","81","83208","92","yes","1024"
"88.17204301075269","88.17204301075269","901.236559139785","901.236559139785","black","experiment","legacy","legacy","legacy","0","uniform","1","undefined","1","right","92","92","92","0","0","92","92","0","0","92","92","92","0","92","0","Sun Oct 23 14:28:00 2022","The main experiment item","yes","Sternbergtask.osexp","/Users/andrea/Desktop/Adv. Quant Methods/Lab 3.1","no","mono","no","18","no","white","no","no","768","legacy","80","11","/Users/andrea/Desktop/Adv. Quant Methods/Lab 3.1/AS-subject-2.csv","legacy","7 4 2 8 1 9","Lentiform Loewenfeld","3.3.12","0","n","0","right","left","left","right","NA","607","6377","3690","607","NA","2","legacy","6","1024","2","48000","-16","experiment","2","even","5","586922","583607","584710","1307","82684","584713","521747","1373","78993","588927","589535","585718","7762","588927","NA","Sternberg task","82","83815","93","yes","1024"
"88.29787234042553","88.29787234042553","897.3085106382979","897.3085106382979","black","experiment","legacy","legacy","legacy","0","uniform","1","undefined","1","right","93","93","93","0","0","93","93","0","0","93","93","93","0","93","0","Sun Oct 23 14:28:00 2022","The main experiment item","yes","Sternbergtask.osexp","/Users/andrea/Desktop/Adv. Quant Methods/Lab 3.1","no","mono","no","18","no","white","no","no","768","legacy","81","11","/Users/andrea/Desktop/Adv. Quant Methods/Lab 3.1/AS-subject-2.csv","legacy","6 8 4","Lentiform Loewenfeld","3.3.12","0","n","0","right","left","left","right","NA","532","6377","3690","532","NA","2","legacy","3","1024","2","48000","-16","experiment","2","even","1","592857","589540","590643","1307","82684","590646","521747","1373","78993","594862","595395","591651","7762","594861","NA","Sternberg task","83","84347","94","yes","1024"
"88.42105263157895","88.42105263157895","896.2421052631579","896.2421052631579","black","experiment","legacy","legacy","legacy","0","uniform","1","undefined","1","left","94","94","94","0","0","94","94","0","0","94","94","94","0","94","0","Sun Oct 23 14:28:00 2022","The main experiment item","yes","Sternbergtask.osexp","/Users/andrea/Desktop/Adv. Quant Methods/Lab 3.1","no","mono","no","18","no","white","no","no","768","legacy","82","11","/Users/andrea/Desktop/Adv. Quant Methods/Lab 3.1/AS-subject-2.csv","legacy","8 3","Lentiform Loewenfeld","3.3.12","2","y","0","left","left","left","left","NA","796","6377","3690","796","NA","2","legacy","2","1024","2","48000","-16","experiment","2","even","3","598720","595402","596505","1307","82684","596508","521747","1373","78993","600724","601521","597513","7762","600724","NA","Sternberg task","84","85143","95","yes","1024"
"88.54166666666667","88.54166666666667","893.09375","893.09375","black","experiment","legacy","legacy","legacy","0","uniform","1","undefined","1","right","95","95","95","0","0","95","95","0","0","95","95","95","0","95","0","Sun Oct 23 14:28:00 2022","The main experiment item","yes","Sternbergtask.osexp","/Users/andrea/Desktop/Adv. Quant Methods/Lab 3.1","no","mono","no","18","no","white","no","no","768","legacy","83","11","/Users/andrea/Desktop/Adv. Quant Methods/Lab 3.1/AS-subject-2.csv","legacy","1 6 4","Lentiform Loewenfeld","3.3.12","0","n","0","right","left","left","right","NA","594","6377","3690","594","NA","2","legacy","3","1024","2","48000","-16","experiment","2","even","7","604861","601530","602645","1307","82684","602650","521747","1373","78993","606865","607460","603655","7762","606865","NA","Sternberg task","85","85737","96","yes","1024"
"88.65979381443299","88.65979381443299","892.5360824742268","892.5360824742268","black","experiment","legacy","legacy","legacy","0","uniform","1","undefined","1","left","96","96","96","0","0","96","96","0","0","96","96","96","0","96","0","Sun Oct 23 14:28:00 2022","The main experiment item","yes","Sternbergtask.osexp","/Users/andrea/Desktop/Adv. Quant Methods/Lab 3.1","no","mono","no","18","no","white","no","no","768","legacy","84","11","/Users/andrea/Desktop/Adv. Quant Methods/Lab 3.1/AS-subject-2.csv","legacy","8 1 6","Lentiform Loewenfeld","3.3.12","3","y","0","left","left","left","left","NA","839","6377","3690","839","NA","2","legacy","3","1024","2","48000","-16","experiment","2","even","6","610792","607469","608572","1307","82684","608575","521747","1373","78993","612796","613636","609579","7762","612796","NA","Sternberg task","86","86576","97","yes","1024"
"88.77551020408163","88.77551020408163","893.9489795918367","893.9489795918367","black","experiment","legacy","legacy","legacy","0","uniform","1","undefined","1","right","97","97","97","0","0","97","97","0","0","97","97","97","0","97","0","Sun Oct 23 14:28:00 2022","The main experiment item","yes","Sternbergtask.osexp","/Users/andrea/Desktop/Adv. Quant Methods/Lab 3.1","no","mono","no","18","no","white","no","no","768","legacy","85","11","/Users/andrea/Desktop/Adv. Quant Methods/Lab 3.1/AS-subject-2.csv","legacy","8 5 7 3 6","Lentiform Loewenfeld","3.3.12","0","n","0","right","left","left","right","NA","1031","6377","3690","1031","NA","2","legacy","5","1024","2","48000","-16","experiment","2","even","9","616972","613640","614754","1307","82684","614756","521747","1373","78993","618976","620008","615760","7762","618976","NA","Sternberg task","87","87607","98","yes","1024"
"88.88888888888889","88.88888888888889","892.8484848484849","892.8484848484849","black","experiment","legacy","legacy","legacy","0","uniform","1","undefined","1","left","98","98","98","0","0","98","98","0","0","98","98","98","0","98","0","Sun Oct 23 14:28:00 2022","The main experiment item","yes","Sternbergtask.osexp","/Users/andrea/Desktop/Adv. Quant Methods/Lab 3.1","no","mono","no","18","no","white","no","no","768","legacy","86","11","/Users/andrea/Desktop/Adv. Quant Methods/Lab 3.1/AS-subject-2.csv","legacy","5 7 8 2 3 8","Lentiform Loewenfeld","3.3.12","5","y","0","left","left","left","left","NA","785","6377","3690","785","NA","2","legacy","6","1024","2","48000","-16","experiment","2","even","3","623347","620017","621133","1307","82684","621137","521747","1373","78993","625351","626137","622141","7762","625351","NA","Sternberg task","88","88392","99","yes","1024"
"89","89","897.8","897.8","black","experiment","legacy","legacy","legacy","0","uniform","1","undefined","1","left","99","99","99","0","0","99","99","0","0","99","99","99","0","99","0","Sun Oct 23 14:28:00 2022","The main experiment item","yes","Sternbergtask.osexp","/Users/andrea/Desktop/Adv. Quant Methods/Lab 3.1","no","mono","no","18","no","white","no","no","768","legacy","87","11","/Users/andrea/Desktop/Adv. Quant Methods/Lab 3.1/AS-subject-2.csv","legacy","3 9 7 6 4","Lentiform Loewenfeld","3.3.12","3","y","0","left","left","left","left","NA","1388","6377","3690","1388","NA","2","legacy","5","1024","2","48000","-16","experiment","2","even","7","629464","626149","627251","1307","82684","627254","521747","1373","78993","631468","632857","628258","7762","631468","NA","Sternberg task","89","89780","100","yes","1024"
"89.10891089108911","89.10891089108911","896.3168316831683","896.3168316831683","black","experiment","legacy","legacy","legacy","0","uniform","1","undefined","1","right","100","100","100","0","0","100","100","0","0","100","100","100","0","100","0","Sun Oct 23 14:28:00 2022","The main experiment item","yes","Sternbergtask.osexp","/Users/andrea/Desktop/Adv. Quant Methods/Lab 3.1","no","mono","no","18","no","white","no","no","768","legacy","88","11","/Users/andrea/Desktop/Adv. Quant Methods/Lab 3.1/AS-subject-2.csv","legacy","6 7 5 9","Lentiform Loewenfeld","3.3.12","0","n","0","right","left","left","right","NA","748","6377","3690","748","NA","2","legacy","4","1024","2","48000","-16","experiment","2","even","2","636165","632861","633953","1307","82684","633955","521747","1373","78993","638167","638916","634959","7762","638167","NA","Sternberg task","90","90528","101","yes","1024"
"88.23529411764706","88.23529411764706","907.1372549019608","907.1372549019608","black","experiment","legacy","legacy","legacy","0","uniform","0","undefined","0","left","101","101","101","0","0","101","101","0","0","101","101","101","0","101","0","Sun Oct 23 14:28:00 2022","The main experiment item","yes","Sternbergtask.osexp","/Users/andrea/Desktop/Adv. Quant Methods/Lab 3.1","no","mono","no","18","no","white","no","no","768","legacy","89","11","/Users/andrea/Desktop/Adv. Quant Methods/Lab 3.1/AS-subject-2.csv","legacy","2 6 1 7 4","Lentiform Loewenfeld","3.3.12","2","y","0","None","left","left","None","NA","2000","6377","3690","2000","NA","2","legacy","5","1024","2","48000","-16","experiment","2","even","6","642220","638919","640007","1307","82684","640009","521747","1373","78993","644224","646224","641013","7762","644224","NA","Sternberg task","90","92528","102","yes","1024"
"87.37864077669903","87.37864077669903","917.747572815534","917.747572815534","black","experiment","legacy","legacy","legacy","0","uniform","0","undefined","0","left","102","102","102","0","0","102","102","0","0","102","102","102","0","102","0","Sun Oct 23 14:28:00 2022","The main experiment item","yes","Sternbergtask.osexp","/Users/andrea/Desktop/Adv. Quant Methods/Lab 3.1","no","mono","no","18","no","white","no","no","768","legacy","90","11","/Users/andrea/Desktop/Adv. Quant Methods/Lab 3.1/AS-subject-2.csv","legacy","7 8 6 3 1","Lentiform Loewenfeld","3.3.12","5","y","0","None","left","left","None","NA","2000","6377","3690","2000","NA","2","legacy","5","1024","2","48000","-16","experiment","2","even","1","649534","638919","647321","1307","82684","647322","646227","1373","78993","651538","653538","648328","7762","651538","NA","Sternberg task","90","94528","103","yes","1024"
"87.5","87.5","916.9903846153846","916.9903846153846","black","experiment","legacy","legacy","legacy","0","uniform","1","undefined","1","left","103","103","103","0","0","103","103","0","0","103","103","103","0","103","0","Sun Oct 23 14:28:00 2022","The main experiment item","yes","Sternbergtask.osexp","/Users/andrea/Desktop/Adv. Quant Methods/Lab 3.1","no","mono","no","18","no","white","no","no","768","legacy","91","11","/Users/andrea/Desktop/Adv. Quant Methods/Lab 3.1/AS-subject-2.csv","legacy","9 1 7 2","Lentiform Loewenfeld","3.3.12","2","y","0","left","left","left","left","NA","839","6377","3690","839","NA","2","legacy","4","1024","2","48000","-16","experiment","2","even","1","656846","638919","654634","1307","82684","654636","653541","1373","78993","658850","659690","655640","7762","658850","NA","Sternberg task","91","95367","104","yes","1024"
"87.61904761904762","87.61904761904762","914.847619047619","914.847619047619","black","experiment","legacy","legacy","legacy","0","uniform","1","undefined","1","right","104","104","104","0","0","104","104","0","0","104","104","104","0","104","0","Sun Oct 23 14:28:00 2022","The main experiment item","yes","Sternbergtask.osexp","/Users/andrea/Desktop/Adv. Quant Methods/Lab 3.1","no","mono","no","18","no","white","no","no","768","legacy","92","11","/Users/andrea/Desktop/Adv. Quant Methods/Lab 3.1/AS-subject-2.csv","legacy","7 8 6 1","Lentiform Loewenfeld","3.3.12","0","n","0","right","left","left","right","NA","692","6377","3690","692","NA","2","legacy","4","1024","2","48000","-16","experiment","2","even","3","662995","659696","660782","1307","82684","660786","653541","1373","78993","665000","665693","661790","7762","665000","NA","Sternberg task","92","96059","105","yes","1024"
"87.73584905660377","87.73584905660377","913.0943396226415","913.0943396226415","black","experiment","legacy","legacy","legacy","0","uniform","1","undefined","1","left","105","105","105","0","0","105","105","0","0","105","105","105","0","105","0","Sun Oct 23 14:28:00 2022","The main experiment item","yes","Sternbergtask.osexp","/Users/andrea/Desktop/Adv. Quant Methods/Lab 3.1","no","mono","no","18","no","white","no","no","768","legacy","93","11","/Users/andrea/Desktop/Adv. Quant Methods/Lab 3.1/AS-subject-2.csv","legacy","5 2 6","Lentiform Loewenfeld","3.3.12","2","y","0","left","left","left","left","NA","729","6377","3690","729","NA","2","legacy","3","1024","2","48000","-16","experiment","2","even","2","669033","665700","666814","1307","82684","666818","653541","1373","78993","671037","671767","667823","7762","671037","NA","Sternberg task","93","96788","106","yes","1024"
"87.85046728971963","87.85046728971963","910.0747663551402","910.0747663551402","black","experiment","legacy","legacy","legacy","0","uniform","1","undefined","1","right","106","106","106","0","0","106","106","0","0","106","106","106","0","106","0","Sun Oct 23 14:28:00 2022","The main experiment item","yes","Sternbergtask.osexp","/Users/andrea/Desktop/Adv. Quant Methods/Lab 3.1","no","mono","no","18","no","white","no","no","768","legacy","94","11","/Users/andrea/Desktop/Adv. Quant Methods/Lab 3.1/AS-subject-2.csv","legacy","4 2 7 6 1 3","Lentiform Loewenfeld","3.3.12","0","n","0","right","left","left","right","NA","590","6377","3690","590","NA","2","legacy","6","1024","2","48000","-16","experiment","2","even","8","675094","671775","672882","1307","82684","672885","653541","1373","78993","677098","677689","673888","7762","677098","NA","Sternberg task","94","97378","107","yes","1024"
"87.96296296296296","87.96296296296296","906.9722222222222","906.9722222222222","black","experiment","legacy","legacy","legacy","0","uniform","1","undefined","1","right","107","107","107","0","0","107","107","0","0","107","107","107","0","107","0","Sun Oct 23 14:28:00 2022","The main experiment item","yes","Sternbergtask.osexp","/Users/andrea/Desktop/Adv. Quant Methods/Lab 3.1","no","mono","no","18","no","white","no","no","768","legacy","95","11","/Users/andrea/Desktop/Adv. Quant Methods/Lab 3.1/AS-subject-2.csv","legacy","1 3 2 6 9","Lentiform Loewenfeld","3.3.12","0","n","0","right","left","left","right","NA","575","6377","3690","575","NA","2","legacy","5","1024","2","48000","-16","experiment","2","even","5","681020","677697","678808","1307","82684","678810","653541","1373","78993","683024","683600","679814","7762","683024","NA","Sternberg task","95","97953","108","yes","1024"
"88.07339449541284","88.07339449541284","904.651376146789","904.651376146789","black","experiment","legacy","legacy","legacy","0","uniform","1","undefined","1","left","108","108","108","0","0","108","108","0","0","108","108","108","0","108","0","Sun Oct 23 14:28:00 2022","The main experiment item","yes","Sternbergtask.osexp","/Users/andrea/Desktop/Adv. Quant Methods/Lab 3.1","no","mono","no","18","no","white","no","no","768","legacy","96","11","/Users/andrea/Desktop/Adv. Quant Methods/Lab 3.1/AS-subject-2.csv","legacy","6 2","Lentiform Loewenfeld","3.3.12","1","y","0","left","left","left","left","NA","654","6377","3690","654","NA","2","legacy","2","1024","2","48000","-16","experiment","2","even","6","686919","683604","684706","1307","82684","684709","653541","1373","78993","688924","689583","685713","7762","688924","NA","Sternberg task","96","98607","109","yes","1024"
"88.18181818181819","88.18181818181819","903.8090909090909","903.8090909090909","black","experiment","legacy","legacy","legacy","0","uniform","1","undefined","1","left","109","109","109","0","0","109","109","0","0","109","109","109","0","109","0","Sun Oct 23 14:28:00 2022","The main experiment item","yes","Sternbergtask.osexp","/Users/andrea/Desktop/Adv. Quant Methods/Lab 3.1","no","mono","no","18","no","white","no","no","768","legacy","97","11","/Users/andrea/Desktop/Adv. Quant Methods/Lab 3.1/AS-subject-2.csv","legacy","6 1 2","Lentiform Loewenfeld","3.3.12","3","y","0","left","left","left","left","NA","812","6377","3690","812","NA","2","legacy","3","1024","2","48000","-16","experiment","2","even","2","692906","689588","690693","1307","82684","690696","653541","1373","78993","694910","695723","691700","7762","694910","NA","Sternberg task","97","99419","110","yes","1024"
"88.28828828828829","88.28828828828829","902.4954954954954","902.4954954954954","black","experiment","legacy","legacy","legacy","0","uniform","1","undefined","1","right","110","110","110","0","0","110","110","0","0","110","110","110","0","110","0","Sun Oct 23 14:28:00 2022","The main experiment item","yes","Sternbergtask.osexp","/Users/andrea/Desktop/Adv. Quant Methods/Lab 3.1","no","mono","no","18","no","white","no","no","768","legacy","98","11","/Users/andrea/Desktop/Adv. Quant Methods/Lab 3.1/AS-subject-2.csv","legacy","6 8","Lentiform Loewenfeld","3.3.12","0","n","0","right","left","left","right","NA","758","6377","3690","758","NA","2","legacy","2","1024","2","48000","-16","experiment","2","even","9","699049","695729","696833","1307","82684","696836","653541","1373","78993","701053","701812","697841","7762","701053","NA","Sternberg task","98","100177","111","yes","1024"
"88.39285714285714","88.39285714285714","906.5982142857143","906.5982142857143","black","experiment","legacy","legacy","legacy","0","uniform","1","undefined","1","right","111","111","111","0","0","111","111","0","0","111","111","111","0","111","0","Sun Oct 23 14:28:00 2022","The main experiment item","yes","Sternbergtask.osexp","/Users/andrea/Desktop/Adv. Quant Methods/Lab 3.1","no","mono","no","18","no","white","no","no","768","legacy","99","11","/Users/andrea/Desktop/Adv. Quant Methods/Lab 3.1/AS-subject-2.csv","legacy","5 3 2 6 9 8","Lentiform Loewenfeld","3.3.12","0","n","0","right","left","left","right","NA","1362","6377","3690","1362","NA","2","legacy","6","1024","2","48000","-16","experiment","2","even","4","705137","701818","702920","1307","82684","702926","653541","1373","78993","707141","708504","703930","7762","707141","NA","Sternberg task","99","101539","112","yes","1024"
"88.49557522123894","88.49557522123894","906.7522123893805","906.7522123893805","black","experiment","legacy","legacy","legacy","0","uniform","1","undefined","1","left","112","112","112","0","0","112","112","0","0","112","112","112","0","112","0","Sun Oct 23 14:28:00 2022","The main experiment item","yes","Sternbergtask.osexp","/Users/andrea/Desktop/Adv. Quant Methods/Lab 3.1","no","mono","no","18","no","white","no","no","768","legacy","100","11","/Users/andrea/Desktop/Adv. Quant Methods/Lab 3.1/AS-subject-2.csv","legacy","9 4 2","Lentiform Loewenfeld","3.3.12","1","y","0","left","left","left","left","NA","924","6377","3690","924","NA","2","legacy","3","1024","2","48000","-16","experiment","2","even","9","711810","708507","709598","1307","82684","709599","653541","1373","78993","713819","714744","710604","7762","713819","NA","Sternberg task","100","102463","113","yes","1024"
