"acc","accuracy","average_response_time","avg_rt","background","block","canvas_backend","clock_backend","color_backend","compensation","coordinates","correct","correct_instruction1","correct_keyboard_response","correct_response","count_ISI","count_correctFeedback","count_expLoop","count_expSequence","count_experiment","count_fixation","count_incorrectFeedback","count_instruction1","count_instruction2","count_keyboard_response","count_logger","count_memorySet","count_practiceLoop","count_probe","count_thankYou","datetime","description","disable_garbage_collection","experiment_file","experiment_path","font_bold","font_family","font_italic","font_size","font_underline","foreground","form_clicks","fullscreen","height","keyboard_backend","live_row","live_row_practiceLoop","logfile","mouse_backend","numberSet","opensesame_codename","opensesame_version","posInSet","present","repeat_cycle","response","response_instruction1","response_instruction2","response_keyboard_response","response_thankYou","response_time","response_time_instruction1","response_time_instruction2","response_time_keyboard_response","response_time_thankYou","round_decimals","sampler_backend","setSize","sound_buf_size","sound_channels","sound_freq","sound_sample_size","start","subject_nr","subject_parity","target","time_ISI","time_correctFeedback","time_expLoop","time_expSequence","time_experiment","time_fixation","time_incorrectFeedback","time_instruction1","time_instruction2","time_keyboard_response","time_logger","time_memorySet","time_practiceLoop","time_probe","time_thankYou","title","total_correct","total_response_time","total_responses","uniform_coordinates","width"
"100","100","806","806","black","practice","legacy","legacy","legacy","0","uniform","1","undefined","1","right","0","0","0","0","0","0","0","0","0","0","0","0","0","0","0","Tue Oct 18 11:13:09 2022","The main experiment item","yes","SternbergTask.osexp","C:\Users\Austin\Documents\PSYC 5316\Lab 3","no","mono","no","18","no","white","no","yes","768","legacy","0","0","C:/Users/Austin/Documents/PSYC 5316/Lab 3/AH-subject-4.csv","legacy","5 7 8 4 1 2","Lentiform Loewenfeld","3.3.12","0","n","0","right","right","NA","right","NA","806","21734","NA","806","NA","2","legacy","6","1024","2","48000","-16","experiment","4","even","6","29644","NA","NA","27431","4363","27436","NA","4370","NA","31649","32456","28440","26106","31649","NA","Sternberg Task","1","806","1","yes","1024"
"100","100","670.5","670.5","black","practice","legacy","legacy","legacy","0","uniform","1","undefined","1","left","1","1","0","1","0","1","1","0","0","1","1","1","0","1","0","Tue Oct 18 11:13:09 2022","The main experiment item","yes","SternbergTask.osexp","C:\Users\Austin\Documents\PSYC 5316\Lab 3","no","mono","no","18","no","white","no","yes","768","legacy","1","1","C:/Users/Austin/Documents/PSYC 5316/Lab 3/AH-subject-4.csv","legacy","1 7 9 8 5","Lentiform Loewenfeld","3.3.12","4","y","0","left","right","NA","left","NA","535","21734","NA","535","NA","2","legacy","5","1024","2","48000","-16","experiment","4","even","8","35951","32560","NA","33737","4363","33742","NA","4370","NA","37956","38492","34746","26106","37955","NA","Sternberg Task","2","1341","2","yes","1024"
"100","100","812.6666666666666","812.6666666666666","black","practice","legacy","legacy","legacy","0","uniform","1","undefined","1","right","2","2","0","2","0","2","2","0","0","2","2","2","0","2","0","Tue Oct 18 11:13:09 2022","The main experiment item","yes","SternbergTask.osexp","C:\Users\Austin\Documents\PSYC 5316\Lab 3","no","mono","no","18","no","white","no","yes","768","legacy","2","2","C:/Users/Austin/Documents/PSYC 5316/Lab 3/AH-subject-4.csv","legacy","3 1 9 4","Lentiform Loewenfeld","3.3.12","0","n","0","right","right","NA","right","NA","1097","21734","NA","1097","NA","2","legacy","4","1024","2","48000","-16","experiment","4","even","6","41897","38500","NA","39687","4363","39691","NA","4370","NA","43902","45001","40694","26106","43901","NA","Sternberg Task","3","2438","3","yes","1024"
"100","100","709.25","709.25","black","practice","legacy","legacy","legacy","0","uniform","1","undefined","1","left","3","3","0","3","0","3","3","0","0","3","3","3","0","3","0","Tue Oct 18 11:13:09 2022","The main experiment item","yes","SternbergTask.osexp","C:\Users\Austin\Documents\PSYC 5316\Lab 3","no","mono","no","18","no","white","no","yes","768","legacy","3","3","C:/Users/Austin/Documents/PSYC 5316/Lab 3/AH-subject-4.csv","legacy","4 8","Lentiform Loewenfeld","3.3.12","1","y","0","left","right","NA","left","NA","399","21734","NA","399","NA","2","legacy","2","1024","2","48000","-16","experiment","4","even","4","48403","45011","NA","46191","4363","46196","NA","4370","NA","50407","50807","47199","26106","50406","NA","Sternberg Task","4","2837","4","yes","1024"
"100","100","711.2","711.2","black","practice","legacy","legacy","legacy","0","uniform","1","undefined","1","right","4","4","0","4","0","4","4","0","0","4","4","4","0","4","0","Tue Oct 18 11:13:09 2022","The main experiment item","yes","SternbergTask.osexp","C:\Users\Austin\Documents\PSYC 5316\Lab 3","no","mono","no","18","no","white","no","yes","768","legacy","4","4","C:/Users/Austin/Documents/PSYC 5316/Lab 3/AH-subject-4.csv","legacy","4 1 5","Lentiform Loewenfeld","3.3.12","0","n","0","right","right","NA","right","NA","719","21734","NA","719","NA","2","legacy","3","1024","2","48000","-16","experiment","4","even","2","54208","50816","NA","51995","4363","52000","NA","4370","NA","56212","56932","53004","26106","56212","NA","Sternberg Task","5","3556","5","yes","1024"
"100","100","669.6666666666666","669.6666666666666","black","practice","legacy","legacy","legacy","0","uniform","1","undefined","1","left","5","5","0","5","0","5","5","0","0","5","5","5","0","5","0","Tue Oct 18 11:13:09 2022","The main experiment item","yes","SternbergTask.osexp","C:\Users\Austin\Documents\PSYC 5316\Lab 3","no","mono","no","18","no","white","no","yes","768","legacy","5","5","C:/Users/Austin/Documents/PSYC 5316/Lab 3/AH-subject-4.csv","legacy","6","Lentiform Loewenfeld","3.3.12","1","y","0","left","right","NA","left","NA","462","21734","NA","462","NA","2","legacy","1","1024","2","48000","-16","experiment","4","even","6","60334","56941","NA","58121","4363","58125","NA","4370","NA","62338","62801","59131","26106","62338","NA","Sternberg Task","6","4018","6","yes","1024"
"100","100","645.2857142857143","645.2857142857143","black","practice","legacy","legacy","legacy","0","uniform","1","undefined","1","left","6","6","0","6","0","6","6","0","0","6","6","6","0","6","0","Tue Oct 18 11:13:09 2022","The main experiment item","yes","SternbergTask.osexp","C:\Users\Austin\Documents\PSYC 5316\Lab 3","no","mono","no","18","no","white","no","yes","768","legacy","6","6","C:/Users/Austin/Documents/PSYC 5316/Lab 3/AH-subject-4.csv","legacy","1 5 2 9","Lentiform Loewenfeld","3.3.12","2","y","0","left","right","NA","left","NA","499","21734","NA","499","NA","2","legacy","4","1024","2","48000","-16","experiment","4","even","5","66178","62809","NA","63966","4363","63970","NA","4370","NA","68183","68683","64974","26106","68182","NA","Sternberg Task","7","4517","7","yes","1024"
"100","100","659.375","659.375","black","practice","legacy","legacy","legacy","0","uniform","1","undefined","1","right","7","7","0","7","0","7","7","0","0","7","7","7","0","7","0","Tue Oct 18 11:13:09 2022","The main experiment item","yes","SternbergTask.osexp","C:\Users\Austin\Documents\PSYC 5316\Lab 3","no","mono","no","18","no","white","no","yes","768","legacy","7","7","C:/Users/Austin/Documents/PSYC 5316/Lab 3/AH-subject-4.csv","legacy","5","Lentiform Loewenfeld","3.3.12","0","n","0","right","right","NA","right","NA","758","21734","NA","758","NA","2","legacy","1","1024","2","48000","-16","experiment","4","even","3","72069","68691","NA","69857","4363","69861","NA","4370","NA","74073","74832","70865","26106","74073","NA","Sternberg Task","8","5275","8","yes","1024"
"100","100","642.4444444444445","642.4444444444445","black","practice","legacy","legacy","legacy","0","uniform","1","undefined","1","left","8","8","0","8","0","8","8","0","0","8","8","8","0","8","0","Tue Oct 18 11:13:09 2022","The main experiment item","yes","SternbergTask.osexp","C:\Users\Austin\Documents\PSYC 5316\Lab 3","no","mono","no","18","no","white","no","yes","768","legacy","8","8","C:/Users/Austin/Documents/PSYC 5316/Lab 3/AH-subject-4.csv","legacy","2 9 4","Lentiform Loewenfeld","3.3.12","3","y","0","left","right","NA","left","NA","507","21734","NA","507","NA","2","legacy","3","1024","2","48000","-16","experiment","4","even","4","78213","74841","NA","76001","4363","76005","NA","4370","NA","80217","80725","77009","26106","80217","NA","Sternberg Task","9","5782","9","yes","1024"
"100","100","640.8","640.8","black","practice","legacy","legacy","legacy","0","uniform","1","undefined","1","left","9","9","0","9","0","9","9","0","0","9","9","9","0","9","0","Tue Oct 18 11:13:09 2022","The main experiment item","yes","SternbergTask.osexp","C:\Users\Austin\Documents\PSYC 5316\Lab 3","no","mono","no","18","no","white","no","yes","768","legacy","9","9","C:/Users/Austin/Documents/PSYC 5316/Lab 3/AH-subject-4.csv","legacy","4 3 1 7 9 8","Lentiform Loewenfeld","3.3.12","1","y","0","left","right","NA","left","NA","626","21734","NA","626","NA","2","legacy","6","1024","2","48000","-16","experiment","4","even","4","84142","80734","NA","81928","4363","81933","NA","4370","NA","86145","86772","82937","26106","86145","NA","Sternberg Task","10","6408","10","yes","1024"
"100","100","630.4545454545455","630.4545454545455","black","practice","legacy","legacy","legacy","0","uniform","1","undefined","1","right","10","10","0","10","0","10","10","0","0","10","10","10","0","10","0","Tue Oct 18 11:13:09 2022","The main experiment item","yes","SternbergTask.osexp","C:\Users\Austin\Documents\PSYC 5316\Lab 3","no","mono","no","18","no","white","no","yes","768","legacy","10","10","C:/Users/Austin/Documents/PSYC 5316/Lab 3/AH-subject-4.csv","legacy","2 1","Lentiform Loewenfeld","3.3.12","0","n","0","right","right","NA","right","NA","527","21734","NA","527","NA","2","legacy","2","1024","2","48000","-16","experiment","4","even","5","90169","86782","NA","87957","4363","87961","NA","4370","NA","92172","92700","88965","26106","92172","NA","Sternberg Task","11","6935","11","yes","1024"
"91.66666666666667","91.66666666666667","603.4166666666666","603.4166666666666","black","practice","legacy","legacy","legacy","0","uniform","0","undefined","0","right","11","11","0","11","0","11","11","0","0","11","11","11","0","11","0","Tue Oct 18 11:13:09 2022","The main experiment item","yes","SternbergTask.osexp","C:\Users\Austin\Documents\PSYC 5316\Lab 3","no","mono","no","18","no","white","no","yes","768","legacy","11","11","C:/Users/Austin/Documents/PSYC 5316/Lab 3/AH-subject-4.csv","legacy","9 6 7 4 5","Lentiform Loewenfeld","3.3.12","0","n","0","left","right","NA","left","NA","306","21734","NA","306","NA","2","legacy","5","1024","2","48000","-16","experiment","4","even","3","96071","92709","NA","93858","4363","93862","NA","4370","NA","98074","98381","94867","26106","98074","NA","Sternberg Task","11","7241","12","yes","1024"
"92.3076923076923","92.3076923076923","592","592","black","experiment","legacy","legacy","legacy","0","uniform","1","undefined","1","left","12","12","0","12","0","12","12","0","0","12","12","12","0","12","0","Tue Oct 18 11:13:09 2022","The main experiment item","yes","SternbergTask.osexp","C:\Users\Austin\Documents\PSYC 5316\Lab 3","no","mono","no","18","no","white","no","yes","768","legacy","0","11","C:/Users/Austin/Documents/PSYC 5316/Lab 3/AH-subject-4.csv","legacy","9 4 2","Lentiform Loewenfeld","3.3.12","1","y","0","left","right","right","left","NA","455","21734","332571","455","NA","2","legacy","3","1024","2","48000","-16","experiment","4","even","9","434461","92709","432043","432248","4363","432253","98390","4370","99470","436465","436921","433256","26106","436464","NA","Sternberg Task","12","7696","13","yes","1024"
"85.71428571428571","85.71428571428571","602.8571428571429","602.8571428571429","black","experiment","legacy","legacy","legacy","0","uniform","0","undefined","0","left","13","13","0","13","0","13","13","0","0","13","13","13","0","13","0","Tue Oct 18 11:13:09 2022","The main experiment item","yes","SternbergTask.osexp","C:\Users\Austin\Documents\PSYC 5316\Lab 3","no","mono","no","18","no","white","no","yes","768","legacy","1","11","C:/Users/Austin/Documents/PSYC 5316/Lab 3/AH-subject-4.csv","legacy","7 1 8 5 6 2","Lentiform Loewenfeld","3.3.12","2","y","0","right","right","right","right","NA","744","21734","332571","744","NA","2","legacy","6","1024","2","48000","-16","experiment","4","even","1","440316","436929","432043","438103","4363","438107","98390","4370","99470","442323","443068","439112","26106","442323","NA","Sternberg Task","12","8440","14","yes","1024"
"86.66666666666667","86.66666666666667","588.2666666666667","588.2666666666667","black","experiment","legacy","legacy","legacy","0","uniform","1","undefined","1","left","14","14","0","14","0","14","14","0","0","14","14","14","0","14","0","Tue Oct 18 11:13:09 2022","The main experiment item","yes","SternbergTask.osexp","C:\Users\Austin\Documents\PSYC 5316\Lab 3","no","mono","no","18","no","white","no","yes","768","legacy","2","11","C:/Users/Austin/Documents/PSYC 5316/Lab 3/AH-subject-4.csv","legacy","3 4 9 6 2 9","Lentiform Loewenfeld","3.3.12","5","y","0","left","right","right","left","NA","384","21734","332571","384","NA","2","legacy","6","1024","2","48000","-16","experiment","4","even","2","446448","436929","432043","444236","4363","444239","443079","4370","99470","448452","448837","445243","26106","448452","NA","Sternberg Task","13","8824","15","yes","1024"
"87.5","87.5","576.5625","576.5625","black","experiment","legacy","legacy","legacy","0","uniform","1","undefined","1","left","15","15","0","15","0","15","15","0","0","15","15","15","0","15","0","Tue Oct 18 11:13:09 2022","The main experiment item","yes","SternbergTask.osexp","C:\Users\Austin\Documents\PSYC 5316\Lab 3","no","mono","no","18","no","white","no","yes","768","legacy","3","11","C:/Users/Austin/Documents/PSYC 5316/Lab 3/AH-subject-4.csv","legacy","7 8 4 6 9 5","Lentiform Loewenfeld","3.3.12","4","y","0","left","right","right","left","NA","401","21734","332571","401","NA","2","legacy","6","1024","2","48000","-16","experiment","4","even","6","452214","448845","432043","450000","4363","450004","443079","4370","99470","454217","454619","451009","26106","454217","NA","Sternberg Task","14","9225","16","yes","1024"
"88.23529411764706","88.23529411764706","583.1764705882352","583.1764705882352","black","experiment","legacy","legacy","legacy","0","uniform","1","undefined","1","left","16","16","0","16","0","16","16","0","0","16","16","16","0","16","0","Tue Oct 18 11:13:09 2022","The main experiment item","yes","SternbergTask.osexp","C:\Users\Austin\Documents\PSYC 5316\Lab 3","no","mono","no","18","no","white","no","yes","768","legacy","4","11","C:/Users/Austin/Documents/PSYC 5316/Lab 3/AH-subject-4.csv","legacy","7 4 2 6 3 5","Lentiform Loewenfeld","3.3.12","6","y","0","left","right","right","left","NA","689","21734","332571","689","NA","2","legacy","6","1024","2","48000","-16","experiment","4","even","5","458013","454628","432043","455800","4363","455804","443079","4370","99470","460016","460706","456809","26106","460016","NA","Sternberg Task","15","9914","17","yes","1024"
"88.88888888888889","88.88888888888889","572.9444444444445","572.9444444444445","black","experiment","legacy","legacy","legacy","0","uniform","1","undefined","1","left","17","17","0","17","0","17","17","0","0","17","17","17","0","17","0","Tue Oct 18 11:13:09 2022","The main experiment item","yes","SternbergTask.osexp","C:\Users\Austin\Documents\PSYC 5316\Lab 3","no","mono","no","18","no","white","no","yes","768","legacy","5","11","C:/Users/Austin/Documents/PSYC 5316/Lab 3/AH-subject-4.csv","legacy","9 5 3 8 4","Lentiform Loewenfeld","3.3.12","1","y","0","left","right","right","left","NA","399","21734","332571","399","NA","2","legacy","5","1024","2","48000","-16","experiment","4","even","9","464073","460714","432043","461862","4363","461866","443079","4370","99470","466077","466477","462869","26106","466077","NA","Sternberg Task","16","10313","18","yes","1024"
"89.47368421052632","89.47368421052632","565.6842105263158","565.6842105263158","black","experiment","legacy","legacy","legacy","0","uniform","1","undefined","1","left","18","18","0","18","0","18","18","0","0","18","18","18","0","18","0","Tue Oct 18 11:13:09 2022","The main experiment item","yes","SternbergTask.osexp","C:\Users\Austin\Documents\PSYC 5316\Lab 3","no","mono","no","18","no","white","no","yes","768","legacy","6","11","C:/Users/Austin/Documents/PSYC 5316/Lab 3/AH-subject-4.csv","legacy","2 4 8 5 1 3","Lentiform Loewenfeld","3.3.12","1","y","0","left","right","right","left","NA","435","21734","332571","435","NA","2","legacy","6","1024","2","48000","-16","experiment","4","even","2","469858","466485","432043","467644","4363","467649","443079","4370","99470","471862","472298","468653","26106","471862","NA","Sternberg Task","17","10748","19","yes","1024"
"85","85","560.95","560.95","black","experiment","legacy","legacy","legacy","0","uniform","0","undefined","0","right","19","19","0","19","0","19","19","0","0","19","19","19","0","19","0","Tue Oct 18 11:13:09 2022","The main experiment item","yes","SternbergTask.osexp","C:\Users\Austin\Documents\PSYC 5316\Lab 3","no","mono","no","18","no","white","no","yes","768","legacy","7","11","C:/Users/Austin/Documents/PSYC 5316/Lab 3/AH-subject-4.csv","legacy","7 1 8 4 9 3","Lentiform Loewenfeld","3.3.12","0","n","0","left","right","right","left","NA","471","21734","332571","471","NA","2","legacy","6","1024","2","48000","-16","experiment","4","even","6","475668","472306","432043","473456","4363","473460","443079","4370","99470","477672","478144","474464","26106","477672","NA","Sternberg Task","17","11219","20","yes","1024"
"85.71428571428571","85.71428571428571","556.5714285714286","556.5714285714286","black","experiment","legacy","legacy","legacy","0","uniform","1","undefined","1","left","20","20","0","20","0","20","20","0","0","20","20","20","0","20","0","Tue Oct 18 11:13:09 2022","The main experiment item","yes","SternbergTask.osexp","C:\Users\Austin\Documents\PSYC 5316\Lab 3","no","mono","no","18","no","white","no","yes","768","legacy","8","11","C:/Users/Austin/Documents/PSYC 5316/Lab 3/AH-subject-4.csv","legacy","5 2 6","Lentiform Loewenfeld","3.3.12","2","y","0","left","right","right","left","NA","469","21734","332571","469","NA","2","legacy","3","1024","2","48000","-16","experiment","4","even","2","481540","472306","432043","479325","4363","479329","478153","4370","99470","483544","484014","480335","26106","483544","NA","Sternberg Task","18","11688","21","yes","1024"
"86.36363636363636","86.36363636363636","551.9090909090909","551.9090909090909","black","experiment","legacy","legacy","legacy","0","uniform","1","undefined","1","left","21","21","0","21","0","21","21","0","0","21","21","21","0","21","0","Tue Oct 18 11:13:09 2022","The main experiment item","yes","SternbergTask.osexp","C:\Users\Austin\Documents\PSYC 5316\Lab 3","no","mono","no","18","no","white","no","yes","768","legacy","9","11","C:/Users/Austin/Documents/PSYC 5316/Lab 3/AH-subject-4.csv","legacy","9 1 6 7 8","Lentiform Loewenfeld","3.3.12","1","y","0","left","right","right","left","NA","454","21734","332571","454","NA","2","legacy","5","1024","2","48000","-16","experiment","4","even","9","487405","484023","432043","485192","4363","485196","478153","4370","99470","489411","489866","486201","26106","489411","NA","Sternberg Task","19","12142","22","yes","1024"
"86.95652173913044","86.95652173913044","569.1739130434783","569.1739130434783","black","experiment","legacy","legacy","legacy","0","uniform","1","undefined","1","right","22","22","0","22","0","22","22","0","0","22","22","22","0","22","0","Tue Oct 18 11:13:09 2022","The main experiment item","yes","SternbergTask.osexp","C:\Users\Austin\Documents\PSYC 5316\Lab 3","no","mono","no","18","no","white","no","yes","768","legacy","10","11","C:/Users/Austin/Documents/PSYC 5316/Lab 3/AH-subject-4.csv","legacy","1 7 8 3 9","Lentiform Loewenfeld","3.3.12","0","n","0","right","right","right","right","NA","949","21734","332571","949","NA","2","legacy","5","1024","2","48000","-16","experiment","4","even","2","493238","489876","432043","491025","4363","491029","478153","4370","99470","495242","496193","492033","26106","495242","NA","Sternberg Task","20","13091","23","yes","1024"
"83.33333333333333","83.33333333333333","562.1666666666666","562.1666666666666","black","experiment","legacy","legacy","legacy","0","uniform","0","undefined","0","right","23","23","0","23","0","23","23","0","0","23","23","23","0","23","0","Tue Oct 18 11:13:09 2022","The main experiment item","yes","SternbergTask.osexp","C:\Users\Austin\Documents\PSYC 5316\Lab 3","no","mono","no","18","no","white","no","yes","768","legacy","11","11","C:/Users/Austin/Documents/PSYC 5316/Lab 3/AH-subject-4.csv","legacy","1 7 5 2 9","Lentiform Loewenfeld","3.3.12","0","n","0","left","right","right","left","NA","401","21734","332571","401","NA","2","legacy","5","1024","2","48000","-16","experiment","4","even","3","499564","496202","432043","497351","4363","497355","478153","4370","99470","501569","501972","498359","26106","501568","NA","Sternberg Task","20","13492","24","yes","1024"
"84","84","562.84","562.84","black","experiment","legacy","legacy","legacy","0","uniform","1","undefined","1","right","24","24","0","24","0","24","24","0","0","24","24","24","0","24","0","Tue Oct 18 11:13:09 2022","The main experiment item","yes","SternbergTask.osexp","C:\Users\Austin\Documents\PSYC 5316\Lab 3","no","mono","no","18","no","white","no","yes","768","legacy","12","11","C:/Users/Austin/Documents/PSYC 5316/Lab 3/AH-subject-4.csv","legacy","1 6 4","Lentiform Loewenfeld","3.3.12","0","n","0","right","right","right","right","NA","579","21734","332571","579","NA","2","legacy","3","1024","2","48000","-16","experiment","4","even","7","505334","496202","432043","503123","4363","503127","501980","4370","99470","507339","507919","504130","26106","507339","NA","Sternberg Task","21","14071","25","yes","1024"
"84.61538461538461","84.61538461538461","572.9230769230769","572.9230769230769","black","experiment","legacy","legacy","legacy","0","uniform","1","undefined","1","left","25","25","0","25","0","25","25","0","0","25","25","25","0","25","0","Tue Oct 18 11:13:09 2022","The main experiment item","yes","SternbergTask.osexp","C:\Users\Austin\Documents\PSYC 5316\Lab 3","no","mono","no","18","no","white","no","yes","768","legacy","13","11","C:/Users/Austin/Documents/PSYC 5316/Lab 3/AH-subject-4.csv","legacy","9 1 7 2","Lentiform Loewenfeld","3.3.12","2","y","0","left","right","right","left","NA","825","21734","332571","825","NA","2","legacy","4","1024","2","48000","-16","experiment","4","even","1","511294","507928","432043","509082","4363","509086","501980","4370","99470","513300","514126","510090","26106","513299","NA","Sternberg Task","22","14896","26","yes","1024"
"85.18518518518519","85.18518518518519","577.074074074074","577.074074074074","black","experiment","legacy","legacy","legacy","0","uniform","1","undefined","1","left","26","26","0","26","0","26","26","0","0","26","26","26","0","26","0","Tue Oct 18 11:13:09 2022","The main experiment item","yes","SternbergTask.osexp","C:\Users\Austin\Documents\PSYC 5316\Lab 3","no","mono","no","18","no","white","no","yes","768","legacy","14","11","C:/Users/Austin/Documents/PSYC 5316/Lab 3/AH-subject-4.csv","legacy","5 7 8 2 3 8","Lentiform Loewenfeld","3.3.12","5","y","0","left","right","right","left","NA","685","21734","332571","685","NA","2","legacy","6","1024","2","48000","-16","experiment","4","even","3","517499","514136","432043","515287","4363","515291","501980","4370","99470","519503","520189","516295","26106","519503","NA","Sternberg Task","23","15581","27","yes","1024"
"85.71428571428571","85.71428571428571","578.6428571428571","578.6428571428571","black","experiment","legacy","legacy","legacy","0","uniform","1","undefined","1","right","27","27","0","27","0","27","27","0","0","27","27","27","0","27","0","Tue Oct 18 11:13:09 2022","The main experiment item","yes","SternbergTask.osexp","C:\Users\Austin\Documents\PSYC 5316\Lab 3","no","mono","no","18","no","white","no","yes","768","legacy","15","11","C:/Users/Austin/Documents/PSYC 5316/Lab 3/AH-subject-4.csv","legacy","5 2","Lentiform Loewenfeld","3.3.12","0","n","0","right","right","right","right","NA","621","21734","332571","621","NA","2","legacy","2","1024","2","48000","-16","experiment","4","even","7","523560","520198","432043","521347","4363","521351","501980","4370","99470","525564","526186","522355","26106","525564","NA","Sternberg Task","24","16202","28","yes","1024"
"82.75862068965517","82.75862068965517","578.448275862069","578.448275862069","black","experiment","legacy","legacy","legacy","0","uniform","0","undefined","0","right","28","28","0","28","0","28","28","0","0","28","28","28","0","28","0","Tue Oct 18 11:13:09 2022","The main experiment item","yes","SternbergTask.osexp","C:\Users\Austin\Documents\PSYC 5316\Lab 3","no","mono","no","18","no","white","no","yes","768","legacy","16","11","C:/Users/Austin/Documents/PSYC 5316/Lab 3/AH-subject-4.csv","legacy","1 4 3 6 5","Lentiform Loewenfeld","3.3.12","0","n","0","left","right","right","left","NA","573","21734","332571","573","NA","2","legacy","5","1024","2","48000","-16","experiment","4","even","8","529580","526196","432043","527369","4363","527373","501980","4370","99470","531586","532160","528377","26106","531585","NA","Sternberg Task","24","16775","29","yes","1024"
"80","80","602.5333333333333","602.5333333333333","black","experiment","legacy","legacy","legacy","0","uniform","0","undefined","0","left","29","29","0","29","0","29","29","0","0","29","29","29","0","29","0","Tue Oct 18 11:13:09 2022","The main experiment item","yes","SternbergTask.osexp","C:\Users\Austin\Documents\PSYC 5316\Lab 3","no","mono","no","18","no","white","no","yes","768","legacy","17","11","C:/Users/Austin/Documents/PSYC 5316/Lab 3/AH-subject-4.csv","legacy","9 8 4","Lentiform Loewenfeld","3.3.12","1","y","0","right","right","right","right","NA","1301","21734","332571","1301","NA","2","legacy","3","1024","2","48000","-16","experiment","4","even","9","535531","526196","432043","533319","4363","533324","532169","4370","99470","537536","538838","534327","26106","537535","NA","Sternberg Task","24","18076","30","yes","1024"
"77.41935483870968","77.41935483870968","597.2258064516129","597.2258064516129","black","experiment","legacy","legacy","legacy","0","uniform","0","undefined","0","right","30","30","0","30","0","30","30","0","0","30","30","30","0","30","0","Tue Oct 18 11:13:09 2022","The main experiment item","yes","SternbergTask.osexp","C:\Users\Austin\Documents\PSYC 5316\Lab 3","no","mono","no","18","no","white","no","yes","768","legacy","18","11","C:/Users/Austin/Documents/PSYC 5316/Lab 3/AH-subject-4.csv","legacy","7 4 2 8 1 9","Lentiform Loewenfeld","3.3.12","0","n","0","left","right","right","left","NA","438","21734","332571","438","NA","2","legacy","6","1024","2","48000","-16","experiment","4","even","5","542226","526196","432043","540011","4363","540016","538847","4370","99470","544231","544671","541020","26106","544231","NA","Sternberg Task","24","18514","31","yes","1024"
"78.125","78.125","592.1875","592.1875","black","experiment","legacy","legacy","legacy","0","uniform","1","undefined","1","right","31","31","0","31","0","31","31","0","0","31","31","31","0","31","0","Tue Oct 18 11:13:09 2022","The main experiment item","yes","SternbergTask.osexp","C:\Users\Austin\Documents\PSYC 5316\Lab 3","no","mono","no","18","no","white","no","yes","768","legacy","19","11","C:/Users/Austin/Documents/PSYC 5316/Lab 3/AH-subject-4.csv","legacy","8 2 1 4 5 9","Lentiform Loewenfeld","3.3.12","0","n","0","right","right","right","right","NA","436","21734","332571","436","NA","2","legacy","6","1024","2","48000","-16","experiment","4","even","7","548041","526196","432043","545829","4363","545833","544680","4370","99470","550044","550481","546837","26106","550044","NA","Sternberg Task","25","18950","32","yes","1024"
"75.75757575757575","75.75757575757575","586.969696969697","586.969696969697","black","experiment","legacy","legacy","legacy","0","uniform","0","undefined","0","right","32","32","0","32","0","32","32","0","0","32","32","32","0","32","0","Tue Oct 18 11:13:09 2022","The main experiment item","yes","SternbergTask.osexp","C:\Users\Austin\Documents\PSYC 5316\Lab 3","no","mono","no","18","no","white","no","yes","768","legacy","20","11","C:/Users/Austin/Documents/PSYC 5316/Lab 3/AH-subject-4.csv","legacy","8 5 4 2 9 6","Lentiform Loewenfeld","3.3.12","0","n","0","left","right","right","left","NA","420","21734","332571","420","NA","2","legacy","6","1024","2","48000","-16","experiment","4","even","3","553851","550490","432043","551639","4363","551643","544680","4370","99470","555856","556277","552647","26106","555856","NA","Sternberg Task","25","19370","33","yes","1024"
"76.47058823529412","76.47058823529412","588.2058823529412","588.2058823529412","black","experiment","legacy","legacy","legacy","0","uniform","1","undefined","1","right","33","33","0","33","0","33","33","0","0","33","33","33","0","33","0","Tue Oct 18 11:13:09 2022","The main experiment item","yes","SternbergTask.osexp","C:\Users\Austin\Documents\PSYC 5316\Lab 3","no","mono","no","18","no","white","no","yes","768","legacy","21","11","C:/Users/Austin/Documents/PSYC 5316/Lab 3/AH-subject-4.csv","legacy","8 4 3 9","Lentiform Loewenfeld","3.3.12","0","n","0","right","right","right","right","NA","629","21734","332571","629","NA","2","legacy","4","1024","2","48000","-16","experiment","4","even","5","559641","550490","432043","557428","4363","557432","556285","4370","99470","561646","562276","558436","26106","561645","NA","Sternberg Task","26","19999","34","yes","1024"
"77.14285714285714","77.14285714285714","591.2857142857143","591.2857142857143","black","experiment","legacy","legacy","legacy","0","uniform","1","undefined","1","right","34","34","0","34","0","34","34","0","0","34","34","34","0","34","0","Tue Oct 18 11:13:09 2022","The main experiment item","yes","SternbergTask.osexp","C:\Users\Austin\Documents\PSYC 5316\Lab 3","no","mono","no","18","no","white","no","yes","768","legacy","22","11","C:/Users/Austin/Documents/PSYC 5316/Lab 3/AH-subject-4.csv","legacy","1 4 9 3","Lentiform Loewenfeld","3.3.12","0","n","0","right","right","right","right","NA","696","21734","332571","696","NA","2","legacy","4","1024","2","48000","-16","experiment","4","even","5","565682","562287","432043","563470","4363","563474","556285","4370","99470","567686","568384","564478","26106","567686","NA","Sternberg Task","27","20695","35","yes","1024"
"77.77777777777777","77.77777777777777","593.2222222222222","593.2222222222222","black","experiment","legacy","legacy","legacy","0","uniform","1","undefined","1","left","35","35","0","35","0","35","35","0","0","35","35","35","0","35","0","Tue Oct 18 11:13:09 2022","The main experiment item","yes","SternbergTask.osexp","C:\Users\Austin\Documents\PSYC 5316\Lab 3","no","mono","no","18","no","white","no","yes","768","legacy","23","11","C:/Users/Austin/Documents/PSYC 5316/Lab 3/AH-subject-4.csv","legacy","9 6 2 4 1","Lentiform Loewenfeld","3.3.12","4","y","0","left","right","right","left","NA","661","21734","332571","661","NA","2","legacy","5","1024","2","48000","-16","experiment","4","even","4","571756","568392","432043","569544","4363","569548","556285","4370","99470","573759","574422","570552","26106","573759","NA","Sternberg Task","28","21356","36","yes","1024"
"78.37837837837837","78.37837837837837","590.8108108108108","590.8108108108108","black","experiment","legacy","legacy","legacy","0","uniform","1","undefined","1","left","36","36","0","36","0","36","36","0","0","36","36","36","0","36","0","Tue Oct 18 11:13:09 2022","The main experiment item","yes","SternbergTask.osexp","C:\Users\Austin\Documents\PSYC 5316\Lab 3","no","mono","no","18","no","white","no","yes","768","legacy","24","11","C:/Users/Austin/Documents/PSYC 5316/Lab 3/AH-subject-4.csv","legacy","8","Lentiform Loewenfeld","3.3.12","1","y","0","left","right","right","left","NA","504","21734","332571","504","NA","2","legacy","1","1024","2","48000","-16","experiment","4","even","8","577798","574429","432043","575585","4363","575589","556285","4370","99470","579801","580307","576593","26106","579801","NA","Sternberg Task","29","21860","37","yes","1024"
"78.94736842105263","78.94736842105263","588.8684210526316","588.8684210526316","black","experiment","legacy","legacy","legacy","0","uniform","1","undefined","1","left","37","37","0","37","0","37","37","0","0","37","37","37","0","37","0","Tue Oct 18 11:13:09 2022","The main experiment item","yes","SternbergTask.osexp","C:\Users\Austin\Documents\PSYC 5316\Lab 3","no","mono","no","18","no","white","no","yes","768","legacy","25","11","C:/Users/Austin/Documents/PSYC 5316/Lab 3/AH-subject-4.csv","legacy","4 1 5","Lentiform Loewenfeld","3.3.12","2","y","0","left","right","right","left","NA","517","21734","332571","517","NA","2","legacy","3","1024","2","48000","-16","experiment","4","even","1","583703","580316","432043","581489","4363","581494","556285","4370","99470","585706","586224","582499","26106","585706","NA","Sternberg Task","30","22377","38","yes","1024"
"79.48717948717949","79.48717948717949","588.4102564102565","588.4102564102565","black","experiment","legacy","legacy","legacy","0","uniform","1","undefined","1","right","38","38","0","38","0","38","38","0","0","38","38","38","0","38","0","Tue Oct 18 11:13:09 2022","The main experiment item","yes","SternbergTask.osexp","C:\Users\Austin\Documents\PSYC 5316\Lab 3","no","mono","no","18","no","white","no","yes","768","legacy","26","11","C:/Users/Austin/Documents/PSYC 5316/Lab 3/AH-subject-4.csv","legacy","2 5 1 4","Lentiform Loewenfeld","3.3.12","0","n","0","right","right","right","right","NA","571","21734","332571","571","NA","2","legacy","4","1024","2","48000","-16","experiment","4","even","6","589593","586234","432043","587382","4363","587386","556285","4370","99470","591598","592171","588389","26106","591598","NA","Sternberg Task","31","22948","39","yes","1024"
"80","80","588.2","588.2","black","experiment","legacy","legacy","legacy","0","uniform","1","undefined","1","left","39","39","0","39","0","39","39","0","0","39","39","39","0","39","0","Tue Oct 18 11:13:09 2022","The main experiment item","yes","SternbergTask.osexp","C:\Users\Austin\Documents\PSYC 5316\Lab 3","no","mono","no","18","no","white","no","yes","768","legacy","27","11","C:/Users/Austin/Documents/PSYC 5316/Lab 3/AH-subject-4.csv","legacy","3 5 7 1","Lentiform Loewenfeld","3.3.12","3","y","0","left","right","right","left","NA","580","21734","332571","580","NA","2","legacy","4","1024","2","48000","-16","experiment","4","even","7","595540","592180","432043","593330","4363","593334","556285","4370","99470","597543","598124","594337","26106","597543","NA","Sternberg Task","32","23528","40","yes","1024"
"80.48780487804878","80.48780487804878","585.9268292682926","585.9268292682926","black","experiment","legacy","legacy","legacy","0","uniform","1","undefined","1","left","40","40","0","40","0","40","40","0","0","40","40","40","0","40","0","Tue Oct 18 11:13:09 2022","The main experiment item","yes","SternbergTask.osexp","C:\Users\Austin\Documents\PSYC 5316\Lab 3","no","mono","no","18","no","white","no","yes","768","legacy","28","11","C:/Users/Austin/Documents/PSYC 5316/Lab 3/AH-subject-4.csv","legacy","4 6 2 5 1","Lentiform Loewenfeld","3.3.12","5","y","0","left","right","right","left","NA","495","21734","332571","495","NA","2","legacy","5","1024","2","48000","-16","experiment","4","even","1","601518","598134","432043","599305","4363","599309","556285","4370","99470","603521","604017","600314","26106","603521","NA","Sternberg Task","33","24023","41","yes","1024"
"80.95238095238095","80.95238095238095","583.6190476190476","583.6190476190476","black","experiment","legacy","legacy","legacy","0","uniform","1","undefined","1","right","41","41","0","41","0","41","41","0","0","41","41","41","0","41","0","Tue Oct 18 11:13:09 2022","The main experiment item","yes","SternbergTask.osexp","C:\Users\Austin\Documents\PSYC 5316\Lab 3","no","mono","no","18","no","white","no","yes","768","legacy","29","11","C:/Users/Austin/Documents/PSYC 5316/Lab 3/AH-subject-4.csv","legacy","8 9","Lentiform Loewenfeld","3.3.12","0","n","0","right","right","right","right","NA","489","21734","332571","489","NA","2","legacy","2","1024","2","48000","-16","experiment","4","even","5","607416","604027","432043","605200","4363","605204","556285","4370","99470","609419","609909","606208","26106","609419","NA","Sternberg Task","34","24512","42","yes","1024"
"81.3953488372093","81.3953488372093","579.953488372093","579.953488372093","black","experiment","legacy","legacy","legacy","0","uniform","1","undefined","1","left","42","42","0","42","0","42","42","0","0","42","42","42","0","42","0","Tue Oct 18 11:13:09 2022","The main experiment item","yes","SternbergTask.osexp","C:\Users\Austin\Documents\PSYC 5316\Lab 3","no","mono","no","18","no","white","no","yes","768","legacy","30","11","C:/Users/Austin/Documents/PSYC 5316/Lab 3/AH-subject-4.csv","legacy","1 4 9 3 2 5","Lentiform Loewenfeld","3.3.12","3","y","0","left","right","right","left","NA","426","21734","332571","426","NA","2","legacy","6","1024","2","48000","-16","experiment","4","even","9","613284","609917","432043","611071","4363","611075","556285","4370","99470","615287","615714","612080","26106","615287","NA","Sternberg Task","35","24938","43","yes","1024"
"81.81818181818181","81.81818181818181","589.5454545454545","589.5454545454545","black","experiment","legacy","legacy","legacy","0","uniform","1","undefined","1","left","43","43","0","43","0","43","43","0","0","43","43","43","0","43","0","Tue Oct 18 11:13:09 2022","The main experiment item","yes","SternbergTask.osexp","C:\Users\Austin\Documents\PSYC 5316\Lab 3","no","mono","no","18","no","white","no","yes","768","legacy","31","11","C:/Users/Austin/Documents/PSYC 5316/Lab 3/AH-subject-4.csv","legacy","6 7 8 5","Lentiform Loewenfeld","3.3.12","3","y","0","left","right","right","left","NA","1002","21734","332571","1002","NA","2","legacy","4","1024","2","48000","-16","experiment","4","even","8","619100","615721","432043","616887","4363","616891","556285","4370","99470","621105","622108","617895","26106","621104","NA","Sternberg Task","36","25940","44","yes","1024"
"82.22222222222223","82.22222222222223","586.9333333333333","586.9333333333333","black","experiment","legacy","legacy","legacy","0","uniform","1","undefined","1","right","44","44","0","44","0","44","44","0","0","44","44","44","0","44","0","Tue Oct 18 11:13:09 2022","The main experiment item","yes","SternbergTask.osexp","C:\Users\Austin\Documents\PSYC 5316\Lab 3","no","mono","no","18","no","white","no","yes","768","legacy","32","11","C:/Users/Austin/Documents/PSYC 5316/Lab 3/AH-subject-4.csv","legacy","2 8 6 3 1","Lentiform Loewenfeld","3.3.12","0","n","0","right","right","right","right","NA","472","21734","332571","472","NA","2","legacy","5","1024","2","48000","-16","experiment","4","even","7","625524","622117","432043","623309","4363","623314","556285","4370","99470","627528","628002","624318","26106","627528","NA","Sternberg Task","37","26412","45","yes","1024"
"82.6086956521739","82.6086956521739","589.9565217391304","589.9565217391304","black","experiment","legacy","legacy","legacy","0","uniform","1","undefined","1","right","45","45","0","45","0","45","45","0","0","45","45","45","0","45","0","Tue Oct 18 11:13:09 2022","The main experiment item","yes","SternbergTask.osexp","C:\Users\Austin\Documents\PSYC 5316\Lab 3","no","mono","no","18","no","white","no","yes","768","legacy","33","11","C:/Users/Austin/Documents/PSYC 5316/Lab 3/AH-subject-4.csv","legacy","2 7 5","Lentiform Loewenfeld","3.3.12","0","n","0","right","right","right","right","NA","726","21734","332571","726","NA","2","legacy","3","1024","2","48000","-16","experiment","4","even","8","631413","628012","432043","629198","4363","629204","556285","4370","99470","633417","634145","630208","26106","633417","NA","Sternberg Task","38","27138","46","yes","1024"
"80.85106382978724","80.85106382978724","583.8723404255319","583.8723404255319","black","experiment","legacy","legacy","legacy","0","uniform","0","undefined","0","right","46","46","0","46","0","46","46","0","0","46","46","46","0","46","0","Tue Oct 18 11:13:09 2022","The main experiment item","yes","SternbergTask.osexp","C:\Users\Austin\Documents\PSYC 5316\Lab 3","no","mono","no","18","no","white","no","yes","768","legacy","34","11","C:/Users/Austin/Documents/PSYC 5316/Lab 3/AH-subject-4.csv","legacy","7 1 5 6 3","Lentiform Loewenfeld","3.3.12","0","n","0","left","right","right","left","NA","304","21734","332571","304","NA","2","legacy","5","1024","2","48000","-16","experiment","4","even","8","637523","634156","432043","635312","4363","635316","556285","4370","99470","639530","639836","636319","26106","639529","NA","Sternberg Task","38","27442","47","yes","1024"
"79.16666666666667","79.16666666666667","586.0208333333334","586.0208333333334","black","experiment","legacy","legacy","legacy","0","uniform","0","undefined","0","left","47","47","0","47","0","47","47","0","0","47","47","47","0","47","0","Tue Oct 18 11:13:09 2022","The main experiment item","yes","SternbergTask.osexp","C:\Users\Austin\Documents\PSYC 5316\Lab 3","no","mono","no","18","no","white","no","yes","768","legacy","35","11","C:/Users/Austin/Documents/PSYC 5316/Lab 3/AH-subject-4.csv","legacy","5 7 3 6 2","Lentiform Loewenfeld","3.3.12","5","y","0","right","right","right","right","NA","687","21734","332571","687","NA","2","legacy","5","1024","2","48000","-16","experiment","4","even","2","643202","634156","432043","640990","4363","640994","639846","4370","99470","645205","645893","641998","26106","645205","NA","Sternberg Task","38","28129","48","yes","1024"
"77.55102040816327","77.55102040816327","589.734693877551","589.734693877551","black","experiment","legacy","legacy","legacy","0","uniform","0","undefined","0","right","48","48","0","48","0","48","48","0","0","48","48","48","0","48","0","Tue Oct 18 11:13:09 2022","The main experiment item","yes","SternbergTask.osexp","C:\Users\Austin\Documents\PSYC 5316\Lab 3","no","mono","no","18","no","white","no","yes","768","legacy","36","11","C:/Users/Austin/Documents/PSYC 5316/Lab 3/AH-subject-4.csv","legacy","7 3 2 8","Lentiform Loewenfeld","3.3.12","0","n","0","left","right","right","left","NA","768","21734","332571","768","NA","2","legacy","4","1024","2","48000","-16","experiment","4","even","4","649281","634156","432043","647069","4363","647073","645903","4370","99470","651284","652054","648078","26106","651284","NA","Sternberg Task","38","28897","49","yes","1024"
"76","76","590.34","590.34","black","experiment","legacy","legacy","legacy","0","uniform","0","undefined","0","left","49","49","0","49","0","49","49","0","0","49","49","49","0","49","0","Tue Oct 18 11:13:09 2022","The main experiment item","yes","SternbergTask.osexp","C:\Users\Austin\Documents\PSYC 5316\Lab 3","no","mono","no","18","no","white","no","yes","768","legacy","37","11","C:/Users/Austin/Documents/PSYC 5316/Lab 3/AH-subject-4.csv","legacy","3 2 1 4 7","Lentiform Loewenfeld","3.3.12","2","y","0","right","right","right","right","NA","620","21734","332571","620","NA","2","legacy","5","1024","2","48000","-16","experiment","4","even","2","655451","634156","432043","653237","4363","653241","652063","4370","99470","657454","658076","654246","26106","657454","NA","Sternberg Task","38","29517","50","yes","1024"
"76.47058823529412","76.47058823529412","587.3333333333334","587.3333333333334","black","experiment","legacy","legacy","legacy","0","uniform","1","undefined","1","left","50","50","0","50","0","50","50","0","0","50","50","50","0","50","0","Tue Oct 18 11:13:09 2022","The main experiment item","yes","SternbergTask.osexp","C:\Users\Austin\Documents\PSYC 5316\Lab 3","no","mono","no","18","no","white","no","yes","768","legacy","38","11","C:/Users/Austin/Documents/PSYC 5316/Lab 3/AH-subject-4.csv","legacy","8 9 5 6 7","Lentiform Loewenfeld","3.3.12","1","y","0","left","right","right","left","NA","437","21734","332571","437","NA","2","legacy","5","1024","2","48000","-16","experiment","4","even","8","661454","634156","432043","659241","4363","659245","658085","4370","99470","663457","663895","660250","26106","663457","NA","Sternberg Task","39","29954","51","yes","1024"
"76.92307692307692","76.92307692307692","586.3653846153846","586.3653846153846","black","experiment","legacy","legacy","legacy","0","uniform","1","undefined","1","right","51","51","0","51","0","51","51","0","0","51","51","51","0","51","0","Tue Oct 18 11:13:09 2022","The main experiment item","yes","SternbergTask.osexp","C:\Users\Austin\Documents\PSYC 5316\Lab 3","no","mono","no","18","no","white","no","yes","768","legacy","39","11","C:/Users/Austin/Documents/PSYC 5316/Lab 3/AH-subject-4.csv","legacy","1","Lentiform Loewenfeld","3.3.12","0","n","0","right","right","right","right","NA","537","21734","332571","537","NA","2","legacy","1","1024","2","48000","-16","experiment","4","even","7","667314","663904","432043","665101","4363","665106","658085","4370","99470","669318","669856","666110","26106","669318","NA","Sternberg Task","40","30491","52","yes","1024"
"75.47169811320755","75.47169811320755","613.0377358490566","613.0377358490566","black","experiment","legacy","legacy","legacy","0","uniform","0","undefined","0","right","52","52","0","52","0","52","52","0","0","52","52","52","0","52","0","Tue Oct 18 11:13:09 2022","The main experiment item","yes","SternbergTask.osexp","C:\Users\Austin\Documents\PSYC 5316\Lab 3","no","mono","no","18","no","white","no","yes","768","legacy","40","11","C:/Users/Austin/Documents/PSYC 5316/Lab 3/AH-subject-4.csv","legacy","1 4 9 2 5","Lentiform Loewenfeld","3.3.12","0","n","0","None","right","right","None","NA","2000","21734","332571","2000","NA","2","legacy","5","1024","2","48000","-16","experiment","4","even","7","673263","669864","432043","671049","4363","671053","658085","4370","99470","675269","677269","672059","26106","675268","NA","Sternberg Task","40","32491","53","yes","1024"
"75.92592592592592","75.92592592592592","613.3703703703703","613.3703703703703","black","experiment","legacy","legacy","legacy","0","uniform","1","undefined","1","right","53","53","0","53","0","53","53","0","0","53","53","53","0","53","0","Tue Oct 18 11:13:09 2022","The main experiment item","yes","SternbergTask.osexp","C:\Users\Austin\Documents\PSYC 5316\Lab 3","no","mono","no","18","no","white","no","yes","768","legacy","41","11","C:/Users/Austin/Documents/PSYC 5316/Lab 3/AH-subject-4.csv","legacy","7 1","Lentiform Loewenfeld","3.3.12","0","n","0","right","right","right","right","NA","631","21734","332571","631","NA","2","legacy","2","1024","2","48000","-16","experiment","4","even","8","680693","669864","432043","678480","4363","678485","677277","4370","99470","682699","683331","679489","26106","682699","NA","Sternberg Task","41","33122","54","yes","1024"
"74.54545454545455","74.54545454545455","620.290909090909","620.290909090909","black","experiment","legacy","legacy","legacy","0","uniform","0","undefined","0","right","54","54","0","54","0","54","54","0","0","54","54","54","0","54","0","Tue Oct 18 11:13:09 2022","The main experiment item","yes","SternbergTask.osexp","C:\Users\Austin\Documents\PSYC 5316\Lab 3","no","mono","no","18","no","white","no","yes","768","legacy","42","11","C:/Users/Austin/Documents/PSYC 5316/Lab 3/AH-subject-4.csv","legacy","7 9","Lentiform Loewenfeld","3.3.12","0","n","0","left","right","right","left","NA","994","21734","332571","994","NA","2","legacy","2","1024","2","48000","-16","experiment","4","even","1","686738","683341","432043","684525","4363","684530","677277","4370","99470","688744","689739","685534","26106","688744","NA","Sternberg Task","41","34116","55","yes","1024"
"75","75","621.625","621.625","black","experiment","legacy","legacy","legacy","0","uniform","1","undefined","1","right","55","55","0","55","0","55","55","0","0","55","55","55","0","55","0","Tue Oct 18 11:13:09 2022","The main experiment item","yes","SternbergTask.osexp","C:\Users\Austin\Documents\PSYC 5316\Lab 3","no","mono","no","18","no","white","no","yes","768","legacy","43","11","C:/Users/Austin/Documents/PSYC 5316/Lab 3/AH-subject-4.csv","legacy","5 3 8 7 2 4","Lentiform Loewenfeld","3.3.12","0","n","0","right","right","right","right","NA","695","21734","332571","695","NA","2","legacy","6","1024","2","48000","-16","experiment","4","even","9","693107","683341","432043","690894","4363","690898","689748","4370","99470","695110","695806","691902","26106","695110","NA","Sternberg Task","42","34811","56","yes","1024"
"75.43859649122807","75.43859649122807","619.280701754386","619.280701754386","black","experiment","legacy","legacy","legacy","0","uniform","1","undefined","1","left","56","56","0","56","0","56","56","0","0","56","56","56","0","56","0","Tue Oct 18 11:13:09 2022","The main experiment item","yes","SternbergTask.osexp","C:\Users\Austin\Documents\PSYC 5316\Lab 3","no","mono","no","18","no","white","no","yes","768","legacy","44","11","C:/Users/Austin/Documents/PSYC 5316/Lab 3/AH-subject-4.csv","legacy","4 3 2 5 8","Lentiform Loewenfeld","3.3.12","2","y","0","left","right","right","left","NA","488","21734","332571","488","NA","2","legacy","5","1024","2","48000","-16","experiment","4","even","3","699177","695817","432043","696963","4363","696967","689748","4370","99470","701180","701670","697971","26106","701180","NA","Sternberg Task","43","35299","57","yes","1024"
"75.86206896551724","75.86206896551724","625.8793103448276","625.8793103448276","black","experiment","legacy","legacy","legacy","0","uniform","1","undefined","1","right","57","57","0","57","0","57","57","0","0","57","57","57","0","57","0","Tue Oct 18 11:13:09 2022","The main experiment item","yes","SternbergTask.osexp","C:\Users\Austin\Documents\PSYC 5316\Lab 3","no","mono","no","18","no","white","no","yes","768","legacy","45","11","C:/Users/Austin/Documents/PSYC 5316/Lab 3/AH-subject-4.csv","legacy","1 6 4 3 9 7","Lentiform Loewenfeld","3.3.12","0","n","0","right","right","right","right","NA","1002","21734","332571","1002","NA","2","legacy","6","1024","2","48000","-16","experiment","4","even","8","705087","701678","432043","702875","4363","702880","689748","4370","99470","707091","708094","703883","26106","707091","NA","Sternberg Task","44","36301","58","yes","1024"
"76.27118644067797","76.27118644067797","627.0169491525423","627.0169491525423","black","experiment","legacy","legacy","legacy","0","uniform","1","undefined","1","right","58","58","0","58","0","58","58","0","0","58","58","58","0","58","0","Tue Oct 18 11:13:09 2022","The main experiment item","yes","SternbergTask.osexp","C:\Users\Austin\Documents\PSYC 5316\Lab 3","no","mono","no","18","no","white","no","yes","768","legacy","46","11","C:/Users/Austin/Documents/PSYC 5316/Lab 3/AH-subject-4.csv","legacy","9 7 4 5 8","Lentiform Loewenfeld","3.3.12","0","n","0","right","right","right","right","NA","693","21734","332571","693","NA","2","legacy","5","1024","2","48000","-16","experiment","4","even","6","711464","708104","432043","709253","4363","709257","689748","4370","99470","713468","714163","710260","26106","713468","NA","Sternberg Task","45","36994","59","yes","1024"
"76.66666666666667","76.66666666666667","627.8833333333333","627.8833333333333","black","experiment","legacy","legacy","legacy","0","uniform","1","undefined","1","left","59","59","0","59","0","59","59","0","0","59","59","59","0","59","0","Tue Oct 18 11:13:09 2022","The main experiment item","yes","SternbergTask.osexp","C:\Users\Austin\Documents\PSYC 5316\Lab 3","no","mono","no","18","no","white","no","yes","768","legacy","47","11","C:/Users/Austin/Documents/PSYC 5316/Lab 3/AH-subject-4.csv","legacy","6 2","Lentiform Loewenfeld","3.3.12","1","y","0","left","right","right","left","NA","679","21734","332571","679","NA","2","legacy","2","1024","2","48000","-16","experiment","4","even","6","717540","714172","432043","715327","4363","715331","689748","4370","99470","719543","720224","716336","26106","719543","NA","Sternberg Task","46","37673","60","yes","1024"
"77.04918032786885","77.04918032786885","627.3934426229508","627.3934426229508","black","experiment","legacy","legacy","legacy","0","uniform","1","undefined","1","right","60","60","0","60","0","60","60","0","0","60","60","60","0","60","0","Tue Oct 18 11:13:09 2022","The main experiment item","yes","SternbergTask.osexp","C:\Users\Austin\Documents\PSYC 5316\Lab 3","no","mono","no","18","no","white","no","yes","768","legacy","48","11","C:/Users/Austin/Documents/PSYC 5316/Lab 3/AH-subject-4.csv","legacy","6 8","Lentiform Loewenfeld","3.3.12","0","n","0","right","right","right","right","NA","598","21734","332571","598","NA","2","legacy","2","1024","2","48000","-16","experiment","4","even","9","723596","720233","432043","721383","4363","721387","689748","4370","99470","725601","726200","722390","26106","725601","NA","Sternberg Task","47","38271","61","yes","1024"
"77.41935483870968","77.41935483870968","628.2258064516129","628.2258064516129","black","experiment","legacy","legacy","legacy","0","uniform","1","undefined","1","right","61","61","0","61","0","61","61","0","0","61","61","61","0","61","0","Tue Oct 18 11:13:09 2022","The main experiment item","yes","SternbergTask.osexp","C:\Users\Austin\Documents\PSYC 5316\Lab 3","no","mono","no","18","no","white","no","yes","768","legacy","49","11","C:/Users/Austin/Documents/PSYC 5316/Lab 3/AH-subject-4.csv","legacy","4 8 1 2","Lentiform Loewenfeld","3.3.12","0","n","0","right","right","right","right","NA","679","21734","332571","679","NA","2","legacy","4","1024","2","48000","-16","experiment","4","even","7","729574","726208","432043","727363","4363","727367","689748","4370","99470","731577","732258","728370","26106","731577","NA","Sternberg Task","48","38950","62","yes","1024"
"77.77777777777777","77.77777777777777","636.1746031746031","636.1746031746031","black","experiment","legacy","legacy","legacy","0","uniform","1","undefined","1","left","62","62","0","62","0","62","62","0","0","62","62","62","0","62","0","Tue Oct 18 11:13:09 2022","The main experiment item","yes","SternbergTask.osexp","C:\Users\Austin\Documents\PSYC 5316\Lab 3","no","mono","no","18","no","white","no","yes","768","legacy","50","11","C:/Users/Austin/Documents/PSYC 5316/Lab 3/AH-subject-4.csv","legacy","2 3","Lentiform Loewenfeld","3.3.12","1","y","0","left","right","right","left","NA","1129","21734","332571","1129","NA","2","legacy","2","1024","2","48000","-16","experiment","4","even","2","735691","732267","432043","733480","4363","733484","689748","4370","99470","737696","738827","734487","26106","737695","NA","Sternberg Task","49","40079","63","yes","1024"
"78.125","78.125","633.953125","633.953125","black","experiment","legacy","legacy","legacy","0","uniform","1","undefined","1","left","63","63","0","63","0","63","63","0","0","63","63","63","0","63","0","Tue Oct 18 11:13:09 2022","The main experiment item","yes","SternbergTask.osexp","C:\Users\Austin\Documents\PSYC 5316\Lab 3","no","mono","no","18","no","white","no","yes","768","legacy","51","11","C:/Users/Austin/Documents/PSYC 5316/Lab 3/AH-subject-4.csv","legacy","8 7 3","Lentiform Loewenfeld","3.3.12","1","y","0","left","right","right","left","NA","494","21734","332571","494","NA","2","legacy","3","1024","2","48000","-16","experiment","4","even","8","742201","738835","432043","739989","4363","739993","689748","4370","99470","744205","744701","740996","26106","744205","NA","Sternberg Task","50","40573","64","yes","1024"
"78.46153846153847","78.46153846153847","632.7076923076924","632.7076923076924","black","experiment","legacy","legacy","legacy","0","uniform","1","undefined","1","right","64","64","0","64","0","64","64","0","0","64","64","64","0","64","0","Tue Oct 18 11:13:09 2022","The main experiment item","yes","SternbergTask.osexp","C:\Users\Austin\Documents\PSYC 5316\Lab 3","no","mono","no","18","no","white","no","yes","768","legacy","52","11","C:/Users/Austin/Documents/PSYC 5316/Lab 3/AH-subject-4.csv","legacy","3 4 9 6 7 8","Lentiform Loewenfeld","3.3.12","0","n","0","right","right","right","right","NA","553","21734","332571","553","NA","2","legacy","6","1024","2","48000","-16","experiment","4","even","2","748104","744710","432043","745891","4363","745896","689748","4370","99470","750109","750664","746900","26106","750109","NA","Sternberg Task","51","41126","65","yes","1024"
"78.78787878787878","78.78787878787878","632.2424242424242","632.2424242424242","black","experiment","legacy","legacy","legacy","0","uniform","1","undefined","1","left","65","65","0","65","0","65","65","0","0","65","65","65","0","65","0","Tue Oct 18 11:13:09 2022","The main experiment item","yes","SternbergTask.osexp","C:\Users\Austin\Documents\PSYC 5316\Lab 3","no","mono","no","18","no","white","no","yes","768","legacy","53","11","C:/Users/Austin/Documents/PSYC 5316/Lab 3/AH-subject-4.csv","legacy","5 2 9 6 1 7","Lentiform Loewenfeld","3.3.12","3","y","0","left","right","right","left","NA","602","21734","332571","602","NA","2","legacy","6","1024","2","48000","-16","experiment","4","even","9","754046","750675","432043","751834","4363","751838","689748","4370","99470","756050","756654","752842","26106","756050","NA","Sternberg Task","52","41728","66","yes","1024"
"77.61194029850746","77.61194029850746","629.0597014925373","629.0597014925373","black","experiment","legacy","legacy","legacy","0","uniform","0","undefined","0","right","66","66","0","66","0","66","66","0","0","66","66","66","0","66","0","Tue Oct 18 11:13:09 2022","The main experiment item","yes","SternbergTask.osexp","C:\Users\Austin\Documents\PSYC 5316\Lab 3","no","mono","no","18","no","white","no","yes","768","legacy","54","11","C:/Users/Austin/Documents/PSYC 5316/Lab 3/AH-subject-4.csv","legacy","9 5 3 2 8 6","Lentiform Loewenfeld","3.3.12","0","n","0","left","right","right","left","NA","419","21734","332571","419","NA","2","legacy","6","1024","2","48000","-16","experiment","4","even","7","760047","756663","432043","757834","4363","757838","689748","4370","99470","762051","762471","758843","26106","762051","NA","Sternberg Task","52","42147","67","yes","1024"
"76.47058823529412","76.47058823529412","635.2941176470588","635.2941176470588","black","experiment","legacy","legacy","legacy","0","uniform","0","undefined","0","left","67","67","0","67","0","67","67","0","0","67","67","67","0","67","0","Tue Oct 18 11:13:09 2022","The main experiment item","yes","SternbergTask.osexp","C:\Users\Austin\Documents\PSYC 5316\Lab 3","no","mono","no","18","no","white","no","yes","768","legacy","55","11","C:/Users/Austin/Documents/PSYC 5316/Lab 3/AH-subject-4.csv","legacy","6 7 9 3 1 2","Lentiform Loewenfeld","3.3.12","1","y","0","right","right","right","right","NA","1053","21734","332571","1053","NA","2","legacy","6","1024","2","48000","-16","experiment","4","even","6","765845","756663","432043","763633","4363","763636","762480","4370","99470","767848","768903","764640","26106","767848","NA","Sternberg Task","52","43200","68","yes","1024"
"75.3623188405797","75.3623188405797","633.7536231884058","633.7536231884058","black","experiment","legacy","legacy","legacy","0","uniform","0","undefined","0","right","68","68","0","68","0","68","68","0","0","68","68","68","0","68","0","Tue Oct 18 11:13:09 2022","The main experiment item","yes","SternbergTask.osexp","C:\Users\Austin\Documents\PSYC 5316\Lab 3","no","mono","no","18","no","white","no","yes","768","legacy","56","11","C:/Users/Austin/Documents/PSYC 5316/Lab 3/AH-subject-4.csv","legacy","6 2 9 3 8 4","Lentiform Loewenfeld","3.3.12","0","n","0","left","right","right","left","NA","529","21734","332571","529","NA","2","legacy","6","1024","2","48000","-16","experiment","4","even","1","772299","756663","432043","770085","4363","770089","768912","4370","99470","774302","774832","771094","26106","774302","NA","Sternberg Task","52","43729","69","yes","1024"
"75.71428571428571","75.71428571428571","636.1714285714286","636.1714285714286","black","experiment","legacy","legacy","legacy","0","uniform","1","undefined","1","left","69","69","0","69","0","69","69","0","0","69","69","69","0","69","0","Tue Oct 18 11:13:09 2022","The main experiment item","yes","SternbergTask.osexp","C:\Users\Austin\Documents\PSYC 5316\Lab 3","no","mono","no","18","no","white","no","yes","768","legacy","57","11","C:/Users/Austin/Documents/PSYC 5316/Lab 3/AH-subject-4.csv","legacy","2 3 7 4","Lentiform Loewenfeld","3.3.12","1","y","0","left","right","right","left","NA","803","21734","332571","803","NA","2","legacy","4","1024","2","48000","-16","experiment","4","even","2","778222","756663","432043","776008","4363","776013","774842","4370","99470","780228","781033","777017","26106","780227","NA","Sternberg Task","53","44532","70","yes","1024"
"76.05633802816901","76.05633802816901","643.5492957746479","643.5492957746479","black","experiment","legacy","legacy","legacy","0","uniform","1","undefined","1","right","70","70","0","70","0","70","70","0","0","70","70","70","0","70","0","Tue Oct 18 11:13:09 2022","The main experiment item","yes","SternbergTask.osexp","C:\Users\Austin\Documents\PSYC 5316\Lab 3","no","mono","no","18","no","white","no","yes","768","legacy","58","11","C:/Users/Austin/Documents/PSYC 5316/Lab 3/AH-subject-4.csv","legacy","1 5 3 2 8","Lentiform Loewenfeld","3.3.12","0","n","0","right","right","right","right","NA","1160","21734","332571","1160","NA","2","legacy","5","1024","2","48000","-16","experiment","4","even","4","784405","781043","432043","782194","4363","782198","774842","4370","99470","786408","787570","783202","26106","786408","NA","Sternberg Task","54","45692","71","yes","1024"
"76.38888888888889","76.38888888888889","644.8333333333334","644.8333333333334","black","experiment","legacy","legacy","legacy","0","uniform","1","undefined","1","right","71","71","0","71","0","71","71","0","0","71","71","71","0","71","0","Tue Oct 18 11:13:09 2022","The main experiment item","yes","SternbergTask.osexp","C:\Users\Austin\Documents\PSYC 5316\Lab 3","no","mono","no","18","no","white","no","yes","768","legacy","59","11","C:/Users/Austin/Documents/PSYC 5316/Lab 3/AH-subject-4.csv","legacy","6 9 7 3 8 2","Lentiform Loewenfeld","3.3.12","0","n","0","right","right","right","right","NA","736","21734","332571","736","NA","2","legacy","6","1024","2","48000","-16","experiment","4","even","5","790944","787579","432043","788731","4363","788735","774842","4370","99470","792949","793687","789739","26106","792948","NA","Sternberg Task","55","46428","72","yes","1024"
"76.71232876712328","76.71232876712328","644.027397260274","644.027397260274","black","experiment","legacy","legacy","legacy","0","uniform","1","undefined","1","left","72","72","0","72","0","72","72","0","0","72","72","72","0","72","0","Tue Oct 18 11:13:09 2022","The main experiment item","yes","SternbergTask.osexp","C:\Users\Austin\Documents\PSYC 5316\Lab 3","no","mono","no","18","no","white","no","yes","768","legacy","60","11","C:/Users/Austin/Documents/PSYC 5316/Lab 3/AH-subject-4.csv","legacy","2 4 6 9","Lentiform Loewenfeld","3.3.12","3","y","0","left","right","right","left","NA","586","21734","332571","586","NA","2","legacy","4","1024","2","48000","-16","experiment","4","even","6","797057","793696","432043","794844","4363","794848","774842","4370","99470","799060","799648","795852","26106","799060","NA","Sternberg Task","56","47014","73","yes","1024"
"77.02702702702703","77.02702702702703","642.527027027027","642.527027027027","black","experiment","legacy","legacy","legacy","0","uniform","1","undefined","1","right","73","73","0","73","0","73","73","0","0","73","73","73","0","73","0","Tue Oct 18 11:13:09 2022","The main experiment item","yes","SternbergTask.osexp","C:\Users\Austin\Documents\PSYC 5316\Lab 3","no","mono","no","18","no","white","no","yes","768","legacy","61","11","C:/Users/Austin/Documents/PSYC 5316/Lab 3/AH-subject-4.csv","legacy","9 8 2 7 4","Lentiform Loewenfeld","3.3.12","0","n","0","right","right","right","right","NA","533","21734","332571","533","NA","2","legacy","5","1024","2","48000","-16","experiment","4","even","5","803019","799656","432043","800806","4363","800810","774842","4370","99470","805023","805558","801815","26106","805023","NA","Sternberg Task","57","47547","74","yes","1024"
"76","76","640.48","640.48","black","experiment","legacy","legacy","legacy","0","uniform","0","undefined","0","right","74","74","0","74","0","74","74","0","0","74","74","74","0","74","0","Tue Oct 18 11:13:09 2022","The main experiment item","yes","SternbergTask.osexp","C:\Users\Austin\Documents\PSYC 5316\Lab 3","no","mono","no","18","no","white","no","yes","768","legacy","62","11","C:/Users/Austin/Documents/PSYC 5316/Lab 3/AH-subject-4.csv","legacy","2 6 4 3 9","Lentiform Loewenfeld","3.3.12","0","n","0","left","right","right","left","NA","489","21734","332571","489","NA","2","legacy","5","1024","2","48000","-16","experiment","4","even","1","808929","805568","432043","806716","4363","806720","774842","4370","99470","810934","811424","807724","26106","810934","NA","Sternberg Task","57","48036","75","yes","1024"
"75","75","638.4342105263158","638.4342105263158","black","experiment","legacy","legacy","legacy","0","uniform","0","undefined","0","left","75","75","0","75","0","75","75","0","0","75","75","75","0","75","0","Tue Oct 18 11:13:09 2022","The main experiment item","yes","SternbergTask.osexp","C:\Users\Austin\Documents\PSYC 5316\Lab 3","no","mono","no","18","no","white","no","yes","768","legacy","63","11","C:/Users/Austin/Documents/PSYC 5316/Lab 3/AH-subject-4.csv","legacy","7 8 6 3 1","Lentiform Loewenfeld","3.3.12","5","y","0","right","right","right","right","NA","485","21734","332571","485","NA","2","legacy","5","1024","2","48000","-16","experiment","4","even","1","814801","805568","432043","812590","4363","812595","811434","4370","99470","816806","817293","813598","26106","816806","NA","Sternberg Task","57","48521","76","yes","1024"
"75.32467532467533","75.32467532467533","644.6753246753246","644.6753246753246","black","experiment","legacy","legacy","legacy","0","uniform","1","undefined","1","left","76","76","0","76","0","76","76","0","0","76","76","76","0","76","0","Tue Oct 18 11:13:09 2022","The main experiment item","yes","SternbergTask.osexp","C:\Users\Austin\Documents\PSYC 5316\Lab 3","no","mono","no","18","no","white","no","yes","768","legacy","64","11","C:/Users/Austin/Documents/PSYC 5316/Lab 3/AH-subject-4.csv","legacy","3 5 4 7","Lentiform Loewenfeld","3.3.12","1","y","0","left","right","right","left","NA","1119","21734","332571","1119","NA","2","legacy","4","1024","2","48000","-16","experiment","4","even","3","820663","805568","432043","818451","4363","818455","817302","4370","99470","822666","823786","819458","26106","822666","NA","Sternberg Task","58","49640","77","yes","1024"
"75.64102564102564","75.64102564102564","652.6923076923077","652.6923076923077","black","experiment","legacy","legacy","legacy","0","uniform","1","undefined","1","right","77","77","0","77","0","77","77","0","0","77","77","77","0","77","0","Tue Oct 18 11:13:09 2022","The main experiment item","yes","SternbergTask.osexp","C:\Users\Austin\Documents\PSYC 5316\Lab 3","no","mono","no","18","no","white","no","yes","768","legacy","65","11","C:/Users/Austin/Documents/PSYC 5316/Lab 3/AH-subject-4.csv","legacy","1 7 5 2","Lentiform Loewenfeld","3.3.12","0","n","0","right","right","right","right","NA","1270","21734","332571","1270","NA","2","legacy","4","1024","2","48000","-16","experiment","4","even","3","827180","823796","432043","824968","4363","824971","817302","4370","99470","829185","830457","825976","26106","829185","NA","Sternberg Task","59","50910","78","yes","1024"
"74.68354430379746","74.68354430379746","653.493670886076","653.493670886076","black","experiment","legacy","legacy","legacy","0","uniform","0","undefined","0","right","78","78","0","78","0","78","78","0","0","78","78","78","0","78","0","Tue Oct 18 11:13:09 2022","The main experiment item","yes","SternbergTask.osexp","C:\Users\Austin\Documents\PSYC 5316\Lab 3","no","mono","no","18","no","white","no","yes","768","legacy","66","11","C:/Users/Austin/Documents/PSYC 5316/Lab 3/AH-subject-4.csv","legacy","7 6 4 8 1 2","Lentiform Loewenfeld","3.3.12","0","n","0","left","right","right","left","NA","716","21734","332571","716","NA","2","legacy","6","1024","2","48000","-16","experiment","4","even","9","833863","830466","432043","831648","4363","831653","817302","4370","99470","835866","836583","832658","26106","835866","NA","Sternberg Task","59","51626","79","yes","1024"
"75","75","654.3","654.3","black","experiment","legacy","legacy","legacy","0","uniform","1","undefined","1","left","79","79","0","79","0","79","79","0","0","79","79","79","0","79","0","Tue Oct 18 11:13:09 2022","The main experiment item","yes","SternbergTask.osexp","C:\Users\Austin\Documents\PSYC 5316\Lab 3","no","mono","no","18","no","white","no","yes","768","legacy","67","11","C:/Users/Austin/Documents/PSYC 5316/Lab 3/AH-subject-4.csv","legacy","6 5","Lentiform Loewenfeld","3.3.12","2","y","0","left","right","right","left","NA","718","21734","332571","718","NA","2","legacy","2","1024","2","48000","-16","experiment","4","even","5","839991","830466","432043","837776","4363","837781","836591","4370","99470","841995","842715","838786","26106","841995","NA","Sternberg Task","60","52344","80","yes","1024"
"75.30864197530865","75.30864197530865","655.4691358024692","655.4691358024692","black","experiment","legacy","legacy","legacy","0","uniform","1","undefined","1","right","80","80","0","80","0","80","80","0","0","80","80","80","0","80","0","Tue Oct 18 11:13:09 2022","The main experiment item","yes","SternbergTask.osexp","C:\Users\Austin\Documents\PSYC 5316\Lab 3","no","mono","no","18","no","white","no","yes","768","legacy","68","11","C:/Users/Austin/Documents/PSYC 5316/Lab 3/AH-subject-4.csv","legacy","8 5 7 3 6","Lentiform Loewenfeld","3.3.12","0","n","0","right","right","right","right","NA","749","21734","332571","749","NA","2","legacy","5","1024","2","48000","-16","experiment","4","even","9","846103","842724","432043","843892","4363","843896","836591","4370","99470","848110","848861","844900","26106","848109","NA","Sternberg Task","61","53093","81","yes","1024"
"75.60975609756098","75.60975609756098","660.1585365853658","660.1585365853658","black","experiment","legacy","legacy","legacy","0","uniform","1","undefined","1","right","81","81","0","81","0","81","81","0","0","81","81","81","0","81","0","Tue Oct 18 11:13:09 2022","The main experiment item","yes","SternbergTask.osexp","C:\Users\Austin\Documents\PSYC 5316\Lab 3","no","mono","no","18","no","white","no","yes","768","legacy","69","11","C:/Users/Austin/Documents/PSYC 5316/Lab 3/AH-subject-4.csv","legacy","9","Lentiform Loewenfeld","3.3.12","0","n","0","right","right","right","right","NA","1040","21734","332571","1040","NA","2","legacy","1","1024","2","48000","-16","experiment","4","even","6","852238","848870","432043","850026","4363","850030","836591","4370","99470","854241","855282","851034","26106","854241","NA","Sternberg Task","62","54133","82","yes","1024"
"75.90361445783132","75.90361445783132","659.5542168674699","659.5542168674699","black","experiment","legacy","legacy","legacy","0","uniform","1","undefined","1","left","82","82","0","82","0","82","82","0","0","82","82","82","0","82","0","Tue Oct 18 11:13:09 2022","The main experiment item","yes","SternbergTask.osexp","C:\Users\Austin\Documents\PSYC 5316\Lab 3","no","mono","no","18","no","white","no","yes","768","legacy","70","11","C:/Users/Austin/Documents/PSYC 5316/Lab 3/AH-subject-4.csv","legacy","4 6 5 8","Lentiform Loewenfeld","3.3.12","1","y","0","left","right","right","left","NA","610","21734","332571","610","NA","2","legacy","4","1024","2","48000","-16","experiment","4","even","4","858670","855291","432043","856458","4363","856462","836591","4370","99470","860673","861284","857466","26106","860673","NA","Sternberg Task","63","54743","83","yes","1024"
"75","75","671.8928571428571","671.8928571428571","black","experiment","legacy","legacy","legacy","0","uniform","0","undefined","0","left","83","83","0","83","0","83","83","0","0","83","83","83","0","83","0","Tue Oct 18 11:13:09 2022","The main experiment item","yes","SternbergTask.osexp","C:\Users\Austin\Documents\PSYC 5316\Lab 3","no","mono","no","18","no","white","no","yes","768","legacy","71","11","C:/Users/Austin/Documents/PSYC 5316/Lab 3/AH-subject-4.csv","legacy","3 9 7 6 4","Lentiform Loewenfeld","3.3.12","3","y","0","right","right","right","right","NA","1696","21734","332571","1696","NA","2","legacy","5","1024","2","48000","-16","experiment","4","even","7","864673","861293","432043","862461","4363","862465","836591","4370","99470","866676","868374","863469","26106","866676","NA","Sternberg Task","63","56439","84","yes","1024"
"74.11764705882354","74.11764705882354","677.6117647058824","677.6117647058824","black","experiment","legacy","legacy","legacy","0","uniform","0","undefined","0","right","84","84","0","84","0","84","84","0","0","84","84","84","0","84","0","Tue Oct 18 11:13:09 2022","The main experiment item","yes","SternbergTask.osexp","C:\Users\Austin\Documents\PSYC 5316\Lab 3","no","mono","no","18","no","white","no","yes","768","legacy","72","11","C:/Users/Austin/Documents/PSYC 5316/Lab 3/AH-subject-4.csv","legacy","4 2 6 9","Lentiform Loewenfeld","3.3.12","0","n","0","left","right","right","left","NA","1158","21734","332571","1158","NA","2","legacy","4","1024","2","48000","-16","experiment","4","even","7","871778","861293","432043","869566","4363","869570","868383","4370","99470","873784","874944","870573","26106","873783","NA","Sternberg Task","63","57597","85","yes","1024"
"74.4186046511628","74.4186046511628","674.5","674.5","black","experiment","legacy","legacy","legacy","0","uniform","1","undefined","1","left","85","85","0","85","0","85","85","0","0","85","85","85","0","85","0","Tue Oct 18 11:13:09 2022","The main experiment item","yes","SternbergTask.osexp","C:\Users\Austin\Documents\PSYC 5316\Lab 3","no","mono","no","18","no","white","no","yes","768","legacy","73","11","C:/Users/Austin/Documents/PSYC 5316/Lab 3/AH-subject-4.csv","legacy","8 5 3 7 4 6","Lentiform Loewenfeld","3.3.12","6","y","0","left","right","right","left","NA","410","21734","332571","410","NA","2","legacy","6","1024","2","48000","-16","experiment","4","even","6","878339","861293","432043","876127","4363","876131","874952","4370","99470","880343","880755","877135","26106","880343","NA","Sternberg Task","64","58007","86","yes","1024"
"74.71264367816092","74.71264367816092","674.0114942528736","674.0114942528736","black","experiment","legacy","legacy","legacy","0","uniform","1","undefined","1","right","86","86","0","86","0","86","86","0","0","86","86","86","0","86","0","Tue Oct 18 11:13:09 2022","The main experiment item","yes","SternbergTask.osexp","C:\Users\Austin\Documents\PSYC 5316\Lab 3","no","mono","no","18","no","white","no","yes","768","legacy","74","11","C:/Users/Austin/Documents/PSYC 5316/Lab 3/AH-subject-4.csv","legacy","8 6 3 4 7","Lentiform Loewenfeld","3.3.12","0","n","0","right","right","right","right","NA","632","21734","332571","632","NA","2","legacy","5","1024","2","48000","-16","experiment","4","even","1","884130","880764","432043","881919","4363","881923","874952","4370","99470","886135","886768","882926","26106","886134","NA","Sternberg Task","65","58639","87","yes","1024"
"75","75","682.875","682.875","black","experiment","legacy","legacy","legacy","0","uniform","1","undefined","1","right","87","87","0","87","0","87","87","0","0","87","87","87","0","87","0","Tue Oct 18 11:13:09 2022","The main experiment item","yes","SternbergTask.osexp","C:\Users\Austin\Documents\PSYC 5316\Lab 3","no","mono","no","18","no","white","no","yes","768","legacy","75","11","C:/Users/Austin/Documents/PSYC 5316/Lab 3/AH-subject-4.csv","legacy","6 9 5","Lentiform Loewenfeld","3.3.12","0","n","0","right","right","right","right","NA","1454","21734","332571","1454","NA","2","legacy","3","1024","2","48000","-16","experiment","4","even","8","890151","886777","432043","887941","4363","887945","874952","4370","99470","892157","893613","888948","26106","892157","NA","Sternberg Task","66","60093","88","yes","1024"
"75.28089887640449","75.28089887640449","680.5505617977528","680.5505617977528","black","experiment","legacy","legacy","legacy","0","uniform","1","undefined","1","left","88","88","0","88","0","88","88","0","0","88","88","88","0","88","0","Tue Oct 18 11:13:09 2022","The main experiment item","yes","SternbergTask.osexp","C:\Users\Austin\Documents\PSYC 5316\Lab 3","no","mono","no","18","no","white","no","yes","768","legacy","76","11","C:/Users/Austin/Documents/PSYC 5316/Lab 3/AH-subject-4.csv","legacy","3 5 9 6 2 4","Lentiform Loewenfeld","3.3.12","1","y","0","left","right","right","left","NA","476","21734","332571","476","NA","2","legacy","6","1024","2","48000","-16","experiment","4","even","3","896984","893624","432043","894772","4363","894776","874952","4370","99470","898989","899467","895780","26106","898989","NA","Sternberg Task","67","60569","89","yes","1024"
"75.55555555555556","75.55555555555556","686.0888888888888","686.0888888888888","black","experiment","legacy","legacy","legacy","0","uniform","1","undefined","1","right","89","89","0","89","0","89","89","0","0","89","89","89","0","89","0","Tue Oct 18 11:13:09 2022","The main experiment item","yes","SternbergTask.osexp","C:\Users\Austin\Documents\PSYC 5316\Lab 3","no","mono","no","18","no","white","no","yes","768","legacy","77","11","C:/Users/Austin/Documents/PSYC 5316/Lab 3/AH-subject-4.csv","legacy","2 8 9","Lentiform Loewenfeld","3.3.12","0","n","0","right","right","right","right","NA","1179","21734","332571","1179","NA","2","legacy","3","1024","2","48000","-16","experiment","4","even","6","902840","899476","432043","900626","4363","900629","874952","4370","99470","904845","906026","901635","26106","904845","NA","Sternberg Task","68","61748","90","yes","1024"
"75.82417582417582","75.82417582417582","684.4175824175824","684.4175824175824","black","experiment","legacy","legacy","legacy","0","uniform","1","undefined","1","right","90","90","0","90","0","90","90","0","0","90","90","90","0","90","0","Tue Oct 18 11:13:09 2022","The main experiment item","yes","SternbergTask.osexp","C:\Users\Austin\Documents\PSYC 5316\Lab 3","no","mono","no","18","no","white","no","yes","768","legacy","78","11","C:/Users/Austin/Documents/PSYC 5316/Lab 3/AH-subject-4.csv","legacy","6 9 4 5 2","Lentiform Loewenfeld","3.3.12","0","n","0","right","right","right","right","NA","534","21734","332571","534","NA","2","legacy","5","1024","2","48000","-16","experiment","4","even","1","909397","906035","432043","907185","4363","907189","874952","4370","99470","911400","911936","908193","26106","911400","NA","Sternberg Task","69","62282","91","yes","1024"
"76.08695652173913","76.08695652173913","683.2391304347826","683.2391304347826","black","experiment","legacy","legacy","legacy","0","uniform","1","undefined","1","left","91","91","0","91","0","91","91","0","0","91","91","91","0","91","0","Tue Oct 18 11:13:09 2022","The main experiment item","yes","SternbergTask.osexp","C:\Users\Austin\Documents\PSYC 5316\Lab 3","no","mono","no","18","no","white","no","yes","768","legacy","79","11","C:/Users/Austin/Documents/PSYC 5316/Lab 3/AH-subject-4.csv","legacy","8 9 5 7 1 6","Lentiform Loewenfeld","3.3.12","4","y","0","left","right","right","left","NA","576","21734","332571","576","NA","2","legacy","6","1024","2","48000","-16","experiment","4","even","7","915344","911944","432043","913132","4363","913137","874952","4370","99470","917349","917926","914141","26106","917349","NA","Sternberg Task","70","62858","92","yes","1024"
"76.34408602150538","76.34408602150538","683.6451612903226","683.6451612903226","black","experiment","legacy","legacy","legacy","0","uniform","1","undefined","1","right","92","92","0","92","0","92","92","0","0","92","92","92","0","92","0","Tue Oct 18 11:13:09 2022","The main experiment item","yes","SternbergTask.osexp","C:\Users\Austin\Documents\PSYC 5316\Lab 3","no","mono","no","18","no","white","no","yes","768","legacy","80","11","C:/Users/Austin/Documents/PSYC 5316/Lab 3/AH-subject-4.csv","legacy","6 8 4","Lentiform Loewenfeld","3.3.12","0","n","0","right","right","right","right","NA","721","21734","332571","721","NA","2","legacy","3","1024","2","48000","-16","experiment","4","even","1","921328","917935","432043","919116","4363","919121","874952","4370","99470","923334","924057","920124","26106","923334","NA","Sternberg Task","71","63579","93","yes","1024"
"76.59574468085107","76.59574468085107","683.0957446808511","683.0957446808511","black","experiment","legacy","legacy","legacy","0","uniform","1","undefined","1","right","93","93","0","93","0","93","93","0","0","93","93","93","0","93","0","Tue Oct 18 11:13:09 2022","The main experiment item","yes","SternbergTask.osexp","C:\Users\Austin\Documents\PSYC 5316\Lab 3","no","mono","no","18","no","white","no","yes","768","legacy","81","11","C:/Users/Austin/Documents/PSYC 5316/Lab 3/AH-subject-4.csv","legacy","8 4 3 5","Lentiform Loewenfeld","3.3.12","0","n","0","right","right","right","right","NA","632","21734","332571","632","NA","2","legacy","4","1024","2","48000","-16","experiment","4","even","6","927446","924067","432043","925234","4363","925237","874952","4370","99470","929450","930085","926242","26106","929450","NA","Sternberg Task","72","64211","94","yes","1024"
"75.78947368421052","75.78947368421052","692.2631578947369","692.2631578947369","black","experiment","legacy","legacy","legacy","0","uniform","0","undefined","0","right","94","94","0","94","0","94","94","0","0","94","94","94","0","94","0","Tue Oct 18 11:13:09 2022","The main experiment item","yes","SternbergTask.osexp","C:\Users\Austin\Documents\PSYC 5316\Lab 3","no","mono","no","18","no","white","no","yes","768","legacy","82","11","C:/Users/Austin/Documents/PSYC 5316/Lab 3/AH-subject-4.csv","legacy","6 7 5 9","Lentiform Loewenfeld","3.3.12","0","n","0","left","right","right","left","NA","1554","21734","332571","1554","NA","2","legacy","4","1024","2","48000","-16","experiment","4","even","2","933485","930093","432043","931273","4363","931277","874952","4370","99470","935490","937046","932282","26106","935490","NA","Sternberg Task","72","65765","95","yes","1024"
"76.04166666666667","76.04166666666667","689.625","689.625","black","experiment","legacy","legacy","legacy","0","uniform","1","undefined","1","left","95","95","0","95","0","95","95","0","0","95","95","95","0","95","0","Tue Oct 18 11:13:09 2022","The main experiment item","yes","SternbergTask.osexp","C:\Users\Austin\Documents\PSYC 5316\Lab 3","no","mono","no","18","no","white","no","yes","768","legacy","83","11","C:/Users/Austin/Documents/PSYC 5316/Lab 3/AH-subject-4.csv","legacy","2 8 5 1","Lentiform Loewenfeld","3.3.12","4","y","0","left","right","right","left","NA","439","21734","332571","439","NA","2","legacy","4","1024","2","48000","-16","experiment","4","even","1","940450","930093","432043","938237","4363","938241","937056","4370","99470","942454","942895","939246","26106","942453","NA","Sternberg Task","73","66204","96","yes","1024"
"75.25773195876289","75.25773195876289","687.2371134020618","687.2371134020618","black","experiment","legacy","legacy","legacy","0","uniform","0","undefined","0","right","96","96","0","96","0","96","96","0","0","96","96","96","0","96","0","Tue Oct 18 11:13:09 2022","The main experiment item","yes","SternbergTask.osexp","C:\Users\Austin\Documents\PSYC 5316\Lab 3","no","mono","no","18","no","white","no","yes","768","legacy","84","11","C:/Users/Austin/Documents/PSYC 5316/Lab 3/AH-subject-4.csv","legacy","5 3 2 6 9 8","Lentiform Loewenfeld","3.3.12","0","n","0","left","right","right","left","NA","458","21734","332571","458","NA","2","legacy","6","1024","2","48000","-16","experiment","4","even","4","946302","942904","432043","944090","4363","944094","937056","4370","99470","948307","948767","945098","26106","948307","NA","Sternberg Task","73","66662","97","yes","1024"
"75.51020408163265","75.51020408163265","686.4387755102041","686.4387755102041","black","experiment","legacy","legacy","legacy","0","uniform","1","undefined","1","right","97","97","0","97","0","97","97","0","0","97","97","97","0","97","0","Tue Oct 18 11:13:09 2022","The main experiment item","yes","SternbergTask.osexp","C:\Users\Austin\Documents\PSYC 5316\Lab 3","no","mono","no","18","no","white","no","yes","768","legacy","85","11","C:/Users/Austin/Documents/PSYC 5316/Lab 3/AH-subject-4.csv","legacy","5","Lentiform Loewenfeld","3.3.12","0","n","0","right","right","right","right","NA","609","21734","332571","609","NA","2","legacy","1","1024","2","48000","-16","experiment","4","even","8","952162","942904","432043","949950","4363","949954","948776","4370","99470","954167","954778","950959","26106","954166","NA","Sternberg Task","74","67271","98","yes","1024"
"75.75757575757575","75.75757575757575","691.5050505050505","691.5050505050505","black","experiment","legacy","legacy","legacy","0","uniform","1","undefined","1","right","98","98","0","98","0","98","98","0","0","98","98","98","0","98","0","Tue Oct 18 11:13:09 2022","The main experiment item","yes","SternbergTask.osexp","C:\Users\Austin\Documents\PSYC 5316\Lab 3","no","mono","no","18","no","white","no","yes","768","legacy","86","11","C:/Users/Austin/Documents/PSYC 5316/Lab 3/AH-subject-4.csv","legacy","3 9 1","Lentiform Loewenfeld","3.3.12","0","n","0","right","right","right","right","NA","1188","21734","332571","1188","NA","2","legacy","3","1024","2","48000","-16","experiment","4","even","7","958166","954786","432043","955953","4363","955957","948776","4370","99470","960170","961360","956961","26106","960170","NA","Sternberg Task","75","68459","99","yes","1024"
"76","76","694.6","694.6","black","experiment","legacy","legacy","legacy","0","uniform","1","undefined","1","right","99","99","0","99","0","99","99","0","0","99","99","99","0","99","0","Tue Oct 18 11:13:09 2022","The main experiment item","yes","SternbergTask.osexp","C:\Users\Austin\Documents\PSYC 5316\Lab 3","no","mono","no","18","no","white","no","yes","768","legacy","87","11","C:/Users/Austin/Documents/PSYC 5316/Lab 3/AH-subject-4.csv","legacy","3 4 2","Lentiform Loewenfeld","3.3.12","0","n","0","right","right","right","right","NA","1001","21734","332571","1001","NA","2","legacy","3","1024","2","48000","-16","experiment","4","even","5","964730","961370","432043","962518","4363","962523","948776","4370","99470","966735","967738","963526","26106","966734","NA","Sternberg Task","76","69460","100","yes","1024"
"75.24752475247524","75.24752475247524","693.8019801980198","693.8019801980198","black","experiment","legacy","legacy","legacy","0","uniform","0","undefined","0","right","100","100","0","100","0","100","100","0","0","100","100","100","0","100","0","Tue Oct 18 11:13:09 2022","The main experiment item","yes","SternbergTask.osexp","C:\Users\Austin\Documents\PSYC 5316\Lab 3","no","mono","no","18","no","white","no","yes","768","legacy","88","11","C:/Users/Austin/Documents/PSYC 5316/Lab 3/AH-subject-4.csv","legacy","6 9 4 5 3 2","Lentiform Loewenfeld","3.3.12","0","n","0","left","right","right","left","NA","614","21734","332571","614","NA","2","legacy","6","1024","2","48000","-16","experiment","4","even","8","971128","967747","432043","968916","4363","968920","948776","4370","99470","973131","973748","969924","26106","973131","NA","Sternberg Task","76","70074","101","yes","1024"
"74.50980392156863","74.50980392156863","691.3039215686274","691.3039215686274","black","experiment","legacy","legacy","legacy","0","uniform","0","undefined","0","left","101","101","0","101","0","101","101","0","0","101","101","101","0","101","0","Tue Oct 18 11:13:09 2022","The main experiment item","yes","SternbergTask.osexp","C:\Users\Austin\Documents\PSYC 5316\Lab 3","no","mono","no","18","no","white","no","yes","768","legacy","89","11","C:/Users/Austin/Documents/PSYC 5316/Lab 3/AH-subject-4.csv","legacy","8 3","Lentiform Loewenfeld","3.3.12","2","y","0","right","right","right","right","NA","439","21734","332571","439","NA","2","legacy","2","1024","2","48000","-16","experiment","4","even","3","977124","967747","432043","974912","4363","974916","973758","4370","99470","979129","979571","975920","26106","979129","NA","Sternberg Task","76","70513","102","yes","1024"
"74.75728155339806","74.75728155339806","687.8058252427185","687.8058252427185","black","experiment","legacy","legacy","legacy","0","uniform","1","undefined","1","left","102","102","0","102","0","102","102","0","0","102","102","102","0","102","0","Tue Oct 18 11:13:09 2022","The main experiment item","yes","SternbergTask.osexp","C:\Users\Austin\Documents\PSYC 5316\Lab 3","no","mono","no","18","no","white","no","yes","768","legacy","90","11","C:/Users/Austin/Documents/PSYC 5316/Lab 3/AH-subject-4.csv","legacy","4 7 6 8 2 3","Lentiform Loewenfeld","3.3.12","6","y","0","left","right","right","left","NA","331","21734","332571","331","NA","2","legacy","6","1024","2","48000","-16","experiment","4","even","3","982948","967747","432043","980736","4363","980740","979579","4370","99470","984953","985287","981743","26106","984953","NA","Sternberg Task","77","70844","103","yes","1024"
"75","75","684.2884615384615","684.2884615384615","black","experiment","legacy","legacy","legacy","0","uniform","1","undefined","1","left","103","103","0","103","0","103","103","0","0","103","103","103","0","103","0","Tue Oct 18 11:13:09 2022","The main experiment item","yes","SternbergTask.osexp","C:\Users\Austin\Documents\PSYC 5316\Lab 3","no","mono","no","18","no","white","no","yes","768","legacy","91","11","C:/Users/Austin/Documents/PSYC 5316/Lab 3/AH-subject-4.csv","legacy","8 1 6","Lentiform Loewenfeld","3.3.12","3","y","0","left","right","right","left","NA","322","21734","332571","322","NA","2","legacy","3","1024","2","48000","-16","experiment","4","even","6","988690","985296","432043","986479","4363","986484","979579","4370","99470","990694","991019","987487","26106","990694","NA","Sternberg Task","78","71166","104","yes","1024"
"75.23809523809524","75.23809523809524","690.4380952380952","690.4380952380952","black","experiment","legacy","legacy","legacy","0","uniform","1","undefined","1","right","104","104","0","104","0","104","104","0","0","104","104","104","0","104","0","Tue Oct 18 11:13:09 2022","The main experiment item","yes","SternbergTask.osexp","C:\Users\Austin\Documents\PSYC 5316\Lab 3","no","mono","no","18","no","white","no","yes","768","legacy","92","11","C:/Users/Austin/Documents/PSYC 5316/Lab 3/AH-subject-4.csv","legacy","4 1","Lentiform Loewenfeld","3.3.12","0","n","0","right","right","right","right","NA","1330","21734","332571","1330","NA","2","legacy","2","1024","2","48000","-16","experiment","4","even","6","994434","991029","432043","992220","4363","992225","979579","4370","99470","996438","997769","993230","26106","996438","NA","Sternberg Task","79","72496","105","yes","1024"
"75.47169811320755","75.47169811320755","693.8301886792453","693.8301886792453","black","experiment","legacy","legacy","legacy","0","uniform","1","undefined","1","right","105","105","0","105","0","105","105","0","0","105","105","105","0","105","0","Tue Oct 18 11:13:09 2022","The main experiment item","yes","SternbergTask.osexp","C:\Users\Austin\Documents\PSYC 5316\Lab 3","no","mono","no","18","no","white","no","yes","768","legacy","93","11","C:/Users/Austin/Documents/PSYC 5316/Lab 3/AH-subject-4.csv","legacy","2 8 7 9 5 3","Lentiform Loewenfeld","3.3.12","0","n","0","right","right","right","right","NA","1050","21734","332571","1050","NA","2","legacy","6","1024","2","48000","-16","experiment","4","even","6","1001141","997778","432043","998928","4363","998931","979579","4370","99470","1003144","1004196","999937","26106","1003144","NA","Sternberg Task","80","73546","106","yes","1024"
"75.70093457943925","75.70093457943925","692.5046728971963","692.5046728971963","black","experiment","legacy","legacy","legacy","0","uniform","1","undefined","1","right","106","106","0","106","0","106","106","0","0","106","106","106","0","106","0","Tue Oct 18 11:13:09 2022","The main experiment item","yes","SternbergTask.osexp","C:\Users\Austin\Documents\PSYC 5316\Lab 3","no","mono","no","18","no","white","no","yes","768","legacy","94","11","C:/Users/Austin/Documents/PSYC 5316/Lab 3/AH-subject-4.csv","legacy","2 8 9 4 1","Lentiform Loewenfeld","3.3.12","0","n","0","right","right","right","right","NA","552","21734","332571","552","NA","2","legacy","5","1024","2","48000","-16","experiment","4","even","5","1007573","1004206","432043","1005360","4363","1005364","979579","4370","99470","1009578","1010132","1006369","26106","1009577","NA","Sternberg Task","81","74098","107","yes","1024"
"75.92592592592592","75.92592592592592","690.7685185185185","690.7685185185185","black","experiment","legacy","legacy","legacy","0","uniform","1","undefined","1","left","107","107","0","107","0","107","107","0","0","107","107","107","0","107","0","Tue Oct 18 11:13:09 2022","The main experiment item","yes","SternbergTask.osexp","C:\Users\Austin\Documents\PSYC 5316\Lab 3","no","mono","no","18","no","white","no","yes","768","legacy","95","11","C:/Users/Austin/Documents/PSYC 5316/Lab 3/AH-subject-4.csv","legacy","2 5 4 8 7","Lentiform Loewenfeld","3.3.12","3","y","0","left","right","right","left","NA","505","21734","332571","505","NA","2","legacy","5","1024","2","48000","-16","experiment","4","even","4","1013539","1010140","432043","1011325","4363","1011331","979579","4370","99470","1015542","1016049","1012334","26106","1015542","NA","Sternberg Task","82","74603","108","yes","1024"
"76.14678899082568","76.14678899082568","692.5504587155963","692.5504587155963","black","experiment","legacy","legacy","legacy","0","uniform","1","undefined","1","left","108","108","0","108","0","108","108","0","0","108","108","108","0","108","0","Tue Oct 18 11:13:09 2022","The main experiment item","yes","SternbergTask.osexp","C:\Users\Austin\Documents\PSYC 5316\Lab 3","no","mono","no","18","no","white","no","yes","768","legacy","96","11","C:/Users/Austin/Documents/PSYC 5316/Lab 3/AH-subject-4.csv","legacy","6 9 3 1","Lentiform Loewenfeld","3.3.12","4","y","0","left","right","right","left","NA","885","21734","332571","885","NA","2","legacy","4","1024","2","48000","-16","experiment","4","even","1","1019457","1016058","432043","1017243","4363","1017249","979579","4370","99470","1021462","1022349","1018252","26106","1021462","NA","Sternberg Task","83","75488","109","yes","1024"
"76.36363636363636","76.36363636363636","692.5","692.5","black","experiment","legacy","legacy","legacy","0","uniform","1","undefined","1","right","109","109","0","109","0","109","109","0","0","109","109","109","0","109","0","Tue Oct 18 11:13:09 2022","The main experiment item","yes","SternbergTask.osexp","C:\Users\Austin\Documents\PSYC 5316\Lab 3","no","mono","no","18","no","white","no","yes","768","legacy","97","11","C:/Users/Austin/Documents/PSYC 5316/Lab 3/AH-subject-4.csv","legacy","1 3 2 6 9","Lentiform Loewenfeld","3.3.12","0","n","0","right","right","right","right","NA","687","21734","332571","687","NA","2","legacy","5","1024","2","48000","-16","experiment","4","even","5","1025720","1022357","432043","1023508","4363","1023512","979579","4370","99470","1027725","1028415","1024515","26106","1027724","NA","Sternberg Task","84","76175","110","yes","1024"
"76.57657657657657","76.57657657657657","693.6666666666666","693.6666666666666","black","experiment","legacy","legacy","legacy","0","uniform","1","undefined","1","left","110","110","0","110","0","110","110","0","0","110","110","110","0","110","0","Tue Oct 18 11:13:09 2022","The main experiment item","yes","SternbergTask.osexp","C:\Users\Austin\Documents\PSYC 5316\Lab 3","no","mono","no","18","no","white","no","yes","768","legacy","98","11","C:/Users/Austin/Documents/PSYC 5316/Lab 3/AH-subject-4.csv","legacy","4","Lentiform Loewenfeld","3.3.12","1","y","0","left","right","right","left","NA","822","21734","332571","822","NA","2","legacy","1","1024","2","48000","-16","experiment","4","even","4","1031816","1028425","432043","1029602","4363","1029607","979579","4370","99470","1033822","1034646","1030611","26106","1033821","NA","Sternberg Task","85","76997","111","yes","1024"
"76.78571428571429","76.78571428571429","692.9553571428571","692.9553571428571","black","experiment","legacy","legacy","legacy","0","uniform","1","undefined","1","left","111","111","0","111","0","111","111","0","0","111","111","111","0","111","0","Tue Oct 18 11:13:09 2022","The main experiment item","yes","SternbergTask.osexp","C:\Users\Austin\Documents\PSYC 5316\Lab 3","no","mono","no","18","no","white","no","yes","768","legacy","99","11","C:/Users/Austin/Documents/PSYC 5316/Lab 3/AH-subject-4.csv","legacy","8 5 4 7 3 1","Lentiform Loewenfeld","3.3.12","2","y","0","left","right","right","left","NA","614","21734","332571","614","NA","2","legacy","6","1024","2","48000","-16","experiment","4","even","5","1038019","1034655","432043","1035808","4363","1035812","979579","4370","99470","1040022","1040638","1036815","26106","1040022","NA","Sternberg Task","86","77611","112","yes","1024"
"76.99115044247787","76.99115044247787","690.5575221238938","690.5575221238938","black","experiment","legacy","legacy","legacy","0","uniform","1","undefined","1","left","112","112","0","112","0","112","112","0","0","112","112","112","0","112","0","Tue Oct 18 11:13:09 2022","The main experiment item","yes","SternbergTask.osexp","C:\Users\Austin\Documents\PSYC 5316\Lab 3","no","mono","no","18","no","white","no","yes","768","legacy","100","11","C:/Users/Austin/Documents/PSYC 5316/Lab 3/AH-subject-4.csv","legacy","4 9 7 8 5 3","Lentiform Loewenfeld","3.3.12","4","y","0","left","right","right","left","NA","422","21734","332571","422","NA","2","legacy","6","1024","2","48000","-16","experiment","4","even","8","1044035","1040648","432043","1041823","4363","1041828","979579","4370","99470","1046042","1046467","1042831","26106","1046040","NA","Sternberg Task","87","78033","113","yes","1024"
"76.3157894736842","76.3157894736842","688.561403508772","688.561403508772","black","experiment","legacy","legacy","legacy","0","uniform","0","undefined","0","left","113","113","0","113","0","113","113","0","0","113","113","113","0","113","0","Tue Oct 18 11:13:09 2022","The main experiment item","yes","SternbergTask.osexp","C:\Users\Austin\Documents\PSYC 5316\Lab 3","no","mono","no","18","no","white","no","yes","768","legacy","101","11","C:/Users/Austin/Documents/PSYC 5316/Lab 3/AH-subject-4.csv","legacy","8 9 6 1","Lentiform Loewenfeld","3.3.12","2","y","0","right","right","right","right","NA","463","21734","332571","463","NA","2","legacy","4","1024","2","48000","-16","experiment","4","even","9","1049839","1046476","432043","1047628","4363","1047632","979579","4370","99470","1051846","1052311","1048635","26106","1051845","NA","Sternberg Task","87","78496","114","yes","1024"
