"acc","accuracy","average_response_time","avg_rt","background","canvas_backend","clock_backend","color_backend","compensation","condition","coordinates","correct","correct_instructions1","correct_keyboardresponse","correct_response","count_block1","count_block2","count_block3","count_errorfeedback","count_experiment","count_faster","count_finish","count_fixation","count_instructions1","count_instructions2","count_instructions3","count_isi","count_keyboardresponse","count_logger","count_sequence","count_stimulus","datetime","deadline","description","disable_garbage_collection","experiment_file","experiment_path","font_bold","font_family","font_italic","font_size","font_underline","foreground","form_clicks","fullscreen","height","keyboard_backend","live_row","live_row_block1","logfile","mouse_backend","opensesame_codename","opensesame_version","repeat_cycle","response","response_finish","response_instructions1","response_instructions2","response_instructions3","response_keyboardresponse","response_time","response_time_finish","response_time_instructions1","response_time_instructions2","response_time_instructions3","response_time_keyboardresponse","round_decimals","sampler_backend","sound_buf_size","sound_channels","sound_freq","sound_sample_size","start","stimulus","subject_nr","subject_parity","time_block1","time_block2","time_block3","time_errorfeedback","time_experiment","time_faster","time_finish","time_fixation","time_instructions1","time_instructions2","time_instructions3","time_isi","time_keyboardresponse","time_logger","time_sequence","time_stimulus","title","total_correct","total_response_time","total_responses","uniform_coordinates","width"
"100","100","1004","1004","black","legacy","legacy","legacy","0","incongruent","uniform","1","undefined","1","s","0","0","0","0","0","0","0","0","0","0","0","0","0","0","0","0","09/20/20 20:17:42","1500","Flanker Task","yes","flankertasksubmission.osexp","C:/Users/User/Desktop/Quant 2020","no","mono","no","18","no","white","no","yes","768","legacy","0","0","C:/Users/User/Desktop/Quant 2020/VTsubject-1.csv","legacy","Lentiform Loewenfeld","3.3.3","0","s","NA","s","NA","NA","s","1004","NA","11568","NA","NA","1004","2","legacy","1024","2","48000","-16","experiment","HHSHH","1","odd","15378","NA","NA","NA","3802","NA","NA","15660","3809","NA","NA","NA","15766","16770","15657","15765","New experiment","1","1004","1","yes","1024"
"100","100","840","840","black","legacy","legacy","legacy","0","incongruent","uniform","1","undefined","1","h","0","0","0","1","0","1","0","1","0","0","0","1","1","1","1","1","09/20/20 20:17:42","1500","Flanker Task","yes","flankertasksubmission.osexp","C:/Users/User/Desktop/Quant 2020","no","mono","no","18","no","white","no","yes","768","legacy","1","1","C:/Users/User/Desktop/Quant 2020/VTsubject-1.csv","legacy","Lentiform Loewenfeld","3.3.3","0","h","NA","s","NA","NA","h","676","NA","11568","NA","NA","676","2","legacy","1024","2","48000","-16","experiment","SSHSS","1","odd","15378","NA","NA","NA","3802","NA","NA","17915","3809","NA","NA","16782","18021","18698","17912","18021","New experiment","2","1680","2","yes","1024"
"100","100","734.333333333","734.333333333","black","legacy","legacy","legacy","0","incongruent","uniform","1","undefined","1","s","0","0","0","2","0","2","0","2","0","0","0","2","2","2","2","2","09/20/20 20:17:42","1500","Flanker Task","yes","flankertasksubmission.osexp","C:/Users/User/Desktop/Quant 2020","no","mono","no","18","no","white","no","yes","768","legacy","2","2","C:/Users/User/Desktop/Quant 2020/VTsubject-1.csv","legacy","Lentiform Loewenfeld","3.3.3","0","s","NA","s","NA","NA","s","523","NA","11568","NA","NA","523","2","legacy","1024","2","48000","-16","experiment","HHSHH","1","odd","15378","NA","NA","NA","3802","NA","NA","19833","3809","NA","NA","18703","19940","20464","19831","19940","New experiment","3","2203","3","yes","1024"
"100","100","679.5","679.5","black","legacy","legacy","legacy","0","congruent","uniform","1","undefined","1","h","0","0","0","3","0","3","0","3","0","0","0","3","3","3","3","3","09/20/20 20:17:42","1500","Flanker Task","yes","flankertasksubmission.osexp","C:/Users/User/Desktop/Quant 2020","no","mono","no","18","no","white","no","yes","768","legacy","3","3","C:/Users/User/Desktop/Quant 2020/VTsubject-1.csv","legacy","Lentiform Loewenfeld","3.3.3","0","h","NA","s","NA","NA","h","515","NA","11568","NA","NA","515","2","legacy","1024","2","48000","-16","experiment","HHHHH","1","odd","15378","NA","NA","NA","3802","NA","NA","21620","3809","NA","NA","20469","21726","22242","21617","21725","New experiment","4","2718","4","yes","1024"
"100","100","645.6","645.6","black","legacy","legacy","legacy","0","congruent","uniform","1","undefined","1","h","0","0","0","4","0","4","0","4","0","0","0","4","4","4","4","4","09/20/20 20:17:42","1500","Flanker Task","yes","flankertasksubmission.osexp","C:/Users/User/Desktop/Quant 2020","no","mono","no","18","no","white","no","yes","768","legacy","4","4","C:/Users/User/Desktop/Quant 2020/VTsubject-1.csv","legacy","Lentiform Loewenfeld","3.3.3","0","h","NA","s","NA","NA","h","510","NA","11568","NA","NA","510","2","legacy","1024","2","48000","-16","experiment","HHHHH","1","odd","15378","NA","NA","NA","3802","NA","NA","23378","3809","NA","NA","22248","23484","23995","23375","23484","New experiment","5","3228","5","yes","1024"
"100","100","633.166666667","633.166666667","black","legacy","legacy","legacy","0","incongruent","uniform","1","undefined","1","h","0","0","0","5","0","5","0","5","0","0","0","5","5","5","5","5","09/20/20 20:17:42","1500","Flanker Task","yes","flankertasksubmission.osexp","C:/Users/User/Desktop/Quant 2020","no","mono","no","18","no","white","no","yes","768","legacy","5","5","C:/Users/User/Desktop/Quant 2020/VTsubject-1.csv","legacy","Lentiform Loewenfeld","3.3.3","0","h","NA","s","NA","NA","h","571","NA","11568","NA","NA","571","2","legacy","1024","2","48000","-16","experiment","SSHSS","1","odd","15378","NA","NA","NA","3802","NA","NA","25139","3809","NA","NA","24006","25245","25817","25136","25245","New experiment","6","3799","6","yes","1024"
"100","100","604.714285714","604.714285714","black","legacy","legacy","legacy","0","congruent","uniform","1","undefined","1","s","0","0","0","6","0","6","0","6","0","0","0","6","6","6","6","6","09/20/20 20:17:42","1500","Flanker Task","yes","flankertasksubmission.osexp","C:/Users/User/Desktop/Quant 2020","no","mono","no","18","no","white","no","yes","768","legacy","6","6","C:/Users/User/Desktop/Quant 2020/VTsubject-1.csv","legacy","Lentiform Loewenfeld","3.3.3","0","s","NA","s","NA","NA","s","434","NA","11568","NA","NA","434","2","legacy","1024","2","48000","-16","experiment","SSSSS","1","odd","15378","NA","NA","NA","3802","NA","NA","26967","3809","NA","NA","25828","27073","27508","26964","27072","New experiment","7","4233","7","yes","1024"
"100","100","636","636","black","legacy","legacy","legacy","0","congruent","uniform","1","undefined","1","h","0","0","0","7","0","7","0","7","0","0","0","7","7","7","7","7","09/20/20 20:17:42","1500","Flanker Task","yes","flankertasksubmission.osexp","C:/Users/User/Desktop/Quant 2020","no","mono","no","18","no","white","no","yes","768","legacy","7","7","C:/Users/User/Desktop/Quant 2020/VTsubject-1.csv","legacy","Lentiform Loewenfeld","3.3.3","0","h","NA","s","NA","NA","h","855","NA","11568","NA","NA","855","2","legacy","1024","2","48000","-16","experiment","HHHHH","1","odd","15378","NA","NA","NA","3802","NA","NA","28652","3809","NA","NA","27513","28758","29613","28649","28757","New experiment","8","5088","8","yes","1024"
"100","100","645.777777778","645.777777778","black","legacy","legacy","legacy","0","congruent","uniform","1","undefined","1","s","0","0","0","8","0","8","0","8","0","0","0","8","8","8","8","8","09/20/20 20:17:42","1500","Flanker Task","yes","flankertasksubmission.osexp","C:/Users/User/Desktop/Quant 2020","no","mono","no","18","no","white","no","yes","768","legacy","8","8","C:/Users/User/Desktop/Quant 2020/VTsubject-1.csv","legacy","Lentiform Loewenfeld","3.3.3","0","s","NA","s","NA","NA","s","724","NA","11568","NA","NA","724","2","legacy","1024","2","48000","-16","experiment","SSSSS","1","odd","15378","NA","NA","NA","3802","NA","NA","30753","3809","NA","NA","29619","30859","31584","30750","30858","New experiment","9","5812","9","yes","1024"
"100","100","639.1","639.1","black","legacy","legacy","legacy","0","incongruent","uniform","1","undefined","1","h","0","0","0","9","0","9","0","9","0","0","0","9","9","9","9","9","09/20/20 20:17:42","1500","Flanker Task","yes","flankertasksubmission.osexp","C:/Users/User/Desktop/Quant 2020","no","mono","no","18","no","white","no","yes","768","legacy","9","9","C:/Users/User/Desktop/Quant 2020/VTsubject-1.csv","legacy","Lentiform Loewenfeld","3.3.3","0","h","NA","s","NA","NA","h","579","NA","11568","NA","NA","579","2","legacy","1024","2","48000","-16","experiment","SSHSS","1","odd","15378","NA","NA","NA","3802","NA","NA","32727","3809","NA","NA","31589","32835","33414","32724","32834","New experiment","10","6391","10","yes","1024"
"100","100","625.090909091","625.090909091","black","legacy","legacy","legacy","0","congruent","uniform","1","undefined","1","h","0","0","0","10","0","10","0","10","0","0","0","10","10","10","10","10","09/20/20 20:17:42","1500","Flanker Task","yes","flankertasksubmission.osexp","C:/Users/User/Desktop/Quant 2020","no","mono","no","18","no","white","no","yes","768","legacy","10","10","C:/Users/User/Desktop/Quant 2020/VTsubject-1.csv","legacy","Lentiform Loewenfeld","3.3.3","0","h","NA","s","NA","NA","h","485","NA","11568","NA","NA","485","2","legacy","1024","2","48000","-16","experiment","HHHHH","1","odd","15378","NA","NA","NA","3802","NA","NA","34560","3809","NA","NA","33420","34666","35151","34557","34666","New experiment","11","6876","11","yes","1024"
"100","100","628.25","628.25","black","legacy","legacy","legacy","0","incongruent","uniform","1","undefined","1","h","0","0","0","11","0","11","0","11","0","0","0","11","11","11","11","11","09/20/20 20:17:42","1500","Flanker Task","yes","flankertasksubmission.osexp","C:/Users/User/Desktop/Quant 2020","no","mono","no","18","no","white","no","yes","768","legacy","11","11","C:/Users/User/Desktop/Quant 2020/VTsubject-1.csv","legacy","Lentiform Loewenfeld","3.3.3","0","h","NA","s","NA","NA","h","663","NA","11568","NA","NA","663","2","legacy","1024","2","48000","-16","experiment","SSHSS","1","odd","15378","NA","NA","NA","3802","NA","NA","36361","3809","NA","NA","35157","36467","37131","36358","36467","New experiment","12","7539","12","yes","1024"
"100","100","621.384615385","621.384615385","black","legacy","legacy","legacy","0","congruent","uniform","1","undefined","1","s","0","0","0","12","0","12","0","12","0","0","0","12","12","12","12","12","09/20/20 20:17:42","1500","Flanker Task","yes","flankertasksubmission.osexp","C:/Users/User/Desktop/Quant 2020","no","mono","no","18","no","white","no","yes","768","legacy","12","12","C:/Users/User/Desktop/Quant 2020/VTsubject-1.csv","legacy","Lentiform Loewenfeld","3.3.3","0","s","NA","s","NA","NA","s","539","NA","11568","NA","NA","539","2","legacy","1024","2","48000","-16","experiment","SSSSS","1","odd","15378","NA","NA","NA","3802","NA","NA","38276","3809","NA","NA","37136","38382","38922","38273","38382","New experiment","13","8078","13","yes","1024"
"100","100","626.214285714","626.214285714","black","legacy","legacy","legacy","0","incongruent","uniform","1","undefined","1","s","0","0","0","13","0","13","0","13","0","0","0","13","13","13","13","13","09/20/20 20:17:42","1500","Flanker Task","yes","flankertasksubmission.osexp","C:/Users/User/Desktop/Quant 2020","no","mono","no","18","no","white","no","yes","768","legacy","13","13","C:/Users/User/Desktop/Quant 2020/VTsubject-1.csv","legacy","Lentiform Loewenfeld","3.3.3","0","s","NA","s","NA","NA","s","689","NA","11568","NA","NA","689","2","legacy","1024","2","48000","-16","experiment","HHSHH","1","odd","15378","NA","NA","NA","3802","NA","NA","40059","3809","NA","NA","38928","40165","40855","40056","40165","New experiment","14","8767","14","yes","1024"
"100","100","615.933333333","615.933333333","black","legacy","legacy","legacy","0","congruent","uniform","1","undefined","1","s","0","0","0","14","0","14","0","14","0","0","0","14","14","14","14","14","09/20/20 20:17:42","1500","Flanker Task","yes","flankertasksubmission.osexp","C:/Users/User/Desktop/Quant 2020","no","mono","no","18","no","white","no","yes","768","legacy","14","14","C:/Users/User/Desktop/Quant 2020/VTsubject-1.csv","legacy","Lentiform Loewenfeld","3.3.3","0","s","NA","s","NA","NA","s","472","NA","11568","NA","NA","472","2","legacy","1024","2","48000","-16","experiment","SSSSS","1","odd","15378","NA","NA","NA","3802","NA","NA","41999","3809","NA","NA","40861","42106","42578","41995","42105","New experiment","15","9239","15","yes","1024"
"100","100","610.5","610.5","black","legacy","legacy","legacy","0","incongruent","uniform","1","undefined","1","s","0","0","0","15","0","15","0","15","0","0","0","15","15","15","15","15","09/20/20 20:17:42","1500","Flanker Task","yes","flankertasksubmission.osexp","C:/Users/User/Desktop/Quant 2020","no","mono","no","18","no","white","no","yes","768","legacy","15","15","C:/Users/User/Desktop/Quant 2020/VTsubject-1.csv","legacy","Lentiform Loewenfeld","3.3.3","0","s","NA","s","NA","NA","s","529","NA","11568","NA","NA","529","2","legacy","1024","2","48000","-16","experiment","HHSHH","1","odd","15378","NA","NA","NA","3802","NA","NA","43713","3809","NA","NA","42584","43819","44349","43710","43819","New experiment","16","9768","16","yes","1024"
"100","100","607.470588235","607.470588235","black","legacy","legacy","legacy","0","congruent","uniform","1","undefined","1","h","0","0","0","16","0","16","0","16","0","0","0","16","16","16","16","16","09/20/20 20:17:42","1500","Flanker Task","yes","flankertasksubmission.osexp","C:/Users/User/Desktop/Quant 2020","no","mono","no","18","no","white","no","yes","768","legacy","16","16","C:/Users/User/Desktop/Quant 2020/VTsubject-1.csv","legacy","Lentiform Loewenfeld","3.3.3","0","h","NA","s","NA","NA","h","559","NA","11568","NA","NA","559","2","legacy","1024","2","48000","-16","experiment","HHHHH","1","odd","15378","NA","NA","NA","3802","NA","NA","45483","3809","NA","NA","44354","45589","46150","45480","45588","New experiment","17","10327","17","yes","1024"
"100","100","601.555555556","601.555555556","black","legacy","legacy","legacy","0","incongruent","uniform","1","undefined","1","s","0","0","0","17","0","17","0","17","0","0","0","17","17","17","17","17","09/20/20 20:17:42","1500","Flanker Task","yes","flankertasksubmission.osexp","C:/Users/User/Desktop/Quant 2020","no","mono","no","18","no","white","no","yes","768","legacy","17","17","C:/Users/User/Desktop/Quant 2020/VTsubject-1.csv","legacy","Lentiform Loewenfeld","3.3.3","0","s","NA","s","NA","NA","s","501","NA","11568","NA","NA","501","2","legacy","1024","2","48000","-16","experiment","HHSHH","1","odd","15378","NA","NA","NA","3802","NA","NA","47288","3809","NA","NA","46160","47394","47897","47284","47394","New experiment","18","10828","18","yes","1024"
"100","100","607.789473684","607.789473684","black","legacy","legacy","legacy","0","congruent","uniform","1","undefined","1","s","0","0","0","18","0","18","0","18","0","0","0","18","18","18","18","18","09/20/20 20:17:42","1500","Flanker Task","yes","flankertasksubmission.osexp","C:/Users/User/Desktop/Quant 2020","no","mono","no","18","no","white","no","yes","768","legacy","18","18","C:/Users/User/Desktop/Quant 2020/VTsubject-1.csv","legacy","Lentiform Loewenfeld","3.3.3","0","s","NA","s","NA","NA","s","720","NA","11568","NA","NA","720","2","legacy","1024","2","48000","-16","experiment","SSSSS","1","odd","15378","NA","NA","NA","3802","NA","NA","49047","3809","NA","NA","47908","49153","49874","49044","49153","New experiment","19","11548","19","yes","1024"
"95","95","602.8","602.8","black","legacy","legacy","legacy","0","congruent","uniform","0","undefined","0","h","0","0","0","19","0","19","0","19","0","0","0","19","19","19","19","19","09/20/20 20:17:42","1500","Flanker Task","yes","flankertasksubmission.osexp","C:/Users/User/Desktop/Quant 2020","no","mono","no","18","no","white","no","yes","768","legacy","19","19","C:/Users/User/Desktop/Quant 2020/VTsubject-1.csv","legacy","Lentiform Loewenfeld","3.3.3","0","s","NA","s","NA","NA","s","508","NA","11568","NA","NA","508","2","legacy","1024","2","48000","-16","experiment","HHHHH","1","odd","15378","NA","NA","NA","3802","NA","NA","51045","3809","NA","NA","49880","51152","51661","51042","51152","New experiment","19","12056","20","yes","1024"
"95.2380952381","95.2380952381","604.857142857","604.857142857","black","legacy","legacy","legacy","0","incongruent","uniform","1","undefined","1","h","0","0","0","20","0","20","0","20","0","0","0","20","20","20","20","20","09/20/20 20:17:42","1500","Flanker Task","yes","flankertasksubmission.osexp","C:/Users/User/Desktop/Quant 2020","no","mono","no","18","no","white","no","yes","768","legacy","20","20","C:/Users/User/Desktop/Quant 2020/VTsubject-1.csv","legacy","Lentiform Loewenfeld","3.3.3","0","h","NA","s","NA","NA","h","646","NA","11568","NA","NA","646","2","legacy","1024","2","48000","-16","experiment","SSHSS","1","odd","15378","NA","NA","51667","3802","NA","NA","53309","3809","NA","NA","52173","53415","54062","53306","53415","New experiment","20","12702","21","yes","1024"
"95.4545454545","95.4545454545","613.227272727","613.227272727","black","legacy","legacy","legacy","0","incongruent","uniform","1","undefined","1","h","0","0","0","21","0","21","0","21","0","0","0","21","21","21","21","21","09/20/20 20:17:42","1500","Flanker Task","yes","flankertasksubmission.osexp","C:/Users/User/Desktop/Quant 2020","no","mono","no","18","no","white","no","yes","768","legacy","21","21","C:/Users/User/Desktop/Quant 2020/VTsubject-1.csv","legacy","Lentiform Loewenfeld","3.3.3","0","h","NA","s","NA","NA","h","789","NA","11568","NA","NA","789","2","legacy","1024","2","48000","-16","experiment","SSHSS","1","odd","15378","NA","NA","51667","3802","NA","NA","55221","3809","NA","NA","54068","55327","56117","55217","55326","New experiment","21","13491","22","yes","1024"
"95.652173913","95.652173913","629.043478261","629.043478261","black","legacy","legacy","legacy","0","incongruent","uniform","1","undefined","1","s","0","0","0","22","0","22","0","22","0","0","0","22","22","22","22","22","09/20/20 20:17:42","1500","Flanker Task","yes","flankertasksubmission.osexp","C:/Users/User/Desktop/Quant 2020","no","mono","no","18","no","white","no","yes","768","legacy","22","22","C:/Users/User/Desktop/Quant 2020/VTsubject-1.csv","legacy","Lentiform Loewenfeld","3.3.3","0","s","NA","s","NA","NA","s","977","NA","11568","NA","NA","977","2","legacy","1024","2","48000","-16","experiment","HHSHH","1","odd","15378","NA","NA","51667","3802","NA","NA","57246","3809","NA","NA","56122","57352","58330","57242","57352","New experiment","22","14468","23","yes","1024"
"95.8333333333","95.8333333333","624.5","624.5","black","legacy","legacy","legacy","0","congruent","uniform","1","undefined","1","s","0","0","0","23","0","23","0","23","0","0","0","23","23","23","23","23","09/20/20 20:17:42","1500","Flanker Task","yes","flankertasksubmission.osexp","C:/Users/User/Desktop/Quant 2020","no","mono","no","18","no","white","no","yes","768","legacy","23","23","C:/Users/User/Desktop/Quant 2020/VTsubject-1.csv","legacy","Lentiform Loewenfeld","3.3.3","0","s","NA","s","NA","NA","s","520","NA","11568","NA","NA","520","2","legacy","1024","2","48000","-16","experiment","SSSSS","1","odd","15378","NA","NA","51667","3802","NA","NA","59463","3809","NA","NA","58335","59570","60091","59460","59569","New experiment","23","14988","24","yes","1024"
"96","96","625.88","625.88","black","legacy","legacy","legacy","0","incongruent","uniform","1","undefined","1","s","0","0","0","24","0","24","0","24","0","0","0","24","24","24","24","24","09/20/20 20:17:42","1500","Flanker Task","yes","flankertasksubmission.osexp","C:/Users/User/Desktop/Quant 2020","no","mono","no","18","no","white","no","yes","768","legacy","24","24","C:/Users/User/Desktop/Quant 2020/VTsubject-1.csv","legacy","Lentiform Loewenfeld","3.3.3","0","s","NA","s","NA","NA","s","659","NA","11568","NA","NA","659","2","legacy","1024","2","48000","-16","experiment","HHSHH","1","odd","15378","NA","NA","51667","3802","NA","NA","61230","3809","NA","NA","60096","61336","61995","61227","61336","New experiment","24","15647","25","yes","1024"
"96.1538461538","96.1538461538","628.769230769","628.769230769","black","legacy","legacy","legacy","0","incongruent","uniform","1","undefined","1","s","0","0","0","25","0","25","0","25","0","0","0","25","25","25","25","25","09/20/20 20:17:42","1500","Flanker Task","yes","flankertasksubmission.osexp","C:/Users/User/Desktop/Quant 2020","no","mono","no","18","no","white","no","yes","768","legacy","25","25","C:/Users/User/Desktop/Quant 2020/VTsubject-1.csv","legacy","Lentiform Loewenfeld","3.3.3","0","s","NA","s","NA","NA","s","701","NA","11568","NA","NA","701","2","legacy","1024","2","48000","-16","experiment","HHSHH","1","odd","15378","NA","NA","51667","3802","NA","NA","63146","3809","NA","NA","62001","63252","63954","63143","63252","New experiment","25","16348","26","yes","1024"
"92.5925925926","92.5925925926","641.074074074","641.074074074","black","legacy","legacy","legacy","0","congruent","uniform","0","undefined","0","h","0","0","0","26","0","26","0","26","0","0","0","26","26","26","26","26","09/20/20 20:17:42","1500","Flanker Task","yes","flankertasksubmission.osexp","C:/Users/User/Desktop/Quant 2020","no","mono","no","18","no","white","no","yes","768","legacy","26","26","C:/Users/User/Desktop/Quant 2020/VTsubject-1.csv","legacy","Lentiform Loewenfeld","3.3.3","0","s","NA","s","NA","NA","s","961","NA","11568","NA","NA","961","2","legacy","1024","2","48000","-16","experiment","HHHHH","1","odd","15378","NA","NA","51667","3802","NA","NA","65101","3809","NA","NA","63959","65207","66169","65098","65207","New experiment","25","17309","27","yes","1024"
"92.8571428571","92.8571428571","642.714285714","642.714285714","black","legacy","legacy","legacy","0","congruent","uniform","1","undefined","1","s","0","0","0","27","0","27","0","27","0","0","0","27","27","27","27","27","09/20/20 20:17:42","1500","Flanker Task","yes","flankertasksubmission.osexp","C:/Users/User/Desktop/Quant 2020","no","mono","no","18","no","white","no","yes","768","legacy","27","27","C:/Users/User/Desktop/Quant 2020/VTsubject-1.csv","legacy","Lentiform Loewenfeld","3.3.3","0","s","NA","s","NA","NA","s","687","NA","11568","NA","NA","687","2","legacy","1024","2","48000","-16","experiment","SSSSS","1","odd","15378","NA","NA","66175","3802","NA","NA","67806","3809","NA","NA","66681","67913","68601","67803","67913","New experiment","26","17996","28","yes","1024"
"93.1034482759","93.1034482759","639.655172414","639.655172414","black","legacy","legacy","legacy","0","congruent","uniform","1","undefined","1","s","0","0","0","28","0","28","0","28","0","0","0","28","28","28","28","28","09/20/20 20:17:42","1500","Flanker Task","yes","flankertasksubmission.osexp","C:/Users/User/Desktop/Quant 2020","no","mono","no","18","no","white","no","yes","768","legacy","28","28","C:/Users/User/Desktop/Quant 2020/VTsubject-1.csv","legacy","Lentiform Loewenfeld","3.3.3","0","s","NA","s","NA","NA","s","554","NA","11568","NA","NA","554","2","legacy","1024","2","48000","-16","experiment","SSSSS","1","odd","15378","NA","NA","66175","3802","NA","NA","69748","3809","NA","NA","68607","69854","70409","69745","69854","New experiment","27","18550","29","yes","1024"
"93.3333333333","93.3333333333","635.333333333","635.333333333","black","legacy","legacy","legacy","0","congruent","uniform","1","undefined","1","h","0","0","0","29","0","29","0","29","0","0","0","29","29","29","29","29","09/20/20 20:17:42","1500","Flanker Task","yes","flankertasksubmission.osexp","C:/Users/User/Desktop/Quant 2020","no","mono","no","18","no","white","no","yes","768","legacy","29","29","C:/Users/User/Desktop/Quant 2020/VTsubject-1.csv","legacy","Lentiform Loewenfeld","3.3.3","0","h","NA","s","NA","NA","h","510","NA","11568","NA","NA","510","2","legacy","1024","2","48000","-16","experiment","HHHHH","1","odd","15378","NA","NA","66175","3802","NA","NA","71551","3809","NA","NA","70415","71657","72168","71548","71656","New experiment","28","19060","30","yes","1024"
"90.3225806452","90.3225806452","627.096774194","627.096774194","black","legacy","legacy","legacy","0","incongruent","uniform","0","undefined","0","h","0","0","0","30","0","30","0","30","0","0","0","30","30","30","30","30","09/20/20 20:17:42","1500","Flanker Task","yes","flankertasksubmission.osexp","C:/Users/User/Desktop/Quant 2020","no","mono","no","18","no","white","no","yes","768","legacy","30","30","C:/Users/User/Desktop/Quant 2020/VTsubject-1.csv","legacy","Lentiform Loewenfeld","3.3.3","0","s","NA","s","NA","NA","s","380","NA","11568","NA","NA","380","2","legacy","1024","2","48000","-16","experiment","SSHSS","1","odd","15378","NA","NA","66175","3802","NA","NA","73337","3809","NA","NA","72173","73443","73824","73333","73442","New experiment","28","19440","31","yes","1024"
"90.625","90.625","633.34375","633.34375","black","legacy","legacy","legacy","0","congruent","uniform","1","undefined","1","s","0","0","0","31","0","31","0","31","0","0","0","31","31","31","31","31","09/20/20 20:17:42","1500","Flanker Task","yes","flankertasksubmission.osexp","C:/Users/User/Desktop/Quant 2020","no","mono","no","18","no","white","no","yes","768","legacy","31","31","C:/Users/User/Desktop/Quant 2020/VTsubject-1.csv","legacy","Lentiform Loewenfeld","3.3.3","0","s","NA","s","NA","NA","s","827","NA","11568","NA","NA","827","2","legacy","1024","2","48000","-16","experiment","SSSSS","1","odd","15378","NA","NA","73829","3802","NA","NA","75479","3809","NA","NA","74336","75585","76413","75476","75584","New experiment","29","20267","32","yes","1024"
"90.9090909091","90.9090909091","636.606060606","636.606060606","black","legacy","legacy","legacy","0","congruent","uniform","1","undefined","1","h","0","0","0","32","0","32","0","32","0","0","0","32","32","32","32","32","09/20/20 20:17:42","1500","Flanker Task","yes","flankertasksubmission.osexp","C:/Users/User/Desktop/Quant 2020","no","mono","no","18","no","white","no","yes","768","legacy","32","32","C:/Users/User/Desktop/Quant 2020/VTsubject-1.csv","legacy","Lentiform Loewenfeld","3.3.3","0","h","NA","s","NA","NA","h","741","NA","11568","NA","NA","741","2","legacy","1024","2","48000","-16","experiment","HHHHH","1","odd","15378","NA","NA","73829","3802","NA","NA","77551","3809","NA","NA","76418","77657","78400","77548","77656","New experiment","30","21008","33","yes","1024"
"91.1764705882","91.1764705882","639.058823529","639.058823529","black","legacy","legacy","legacy","0","incongruent","uniform","1","undefined","1","s","0","0","0","33","0","33","0","33","0","0","0","33","33","33","33","33","09/20/20 20:17:42","1500","Flanker Task","yes","flankertasksubmission.osexp","C:/Users/User/Desktop/Quant 2020","no","mono","no","18","no","white","no","yes","768","legacy","33","33","C:/Users/User/Desktop/Quant 2020/VTsubject-1.csv","legacy","Lentiform Loewenfeld","3.3.3","0","s","NA","s","NA","NA","s","720","NA","11568","NA","NA","720","2","legacy","1024","2","48000","-16","experiment","HHSHH","1","odd","15378","NA","NA","73829","3802","NA","NA","79554","3809","NA","NA","78414","79660","80381","79551","79659","New experiment","31","21728","34","yes","1024"
"91.4285714286","91.4285714286","636.657142857","636.657142857","black","legacy","legacy","legacy","0","incongruent","uniform","1","undefined","1","h","0","0","0","34","0","34","0","34","0","0","0","34","34","34","34","34","09/20/20 20:17:42","1500","Flanker Task","yes","flankertasksubmission.osexp","C:/Users/User/Desktop/Quant 2020","no","mono","no","18","no","white","no","yes","768","legacy","34","34","C:/Users/User/Desktop/Quant 2020/VTsubject-1.csv","legacy","Lentiform Loewenfeld","3.3.3","0","h","NA","s","NA","NA","h","555","NA","11568","NA","NA","555","2","legacy","1024","2","48000","-16","experiment","SSHSS","1","odd","15378","NA","NA","73829","3802","NA","NA","81516","3809","NA","NA","80388","81622","82178","81513","81622","New experiment","32","22283","35","yes","1024"
"91.6666666667","91.6666666667","635.805555556","635.805555556","black","legacy","legacy","legacy","0","incongruent","uniform","1","undefined","1","s","0","0","0","35","0","35","0","35","0","0","0","35","35","35","35","35","09/20/20 20:17:42","1500","Flanker Task","yes","flankertasksubmission.osexp","C:/Users/User/Desktop/Quant 2020","no","mono","no","18","no","white","no","yes","768","legacy","35","35","C:/Users/User/Desktop/Quant 2020/VTsubject-1.csv","legacy","Lentiform Loewenfeld","3.3.3","0","s","NA","s","NA","NA","s","606","NA","11568","NA","NA","606","2","legacy","1024","2","48000","-16","experiment","HHSHH","1","odd","15378","NA","NA","73829","3802","NA","NA","83316","3809","NA","NA","82184","83422","84029","83312","83422","New experiment","33","22889","36","yes","1024"
"91.8918918919","91.8918918919","631.675675676","631.675675676","black","legacy","legacy","legacy","0","congruent","uniform","1","undefined","1","s","0","0","0","36","0","36","0","36","0","0","0","36","36","36","36","36","09/20/20 20:17:42","1500","Flanker Task","yes","flankertasksubmission.osexp","C:/Users/User/Desktop/Quant 2020","no","mono","no","18","no","white","no","yes","768","legacy","36","36","C:/Users/User/Desktop/Quant 2020/VTsubject-1.csv","legacy","Lentiform Loewenfeld","3.3.3","0","s","NA","s","NA","NA","s","483","NA","11568","NA","NA","483","2","legacy","1024","2","48000","-16","experiment","SSSSS","1","odd","15378","NA","NA","73829","3802","NA","NA","85171","3809","NA","NA","84034","85277","85761","85168","85276","New experiment","34","23372","37","yes","1024"
"92.1052631579","92.1052631579","629.105263158","629.105263158","black","legacy","legacy","legacy","0","congruent","uniform","1","undefined","1","s","0","0","0","37","0","37","0","37","0","0","0","37","37","37","37","37","09/20/20 20:17:42","1500","Flanker Task","yes","flankertasksubmission.osexp","C:/Users/User/Desktop/Quant 2020","no","mono","no","18","no","white","no","yes","768","legacy","37","37","C:/Users/User/Desktop/Quant 2020/VTsubject-1.csv","legacy","Lentiform Loewenfeld","3.3.3","0","s","NA","s","NA","NA","s","534","NA","11568","NA","NA","534","2","legacy","1024","2","48000","-16","experiment","SSSSS","1","odd","15378","NA","NA","73829","3802","NA","NA","86928","3809","NA","NA","85767","87034","87569","86925","87033","New experiment","35","23906","38","yes","1024"
"89.7435897436","89.7435897436","630","630","black","legacy","legacy","legacy","0","incongruent","uniform","0","undefined","0","h","0","0","0","38","0","38","0","38","0","0","0","38","38","38","38","38","09/20/20 20:17:42","1500","Flanker Task","yes","flankertasksubmission.osexp","C:/Users/User/Desktop/Quant 2020","no","mono","no","18","no","white","no","yes","768","legacy","38","38","C:/Users/User/Desktop/Quant 2020/VTsubject-1.csv","legacy","Lentiform Loewenfeld","3.3.3","0","s","NA","s","NA","NA","s","664","NA","11568","NA","NA","664","2","legacy","1024","2","48000","-16","experiment","SSHSS","1","odd","15378","NA","NA","73829","3802","NA","NA","88712","3809","NA","NA","87575","88818","89483","88709","88817","New experiment","35","24570","39","yes","1024"
"90","90","626.2","626.2","black","legacy","legacy","legacy","0","congruent","uniform","1","undefined","1","s","0","0","0","39","0","39","0","39","0","0","0","39","39","39","39","39","09/20/20 20:17:42","1500","Flanker Task","yes","flankertasksubmission.osexp","C:/Users/User/Desktop/Quant 2020","no","mono","no","18","no","white","no","yes","768","legacy","39","39","C:/Users/User/Desktop/Quant 2020/VTsubject-1.csv","legacy","Lentiform Loewenfeld","3.3.3","0","s","NA","s","NA","NA","s","478","NA","11568","NA","NA","478","2","legacy","1024","2","48000","-16","experiment","SSSSS","1","odd","15378","NA","NA","89489","3802","NA","NA","91178","3809","NA","NA","89995","91284","91763","91174","91284","New experiment","36","25048","40","yes","1024"
"90.243902439","90.243902439","624.756097561","624.756097561","black","legacy","legacy","legacy","0","congruent","uniform","1","undefined","1","s","0","0","0","40","0","40","0","40","0","0","0","40","40","40","40","40","09/20/20 20:17:42","1500","Flanker Task","yes","flankertasksubmission.osexp","C:/Users/User/Desktop/Quant 2020","no","mono","no","18","no","white","no","yes","768","legacy","40","40","C:/Users/User/Desktop/Quant 2020/VTsubject-1.csv","legacy","Lentiform Loewenfeld","3.3.3","0","s","NA","s","NA","NA","s","567","NA","11568","NA","NA","567","2","legacy","1024","2","48000","-16","experiment","SSSSS","1","odd","15378","NA","NA","89489","3802","NA","NA","92911","3809","NA","NA","91768","93017","93585","92908","93016","New experiment","37","25615","41","yes","1024"
"90.4761904762","90.4761904762","631.833333333","631.833333333","black","legacy","legacy","legacy","0","incongruent","uniform","1","undefined","1","h","0","0","0","41","0","41","0","41","0","0","0","41","41","41","41","41","09/20/20 20:17:42","1500","Flanker Task","yes","flankertasksubmission.osexp","C:/Users/User/Desktop/Quant 2020","no","mono","no","18","no","white","no","yes","768","legacy","41","41","C:/Users/User/Desktop/Quant 2020/VTsubject-1.csv","legacy","Lentiform Loewenfeld","3.3.3","0","h","NA","s","NA","NA","h","922","NA","11568","NA","NA","922","2","legacy","1024","2","48000","-16","experiment","SSHSS","1","odd","15378","NA","NA","89489","3802","NA","NA","94736","3809","NA","NA","93591","94842","95765","94732","94842","New experiment","38","26537","42","yes","1024"
"90.6976744186","90.6976744186","635.488372093","635.488372093","black","legacy","legacy","legacy","0","congruent","uniform","1","undefined","1","h","0","0","0","42","0","42","0","42","0","0","0","42","42","42","42","42","09/20/20 20:17:42","1500","Flanker Task","yes","flankertasksubmission.osexp","C:/Users/User/Desktop/Quant 2020","no","mono","no","18","no","white","no","yes","768","legacy","42","42","C:/Users/User/Desktop/Quant 2020/VTsubject-1.csv","legacy","Lentiform Loewenfeld","3.3.3","0","h","NA","s","NA","NA","h","789","NA","11568","NA","NA","789","2","legacy","1024","2","48000","-16","experiment","HHHHH","1","odd","15378","NA","NA","89489","3802","NA","NA","96914","3809","NA","NA","95770","97020","97811","96911","97019","New experiment","39","27326","43","yes","1024"
"90.9090909091","90.9090909091","649.022727273","649.022727273","black","legacy","legacy","legacy","0","congruent","uniform","1","undefined","1","h","0","0","0","43","0","43","0","43","0","0","0","43","43","43","43","43","09/20/20 20:17:42","1500","Flanker Task","yes","flankertasksubmission.osexp","C:/Users/User/Desktop/Quant 2020","no","mono","no","18","no","white","no","yes","768","legacy","43","43","C:/Users/User/Desktop/Quant 2020/VTsubject-1.csv","legacy","Lentiform Loewenfeld","3.3.3","0","h","NA","s","NA","NA","h","1231","NA","11568","NA","NA","1231","2","legacy","1024","2","48000","-16","experiment","HHHHH","1","odd","15378","NA","NA","89489","3802","NA","NA","98944","3809","NA","NA","97816","99050","100282","98941","99049","New experiment","40","28557","44","yes","1024"
"91.1111111111","91.1111111111","650","650","black","legacy","legacy","legacy","0","incongruent","uniform","1","undefined","1","s","0","0","0","44","0","44","0","44","0","0","0","44","44","44","44","44","09/20/20 20:17:42","1500","Flanker Task","yes","flankertasksubmission.osexp","C:/Users/User/Desktop/Quant 2020","no","mono","no","18","no","white","no","yes","768","legacy","44","44","C:/Users/User/Desktop/Quant 2020/VTsubject-1.csv","legacy","Lentiform Loewenfeld","3.3.3","0","s","NA","s","NA","NA","s","693","NA","11568","NA","NA","693","2","legacy","1024","2","48000","-16","experiment","HHSHH","1","odd","15378","NA","NA","89489","3802","NA","NA","101430","3809","NA","NA","100287","101536","102231","101427","101536","New experiment","41","29250","45","yes","1024"
"91.3043478261","91.3043478261","650.456521739","650.456521739","black","legacy","legacy","legacy","0","incongruent","uniform","1","undefined","1","s","0","0","0","45","0","45","0","45","0","0","0","45","45","45","45","45","09/20/20 20:17:42","1500","Flanker Task","yes","flankertasksubmission.osexp","C:/Users/User/Desktop/Quant 2020","no","mono","no","18","no","white","no","yes","768","legacy","45","45","C:/Users/User/Desktop/Quant 2020/VTsubject-1.csv","legacy","Lentiform Loewenfeld","3.3.3","0","s","NA","s","NA","NA","s","671","NA","11568","NA","NA","671","2","legacy","1024","2","48000","-16","experiment","HHSHH","1","odd","15378","NA","NA","89489","3802","NA","NA","103382","3809","NA","NA","102243","103488","104160","103375","103488","New experiment","42","29921","46","yes","1024"
"91.4893617021","91.4893617021","651.744680851","651.744680851","black","legacy","legacy","legacy","0","incongruent","uniform","1","undefined","1","h","0","0","0","46","0","46","0","46","0","0","0","46","46","46","46","46","09/20/20 20:17:42","1500","Flanker Task","yes","flankertasksubmission.osexp","C:/Users/User/Desktop/Quant 2020","no","mono","no","18","no","white","no","yes","768","legacy","46","46","C:/Users/User/Desktop/Quant 2020/VTsubject-1.csv","legacy","Lentiform Loewenfeld","3.3.3","0","h","NA","s","NA","NA","h","711","NA","11568","NA","NA","711","2","legacy","1024","2","48000","-16","experiment","SSHSS","1","odd","15378","NA","NA","89489","3802","NA","NA","105301","3809","NA","NA","104165","105407","106120","105298","105406","New experiment","43","30632","47","yes","1024"
"91.6666666667","91.6666666667","651.1875","651.1875","black","legacy","legacy","legacy","0","congruent","uniform","1","undefined","1","h","0","0","0","47","0","47","0","47","0","0","0","47","47","47","47","47","09/20/20 20:17:42","1500","Flanker Task","yes","flankertasksubmission.osexp","C:/Users/User/Desktop/Quant 2020","no","mono","no","18","no","white","no","yes","768","legacy","47","47","C:/Users/User/Desktop/Quant 2020/VTsubject-1.csv","legacy","Lentiform Loewenfeld","3.3.3","0","h","NA","s","NA","NA","h","625","NA","11568","NA","NA","625","2","legacy","1024","2","48000","-16","experiment","HHHHH","1","odd","15378","NA","NA","89489","3802","NA","NA","107255","3809","NA","NA","106125","107361","107987","107252","107361","New experiment","44","31257","48","yes","1024"
"91.8367346939","91.8367346939","648.020408163","648.020408163","black","legacy","legacy","legacy","0","congruent","uniform","1","undefined","1","h","0","0","0","48","0","48","0","48","0","0","0","48","48","48","48","48","09/20/20 20:17:42","1500","Flanker Task","yes","flankertasksubmission.osexp","C:/Users/User/Desktop/Quant 2020","no","mono","no","18","no","white","no","yes","768","legacy","48","48","C:/Users/User/Desktop/Quant 2020/VTsubject-1.csv","legacy","Lentiform Loewenfeld","3.3.3","0","h","NA","s","NA","NA","h","496","NA","11568","NA","NA","496","2","legacy","1024","2","48000","-16","experiment","HHHHH","1","odd","15378","NA","NA","89489","3802","NA","NA","109135","3809","NA","NA","107993","109241","109739","109132","109241","New experiment","45","31753","49","yes","1024"
"92","92","645.94","645.94","black","legacy","legacy","legacy","0","incongruent","uniform","1","undefined","1","s","0","0","0","49","0","49","0","49","0","0","0","49","49","49","49","49","09/20/20 20:17:42","1500","Flanker Task","yes","flankertasksubmission.osexp","C:/Users/User/Desktop/Quant 2020","no","mono","no","18","no","white","no","yes","768","legacy","49","49","C:/Users/User/Desktop/Quant 2020/VTsubject-1.csv","legacy","Lentiform Loewenfeld","3.3.3","0","s","NA","s","NA","NA","s","544","NA","11568","NA","NA","544","2","legacy","1024","2","48000","-16","experiment","HHSHH","1","odd","15378","NA","NA","89489","3802","NA","NA","110881","3809","NA","NA","109750","110987","111532","110878","110987","New experiment","46","32297","50","yes","1024"
"92.1568627451","92.1568627451","645.235294118","645.235294118","black","legacy","legacy","legacy","0","congruent","uniform","1","undefined","1","s","0","0","0","50","0","50","0","50","0","0","0","50","50","50","50","50","09/20/20 20:17:42","1500","Flanker Task","yes","flankertasksubmission.osexp","C:/Users/User/Desktop/Quant 2020","no","mono","no","18","no","white","no","yes","768","legacy","50","50","C:/Users/User/Desktop/Quant 2020/VTsubject-1.csv","legacy","Lentiform Loewenfeld","3.3.3","0","s","NA","s","NA","NA","s","610","NA","11568","NA","NA","610","2","legacy","1024","2","48000","-16","experiment","SSSSS","1","odd","15378","NA","NA","89489","3802","NA","NA","112682","3809","NA","NA","111538","112789","113400","112679","112788","New experiment","47","32907","51","yes","1024"
"92.3076923077","92.3076923077","645.5","645.5","black","legacy","legacy","legacy","0","congruent","uniform","1","undefined","1","h","0","0","0","51","0","51","0","51","0","0","0","51","51","51","51","51","09/20/20 20:17:42","1500","Flanker Task","yes","flankertasksubmission.osexp","C:/Users/User/Desktop/Quant 2020","no","mono","no","18","no","white","no","yes","768","legacy","51","51","C:/Users/User/Desktop/Quant 2020/VTsubject-1.csv","legacy","Lentiform Loewenfeld","3.3.3","0","h","NA","s","NA","NA","h","659","NA","11568","NA","NA","659","2","legacy","1024","2","48000","-16","experiment","HHHHH","1","odd","15378","NA","NA","89489","3802","NA","NA","114561","3809","NA","NA","113406","114667","115327","114558","114666","New experiment","48","33566","52","yes","1024"
"92.4528301887","92.4528301887","645.377358491","645.377358491","black","legacy","legacy","legacy","0","congruent","uniform","1","undefined","1","h","0","0","0","52","0","52","0","52","0","0","0","52","52","52","52","52","09/20/20 20:17:42","1500","Flanker Task","yes","flankertasksubmission.osexp","C:/Users/User/Desktop/Quant 2020","no","mono","no","18","no","white","no","yes","768","legacy","52","52","C:/Users/User/Desktop/Quant 2020/VTsubject-1.csv","legacy","Lentiform Loewenfeld","3.3.3","0","h","NA","s","NA","NA","h","639","NA","11568","NA","NA","639","2","legacy","1024","2","48000","-16","experiment","HHHHH","1","odd","15378","NA","NA","89489","3802","NA","NA","116463","3809","NA","NA","115333","116569","117210","116459","116568","New experiment","49","34205","53","yes","1024"
"92.5925925926","92.5925925926","645.314814815","645.314814815","black","legacy","legacy","legacy","0","incongruent","uniform","1","undefined","1","s","0","0","0","53","0","53","0","53","0","0","0","53","53","53","53","53","09/20/20 20:17:42","1500","Flanker Task","yes","flankertasksubmission.osexp","C:/Users/User/Desktop/Quant 2020","no","mono","no","18","no","white","no","yes","768","legacy","53","53","C:/Users/User/Desktop/Quant 2020/VTsubject-1.csv","legacy","Lentiform Loewenfeld","3.3.3","0","s","NA","s","NA","NA","s","642","NA","11568","NA","NA","642","2","legacy","1024","2","48000","-16","experiment","HHSHH","1","odd","15378","NA","NA","89489","3802","NA","NA","118392","3809","NA","NA","117222","118498","119143","118389","118498","New experiment","50","34847","54","yes","1024"
"92.7272727273","92.7272727273","656.290909091","656.290909091","black","legacy","legacy","legacy","0","congruent","uniform","1","undefined","1","h","0","0","0","54","0","54","0","54","0","0","0","54","54","54","54","54","09/20/20 20:17:42","1500","Flanker Task","yes","flankertasksubmission.osexp","C:/Users/User/Desktop/Quant 2020","no","mono","no","18","no","white","no","yes","768","legacy","54","54","C:/Users/User/Desktop/Quant 2020/VTsubject-1.csv","legacy","Lentiform Loewenfeld","3.3.3","0","h","NA","s","NA","NA","h","1249","NA","11568","NA","NA","1249","2","legacy","1024","2","48000","-16","experiment","HHHHH","1","odd","15378","NA","NA","89489","3802","NA","NA","120297","3809","NA","NA","119157","120403","121654","120294","120402","New experiment","51","36096","55","yes","1024"
"92.8571428571","92.8571428571","671.107142857","671.107142857","black","legacy","legacy","legacy","0","incongruent","uniform","1","undefined","1","h","0","0","0","55","0","55","0","55","0","0","0","55","55","55","55","55","09/20/20 20:17:42","1500","Flanker Task","yes","flankertasksubmission.osexp","C:/Users/User/Desktop/Quant 2020","no","mono","no","18","no","white","no","yes","768","legacy","55","55","C:/Users/User/Desktop/Quant 2020/VTsubject-1.csv","legacy","Lentiform Loewenfeld","3.3.3","0","h","NA","s","NA","NA","h","1486","NA","11568","NA","NA","1486","2","legacy","1024","2","48000","-16","experiment","SSHSS","1","odd","15378","NA","NA","89489","3802","NA","NA","122792","3809","NA","NA","121659","122898","124387","122789","122897","New experiment","52","37582","56","yes","1024"
"92.9824561404","92.9824561404","669.736842105","669.736842105","black","legacy","legacy","legacy","0","incongruent","uniform","1","undefined","1","h","0","0","0","56","0","56","0","56","0","0","0","56","56","56","56","56","09/20/20 20:17:42","1500","Flanker Task","yes","flankertasksubmission.osexp","C:/Users/User/Desktop/Quant 2020","no","mono","no","18","no","white","no","yes","768","legacy","56","56","C:/Users/User/Desktop/Quant 2020/VTsubject-1.csv","legacy","Lentiform Loewenfeld","3.3.3","0","h","NA","s","NA","NA","h","593","NA","11568","NA","NA","593","2","legacy","1024","2","48000","-16","experiment","SSHSS","1","odd","15378","NA","NA","89489","3802","NA","NA","125522","3809","NA","NA","124398","125628","126222","125519","125628","New experiment","53","38175","57","yes","1024"
"93.1034482759","93.1034482759","668.689655172","668.689655172","black","legacy","legacy","legacy","0","congruent","uniform","1","undefined","1","s","0","0","0","57","0","57","0","57","0","0","0","57","57","57","57","57","09/20/20 20:17:42","1500","Flanker Task","yes","flankertasksubmission.osexp","C:/Users/User/Desktop/Quant 2020","no","mono","no","18","no","white","no","yes","768","legacy","57","57","C:/Users/User/Desktop/Quant 2020/VTsubject-1.csv","legacy","Lentiform Loewenfeld","3.3.3","0","s","NA","s","NA","NA","s","609","NA","11568","NA","NA","609","2","legacy","1024","2","48000","-16","experiment","SSSSS","1","odd","15378","NA","NA","89489","3802","NA","NA","127357","3809","NA","NA","126228","127464","128074","127354","127464","New experiment","54","38784","58","yes","1024"
"91.5254237288","91.5254237288","675.220338983","675.220338983","black","legacy","legacy","legacy","0","congruent","uniform","0","undefined","0","s","0","0","0","58","0","58","0","58","0","0","0","58","58","58","58","58","09/20/20 20:17:42","1500","Flanker Task","yes","flankertasksubmission.osexp","C:/Users/User/Desktop/Quant 2020","no","mono","no","18","no","white","no","yes","768","legacy","58","58","C:/Users/User/Desktop/Quant 2020/VTsubject-1.csv","legacy","Lentiform Loewenfeld","3.3.3","0","h","NA","s","NA","NA","h","1054","NA","11568","NA","NA","1054","2","legacy","1024","2","48000","-16","experiment","SSSSS","1","odd","15378","NA","NA","89489","3802","NA","NA","129225","3809","NA","NA","128080","129331","130386","129222","129331","New experiment","54","39838","59","yes","1024"
"91.6666666667","91.6666666667","672.616666667","672.616666667","black","legacy","legacy","legacy","0","congruent","uniform","1","undefined","1","s","0","0","0","59","0","59","0","59","0","0","0","59","59","59","59","59","09/20/20 20:17:42","1500","Flanker Task","yes","flankertasksubmission.osexp","C:/Users/User/Desktop/Quant 2020","no","mono","no","18","no","white","no","yes","768","legacy","59","59","C:/Users/User/Desktop/Quant 2020/VTsubject-1.csv","legacy","Lentiform Loewenfeld","3.3.3","0","s","NA","s","NA","NA","s","519","NA","11568","NA","NA","519","2","legacy","1024","2","48000","-16","experiment","SSSSS","1","odd","15378","NA","NA","130392","3802","NA","NA","132030","3809","NA","NA","130898","132136","132656","132026","132135","New experiment","55","40357","60","yes","1024"
"91.8032786885","91.8032786885","670.213114754","670.213114754","black","legacy","legacy","legacy","0","incongruent","uniform","1","undefined","1","h","0","0","0","60","0","60","0","60","0","0","0","60","60","60","60","60","09/20/20 20:17:42","1500","Flanker Task","yes","flankertasksubmission.osexp","C:/Users/User/Desktop/Quant 2020","no","mono","no","18","no","white","no","yes","768","legacy","60","60","C:/Users/User/Desktop/Quant 2020/VTsubject-1.csv","legacy","Lentiform Loewenfeld","3.3.3","0","h","NA","s","NA","NA","h","526","NA","11568","NA","NA","526","2","legacy","1024","2","48000","-16","experiment","SSHSS","1","odd","15378","NA","NA","130392","3802","NA","NA","133799","3809","NA","NA","132662","133905","134432","133796","133905","New experiment","56","40883","61","yes","1024"
"90.3225806452","90.3225806452","667.161290323","667.161290323","black","legacy","legacy","legacy","0","incongruent","uniform","0","undefined","0","h","0","0","0","61","0","61","0","61","0","0","0","61","61","61","61","61","09/20/20 20:17:42","1500","Flanker Task","yes","flankertasksubmission.osexp","C:/Users/User/Desktop/Quant 2020","no","mono","no","18","no","white","no","yes","768","legacy","61","61","C:/Users/User/Desktop/Quant 2020/VTsubject-1.csv","legacy","Lentiform Loewenfeld","3.3.3","0","s","NA","s","NA","NA","s","481","NA","11568","NA","NA","481","2","legacy","1024","2","48000","-16","experiment","SSHSS","1","odd","15378","NA","NA","130392","3802","NA","NA","135569","3809","NA","NA","134438","135676","136160","135566","135676","New experiment","56","41364","62","yes","1024"
"90.4761904762","90.4761904762","664.761904762","664.761904762","black","legacy","legacy","legacy","0","incongruent","uniform","1","undefined","1","h","0","0","0","62","0","62","0","62","0","0","0","62","62","62","62","62","09/20/20 20:17:42","1500","Flanker Task","yes","flankertasksubmission.osexp","C:/Users/User/Desktop/Quant 2020","no","mono","no","18","no","white","no","yes","768","legacy","62","62","C:/Users/User/Desktop/Quant 2020/VTsubject-1.csv","legacy","Lentiform Loewenfeld","3.3.3","0","h","NA","s","NA","NA","h","516","NA","11568","NA","NA","516","2","legacy","1024","2","48000","-16","experiment","SSHSS","1","odd","15378","NA","NA","136168","3802","NA","NA","137814","3809","NA","NA","136674","137920","138437","137810","137920","New experiment","57","41880","63","yes","1024"
"90.625","90.625","662.515625","662.515625","black","legacy","legacy","legacy","0","congruent","uniform","1","undefined","1","s","0","0","0","63","0","63","0","63","0","0","0","63","63","63","63","63","09/20/20 20:17:42","1500","Flanker Task","yes","flankertasksubmission.osexp","C:/Users/User/Desktop/Quant 2020","no","mono","no","18","no","white","no","yes","768","legacy","63","63","C:/Users/User/Desktop/Quant 2020/VTsubject-1.csv","legacy","Lentiform Loewenfeld","3.3.3","0","s","NA","s","NA","NA","s","521","NA","11568","NA","NA","521","2","legacy","1024","2","48000","-16","experiment","SSSSS","1","odd","15378","NA","NA","136168","3802","NA","NA","139586","3809","NA","NA","138443","139692","140216","139583","139691","New experiment","58","42401","64","yes","1024"
"90.7692307692","90.7692307692","663.553846154","663.553846154","black","legacy","legacy","legacy","0","incongruent","uniform","1","undefined","1","s","0","0","0","64","0","64","0","64","0","0","0","64","64","64","64","64","09/20/20 20:17:42","1500","Flanker Task","yes","flankertasksubmission.osexp","C:/Users/User/Desktop/Quant 2020","no","mono","no","18","no","white","no","yes","768","legacy","64","64","C:/Users/User/Desktop/Quant 2020/VTsubject-1.csv","legacy","Lentiform Loewenfeld","3.3.3","0","s","NA","s","NA","NA","s","730","NA","11568","NA","NA","730","2","legacy","1024","2","48000","-16","experiment","HHSHH","1","odd","15378","NA","NA","136168","3802","NA","NA","141363","3809","NA","NA","140227","141470","142202","141360","141469","New experiment","59","43131","65","yes","1024"
"90.9090909091","90.9090909091","670.015151515","670.015151515","black","legacy","legacy","legacy","0","incongruent","uniform","1","undefined","1","s","0","0","0","65","0","65","0","65","0","0","0","65","65","65","65","65","09/20/20 20:17:42","1500","Flanker Task","yes","flankertasksubmission.osexp","C:/Users/User/Desktop/Quant 2020","no","mono","no","18","no","white","no","yes","768","legacy","65","65","C:/Users/User/Desktop/Quant 2020/VTsubject-1.csv","legacy","Lentiform Loewenfeld","3.3.3","0","s","NA","s","NA","NA","s","1090","NA","11568","NA","NA","1090","2","legacy","1024","2","48000","-16","experiment","HHSHH","1","odd","15378","NA","NA","136168","3802","NA","NA","143340","3809","NA","NA","142207","143446","144538","143337","143445","New experiment","60","44221","66","yes","1024"
"91.0447761194","91.0447761194","671.328358209","671.328358209","black","legacy","legacy","legacy","0","incongruent","uniform","1","undefined","1","s","0","0","0","66","0","66","0","66","0","0","0","66","66","66","66","66","09/20/20 20:17:42","1500","Flanker Task","yes","flankertasksubmission.osexp","C:/Users/User/Desktop/Quant 2020","no","mono","no","18","no","white","no","yes","768","legacy","66","66","C:/Users/User/Desktop/Quant 2020/VTsubject-1.csv","legacy","Lentiform Loewenfeld","3.3.3","0","s","NA","s","NA","NA","s","758","NA","11568","NA","NA","758","2","legacy","1024","2","48000","-16","experiment","HHSHH","1","odd","15378","NA","NA","136168","3802","NA","NA","145711","3809","NA","NA","144543","145817","146576","145708","145816","New experiment","61","44979","67","yes","1024"
"91.1764705882","91.1764705882","667.25","667.25","black","legacy","legacy","legacy","0","incongruent","uniform","1","undefined","1","s","0","0","0","67","0","67","0","67","0","0","0","67","67","67","67","67","09/20/20 20:17:42","1500","Flanker Task","yes","flankertasksubmission.osexp","C:/Users/User/Desktop/Quant 2020","no","mono","no","18","no","white","no","yes","768","legacy","67","67","C:/Users/User/Desktop/Quant 2020/VTsubject-1.csv","legacy","Lentiform Loewenfeld","3.3.3","0","s","NA","s","NA","NA","s","394","NA","11568","NA","NA","394","2","legacy","1024","2","48000","-16","experiment","HHSHH","1","odd","15378","NA","NA","136168","3802","NA","NA","147719","3809","NA","NA","146582","147825","148220","147716","147825","New experiment","62","45373","68","yes","1024"
"91.3043478261","91.3043478261","666.31884058","666.31884058","black","legacy","legacy","legacy","0","congruent","uniform","1","undefined","1","h","0","0","0","68","0","68","0","68","0","0","0","68","68","68","68","68","09/20/20 20:17:42","1500","Flanker Task","yes","flankertasksubmission.osexp","C:/Users/User/Desktop/Quant 2020","no","mono","no","18","no","white","no","yes","768","legacy","68","68","C:/Users/User/Desktop/Quant 2020/VTsubject-1.csv","legacy","Lentiform Loewenfeld","3.3.3","0","h","NA","s","NA","NA","h","603","NA","11568","NA","NA","603","2","legacy","1024","2","48000","-16","experiment","HHHHH","1","odd","15378","NA","NA","136168","3802","NA","NA","149367","3809","NA","NA","148226","149473","150077","149364","149472","New experiment","63","45976","69","yes","1024"
"91.4285714286","91.4285714286","660.528571429","660.528571429","black","legacy","legacy","legacy","0","congruent","uniform","1","undefined","1","s","0","0","0","69","0","69","0","69","0","0","0","69","69","69","69","69","09/20/20 20:17:42","1500","Flanker Task","yes","flankertasksubmission.osexp","C:/Users/User/Desktop/Quant 2020","no","mono","no","18","no","white","no","yes","768","legacy","69","69","C:/Users/User/Desktop/Quant 2020/VTsubject-1.csv","legacy","Lentiform Loewenfeld","3.3.3","0","s","NA","s","NA","NA","s","261","NA","11568","NA","NA","261","2","legacy","1024","2","48000","-16","experiment","SSSSS","1","odd","15378","NA","NA","136168","3802","NA","NA","151226","3809","NA","NA","150083","151332","151594","151223","151331","New experiment","64","46237","70","yes","1024"
"91.5492957746","91.5492957746","661.985915493","661.985915493","black","legacy","legacy","legacy","0","incongruent","uniform","1","undefined","1","h","0","0","0","70","0","70","0","70","0","0","0","70","70","70","70","70","09/20/20 20:17:42","1500","Flanker Task","yes","flankertasksubmission.osexp","C:/Users/User/Desktop/Quant 2020","no","mono","no","18","no","white","no","yes","768","legacy","70","70","C:/Users/User/Desktop/Quant 2020/VTsubject-1.csv","legacy","Lentiform Loewenfeld","3.3.3","0","h","NA","s","NA","NA","h","764","NA","11568","NA","NA","764","2","legacy","1024","2","48000","-16","experiment","SSHSS","1","odd","15378","NA","NA","136168","3802","NA","NA","152731","3809","NA","NA","151599","152837","153602","152728","152836","New experiment","65","47001","71","yes","1024"
"91.6666666667","91.6666666667","658.847222222","658.847222222","black","legacy","legacy","legacy","0","congruent","uniform","1","undefined","1","s","0","0","0","71","0","71","0","71","0","0","0","71","71","71","71","71","09/20/20 20:17:42","1500","Flanker Task","yes","flankertasksubmission.osexp","C:/Users/User/Desktop/Quant 2020","no","mono","no","18","no","white","no","yes","768","legacy","71","71","C:/Users/User/Desktop/Quant 2020/VTsubject-1.csv","legacy","Lentiform Loewenfeld","3.3.3","0","s","NA","s","NA","NA","s","436","NA","11568","NA","NA","436","2","legacy","1024","2","48000","-16","experiment","SSSSS","1","odd","15378","NA","NA","136168","3802","NA","NA","154742","3809","NA","NA","153608","154848","155286","154739","154847","New experiment","66","47437","72","yes","1024"
"91.7808219178","91.7808219178","657.287671233","657.287671233","black","legacy","legacy","legacy","0","congruent","uniform","1","undefined","1","h","0","0","0","72","0","72","0","72","0","0","0","72","72","72","72","72","09/20/20 20:17:42","1500","Flanker Task","yes","flankertasksubmission.osexp","C:/Users/User/Desktop/Quant 2020","no","mono","no","18","no","white","no","yes","768","legacy","72","72","C:/Users/User/Desktop/Quant 2020/VTsubject-1.csv","legacy","Lentiform Loewenfeld","3.3.3","0","h","NA","s","NA","NA","h","545","NA","11568","NA","NA","545","2","legacy","1024","2","48000","-16","experiment","HHHHH","1","odd","15378","NA","NA","136168","3802","NA","NA","156420","3809","NA","NA","155291","156527","157073","156417","156526","New experiment","67","47982","73","yes","1024"
"91.8918918919","91.8918918919","656.243243243","656.243243243","black","legacy","legacy","legacy","0","incongruent","uniform","1","undefined","1","s","0","0","0","73","0","73","0","73","0","0","0","73","73","73","73","73","09/20/20 20:17:42","1500","Flanker Task","yes","flankertasksubmission.osexp","C:/Users/User/Desktop/Quant 2020","no","mono","no","18","no","white","no","yes","768","legacy","73","73","C:/Users/User/Desktop/Quant 2020/VTsubject-1.csv","legacy","Lentiform Loewenfeld","3.3.3","0","s","NA","s","NA","NA","s","580","NA","11568","NA","NA","580","2","legacy","1024","2","48000","-16","experiment","HHSHH","1","odd","15378","NA","NA","136168","3802","NA","NA","158218","3809","NA","NA","157078","158324","158906","158215","158324","New experiment","68","48562","74","yes","1024"
"92","92","654.906666667","654.906666667","black","legacy","legacy","legacy","0","incongruent","uniform","1","undefined","1","h","0","0","0","74","0","74","0","74","0","0","0","74","74","74","74","74","09/20/20 20:17:42","1500","Flanker Task","yes","flankertasksubmission.osexp","C:/Users/User/Desktop/Quant 2020","no","mono","no","18","no","white","no","yes","768","legacy","74","74","C:/Users/User/Desktop/Quant 2020/VTsubject-1.csv","legacy","Lentiform Loewenfeld","3.3.3","0","h","NA","s","NA","NA","h","556","NA","11568","NA","NA","556","2","legacy","1024","2","48000","-16","experiment","SSHSS","1","odd","15378","NA","NA","136168","3802","NA","NA","160049","3809","NA","NA","158911","160155","160713","160046","160154","New experiment","69","49118","75","yes","1024"
"92.1052631579","92.1052631579","654.315789474","654.315789474","black","legacy","legacy","legacy","0","incongruent","uniform","1","undefined","1","s","0","0","0","75","0","75","0","75","0","0","0","75","75","75","75","75","09/20/20 20:17:42","1500","Flanker Task","yes","flankertasksubmission.osexp","C:/Users/User/Desktop/Quant 2020","no","mono","no","18","no","white","no","yes","768","legacy","75","75","C:/Users/User/Desktop/Quant 2020/VTsubject-1.csv","legacy","Lentiform Loewenfeld","3.3.3","0","s","NA","s","NA","NA","s","610","NA","11568","NA","NA","610","2","legacy","1024","2","48000","-16","experiment","HHSHH","1","odd","15378","NA","NA","136168","3802","NA","NA","161870","3809","NA","NA","160718","161976","162589","161867","161976","New experiment","70","49728","76","yes","1024"
"92.2077922078","92.2077922078","651.857142857","651.857142857","black","legacy","legacy","legacy","0","incongruent","uniform","1","undefined","1","h","0","0","0","76","0","76","0","76","0","0","0","76","76","76","76","76","09/20/20 20:17:42","1500","Flanker Task","yes","flankertasksubmission.osexp","C:/Users/User/Desktop/Quant 2020","no","mono","no","18","no","white","no","yes","768","legacy","76","76","C:/Users/User/Desktop/Quant 2020/VTsubject-1.csv","legacy","Lentiform Loewenfeld","3.3.3","0","h","NA","s","NA","NA","h","465","NA","11568","NA","NA","465","2","legacy","1024","2","48000","-16","experiment","SSHSS","1","odd","15378","NA","NA","136168","3802","NA","NA","163736","3809","NA","NA","162597","163842","164309","163733","163841","New experiment","71","50193","77","yes","1024"
"92.3076923077","92.3076923077","650.192307692","650.192307692","black","legacy","legacy","legacy","0","congruent","uniform","1","undefined","1","h","0","0","0","77","0","77","0","77","0","0","0","77","77","77","77","77","09/20/20 20:17:42","1500","Flanker Task","yes","flankertasksubmission.osexp","C:/Users/User/Desktop/Quant 2020","no","mono","no","18","no","white","no","yes","768","legacy","77","77","C:/Users/User/Desktop/Quant 2020/VTsubject-1.csv","legacy","Lentiform Loewenfeld","3.3.3","0","h","NA","s","NA","NA","h","522","NA","11568","NA","NA","522","2","legacy","1024","2","48000","-16","experiment","HHHHH","1","odd","15378","NA","NA","136168","3802","NA","NA","165473","3809","NA","NA","164318","165579","166102","165470","165578","New experiment","72","50715","78","yes","1024"
"92.4050632911","92.4050632911","648.35443038","648.35443038","black","legacy","legacy","legacy","0","incongruent","uniform","1","undefined","1","h","0","0","0","78","0","78","0","78","0","0","0","78","78","78","78","78","09/20/20 20:17:42","1500","Flanker Task","yes","flankertasksubmission.osexp","C:/Users/User/Desktop/Quant 2020","no","mono","no","18","no","white","no","yes","768","legacy","78","78","C:/Users/User/Desktop/Quant 2020/VTsubject-1.csv","legacy","Lentiform Loewenfeld","3.3.3","0","h","NA","s","NA","NA","h","505","NA","11568","NA","NA","505","2","legacy","1024","2","48000","-16","experiment","SSHSS","1","odd","15378","NA","NA","136168","3802","NA","NA","167306","3809","NA","NA","166108","167412","167918","167303","167411","New experiment","73","51220","79","yes","1024"
"92.5","92.5","649.4","649.4","black","legacy","legacy","legacy","0","congruent","uniform","1","undefined","1","h","0","0","0","79","0","79","0","79","0","0","0","79","79","79","79","79","09/20/20 20:17:42","1500","Flanker Task","yes","flankertasksubmission.osexp","C:/Users/User/Desktop/Quant 2020","no","mono","no","18","no","white","no","yes","768","legacy","79","79","C:/Users/User/Desktop/Quant 2020/VTsubject-1.csv","legacy","Lentiform Loewenfeld","3.3.3","0","h","NA","s","NA","NA","h","732","NA","11568","NA","NA","732","2","legacy","1024","2","48000","-16","experiment","HHHHH","1","odd","15378","NA","NA","136168","3802","NA","NA","169051","3809","NA","NA","167924","169157","169891","169048","169156","New experiment","74","51952","80","yes","1024"
"92.5925925926","92.5925925926","652","652","black","legacy","legacy","legacy","0","incongruent","uniform","1","undefined","1","s","0","0","0","80","0","80","0","80","0","0","0","80","80","80","80","80","09/20/20 20:17:42","600","Flanker Task","yes","flankertasksubmission.osexp","C:/Users/User/Desktop/Quant 2020","no","mono","no","18","no","white","no","yes","768","legacy","0","79","C:/Users/User/Desktop/Quant 2020/VTsubject-1.csv","legacy","Lentiform Loewenfeld","3.3.3","0","s","NA","s","s","NA","s","860","NA","11568","17244","NA","860","2","legacy","1024","2","48000","-16","experiment","HHSHH","1","odd","15378","188183","NA","136168","3802","NA","NA","188285","3809","170937","NA","169896","188391","189252","188282","188390","New experiment","75","52812","81","yes","1024"
"92.6829268293","92.6829268293","649.743902439","649.743902439","black","legacy","legacy","legacy","0","congruent","uniform","1","undefined","1","s","0","0","0","81","0","81","0","81","0","0","0","81","81","81","81","81","09/20/20 20:17:42","600","Flanker Task","yes","flankertasksubmission.osexp","C:/Users/User/Desktop/Quant 2020","no","mono","no","18","no","white","no","yes","768","legacy","1","79","C:/Users/User/Desktop/Quant 2020/VTsubject-1.csv","legacy","Lentiform Loewenfeld","3.3.3","0","s","NA","s","s","NA","s","467","NA","11568","17244","NA","467","2","legacy","1024","2","48000","-16","experiment","SSSSS","1","odd","15378","188183","NA","136168","3802","189258","NA","190893","3809","170937","NA","189764","190999","191468","190890","190998","New experiment","76","53279","82","yes","1024"
"91.5662650602","91.5662650602","659.987951807","659.987951807","black","legacy","legacy","legacy","0","congruent","uniform","0","undefined","0","h","0","0","0","82","0","82","0","82","0","0","0","82","82","82","82","82","09/20/20 20:17:42","600","Flanker Task","yes","flankertasksubmission.osexp","C:/Users/User/Desktop/Quant 2020","no","mono","no","18","no","white","no","yes","768","legacy","2","79","C:/Users/User/Desktop/Quant 2020/VTsubject-1.csv","legacy","Lentiform Loewenfeld","3.3.3","0","None","NA","s","s","NA","None","1500","NA","11568","17244","NA","1500","2","legacy","1024","2","48000","-16","experiment","HHHHH","1","odd","15378","188183","NA","136168","3802","189258","NA","192606","3809","170937","NA","191473","192712","194213","192603","192712","New experiment","76","54779","83","yes","1024"
"91.6666666667","91.6666666667","659.726190476","659.726190476","black","legacy","legacy","legacy","0","incongruent","uniform","1","undefined","1","s","0","0","0","83","0","83","0","83","0","0","0","83","83","83","83","83","09/20/20 20:17:42","600","Flanker Task","yes","flankertasksubmission.osexp","C:/Users/User/Desktop/Quant 2020","no","mono","no","18","no","white","no","yes","768","legacy","3","79","C:/Users/User/Desktop/Quant 2020/VTsubject-1.csv","legacy","Lentiform Loewenfeld","3.3.3","0","s","NA","s","s","NA","s","638","NA","11568","17244","NA","638","2","legacy","1024","2","48000","-16","experiment","HHSHH","1","odd","15378","188183","NA","194218","3802","194724","NA","196377","3809","170937","NA","195231","196483","197123","196373","196482","New experiment","77","55417","84","yes","1024"
"91.7647058824","91.7647058824","659.917647059","659.917647059","black","legacy","legacy","legacy","0","congruent","uniform","1","undefined","1","h","0","0","0","84","0","84","0","84","0","0","0","84","84","84","84","84","09/20/20 20:17:42","600","Flanker Task","yes","flankertasksubmission.osexp","C:/Users/User/Desktop/Quant 2020","no","mono","no","18","no","white","no","yes","768","legacy","4","79","C:/Users/User/Desktop/Quant 2020/VTsubject-1.csv","legacy","Lentiform Loewenfeld","3.3.3","0","h","NA","s","s","NA","h","676","NA","11568","17244","NA","676","2","legacy","1024","2","48000","-16","experiment","HHHHH","1","odd","15378","188183","NA","194218","3802","197128","NA","198759","3809","170937","NA","197633","198866","199544","198756","198866","New experiment","78","56093","85","yes","1024"
"91.8604651163","91.8604651163","657.709302326","657.709302326","black","legacy","legacy","legacy","0","incongruent","uniform","1","undefined","1","s","0","0","0","85","0","85","0","85","0","0","0","85","85","85","85","85","09/20/20 20:17:42","600","Flanker Task","yes","flankertasksubmission.osexp","C:/Users/User/Desktop/Quant 2020","no","mono","no","18","no","white","no","yes","768","legacy","5","79","C:/Users/User/Desktop/Quant 2020/VTsubject-1.csv","legacy","Lentiform Loewenfeld","3.3.3","0","s","NA","s","s","NA","s","470","NA","11568","17244","NA","470","2","legacy","1024","2","48000","-16","experiment","HHSHH","1","odd","15378","188183","NA","194218","3802","199549","NA","201182","3809","170937","NA","200055","201288","201760","201179","201288","New experiment","79","56563","86","yes","1024"
"91.9540229885","91.9540229885","655.32183908","655.32183908","black","legacy","legacy","legacy","0","incongruent","uniform","1","undefined","1","h","0","0","0","86","0","86","0","86","0","0","0","86","86","86","86","86","09/20/20 20:17:42","600","Flanker Task","yes","flankertasksubmission.osexp","C:/Users/User/Desktop/Quant 2020","no","mono","no","18","no","white","no","yes","768","legacy","6","79","C:/Users/User/Desktop/Quant 2020/VTsubject-1.csv","legacy","Lentiform Loewenfeld","3.3.3","0","h","NA","s","s","NA","h","450","NA","11568","17244","NA","450","2","legacy","1024","2","48000","-16","experiment","SSHSS","1","odd","15378","188183","NA","194218","3802","199549","NA","202892","3809","170937","NA","201765","202999","203451","202889","202998","New experiment","80","57013","87","yes","1024"
"92.0454545455","92.0454545455","651.556818182","651.556818182","black","legacy","legacy","legacy","0","congruent","uniform","1","undefined","1","s","0","0","0","87","0","87","0","87","0","0","0","87","87","87","87","87","09/20/20 20:17:42","600","Flanker Task","yes","flankertasksubmission.osexp","C:/Users/User/Desktop/Quant 2020","no","mono","no","18","no","white","no","yes","768","legacy","7","79","C:/Users/User/Desktop/Quant 2020/VTsubject-1.csv","legacy","Lentiform Loewenfeld","3.3.3","0","s","NA","s","s","NA","s","324","NA","11568","17244","NA","324","2","legacy","1024","2","48000","-16","experiment","SSSSS","1","odd","15378","188183","NA","194218","3802","199549","NA","204597","3809","170937","NA","203456","204703","205031","204593","204702","New experiment","81","57337","88","yes","1024"
"92.1348314607","92.1348314607","648.191011236","648.191011236","black","legacy","legacy","legacy","0","congruent","uniform","1","undefined","1","h","0","0","0","88","0","88","0","88","0","0","0","88","88","88","88","88","09/20/20 20:17:42","600","Flanker Task","yes","flankertasksubmission.osexp","C:/Users/User/Desktop/Quant 2020","no","mono","no","18","no","white","no","yes","768","legacy","8","79","C:/Users/User/Desktop/Quant 2020/VTsubject-1.csv","legacy","Lentiform Loewenfeld","3.3.3","0","h","NA","s","s","NA","h","352","NA","11568","17244","NA","352","2","legacy","1024","2","48000","-16","experiment","HHHHH","1","odd","15378","188183","NA","194218","3802","199549","NA","206207","3809","170937","NA","205042","206313","206666","206204","206312","New experiment","82","57689","89","yes","1024"
"92.2222222222","92.2222222222","646.277777778","646.277777778","black","legacy","legacy","legacy","0","incongruent","uniform","1","undefined","1","s","0","0","0","89","0","89","0","89","0","0","0","89","89","89","89","89","09/20/20 20:17:42","600","Flanker Task","yes","flankertasksubmission.osexp","C:/Users/User/Desktop/Quant 2020","no","mono","no","18","no","white","no","yes","768","legacy","9","79","C:/Users/User/Desktop/Quant 2020/VTsubject-1.csv","legacy","Lentiform Loewenfeld","3.3.3","0","s","NA","s","s","NA","s","476","NA","11568","17244","NA","476","2","legacy","1024","2","48000","-16","experiment","HHSHH","1","odd","15378","188183","NA","194218","3802","199549","NA","207828","3809","170937","NA","206672","207935","208413","207825","207935","New experiment","83","58165","90","yes","1024"
"92.3076923077","92.3076923077","642.967032967","642.967032967","black","legacy","legacy","legacy","0","incongruent","uniform","1","undefined","1","h","0","0","0","90","0","90","0","90","0","0","0","90","90","90","90","90","09/20/20 20:17:42","600","Flanker Task","yes","flankertasksubmission.osexp","C:/Users/User/Desktop/Quant 2020","no","mono","no","18","no","white","no","yes","768","legacy","10","79","C:/Users/User/Desktop/Quant 2020/VTsubject-1.csv","legacy","Lentiform Loewenfeld","3.3.3","0","h","NA","s","s","NA","h","345","NA","11568","17244","NA","345","2","legacy","1024","2","48000","-16","experiment","SSHSS","1","odd","15378","188183","NA","194218","3802","199549","NA","209550","3809","170937","NA","208418","209656","210005","209547","209656","New experiment","84","58510","91","yes","1024"
"92.3913043478","92.3913043478","642.739130435","642.739130435","black","legacy","legacy","legacy","0","incongruent","uniform","1","undefined","1","h","0","0","0","91","0","91","0","91","0","0","0","91","91","91","91","91","09/20/20 20:17:42","600","Flanker Task","yes","flankertasksubmission.osexp","C:/Users/User/Desktop/Quant 2020","no","mono","no","18","no","white","no","yes","768","legacy","11","79","C:/Users/User/Desktop/Quant 2020/VTsubject-1.csv","legacy","Lentiform Loewenfeld","3.3.3","0","h","NA","s","s","NA","h","622","NA","11568","17244","NA","622","2","legacy","1024","2","48000","-16","experiment","SSHSS","1","odd","15378","188183","NA","194218","3802","199549","NA","211143","3809","170937","NA","210015","211249","211873","211140","211248","New experiment","85","59132","92","yes","1024"
"92.4731182796","92.4731182796","641.602150538","641.602150538","black","legacy","legacy","legacy","0","incongruent","uniform","1","undefined","1","s","0","0","0","92","0","92","0","92","0","0","0","92","92","92","92","92","09/20/20 20:17:42","600","Flanker Task","yes","flankertasksubmission.osexp","C:/Users/User/Desktop/Quant 2020","no","mono","no","18","no","white","no","yes","768","legacy","12","79","C:/Users/User/Desktop/Quant 2020/VTsubject-1.csv","legacy","Lentiform Loewenfeld","3.3.3","0","s","NA","s","s","NA","s","537","NA","11568","17244","NA","537","2","legacy","1024","2","48000","-16","experiment","HHSHH","1","odd","15378","188183","NA","194218","3802","211878","NA","213523","3809","170937","NA","212383","213629","214169","213517","213629","New experiment","86","59669","93","yes","1024"
"92.5531914894","92.5531914894","640.085106383","640.085106383","black","legacy","legacy","legacy","0","congruent","uniform","1","undefined","1","s","0","0","0","93","0","93","0","93","0","0","0","93","93","93","93","93","09/20/20 20:17:42","600","Flanker Task","yes","flankertasksubmission.osexp","C:/Users/User/Desktop/Quant 2020","no","mono","no","18","no","white","no","yes","768","legacy","13","79","C:/Users/User/Desktop/Quant 2020/VTsubject-1.csv","legacy","Lentiform Loewenfeld","3.3.3","0","s","NA","s","s","NA","s","499","NA","11568","17244","NA","499","2","legacy","1024","2","48000","-16","experiment","SSSSS","1","odd","15378","188183","NA","194218","3802","211878","NA","215332","3809","170937","NA","214174","215438","215939","215329","215437","New experiment","87","60168","94","yes","1024"
"92.6315789474","92.6315789474","638.4","638.4","black","legacy","legacy","legacy","0","congruent","uniform","1","undefined","1","s","0","0","0","94","0","94","0","94","0","0","0","94","94","94","94","94","09/20/20 20:17:42","600","Flanker Task","yes","flankertasksubmission.osexp","C:/Users/User/Desktop/Quant 2020","no","mono","no","18","no","white","no","yes","768","legacy","14","79","C:/Users/User/Desktop/Quant 2020/VTsubject-1.csv","legacy","Lentiform Loewenfeld","3.3.3","0","s","NA","s","s","NA","s","480","NA","11568","17244","NA","480","2","legacy","1024","2","48000","-16","experiment","SSSSS","1","odd","15378","188183","NA","194218","3802","211878","NA","217081","3809","170937","NA","215945","217187","217669","217078","217186","New experiment","88","60648","95","yes","1024"
"92.7083333333","92.7083333333","636.625","636.625","black","legacy","legacy","legacy","0","congruent","uniform","1","undefined","1","h","0","0","0","95","0","95","0","95","0","0","0","95","95","95","95","95","09/20/20 20:17:42","600","Flanker Task","yes","flankertasksubmission.osexp","C:/Users/User/Desktop/Quant 2020","no","mono","no","18","no","white","no","yes","768","legacy","15","79","C:/Users/User/Desktop/Quant 2020/VTsubject-1.csv","legacy","Lentiform Loewenfeld","3.3.3","0","h","NA","s","s","NA","h","468","NA","11568","17244","NA","468","2","legacy","1024","2","48000","-16","experiment","HHHHH","1","odd","15378","188183","NA","194218","3802","211878","NA","218817","3809","170937","NA","217674","218923","219393","218813","218923","New experiment","89","61116","96","yes","1024"
"92.7835051546","92.7835051546","635.18556701","635.18556701","black","legacy","legacy","legacy","0","incongruent","uniform","1","undefined","1","s","0","0","0","96","0","96","0","96","0","0","0","96","96","96","96","96","09/20/20 20:17:42","600","Flanker Task","yes","flankertasksubmission.osexp","C:/Users/User/Desktop/Quant 2020","no","mono","no","18","no","white","no","yes","768","legacy","16","79","C:/Users/User/Desktop/Quant 2020/VTsubject-1.csv","legacy","Lentiform Loewenfeld","3.3.3","0","s","NA","s","s","NA","s","497","NA","11568","17244","NA","497","2","legacy","1024","2","48000","-16","experiment","HHSHH","1","odd","15378","188183","NA","194218","3802","211878","NA","220530","3809","170937","NA","219400","220636","221135","220527","220635","New experiment","90","61613","97","yes","1024"
"92.8571428571","92.8571428571","633.551020408","633.551020408","black","legacy","legacy","legacy","0","incongruent","uniform","1","undefined","1","s","0","0","0","97","0","97","0","97","0","0","0","97","97","97","97","97","09/20/20 20:17:42","600","Flanker Task","yes","flankertasksubmission.osexp","C:/Users/User/Desktop/Quant 2020","no","mono","no","18","no","white","no","yes","768","legacy","17","79","C:/Users/User/Desktop/Quant 2020/VTsubject-1.csv","legacy","Lentiform Loewenfeld","3.3.3","0","s","NA","s","s","NA","s","475","NA","11568","17244","NA","475","2","legacy","1024","2","48000","-16","experiment","HHSHH","1","odd","15378","188183","NA","194218","3802","211878","NA","222270","3809","170937","NA","221140","222376","222853","222267","222375","New experiment","91","62088","98","yes","1024"
"92.9292929293","92.9292929293","632.858585859","632.858585859","black","legacy","legacy","legacy","0","incongruent","uniform","1","undefined","1","s","0","0","0","98","0","98","0","98","0","0","0","98","98","98","98","98","09/20/20 20:17:42","600","Flanker Task","yes","flankertasksubmission.osexp","C:/Users/User/Desktop/Quant 2020","no","mono","no","18","no","white","no","yes","768","legacy","18","79","C:/Users/User/Desktop/Quant 2020/VTsubject-1.csv","legacy","Lentiform Loewenfeld","3.3.3","0","s","NA","s","s","NA","s","565","NA","11568","17244","NA","565","2","legacy","1024","2","48000","-16","experiment","HHSHH","1","odd","15378","188183","NA","194218","3802","211878","NA","223989","3809","170937","NA","222858","224095","224662","223986","224095","New experiment","92","62653","99","yes","1024"
"93","93","631.2","631.2","black","legacy","legacy","legacy","0","incongruent","uniform","1","undefined","1","s","0","0","0","99","0","99","0","99","0","0","0","99","99","99","99","99","09/20/20 20:17:42","600","Flanker Task","yes","flankertasksubmission.osexp","C:/Users/User/Desktop/Quant 2020","no","mono","no","18","no","white","no","yes","768","legacy","19","79","C:/Users/User/Desktop/Quant 2020/VTsubject-1.csv","legacy","Lentiform Loewenfeld","3.3.3","0","s","NA","s","s","NA","s","467","NA","11568","17244","NA","467","2","legacy","1024","2","48000","-16","experiment","HHSHH","1","odd","15378","188183","NA","194218","3802","211878","NA","225846","3809","170937","NA","224667","225952","226420","225843","225952","New experiment","93","63120","100","yes","1024"
"93.0693069307","93.0693069307","631.445544554","631.445544554","black","legacy","legacy","legacy","0","congruent","uniform","1","undefined","1","h","0","0","0","100","0","100","0","100","0","0","0","100","100","100","100","100","09/20/20 20:17:42","600","Flanker Task","yes","flankertasksubmission.osexp","C:/Users/User/Desktop/Quant 2020","no","mono","no","18","no","white","no","yes","768","legacy","20","79","C:/Users/User/Desktop/Quant 2020/VTsubject-1.csv","legacy","Lentiform Loewenfeld","3.3.3","0","h","NA","s","s","NA","h","656","NA","11568","17244","NA","656","2","legacy","1024","2","48000","-16","experiment","HHHHH","1","odd","15378","188183","NA","194218","3802","211878","NA","227554","3809","170937","NA","226426","227660","228317","227551","227660","New experiment","94","63776","101","yes","1024"
"93.137254902","93.137254902","630.558823529","630.558823529","black","legacy","legacy","legacy","0","congruent","uniform","1","undefined","1","s","0","0","0","101","0","101","0","101","0","0","0","101","101","101","101","101","09/20/20 20:17:42","600","Flanker Task","yes","flankertasksubmission.osexp","C:/Users/User/Desktop/Quant 2020","no","mono","no","18","no","white","no","yes","768","legacy","21","79","C:/Users/User/Desktop/Quant 2020/VTsubject-1.csv","legacy","Lentiform Loewenfeld","3.3.3","0","s","NA","s","s","NA","s","541","NA","11568","17244","NA","541","2","legacy","1024","2","48000","-16","experiment","SSSSS","1","odd","15378","188183","NA","194218","3802","228323","NA","229953","3809","170937","NA","228829","230059","230602","229950","230059","New experiment","95","64317","102","yes","1024"
"93.2038834951","93.2038834951","627.436893204","627.436893204","black","legacy","legacy","legacy","0","congruent","uniform","1","undefined","1","h","0","0","0","102","0","102","0","102","0","0","0","102","102","102","102","102","09/20/20 20:17:42","600","Flanker Task","yes","flankertasksubmission.osexp","C:/Users/User/Desktop/Quant 2020","no","mono","no","18","no","white","no","yes","768","legacy","22","79","C:/Users/User/Desktop/Quant 2020/VTsubject-1.csv","legacy","Lentiform Loewenfeld","3.3.3","0","h","NA","s","s","NA","h","309","NA","11568","17244","NA","309","2","legacy","1024","2","48000","-16","experiment","HHHHH","1","odd","15378","188183","NA","194218","3802","228323","NA","231748","3809","170937","NA","230607","231854","232165","231745","231854","New experiment","96","64626","103","yes","1024"
"92.3076923077","92.3076923077","624.298076923","624.298076923","black","legacy","legacy","legacy","0","congruent","uniform","0","undefined","0","h","0","0","0","103","0","103","0","103","0","0","0","103","103","103","103","103","09/20/20 20:17:42","600","Flanker Task","yes","flankertasksubmission.osexp","C:/Users/User/Desktop/Quant 2020","no","mono","no","18","no","white","no","yes","768","legacy","23","79","C:/Users/User/Desktop/Quant 2020/VTsubject-1.csv","legacy","Lentiform Loewenfeld","3.3.3","0","s","NA","s","s","NA","s","301","NA","11568","17244","NA","301","2","legacy","1024","2","48000","-16","experiment","HHHHH","1","odd","15378","188183","NA","194218","3802","228323","NA","233328","3809","170937","NA","232170","233434","233737","233325","233434","New experiment","96","64927","104","yes","1024"
"92.380952381","92.380952381","622.228571429","622.228571429","black","legacy","legacy","legacy","0","congruent","uniform","1","undefined","1","s","0","0","0","104","0","104","0","104","0","0","0","104","104","104","104","104","09/20/20 20:17:42","600","Flanker Task","yes","flankertasksubmission.osexp","C:/Users/User/Desktop/Quant 2020","no","mono","no","18","no","white","no","yes","768","legacy","24","79","C:/Users/User/Desktop/Quant 2020/VTsubject-1.csv","legacy","Lentiform Loewenfeld","3.3.3","0","s","NA","s","s","NA","s","407","NA","11568","17244","NA","407","2","legacy","1024","2","48000","-16","experiment","SSSSS","1","odd","15378","188183","NA","233742","3802","228323","NA","235381","3809","170937","NA","234249","235488","235898","235378","235487","New experiment","97","65334","105","yes","1024"
"92.4528301887","92.4528301887","621.122641509","621.122641509","black","legacy","legacy","legacy","0","congruent","uniform","1","undefined","1","h","0","0","0","105","0","105","0","105","0","0","0","105","105","105","105","105","09/20/20 20:17:42","600","Flanker Task","yes","flankertasksubmission.osexp","C:/Users/User/Desktop/Quant 2020","no","mono","no","18","no","white","no","yes","768","legacy","25","79","C:/Users/User/Desktop/Quant 2020/VTsubject-1.csv","legacy","Lentiform Loewenfeld","3.3.3","0","h","NA","s","s","NA","h","505","NA","11568","17244","NA","505","2","legacy","1024","2","48000","-16","experiment","HHHHH","1","odd","15378","188183","NA","233742","3802","228323","NA","237032","3809","170937","NA","235903","237138","237647","237029","237138","New experiment","98","65839","106","yes","1024"
"91.5887850467","91.5887850467","619.345794393","619.345794393","black","legacy","legacy","legacy","0","incongruent","uniform","0","undefined","0","h","0","0","0","106","0","106","0","106","0","0","0","106","106","106","106","106","09/20/20 20:17:42","600","Flanker Task","yes","flankertasksubmission.osexp","C:/Users/User/Desktop/Quant 2020","no","mono","no","18","no","white","no","yes","768","legacy","26","79","C:/Users/User/Desktop/Quant 2020/VTsubject-1.csv","legacy","Lentiform Loewenfeld","3.3.3","0","s","NA","s","s","NA","s","431","NA","11568","17244","NA","431","2","legacy","1024","2","48000","-16","experiment","SSHSS","1","odd","15378","188183","NA","233742","3802","228323","NA","238815","3809","170937","NA","237656","238921","239354","238812","238920","New experiment","98","66270","107","yes","1024"
"91.6666666667","91.6666666667","618.435185185","618.435185185","black","legacy","legacy","legacy","0","congruent","uniform","1","undefined","1","h","0","0","0","107","0","107","0","107","0","0","0","107","107","107","107","107","09/20/20 20:17:42","600","Flanker Task","yes","flankertasksubmission.osexp","C:/Users/User/Desktop/Quant 2020","no","mono","no","18","no","white","no","yes","768","legacy","27","79","C:/Users/User/Desktop/Quant 2020/VTsubject-1.csv","legacy","Lentiform Loewenfeld","3.3.3","0","h","NA","s","s","NA","h","521","NA","11568","17244","NA","521","2","legacy","1024","2","48000","-16","experiment","HHHHH","1","odd","15378","188183","NA","239359","3802","228323","NA","240991","3809","170937","NA","239865","241098","241621","240988","241097","New experiment","99","66791","108","yes","1024"
"91.7431192661","91.7431192661","616.495412844","616.495412844","black","legacy","legacy","legacy","0","incongruent","uniform","1","undefined","1","s","0","0","0","108","0","108","0","108","0","0","0","108","108","108","108","108","09/20/20 20:17:42","600","Flanker Task","yes","flankertasksubmission.osexp","C:/Users/User/Desktop/Quant 2020","no","mono","no","18","no","white","no","yes","768","legacy","28","79","C:/Users/User/Desktop/Quant 2020/VTsubject-1.csv","legacy","Lentiform Loewenfeld","3.3.3","0","s","NA","s","s","NA","s","407","NA","11568","17244","NA","407","2","legacy","1024","2","48000","-16","experiment","HHSHH","1","odd","15378","188183","NA","239359","3802","228323","NA","242765","3809","170937","NA","241626","242871","243280","242761","242870","New experiment","100","67198","109","yes","1024"
"91.8181818182","91.8181818182","615.163636364","615.163636364","black","legacy","legacy","legacy","0","congruent","uniform","1","undefined","1","s","0","0","0","109","0","109","0","109","0","0","0","109","109","109","109","109","09/20/20 20:17:42","600","Flanker Task","yes","flankertasksubmission.osexp","C:/Users/User/Desktop/Quant 2020","no","mono","no","18","no","white","no","yes","768","legacy","29","79","C:/Users/User/Desktop/Quant 2020/VTsubject-1.csv","legacy","Lentiform Loewenfeld","3.3.3","0","s","NA","s","s","NA","s","470","NA","11568","17244","NA","470","2","legacy","1024","2","48000","-16","experiment","SSSSS","1","odd","15378","188183","NA","239359","3802","228323","NA","244414","3809","170937","NA","243286","244520","244995","244411","244519","New experiment","101","67668","110","yes","1024"
"91.8918918919","91.8918918919","614.117117117","614.117117117","black","legacy","legacy","legacy","0","congruent","uniform","1","undefined","1","s","0","0","0","110","0","110","0","110","0","0","0","110","110","110","110","110","09/20/20 20:17:42","600","Flanker Task","yes","flankertasksubmission.osexp","C:/Users/User/Desktop/Quant 2020","no","mono","no","18","no","white","no","yes","768","legacy","30","79","C:/Users/User/Desktop/Quant 2020/VTsubject-1.csv","legacy","Lentiform Loewenfeld","3.3.3","0","s","NA","s","s","NA","s","499","NA","11568","17244","NA","499","2","legacy","1024","2","48000","-16","experiment","SSSSS","1","odd","15378","188183","NA","239359","3802","228323","NA","246149","3809","170937","NA","245005","246255","246756","246145","246254","New experiment","102","68167","111","yes","1024"
"91.9642857143","91.9642857143","612.830357143","612.830357143","black","legacy","legacy","legacy","0","incongruent","uniform","1","undefined","1","s","0","0","0","111","0","111","0","111","0","0","0","111","111","111","111","111","09/20/20 20:17:42","600","Flanker Task","yes","flankertasksubmission.osexp","C:/Users/User/Desktop/Quant 2020","no","mono","no","18","no","white","no","yes","768","legacy","31","79","C:/Users/User/Desktop/Quant 2020/VTsubject-1.csv","legacy","Lentiform Loewenfeld","3.3.3","0","s","NA","s","s","NA","s","470","NA","11568","17244","NA","470","2","legacy","1024","2","48000","-16","experiment","HHSHH","1","odd","15378","188183","NA","239359","3802","228323","NA","247892","3809","170937","NA","246762","247998","248471","247889","247997","New experiment","103","68637","112","yes","1024"
"92.0353982301","92.0353982301","611.796460177","611.796460177","black","legacy","legacy","legacy","0","congruent","uniform","1","undefined","1","h","0","0","0","112","0","112","0","112","0","0","0","112","112","112","112","112","09/20/20 20:17:42","600","Flanker Task","yes","flankertasksubmission.osexp","C:/Users/User/Desktop/Quant 2020","no","mono","no","18","no","white","no","yes","768","legacy","32","79","C:/Users/User/Desktop/Quant 2020/VTsubject-1.csv","legacy","Lentiform Loewenfeld","3.3.3","0","h","NA","s","s","NA","h","496","NA","11568","17244","NA","496","2","legacy","1024","2","48000","-16","experiment","HHHHH","1","odd","15378","188183","NA","239359","3802","228323","NA","249604","3809","170937","NA","248477","249710","250211","249601","249710","New experiment","104","69133","113","yes","1024"
"92.1052631579","92.1052631579","610.912280702","610.912280702","black","legacy","legacy","legacy","0","incongruent","uniform","1","undefined","1","s","0","0","0","113","0","113","0","113","0","0","0","113","113","113","113","113","09/20/20 20:17:42","600","Flanker Task","yes","flankertasksubmission.osexp","C:/Users/User/Desktop/Quant 2020","no","mono","no","18","no","white","no","yes","768","legacy","33","79","C:/Users/User/Desktop/Quant 2020/VTsubject-1.csv","legacy","Lentiform Loewenfeld","3.3.3","0","s","NA","s","s","NA","s","511","NA","11568","17244","NA","511","2","legacy","1024","2","48000","-16","experiment","HHSHH","1","odd","15378","188183","NA","239359","3802","228323","NA","251364","3809","170937","NA","250222","251470","251983","251361","251470","New experiment","105","69644","114","yes","1024"
"92.1739130435","92.1739130435","610.417391304","610.417391304","black","legacy","legacy","legacy","0","incongruent","uniform","1","undefined","1","h","0","0","0","114","0","114","0","114","0","0","0","114","114","114","114","114","09/20/20 20:17:42","600","Flanker Task","yes","flankertasksubmission.osexp","C:/Users/User/Desktop/Quant 2020","no","mono","no","18","no","white","no","yes","768","legacy","34","79","C:/Users/User/Desktop/Quant 2020/VTsubject-1.csv","legacy","Lentiform Loewenfeld","3.3.3","0","h","NA","s","s","NA","h","554","NA","11568","17244","NA","554","2","legacy","1024","2","48000","-16","experiment","SSHSS","1","odd","15378","188183","NA","239359","3802","228323","NA","253114","3809","170937","NA","251988","253221","253777","253111","253220","New experiment","106","70198","115","yes","1024"
"92.2413793103","92.2413793103","609.094827586","609.094827586","black","legacy","legacy","legacy","0","congruent","uniform","1","undefined","1","s","0","0","0","115","0","115","0","115","0","0","0","115","115","115","115","115","09/20/20 20:17:42","600","Flanker Task","yes","flankertasksubmission.osexp","C:/Users/User/Desktop/Quant 2020","no","mono","no","18","no","white","no","yes","768","legacy","35","79","C:/Users/User/Desktop/Quant 2020/VTsubject-1.csv","legacy","Lentiform Loewenfeld","3.3.3","0","s","NA","s","s","NA","s","457","NA","11568","17244","NA","457","2","legacy","1024","2","48000","-16","experiment","SSSSS","1","odd","15378","188183","NA","239359","3802","228323","NA","254910","3809","170937","NA","253782","255017","255479","254907","255016","New experiment","107","70655","116","yes","1024"
"92.3076923077","92.3076923077","614.230769231","614.230769231","black","legacy","legacy","legacy","0","incongruent","uniform","1","undefined","1","s","0","0","0","116","0","116","0","116","0","0","0","116","116","116","116","116","09/20/20 20:17:42","600","Flanker Task","yes","flankertasksubmission.osexp","C:/Users/User/Desktop/Quant 2020","no","mono","no","18","no","white","no","yes","768","legacy","36","79","C:/Users/User/Desktop/Quant 2020/VTsubject-1.csv","legacy","Lentiform Loewenfeld","3.3.3","0","s","NA","s","s","NA","s","1210","NA","11568","17244","NA","1210","2","legacy","1024","2","48000","-16","experiment","HHSHH","1","odd","15378","188183","NA","239359","3802","228323","NA","256624","3809","170937","NA","255490","256730","257942","256621","256730","New experiment","108","71865","117","yes","1024"
"92.3728813559","92.3728813559","613.93220339","613.93220339","black","legacy","legacy","legacy","0","incongruent","uniform","1","undefined","1","h","0","0","0","117","0","117","0","117","0","0","0","117","117","117","117","117","09/20/20 20:17:42","600","Flanker Task","yes","flankertasksubmission.osexp","C:/Users/User/Desktop/Quant 2020","no","mono","no","18","no","white","no","yes","768","legacy","37","79","C:/Users/User/Desktop/Quant 2020/VTsubject-1.csv","legacy","Lentiform Loewenfeld","3.3.3","0","h","NA","s","s","NA","h","579","NA","11568","17244","NA","579","2","legacy","1024","2","48000","-16","experiment","SSHSS","1","odd","15378","188183","NA","239359","3802","257947","NA","259588","3809","170937","NA","258453","259694","260275","259585","259693","New experiment","109","72444","118","yes","1024"
"92.4369747899","92.4369747899","613.201680672","613.201680672","black","legacy","legacy","legacy","0","congruent","uniform","1","undefined","1","s","0","0","0","118","0","118","0","118","0","0","0","118","118","118","118","118","09/20/20 20:17:42","600","Flanker Task","yes","flankertasksubmission.osexp","C:/Users/User/Desktop/Quant 2020","no","mono","no","18","no","white","no","yes","768","legacy","38","79","C:/Users/User/Desktop/Quant 2020/VTsubject-1.csv","legacy","Lentiform Loewenfeld","3.3.3","0","s","NA","s","s","NA","s","527","NA","11568","17244","NA","527","2","legacy","1024","2","48000","-16","experiment","SSSSS","1","odd","15378","188183","NA","239359","3802","257947","NA","261438","3809","170937","NA","260280","261544","262073","261435","261544","New experiment","110","72971","119","yes","1024"
"92.5","92.5","612.425","612.425","black","legacy","legacy","legacy","0","congruent","uniform","1","undefined","1","h","0","0","0","119","0","119","0","119","0","0","0","119","119","119","119","119","09/20/20 20:17:42","600","Flanker Task","yes","flankertasksubmission.osexp","C:/Users/User/Desktop/Quant 2020","no","mono","no","18","no","white","no","yes","768","legacy","39","79","C:/Users/User/Desktop/Quant 2020/VTsubject-1.csv","legacy","Lentiform Loewenfeld","3.3.3","0","h","NA","s","s","NA","h","520","NA","11568","17244","NA","520","2","legacy","1024","2","48000","-16","experiment","HHHHH","1","odd","15378","188183","NA","239359","3802","257947","NA","263216","3809","170937","NA","262078","263322","263844","263213","263322","New experiment","111","73491","120","yes","1024"
"92.5619834711","92.5619834711","613.958677686","613.958677686","black","legacy","legacy","legacy","0","incongruent","uniform","1","undefined","1","h","0","0","0","120","0","120","0","120","0","0","0","120","120","120","120","120","09/20/20 20:17:42","600","Flanker Task","yes","flankertasksubmission.osexp","C:/Users/User/Desktop/Quant 2020","no","mono","no","18","no","white","no","yes","768","legacy","40","79","C:/Users/User/Desktop/Quant 2020/VTsubject-1.csv","legacy","Lentiform Loewenfeld","3.3.3","0","h","NA","s","s","NA","h","798","NA","11568","17244","NA","798","2","legacy","1024","2","48000","-16","experiment","SSHSS","1","odd","15378","188183","NA","239359","3802","257947","NA","264990","3809","170937","NA","263849","265096","265899","264987","265095","New experiment","112","74289","121","yes","1024"
"92.6229508197","92.6229508197","616.37704918","616.37704918","black","legacy","legacy","legacy","0","incongruent","uniform","1","undefined","1","s","0","0","0","121","0","121","0","121","0","0","0","121","121","121","121","121","09/20/20 20:17:42","600","Flanker Task","yes","flankertasksubmission.osexp","C:/Users/User/Desktop/Quant 2020","no","mono","no","18","no","white","no","yes","768","legacy","41","79","C:/Users/User/Desktop/Quant 2020/VTsubject-1.csv","legacy","Lentiform Loewenfeld","3.3.3","0","s","NA","s","s","NA","s","909","NA","11568","17244","NA","909","2","legacy","1024","2","48000","-16","experiment","HHSHH","1","odd","15378","188183","NA","239359","3802","265912","NA","267543","3809","170937","NA","266418","267649","268562","267539","267649","New experiment","113","75198","122","yes","1024"
"92.6829268293","92.6829268293","616.569105691","616.569105691","black","legacy","legacy","legacy","0","incongruent","uniform","1","undefined","1","h","0","0","0","122","0","122","0","122","0","0","0","122","122","122","122","122","09/20/20 20:17:42","600","Flanker Task","yes","flankertasksubmission.osexp","C:/Users/User/Desktop/Quant 2020","no","mono","no","18","no","white","no","yes","768","legacy","42","79","C:/Users/User/Desktop/Quant 2020/VTsubject-1.csv","legacy","Lentiform Loewenfeld","3.3.3","0","h","NA","s","s","NA","h","640","NA","11568","17244","NA","640","2","legacy","1024","2","48000","-16","experiment","SSHSS","1","odd","15378","188183","NA","239359","3802","268573","NA","270210","3809","170937","NA","269079","270316","270959","270207","270316","New experiment","114","75838","123","yes","1024"
"92.7419354839","92.7419354839","615.225806452","615.225806452","black","legacy","legacy","legacy","0","congruent","uniform","1","undefined","1","h","0","0","0","123","0","123","0","123","0","0","0","123","123","123","123","123","09/20/20 20:17:42","600","Flanker Task","yes","flankertasksubmission.osexp","C:/Users/User/Desktop/Quant 2020","no","mono","no","18","no","white","no","yes","768","legacy","43","79","C:/Users/User/Desktop/Quant 2020/VTsubject-1.csv","legacy","Lentiform Loewenfeld","3.3.3","0","h","NA","s","s","NA","h","450","NA","11568","17244","NA","450","2","legacy","1024","2","48000","-16","experiment","HHHHH","1","odd","15378","188183","NA","239359","3802","270964","NA","272614","3809","170937","NA","271470","272720","273172","272611","272719","New experiment","115","76288","124","yes","1024"
