acc,accuracy,average_response_time,avg_rt,background,canvas_backend,clock_backend,color_backend,compensation,condition,coordinates,correct,correct_instructions1,correct_keyboard_response,correct_response,count_Block1,count_Block2,count_Block3,count_errorFeedback,count_experiment,count_faster,count_finish,count_fixation,count_instructions1,count_instructions2,count_instructions3,count_isi,count_keyboard_response,count_logger,count_sequence,count_stimulus,datetime,deadline,description,disable_garbage_collection,experiment_file,experiment_path,font_bold,font_family,font_italic,font_size,font_underline,foreground,form_clicks,fullscreen,height,keyboard_backend,live_row,live_row_Block1,logfile,mouse_backend,opensesame_codename,opensesame_version,repeat_cycle,response,response_finish,response_instructions1,response_instructions2,response_instructions3,response_keyboard_response,response_time,response_time_finish,response_time_instructions1,response_time_instructions2,response_time_instructions3,response_time_keyboard_response,round_decimals,sampler_backend,sound_buf_size,sound_channels,sound_freq,sound_sample_size,start,stimulus,subject_nr,subject_parity,time_Block1,time_Block2,time_Block3,time_errorFeedback,time_experiment,time_faster,time_finish,time_fixation,time_instructions1,time_instructions2,time_instructions3,time_isi,time_keyboard_response,time_logger,time_sequence,time_stimulus,title,total_correct,total_response_time,total_responses,uniform_coordinates,width
100,100,1182,1182,black,legacy,legacy,legacy,0,congruent,uniform,1,undefined,1,s,0,0,0,0,0,0,0,0,0,0,0,0,0,0,0,0,9/16/2020 21:06,1500,The main experiment item,yes,FlankerTask Rene Wallace.osexp,C:\Users\18177\OneDrive\Documents\School\Grad School\Fall 2020\Lab 2 FlankerTask,no,mono,no,18,no,white,no,yes,768,legacy,0,0,C:/Users/18177/OneDrive/Documents/School/Grad School/Fall 2020/Lab 2 FlankerTask/RW-subject-2.csv,legacy,Lentiform Loewenfeld,3.3.3,0,s,NA,h,NA,NA,s,1182,NA,46458,NA,NA,1182,2,legacy,1024,2,48000,-16,experiment,SSSSS,2,even,50367,NA,NA,NA,3897,NA,NA,50653,3906,NA,NA,NA,50758,51941,50648,50757,Flanker Task,1,1182,1,yes,1024
100,100,962.5,962.5,black,legacy,legacy,legacy,0,congruent,uniform,1,undefined,1,s,0,0,0,1,0,1,0,1,0,0,0,1,1,1,1,1,9/16/2020 21:06,1500,The main experiment item,yes,FlankerTask Rene Wallace.osexp,C:\Users\18177\OneDrive\Documents\School\Grad School\Fall 2020\Lab 2 FlankerTask,no,mono,no,18,no,white,no,yes,768,legacy,1,1,C:/Users/18177/OneDrive/Documents/School/Grad School/Fall 2020/Lab 2 FlankerTask/RW-subject-2.csv,legacy,Lentiform Loewenfeld,3.3.3,0,s,NA,h,NA,NA,s,743,NA,46458,NA,NA,743,2,legacy,1024,2,48000,-16,experiment,SSSSS,2,even,50367,NA,NA,NA,3897,NA,NA,53133,3906,NA,NA,51967,53237,53980,53127,53236,Flanker Task,2,1925,2,yes,1024
100,100,899,899,black,legacy,legacy,legacy,0,incongruent,uniform,1,undefined,1,h,0,0,0,2,0,2,0,2,0,0,0,2,2,2,2,2,9/16/2020 21:06,1500,The main experiment item,yes,FlankerTask Rene Wallace.osexp,C:\Users\18177\OneDrive\Documents\School\Grad School\Fall 2020\Lab 2 FlankerTask,no,mono,no,18,no,white,no,yes,768,legacy,2,2,C:/Users/18177/OneDrive/Documents/School/Grad School/Fall 2020/Lab 2 FlankerTask/RW-subject-2.csv,legacy,Lentiform Loewenfeld,3.3.3,0,h,NA,h,NA,NA,h,772,NA,46458,NA,NA,772,2,legacy,1024,2,48000,-16,experiment,SSHSS,2,even,50367,NA,NA,NA,3897,NA,NA,55127,3906,NA,NA,53995,55231,56004,55122,55230,Flanker Task,3,2697,3,yes,1024
100,100,851.5,851.5,black,legacy,legacy,legacy,0,congruent,uniform,1,undefined,1,h,0,0,0,3,0,3,0,3,0,0,0,3,3,3,3,3,9/16/2020 21:06,1500,The main experiment item,yes,FlankerTask Rene Wallace.osexp,C:\Users\18177\OneDrive\Documents\School\Grad School\Fall 2020\Lab 2 FlankerTask,no,mono,no,18,no,white,no,yes,768,legacy,3,3,C:/Users/18177/OneDrive/Documents/School/Grad School/Fall 2020/Lab 2 FlankerTask/RW-subject-2.csv,legacy,Lentiform Loewenfeld,3.3.3,0,h,NA,h,NA,NA,h,709,NA,46458,NA,NA,709,2,legacy,1024,2,48000,-16,experiment,HHHHH,2,even,50367,NA,NA,NA,3897,NA,NA,57165,3906,NA,NA,56019,57268,57977,57161,57268,Flanker Task,4,3406,4,yes,1024
100,100,838,838,black,legacy,legacy,legacy,0,incongruent,uniform,1,undefined,1,s,0,0,0,4,0,4,0,4,0,0,0,4,4,4,4,4,9/16/2020 21:06,1500,The main experiment item,yes,FlankerTask Rene Wallace.osexp,C:\Users\18177\OneDrive\Documents\School\Grad School\Fall 2020\Lab 2 FlankerTask,no,mono,no,18,no,white,no,yes,768,legacy,4,4,C:/Users/18177/OneDrive/Documents/School/Grad School/Fall 2020/Lab 2 FlankerTask/RW-subject-2.csv,legacy,Lentiform Loewenfeld,3.3.3,0,s,NA,h,NA,NA,s,784,NA,46458,NA,NA,784,2,legacy,1024,2,48000,-16,experiment,HHSHH,2,even,50367,NA,NA,NA,3897,NA,NA,59106,3906,NA,NA,57992,59210,59994,59102,59210,Flanker Task,5,4190,5,yes,1024
100,100,800.1666667,800.1666667,black,legacy,legacy,legacy,0,congruent,uniform,1,undefined,1,s,0,0,0,5,0,5,0,5,0,0,0,5,5,5,5,5,9/16/2020 21:06,1500,The main experiment item,yes,FlankerTask Rene Wallace.osexp,C:\Users\18177\OneDrive\Documents\School\Grad School\Fall 2020\Lab 2 FlankerTask,no,mono,no,18,no,white,no,yes,768,legacy,5,5,C:/Users/18177/OneDrive/Documents/School/Grad School/Fall 2020/Lab 2 FlankerTask/RW-subject-2.csv,legacy,Lentiform Loewenfeld,3.3.3,0,s,NA,h,NA,NA,s,611,NA,46458,NA,NA,611,2,legacy,1024,2,48000,-16,experiment,SSSSS,2,even,50367,NA,NA,NA,3897,NA,NA,61125,3906,NA,NA,60009,61229,61840,61120,61229,Flanker Task,6,4801,6,yes,1024
100,100,790.7142857,790.7142857,black,legacy,legacy,legacy,0,incongruent,uniform,1,undefined,1,h,0,0,0,6,0,6,0,6,0,0,0,6,6,6,6,6,9/16/2020 21:06,1500,The main experiment item,yes,FlankerTask Rene Wallace.osexp,C:\Users\18177\OneDrive\Documents\School\Grad School\Fall 2020\Lab 2 FlankerTask,no,mono,no,18,no,white,no,yes,768,legacy,6,6,C:/Users/18177/OneDrive/Documents/School/Grad School/Fall 2020/Lab 2 FlankerTask/RW-subject-2.csv,legacy,Lentiform Loewenfeld,3.3.3,0,h,NA,h,NA,NA,h,734,NA,46458,NA,NA,734,2,legacy,1024,2,48000,-16,experiment,SSHSS,2,even,50367,NA,NA,NA,3897,NA,NA,62962,3906,NA,NA,61847,63066,63800,62958,63066,Flanker Task,7,5535,7,yes,1024
100,100,777.75,777.75,black,legacy,legacy,legacy,0,incongruent,uniform,1,undefined,1,s,0,0,0,7,0,7,0,7,0,0,0,7,7,7,7,7,9/16/2020 21:06,1500,The main experiment item,yes,FlankerTask Rene Wallace.osexp,C:\Users\18177\OneDrive\Documents\School\Grad School\Fall 2020\Lab 2 FlankerTask,no,mono,no,18,no,white,no,yes,768,legacy,7,7,C:/Users/18177/OneDrive/Documents/School/Grad School/Fall 2020/Lab 2 FlankerTask/RW-subject-2.csv,legacy,Lentiform Loewenfeld,3.3.3,0,s,NA,h,NA,NA,s,687,NA,46458,NA,NA,687,2,legacy,1024,2,48000,-16,experiment,HHSHH,2,even,50367,NA,NA,NA,3897,NA,NA,64911,3906,NA,NA,63807,65015,65702,64908,65015,Flanker Task,8,6222,8,yes,1024
100,100,756.5555556,756.5555556,black,legacy,legacy,legacy,0,congruent,uniform,1,undefined,1,h,0,0,0,8,0,8,0,8,0,0,0,8,8,8,8,8,9/16/2020 21:06,1500,The main experiment item,yes,FlankerTask Rene Wallace.osexp,C:\Users\18177\OneDrive\Documents\School\Grad School\Fall 2020\Lab 2 FlankerTask,no,mono,no,18,no,white,no,yes,768,legacy,8,8,C:/Users/18177/OneDrive/Documents/School/Grad School/Fall 2020/Lab 2 FlankerTask/RW-subject-2.csv,legacy,Lentiform Loewenfeld,3.3.3,0,h,NA,h,NA,NA,h,587,NA,46458,NA,NA,587,2,legacy,1024,2,48000,-16,experiment,HHHHH,2,even,50367,NA,NA,NA,3897,NA,NA,66818,3906,NA,NA,65717,66923,67511,66815,66922,Flanker Task,9,6809,9,yes,1024
100,100,743.6,743.6,black,legacy,legacy,legacy,0,congruent,uniform,1,undefined,1,s,0,0,0,9,0,9,0,9,0,0,0,9,9,9,9,9,9/16/2020 21:06,1500,The main experiment item,yes,FlankerTask Rene Wallace.osexp,C:\Users\18177\OneDrive\Documents\School\Grad School\Fall 2020\Lab 2 FlankerTask,no,mono,no,18,no,white,no,yes,768,legacy,9,9,C:/Users/18177/OneDrive/Documents/School/Grad School/Fall 2020/Lab 2 FlankerTask/RW-subject-2.csv,legacy,Lentiform Loewenfeld,3.3.3,0,s,NA,h,NA,NA,s,627,NA,46458,NA,NA,627,2,legacy,1024,2,48000,-16,experiment,SSSSS,2,even,50367,NA,NA,NA,3897,NA,NA,68625,3906,NA,NA,67524,68726,69354,68622,68726,Flanker Task,10,7436,10,yes,1024
100,100,733.6363636,733.6363636,black,legacy,legacy,legacy,0,congruent,uniform,1,undefined,1,s,0,0,0,10,0,10,0,10,0,0,0,10,10,10,10,10,9/16/2020 21:06,1500,The main experiment item,yes,FlankerTask Rene Wallace.osexp,C:\Users\18177\OneDrive\Documents\School\Grad School\Fall 2020\Lab 2 FlankerTask,no,mono,no,18,no,white,no,yes,768,legacy,10,10,C:/Users/18177/OneDrive/Documents/School/Grad School/Fall 2020/Lab 2 FlankerTask/RW-subject-2.csv,legacy,Lentiform Loewenfeld,3.3.3,0,s,NA,h,NA,NA,s,634,NA,46458,NA,NA,634,2,legacy,1024,2,48000,-16,experiment,SSSSS,2,even,50367,NA,NA,NA,3897,NA,NA,70414,3906,NA,NA,69366,70518,71153,70412,70517,Flanker Task,11,8070,11,yes,1024
100,100,718.0833333,718.0833333,black,legacy,legacy,legacy,0,congruent,uniform,1,undefined,1,s,0,0,0,11,0,11,0,11,0,0,0,11,11,11,11,11,9/16/2020 21:06,1500,The main experiment item,yes,FlankerTask Rene Wallace.osexp,C:\Users\18177\OneDrive\Documents\School\Grad School\Fall 2020\Lab 2 FlankerTask,no,mono,no,18,no,white,no,yes,768,legacy,11,11,C:/Users/18177/OneDrive/Documents/School/Grad School/Fall 2020/Lab 2 FlankerTask/RW-subject-2.csv,legacy,Lentiform Loewenfeld,3.3.3,0,s,NA,h,NA,NA,s,547,NA,46458,NA,NA,547,2,legacy,1024,2,48000,-16,experiment,SSSSS,2,even,50367,NA,NA,NA,3897,NA,NA,72220,3906,NA,NA,71165,72320,72868,72218,72320,Flanker Task,12,8617,12,yes,1024
100,100,717.3076923,717.3076923,black,legacy,legacy,legacy,0,incongruent,uniform,1,undefined,1,h,0,0,0,12,0,12,0,12,0,0,0,12,12,12,12,12,9/16/2020 21:06,1500,The main experiment item,yes,FlankerTask Rene Wallace.osexp,C:\Users\18177\OneDrive\Documents\School\Grad School\Fall 2020\Lab 2 FlankerTask,no,mono,no,18,no,white,no,yes,768,legacy,12,12,C:/Users/18177/OneDrive/Documents/School/Grad School/Fall 2020/Lab 2 FlankerTask/RW-subject-2.csv,legacy,Lentiform Loewenfeld,3.3.3,0,h,NA,h,NA,NA,h,708,NA,46458,NA,NA,708,2,legacy,1024,2,48000,-16,experiment,SSHSS,2,even,50367,NA,NA,NA,3897,NA,NA,73936,3906,NA,NA,72880,74037,74745,73934,74037,Flanker Task,13,9325,13,yes,1024
100,100,705,705,black,legacy,legacy,legacy,0,incongruent,uniform,1,undefined,1,h,0,0,0,13,0,13,0,13,0,0,0,13,13,13,13,13,9/16/2020 21:06,1500,The main experiment item,yes,FlankerTask Rene Wallace.osexp,C:\Users\18177\OneDrive\Documents\School\Grad School\Fall 2020\Lab 2 FlankerTask,no,mono,no,18,no,white,no,yes,768,legacy,13,13,C:/Users/18177/OneDrive/Documents/School/Grad School/Fall 2020/Lab 2 FlankerTask/RW-subject-2.csv,legacy,Lentiform Loewenfeld,3.3.3,0,h,NA,h,NA,NA,h,545,NA,46458,NA,NA,545,2,legacy,1024,2,48000,-16,experiment,SSHSS,2,even,50367,NA,NA,NA,3897,NA,NA,75805,3906,NA,NA,74758,75907,76453,75803,75906,Flanker Task,14,9870,14,yes,1024
100,100,701,701,black,legacy,legacy,legacy,0,congruent,uniform,1,undefined,1,s,0,0,0,14,0,14,0,14,0,0,0,14,14,14,14,14,9/16/2020 21:06,1500,The main experiment item,yes,FlankerTask Rene Wallace.osexp,C:\Users\18177\OneDrive\Documents\School\Grad School\Fall 2020\Lab 2 FlankerTask,no,mono,no,18,no,white,no,yes,768,legacy,14,14,C:/Users/18177/OneDrive/Documents/School/Grad School/Fall 2020/Lab 2 FlankerTask/RW-subject-2.csv,legacy,Lentiform Loewenfeld,3.3.3,0,s,NA,h,NA,NA,s,645,NA,46458,NA,NA,645,2,legacy,1024,2,48000,-16,experiment,SSSSS,2,even,50367,NA,NA,NA,3897,NA,NA,77523,3906,NA,NA,76465,77626,78271,77520,77626,Flanker Task,15,10515,15,yes,1024
100,100,691,691,black,legacy,legacy,legacy,0,congruent,uniform,1,undefined,1,h,0,0,0,15,0,15,0,15,0,0,0,15,15,15,15,15,9/16/2020 21:06,1500,The main experiment item,yes,FlankerTask Rene Wallace.osexp,C:\Users\18177\OneDrive\Documents\School\Grad School\Fall 2020\Lab 2 FlankerTask,no,mono,no,18,no,white,no,yes,768,legacy,15,15,C:/Users/18177/OneDrive/Documents/School/Grad School/Fall 2020/Lab 2 FlankerTask/RW-subject-2.csv,legacy,Lentiform Loewenfeld,3.3.3,0,h,NA,h,NA,NA,h,541,NA,46458,NA,NA,541,2,legacy,1024,2,48000,-16,experiment,HHHHH,2,even,50367,NA,NA,NA,3897,NA,NA,79324,3906,NA,NA,78275,79429,79971,79322,79428,Flanker Task,16,11056,16,yes,1024
100,100,700,700,black,legacy,legacy,legacy,0,incongruent,uniform,1,undefined,1,h,0,0,0,16,0,16,0,16,0,0,0,16,16,16,16,16,9/16/2020 21:06,1500,The main experiment item,yes,FlankerTask Rene Wallace.osexp,C:\Users\18177\OneDrive\Documents\School\Grad School\Fall 2020\Lab 2 FlankerTask,no,mono,no,18,no,white,no,yes,768,legacy,16,16,C:/Users/18177/OneDrive/Documents/School/Grad School/Fall 2020/Lab 2 FlankerTask/RW-subject-2.csv,legacy,Lentiform Loewenfeld,3.3.3,0,h,NA,h,NA,NA,h,844,NA,46458,NA,NA,844,2,legacy,1024,2,48000,-16,experiment,SSHSS,2,even,50367,NA,NA,NA,3897,NA,NA,81032,3906,NA,NA,79983,81137,81982,81030,81136,Flanker Task,17,11900,17,yes,1024
100,100,698.2222222,698.2222222,black,legacy,legacy,legacy,0,congruent,uniform,1,undefined,1,h,0,0,0,17,0,17,0,17,0,0,0,17,17,17,17,17,9/16/2020 21:06,1500,The main experiment item,yes,FlankerTask Rene Wallace.osexp,C:\Users\18177\OneDrive\Documents\School\Grad School\Fall 2020\Lab 2 FlankerTask,no,mono,no,18,no,white,no,yes,768,legacy,17,17,C:/Users/18177/OneDrive/Documents/School/Grad School/Fall 2020/Lab 2 FlankerTask/RW-subject-2.csv,legacy,Lentiform Loewenfeld,3.3.3,0,h,NA,h,NA,NA,h,668,NA,46458,NA,NA,668,2,legacy,1024,2,48000,-16,experiment,HHHHH,2,even,50367,NA,NA,NA,3897,NA,NA,83044,3906,NA,NA,81994,83148,83816,83041,83148,Flanker Task,18,12568,18,yes,1024
100,100,712.3684211,712.3684211,black,legacy,legacy,legacy,0,incongruent,uniform,1,undefined,1,h,0,0,0,18,0,18,0,18,0,0,0,18,18,18,18,18,9/16/2020 21:06,1500,The main experiment item,yes,FlankerTask Rene Wallace.osexp,C:\Users\18177\OneDrive\Documents\School\Grad School\Fall 2020\Lab 2 FlankerTask,no,mono,no,18,no,white,no,yes,768,legacy,18,18,C:/Users/18177/OneDrive/Documents/School/Grad School/Fall 2020/Lab 2 FlankerTask/RW-subject-2.csv,legacy,Lentiform Loewenfeld,3.3.3,0,h,NA,h,NA,NA,h,967,NA,46458,NA,NA,967,2,legacy,1024,2,48000,-16,experiment,SSHSS,2,even,50367,NA,NA,NA,3897,NA,NA,84868,3906,NA,NA,83820,84971,85938,84866,84971,Flanker Task,19,13535,19,yes,1024
100,100,709.1,709.1,black,legacy,legacy,legacy,0,incongruent,uniform,1,undefined,1,s,0,0,0,19,0,19,0,19,0,0,0,19,19,19,19,19,9/16/2020 21:06,1500,The main experiment item,yes,FlankerTask Rene Wallace.osexp,C:\Users\18177\OneDrive\Documents\School\Grad School\Fall 2020\Lab 2 FlankerTask,no,mono,no,18,no,white,no,yes,768,legacy,19,19,C:/Users/18177/OneDrive/Documents/School/Grad School/Fall 2020/Lab 2 FlankerTask/RW-subject-2.csv,legacy,Lentiform Loewenfeld,3.3.3,0,s,NA,h,NA,NA,s,647,NA,46458,NA,NA,647,2,legacy,1024,2,48000,-16,experiment,HHSHH,2,even,50367,NA,NA,NA,3897,NA,NA,87001,3906,NA,NA,85952,87105,87752,86999,87105,Flanker Task,20,14182,20,yes,1024
100,100,701.1904762,701.1904762,black,legacy,legacy,legacy,0,congruent,uniform,1,undefined,1,h,0,0,0,20,0,20,0,20,0,0,0,20,20,20,20,20,9/16/2020 21:06,1500,The main experiment item,yes,FlankerTask Rene Wallace.osexp,C:\Users\18177\OneDrive\Documents\School\Grad School\Fall 2020\Lab 2 FlankerTask,no,mono,no,18,no,white,no,yes,768,legacy,20,20,C:/Users/18177/OneDrive/Documents/School/Grad School/Fall 2020/Lab 2 FlankerTask/RW-subject-2.csv,legacy,Lentiform Loewenfeld,3.3.3,0,h,NA,h,NA,NA,h,543,NA,46458,NA,NA,543,2,legacy,1024,2,48000,-16,experiment,HHHHH,2,even,50367,NA,NA,NA,3897,NA,NA,88805,3906,NA,NA,87756,88908,89452,88803,88908,Flanker Task,21,14725,21,yes,1024
100,100,694.2272727,694.2272727,black,legacy,legacy,legacy,0,incongruent,uniform,1,undefined,1,h,0,0,0,21,0,21,0,21,0,0,0,21,21,21,21,21,9/16/2020 21:06,1500,The main experiment item,yes,FlankerTask Rene Wallace.osexp,C:\Users\18177\OneDrive\Documents\School\Grad School\Fall 2020\Lab 2 FlankerTask,no,mono,no,18,no,white,no,yes,768,legacy,21,21,C:/Users/18177/OneDrive/Documents/School/Grad School/Fall 2020/Lab 2 FlankerTask/RW-subject-2.csv,legacy,Lentiform Loewenfeld,3.3.3,0,h,NA,h,NA,NA,h,548,NA,46458,NA,NA,548,2,legacy,1024,2,48000,-16,experiment,SSHSS,2,even,50367,NA,NA,NA,3897,NA,NA,90512,3906,NA,NA,89465,90615,91164,90510,90615,Flanker Task,22,15273,22,yes,1024
100,100,685.0869565,685.0869565,black,legacy,legacy,legacy,0,congruent,uniform,1,undefined,1,h,0,0,0,22,0,22,0,22,0,0,0,22,22,22,22,22,9/16/2020 21:06,1500,The main experiment item,yes,FlankerTask Rene Wallace.osexp,C:\Users\18177\OneDrive\Documents\School\Grad School\Fall 2020\Lab 2 FlankerTask,no,mono,no,18,no,white,no,yes,768,legacy,22,22,C:/Users/18177/OneDrive/Documents/School/Grad School/Fall 2020/Lab 2 FlankerTask/RW-subject-2.csv,legacy,Lentiform Loewenfeld,3.3.3,0,h,NA,h,NA,NA,h,484,NA,46458,NA,NA,484,2,legacy,1024,2,48000,-16,experiment,HHHHH,2,even,50367,NA,NA,NA,3897,NA,NA,92224,3906,NA,NA,91176,92329,92813,92223,92328,Flanker Task,23,15757,23,yes,1024
100,100,681.0833333,681.0833333,black,legacy,legacy,legacy,0,incongruent,uniform,1,undefined,1,s,0,0,0,23,0,23,0,23,0,0,0,23,23,23,23,23,9/16/2020 21:06,1500,The main experiment item,yes,FlankerTask Rene Wallace.osexp,C:\Users\18177\OneDrive\Documents\School\Grad School\Fall 2020\Lab 2 FlankerTask,no,mono,no,18,no,white,no,yes,768,legacy,23,23,C:/Users/18177/OneDrive/Documents/School/Grad School/Fall 2020/Lab 2 FlankerTask/RW-subject-2.csv,legacy,Lentiform Loewenfeld,3.3.3,0,s,NA,h,NA,NA,s,589,NA,46458,NA,NA,589,2,legacy,1024,2,48000,-16,experiment,HHSHH,2,even,50367,NA,NA,NA,3897,NA,NA,93876,3906,NA,NA,92826,93979,94568,93874,93979,Flanker Task,24,16346,24,yes,1024
100,100,674.76,674.76,black,legacy,legacy,legacy,0,congruent,uniform,1,undefined,1,h,0,0,0,24,0,24,0,24,0,0,0,24,24,24,24,24,9/16/2020 21:06,1500,The main experiment item,yes,FlankerTask Rene Wallace.osexp,C:\Users\18177\OneDrive\Documents\School\Grad School\Fall 2020\Lab 2 FlankerTask,no,mono,no,18,no,white,no,yes,768,legacy,24,24,C:/Users/18177/OneDrive/Documents/School/Grad School/Fall 2020/Lab 2 FlankerTask/RW-subject-2.csv,legacy,Lentiform Loewenfeld,3.3.3,0,h,NA,h,NA,NA,h,523,NA,46458,NA,NA,523,2,legacy,1024,2,48000,-16,experiment,HHHHH,2,even,50367,NA,NA,NA,3897,NA,NA,95625,3906,NA,NA,94571,95727,96250,95621,95727,Flanker Task,25,16869,25,yes,1024
100,100,668.7307692,668.7307692,black,legacy,legacy,legacy,0,congruent,uniform,1,undefined,1,s,0,0,0,25,0,25,0,25,0,0,0,25,25,25,25,25,9/16/2020 21:06,1500,The main experiment item,yes,FlankerTask Rene Wallace.osexp,C:\Users\18177\OneDrive\Documents\School\Grad School\Fall 2020\Lab 2 FlankerTask,no,mono,no,18,no,white,no,yes,768,legacy,25,25,C:/Users/18177/OneDrive/Documents/School/Grad School/Fall 2020/Lab 2 FlankerTask/RW-subject-2.csv,legacy,Lentiform Loewenfeld,3.3.3,0,s,NA,h,NA,NA,s,518,NA,46458,NA,NA,518,2,legacy,1024,2,48000,-16,experiment,SSSSS,2,even,50367,NA,NA,NA,3897,NA,NA,97313,3906,NA,NA,96264,97414,97932,97310,97414,Flanker Task,26,17387,26,yes,1024
100,100,662.6666667,662.6666667,black,legacy,legacy,legacy,0,congruent,uniform,1,undefined,1,s,0,0,0,26,0,26,0,26,0,0,0,26,26,26,26,26,9/16/2020 21:06,1500,The main experiment item,yes,FlankerTask Rene Wallace.osexp,C:\Users\18177\OneDrive\Documents\School\Grad School\Fall 2020\Lab 2 FlankerTask,no,mono,no,18,no,white,no,yes,768,legacy,26,26,C:/Users/18177/OneDrive/Documents/School/Grad School/Fall 2020/Lab 2 FlankerTask/RW-subject-2.csv,legacy,Lentiform Loewenfeld,3.3.3,0,s,NA,h,NA,NA,s,505,NA,46458,NA,NA,505,2,legacy,1024,2,48000,-16,experiment,SSSSS,2,even,50367,NA,NA,NA,3897,NA,NA,98990,3906,NA,NA,97943,99091,99596,98988,99091,Flanker Task,27,17892,27,yes,1024
100,100,662.5357143,662.5357143,black,legacy,legacy,legacy,0,incongruent,uniform,1,undefined,1,h,0,0,0,27,0,27,0,27,0,0,0,27,27,27,27,27,9/16/2020 21:06,1500,The main experiment item,yes,FlankerTask Rene Wallace.osexp,C:\Users\18177\OneDrive\Documents\School\Grad School\Fall 2020\Lab 2 FlankerTask,no,mono,no,18,no,white,no,yes,768,legacy,27,27,C:/Users/18177/OneDrive/Documents/School/Grad School/Fall 2020/Lab 2 FlankerTask/RW-subject-2.csv,legacy,Lentiform Loewenfeld,3.3.3,0,h,NA,h,NA,NA,h,659,NA,46458,NA,NA,659,2,legacy,1024,2,48000,-16,experiment,SSHSS,2,even,50367,NA,NA,NA,3897,NA,NA,100647,3906,NA,NA,99600,100750,101409,100645,100749,Flanker Task,28,18551,28,yes,1024
100,100,660.2068966,660.2068966,black,legacy,legacy,legacy,0,congruent,uniform,1,undefined,1,h,0,0,0,28,0,28,0,28,0,0,0,28,28,28,28,28,9/16/2020 21:06,1500,The main experiment item,yes,FlankerTask Rene Wallace.osexp,C:\Users\18177\OneDrive\Documents\School\Grad School\Fall 2020\Lab 2 FlankerTask,no,mono,no,18,no,white,no,yes,768,legacy,28,28,C:/Users/18177/OneDrive/Documents/School/Grad School/Fall 2020/Lab 2 FlankerTask/RW-subject-2.csv,legacy,Lentiform Loewenfeld,3.3.3,0,h,NA,h,NA,NA,h,595,NA,46458,NA,NA,595,2,legacy,1024,2,48000,-16,experiment,HHHHH,2,even,50367,NA,NA,NA,3897,NA,NA,102461,3906,NA,NA,101413,102565,103160,102459,102565,Flanker Task,29,19146,29,yes,1024
100,100,653.8666667,653.8666667,black,legacy,legacy,legacy,0,congruent,uniform,1,undefined,1,h,0,0,0,29,0,29,0,29,0,0,0,29,29,29,29,29,9/16/2020 21:06,1500,The main experiment item,yes,FlankerTask Rene Wallace.osexp,C:\Users\18177\OneDrive\Documents\School\Grad School\Fall 2020\Lab 2 FlankerTask,no,mono,no,18,no,white,no,yes,768,legacy,29,29,C:/Users/18177/OneDrive/Documents/School/Grad School/Fall 2020/Lab 2 FlankerTask/RW-subject-2.csv,legacy,Lentiform Loewenfeld,3.3.3,0,h,NA,h,NA,NA,h,470,NA,46458,NA,NA,470,2,legacy,1024,2,48000,-16,experiment,HHHHH,2,even,50367,NA,NA,NA,3897,NA,NA,104222,3906,NA,NA,103173,104323,104793,104220,104323,Flanker Task,30,19616,30,yes,1024
100,100,651.483871,651.483871,black,legacy,legacy,legacy,0,incongruent,uniform,1,undefined,1,s,0,0,0,30,0,30,0,30,0,0,0,30,30,30,30,30,9/16/2020 21:06,1500,The main experiment item,yes,FlankerTask Rene Wallace.osexp,C:\Users\18177\OneDrive\Documents\School\Grad School\Fall 2020\Lab 2 FlankerTask,no,mono,no,18,no,white,no,yes,768,legacy,30,30,C:/Users/18177/OneDrive/Documents/School/Grad School/Fall 2020/Lab 2 FlankerTask/RW-subject-2.csv,legacy,Lentiform Loewenfeld,3.3.3,0,s,NA,h,NA,NA,s,580,NA,46458,NA,NA,580,2,legacy,1024,2,48000,-16,experiment,HHSHH,2,even,50367,NA,NA,NA,3897,NA,NA,105852,3906,NA,NA,104806,105953,106533,105852,105953,Flanker Task,31,20196,31,yes,1024
100,100,651.96875,651.96875,black,legacy,legacy,legacy,0,incongruent,uniform,1,undefined,1,s,0,0,0,31,0,31,0,31,0,0,0,31,31,31,31,31,9/16/2020 21:06,1500,The main experiment item,yes,FlankerTask Rene Wallace.osexp,C:\Users\18177\OneDrive\Documents\School\Grad School\Fall 2020\Lab 2 FlankerTask,no,mono,no,18,no,white,no,yes,768,legacy,31,31,C:/Users/18177/OneDrive/Documents/School/Grad School/Fall 2020/Lab 2 FlankerTask/RW-subject-2.csv,legacy,Lentiform Loewenfeld,3.3.3,0,s,NA,h,NA,NA,s,667,NA,46458,NA,NA,667,2,legacy,1024,2,48000,-16,experiment,HHSHH,2,even,50367,NA,NA,NA,3897,NA,NA,107589,3906,NA,NA,106545,107692,108359,107587,107692,Flanker Task,32,20863,32,yes,1024
100,100,646.6969697,646.6969697,black,legacy,legacy,legacy,0,congruent,uniform,1,undefined,1,s,0,0,0,32,0,32,0,32,0,0,0,32,32,32,32,32,9/16/2020 21:06,1500,The main experiment item,yes,FlankerTask Rene Wallace.osexp,C:\Users\18177\OneDrive\Documents\School\Grad School\Fall 2020\Lab 2 FlankerTask,no,mono,no,18,no,white,no,yes,768,legacy,32,32,C:/Users/18177/OneDrive/Documents/School/Grad School/Fall 2020/Lab 2 FlankerTask/RW-subject-2.csv,legacy,Lentiform Loewenfeld,3.3.3,0,s,NA,h,NA,NA,s,478,NA,46458,NA,NA,478,2,legacy,1024,2,48000,-16,experiment,SSSSS,2,even,50367,NA,NA,NA,3897,NA,NA,109417,3906,NA,NA,108371,109520,109999,109415,109520,Flanker Task,33,21341,33,yes,1024
100,100,646.4705882,646.4705882,black,legacy,legacy,legacy,0,congruent,uniform,1,undefined,1,h,0,0,0,33,0,33,0,33,0,0,0,33,33,33,33,33,9/16/2020 21:06,1500,The main experiment item,yes,FlankerTask Rene Wallace.osexp,C:\Users\18177\OneDrive\Documents\School\Grad School\Fall 2020\Lab 2 FlankerTask,no,mono,no,18,no,white,no,yes,768,legacy,33,33,C:/Users/18177/OneDrive/Documents/School/Grad School/Fall 2020/Lab 2 FlankerTask/RW-subject-2.csv,legacy,Lentiform Loewenfeld,3.3.3,0,h,NA,h,NA,NA,h,639,NA,46458,NA,NA,639,2,legacy,1024,2,48000,-16,experiment,HHHHH,2,even,50367,NA,NA,NA,3897,NA,NA,111062,3906,NA,NA,110011,111165,111804,111059,111165,Flanker Task,34,21980,34,yes,1024
100,100,642.7714286,642.7714286,black,legacy,legacy,legacy,0,congruent,uniform,1,undefined,1,h,0,0,0,34,0,34,0,34,0,0,0,34,34,34,34,34,9/16/2020 21:06,1500,The main experiment item,yes,FlankerTask Rene Wallace.osexp,C:\Users\18177\OneDrive\Documents\School\Grad School\Fall 2020\Lab 2 FlankerTask,no,mono,no,18,no,white,no,yes,768,legacy,34,34,C:/Users/18177/OneDrive/Documents/School/Grad School/Fall 2020/Lab 2 FlankerTask/RW-subject-2.csv,legacy,Lentiform Loewenfeld,3.3.3,0,h,NA,h,NA,NA,h,517,NA,46458,NA,NA,517,2,legacy,1024,2,48000,-16,experiment,HHHHH,2,even,50367,NA,NA,NA,3897,NA,NA,112865,3906,NA,NA,111817,112966,113484,112863,112965,Flanker Task,35,22497,35,yes,1024
100,100,646.1666667,646.1666667,black,legacy,legacy,legacy,0,incongruent,uniform,1,undefined,1,h,0,0,0,35,0,35,0,35,0,0,0,35,35,35,35,35,9/16/2020 21:06,1500,The main experiment item,yes,FlankerTask Rene Wallace.osexp,C:\Users\18177\OneDrive\Documents\School\Grad School\Fall 2020\Lab 2 FlankerTask,no,mono,no,18,no,white,no,yes,768,legacy,35,35,C:/Users/18177/OneDrive/Documents/School/Grad School/Fall 2020/Lab 2 FlankerTask/RW-subject-2.csv,legacy,Lentiform Loewenfeld,3.3.3,0,h,NA,h,NA,NA,h,765,NA,46458,NA,NA,765,2,legacy,1024,2,48000,-16,experiment,SSHSS,2,even,50367,NA,NA,NA,3897,NA,NA,114543,3906,NA,NA,113495,114648,115414,114542,114647,Flanker Task,36,23262,36,yes,1024
100,100,645.9189189,645.9189189,black,legacy,legacy,legacy,0,congruent,uniform,1,undefined,1,h,0,0,0,36,0,36,0,36,0,0,0,36,36,36,36,36,9/16/2020 21:06,1500,The main experiment item,yes,FlankerTask Rene Wallace.osexp,C:\Users\18177\OneDrive\Documents\School\Grad School\Fall 2020\Lab 2 FlankerTask,no,mono,no,18,no,white,no,yes,768,legacy,36,36,C:/Users/18177/OneDrive/Documents/School/Grad School/Fall 2020/Lab 2 FlankerTask/RW-subject-2.csv,legacy,Lentiform Loewenfeld,3.3.3,0,h,NA,h,NA,NA,h,637,NA,46458,NA,NA,637,2,legacy,1024,2,48000,-16,experiment,HHHHH,2,even,50367,NA,NA,NA,3897,NA,NA,116467,3906,NA,NA,115418,116571,117209,116465,116571,Flanker Task,37,23899,37,yes,1024
100,100,644.9210526,644.9210526,black,legacy,legacy,legacy,0,congruent,uniform,1,undefined,1,h,0,0,0,37,0,37,0,37,0,0,0,37,37,37,37,37,9/16/2020 21:06,1500,The main experiment item,yes,FlankerTask Rene Wallace.osexp,C:\Users\18177\OneDrive\Documents\School\Grad School\Fall 2020\Lab 2 FlankerTask,no,mono,no,18,no,white,no,yes,768,legacy,37,37,C:/Users/18177/OneDrive/Documents/School/Grad School/Fall 2020/Lab 2 FlankerTask/RW-subject-2.csv,legacy,Lentiform Loewenfeld,3.3.3,0,h,NA,h,NA,NA,h,608,NA,46458,NA,NA,608,2,legacy,1024,2,48000,-16,experiment,HHHHH,2,even,50367,NA,NA,NA,3897,NA,NA,118269,3906,NA,NA,117221,118373,118982,118267,118373,Flanker Task,38,24507,38,yes,1024
100,100,645.4615385,645.4615385,black,legacy,legacy,legacy,0,incongruent,uniform,1,undefined,1,h,0,0,0,38,0,38,0,38,0,0,0,38,38,38,38,38,9/16/2020 21:06,1500,The main experiment item,yes,FlankerTask Rene Wallace.osexp,C:\Users\18177\OneDrive\Documents\School\Grad School\Fall 2020\Lab 2 FlankerTask,no,mono,no,18,no,white,no,yes,768,legacy,38,38,C:/Users/18177/OneDrive/Documents/School/Grad School/Fall 2020/Lab 2 FlankerTask/RW-subject-2.csv,legacy,Lentiform Loewenfeld,3.3.3,0,h,NA,h,NA,NA,h,666,NA,46458,NA,NA,666,2,legacy,1024,2,48000,-16,experiment,SSHSS,2,even,50367,NA,NA,NA,3897,NA,NA,120062,3906,NA,NA,118995,120163,120830,120060,120163,Flanker Task,39,25173,39,yes,1024
100,100,645.4,645.4,black,legacy,legacy,legacy,0,incongruent,uniform,1,undefined,1,s,0,0,0,39,0,39,0,39,0,0,0,39,39,39,39,39,9/16/2020 21:06,1500,The main experiment item,yes,FlankerTask Rene Wallace.osexp,C:\Users\18177\OneDrive\Documents\School\Grad School\Fall 2020\Lab 2 FlankerTask,no,mono,no,18,no,white,no,yes,768,legacy,39,39,C:/Users/18177/OneDrive/Documents/School/Grad School/Fall 2020/Lab 2 FlankerTask/RW-subject-2.csv,legacy,Lentiform Loewenfeld,3.3.3,0,s,NA,h,NA,NA,s,643,NA,46458,NA,NA,643,2,legacy,1024,2,48000,-16,experiment,HHSHH,2,even,50367,NA,NA,NA,3897,NA,NA,121892,3906,NA,NA,120843,121995,122639,121891,121995,Flanker Task,40,25816,40,yes,1024
100,100,647.5609756,647.5609756,black,legacy,legacy,legacy,0,incongruent,uniform,1,undefined,1,h,0,0,0,40,0,40,0,40,0,0,0,40,40,40,40,40,9/16/2020 21:06,1500,The main experiment item,yes,FlankerTask Rene Wallace.osexp,C:\Users\18177\OneDrive\Documents\School\Grad School\Fall 2020\Lab 2 FlankerTask,no,mono,no,18,no,white,no,yes,768,legacy,40,40,C:/Users/18177/OneDrive/Documents/School/Grad School/Fall 2020/Lab 2 FlankerTask/RW-subject-2.csv,legacy,Lentiform Loewenfeld,3.3.3,0,h,NA,h,NA,NA,h,734,NA,46458,NA,NA,734,2,legacy,1024,2,48000,-16,experiment,SSHSS,2,even,50367,NA,NA,NA,3897,NA,NA,123699,3906,NA,NA,122652,123800,124535,123697,123800,Flanker Task,41,26550,41,yes,1024
100,100,647.952381,647.952381,black,legacy,legacy,legacy,0,incongruent,uniform,1,undefined,1,s,0,0,0,41,0,41,0,41,0,0,0,41,41,41,41,41,9/16/2020 21:06,1500,The main experiment item,yes,FlankerTask Rene Wallace.osexp,C:\Users\18177\OneDrive\Documents\School\Grad School\Fall 2020\Lab 2 FlankerTask,no,mono,no,18,no,white,no,yes,768,legacy,41,41,C:/Users/18177/OneDrive/Documents/School/Grad School/Fall 2020/Lab 2 FlankerTask/RW-subject-2.csv,legacy,Lentiform Loewenfeld,3.3.3,0,s,NA,h,NA,NA,s,664,NA,46458,NA,NA,664,2,legacy,1024,2,48000,-16,experiment,HHSHH,2,even,50367,NA,NA,NA,3897,NA,NA,125592,3906,NA,NA,124544,125694,126358,125590,125694,Flanker Task,42,27214,42,yes,1024
100,100,650.8604651,650.8604651,black,legacy,legacy,legacy,0,incongruent,uniform,1,undefined,1,s,0,0,0,42,0,42,0,42,0,0,0,42,42,42,42,42,9/16/2020 21:06,1500,The main experiment item,yes,FlankerTask Rene Wallace.osexp,C:\Users\18177\OneDrive\Documents\School\Grad School\Fall 2020\Lab 2 FlankerTask,no,mono,no,18,no,white,no,yes,768,legacy,42,42,C:/Users/18177/OneDrive/Documents/School/Grad School/Fall 2020/Lab 2 FlankerTask/RW-subject-2.csv,legacy,Lentiform Loewenfeld,3.3.3,0,s,NA,h,NA,NA,s,773,NA,46458,NA,NA,773,2,legacy,1024,2,48000,-16,experiment,HHSHH,2,even,50367,NA,NA,NA,3897,NA,NA,127422,3906,NA,NA,126371,127527,128300,127421,127526,Flanker Task,43,27987,43,yes,1024
100,100,650.3863636,650.3863636,black,legacy,legacy,legacy,0,congruent,uniform,1,undefined,1,s,0,0,0,43,0,43,0,43,0,0,0,43,43,43,43,43,9/16/2020 21:06,1500,The main experiment item,yes,FlankerTask Rene Wallace.osexp,C:\Users\18177\OneDrive\Documents\School\Grad School\Fall 2020\Lab 2 FlankerTask,no,mono,no,18,no,white,no,yes,768,legacy,43,43,C:/Users/18177/OneDrive/Documents/School/Grad School/Fall 2020/Lab 2 FlankerTask/RW-subject-2.csv,legacy,Lentiform Loewenfeld,3.3.3,0,s,NA,h,NA,NA,s,630,NA,46458,NA,NA,630,2,legacy,1024,2,48000,-16,experiment,SSSSS,2,even,50367,NA,NA,NA,3897,NA,NA,129361,3906,NA,NA,128313,129465,130096,129360,129465,Flanker Task,44,28617,44,yes,1024
100,100,651.7333333,651.7333333,black,legacy,legacy,legacy,0,congruent,uniform,1,undefined,1,s,0,0,0,44,0,44,0,44,0,0,0,44,44,44,44,44,9/16/2020 21:06,1500,The main experiment item,yes,FlankerTask Rene Wallace.osexp,C:\Users\18177\OneDrive\Documents\School\Grad School\Fall 2020\Lab 2 FlankerTask,no,mono,no,18,no,white,no,yes,768,legacy,44,44,C:/Users/18177/OneDrive/Documents/School/Grad School/Fall 2020/Lab 2 FlankerTask/RW-subject-2.csv,legacy,Lentiform Loewenfeld,3.3.3,0,s,NA,h,NA,NA,s,711,NA,46458,NA,NA,711,2,legacy,1024,2,48000,-16,experiment,SSSSS,2,even,50367,NA,NA,NA,3897,NA,NA,131166,3906,NA,NA,130110,131270,131982,131164,131270,Flanker Task,45,29328,45,yes,1024
100,100,654.3478261,654.3478261,black,legacy,legacy,legacy,0,incongruent,uniform,1,undefined,1,h,0,0,0,45,0,45,0,45,0,0,0,45,45,45,45,45,9/16/2020 21:06,1500,The main experiment item,yes,FlankerTask Rene Wallace.osexp,C:\Users\18177\OneDrive\Documents\School\Grad School\Fall 2020\Lab 2 FlankerTask,no,mono,no,18,no,white,no,yes,768,legacy,45,45,C:/Users/18177/OneDrive/Documents/School/Grad School/Fall 2020/Lab 2 FlankerTask/RW-subject-2.csv,legacy,Lentiform Loewenfeld,3.3.3,0,h,NA,h,NA,NA,h,772,NA,46458,NA,NA,772,2,legacy,1024,2,48000,-16,experiment,SSHSS,2,even,50367,NA,NA,NA,3897,NA,NA,133042,3906,NA,NA,131994,133145,133918,133040,133145,Flanker Task,46,30100,46,yes,1024
100,100,658.7234043,658.7234043,black,legacy,legacy,legacy,0,incongruent,uniform,1,undefined,1,s,0,0,0,46,0,46,0,46,0,0,0,46,46,46,46,46,9/16/2020 21:06,1500,The main experiment item,yes,FlankerTask Rene Wallace.osexp,C:\Users\18177\OneDrive\Documents\School\Grad School\Fall 2020\Lab 2 FlankerTask,no,mono,no,18,no,white,no,yes,768,legacy,46,46,C:/Users/18177/OneDrive/Documents/School/Grad School/Fall 2020/Lab 2 FlankerTask/RW-subject-2.csv,legacy,Lentiform Loewenfeld,3.3.3,0,s,NA,h,NA,NA,s,860,NA,46458,NA,NA,860,2,legacy,1024,2,48000,-16,experiment,HHSHH,2,even,50367,NA,NA,NA,3897,NA,NA,134977,3906,NA,NA,133929,135081,135941,134976,135081,Flanker Task,47,30960,47,yes,1024
100,100,655.9166667,655.9166667,black,legacy,legacy,legacy,0,congruent,uniform,1,undefined,1,s,0,0,0,47,0,47,0,47,0,0,0,47,47,47,47,47,9/16/2020 21:06,1500,The main experiment item,yes,FlankerTask Rene Wallace.osexp,C:\Users\18177\OneDrive\Documents\School\Grad School\Fall 2020\Lab 2 FlankerTask,no,mono,no,18,no,white,no,yes,768,legacy,47,47,C:/Users/18177/OneDrive/Documents/School/Grad School/Fall 2020/Lab 2 FlankerTask/RW-subject-2.csv,legacy,Lentiform Loewenfeld,3.3.3,0,s,NA,h,NA,NA,s,524,NA,46458,NA,NA,524,2,legacy,1024,2,48000,-16,experiment,SSSSS,2,even,50367,NA,NA,NA,3897,NA,NA,137004,3906,NA,NA,135955,137105,137630,137001,137105,Flanker Task,48,31484,48,yes,1024
100,100,658.5306122,658.5306122,black,legacy,legacy,legacy,0,incongruent,uniform,1,undefined,1,s,0,0,0,48,0,48,0,48,0,0,0,48,48,48,48,48,9/16/2020 21:06,1500,The main experiment item,yes,FlankerTask Rene Wallace.osexp,C:\Users\18177\OneDrive\Documents\School\Grad School\Fall 2020\Lab 2 FlankerTask,no,mono,no,18,no,white,no,yes,768,legacy,48,48,C:/Users/18177/OneDrive/Documents/School/Grad School/Fall 2020/Lab 2 FlankerTask/RW-subject-2.csv,legacy,Lentiform Loewenfeld,3.3.3,0,s,NA,h,NA,NA,s,784,NA,46458,NA,NA,784,2,legacy,1024,2,48000,-16,experiment,HHSHH,2,even,50367,NA,NA,NA,3897,NA,NA,138690,3906,NA,NA,137641,138793,139577,138689,138793,Flanker Task,49,32268,49,yes,1024
100,100,655.52,655.52,black,legacy,legacy,legacy,0,incongruent,uniform,1,undefined,1,s,0,0,0,49,0,49,0,49,0,0,0,49,49,49,49,49,9/16/2020 21:06,1500,The main experiment item,yes,FlankerTask Rene Wallace.osexp,C:\Users\18177\OneDrive\Documents\School\Grad School\Fall 2020\Lab 2 FlankerTask,no,mono,no,18,no,white,no,yes,768,legacy,49,49,C:/Users/18177/OneDrive/Documents/School/Grad School/Fall 2020/Lab 2 FlankerTask/RW-subject-2.csv,legacy,Lentiform Loewenfeld,3.3.3,0,s,NA,h,NA,NA,s,508,NA,46458,NA,NA,508,2,legacy,1024,2,48000,-16,experiment,HHSHH,2,even,50367,NA,NA,NA,3897,NA,NA,140631,3906,NA,NA,139581,140734,141243,140629,140734,Flanker Task,50,32776,50,yes,1024
100,100,655.9607843,655.9607843,black,legacy,legacy,legacy,0,incongruent,uniform,1,undefined,1,h,0,0,0,50,0,50,0,50,0,0,0,50,50,50,50,50,9/16/2020 21:06,1500,The main experiment item,yes,FlankerTask Rene Wallace.osexp,C:\Users\18177\OneDrive\Documents\School\Grad School\Fall 2020\Lab 2 FlankerTask,no,mono,no,18,no,white,no,yes,768,legacy,50,50,C:/Users/18177/OneDrive/Documents/School/Grad School/Fall 2020/Lab 2 FlankerTask/RW-subject-2.csv,legacy,Lentiform Loewenfeld,3.3.3,0,h,NA,h,NA,NA,h,678,NA,46458,NA,NA,678,2,legacy,1024,2,48000,-16,experiment,SSHSS,2,even,50367,NA,NA,NA,3897,NA,NA,142302,3906,NA,NA,141255,142406,143085,142300,142406,Flanker Task,51,33454,51,yes,1024
100,100,654.2307692,654.2307692,black,legacy,legacy,legacy,0,incongruent,uniform,1,undefined,1,h,0,0,0,51,0,51,0,51,0,0,0,51,51,51,51,51,9/16/2020 21:06,1500,The main experiment item,yes,FlankerTask Rene Wallace.osexp,C:\Users\18177\OneDrive\Documents\School\Grad School\Fall 2020\Lab 2 FlankerTask,no,mono,no,18,no,white,no,yes,768,legacy,51,51,C:/Users/18177/OneDrive/Documents/School/Grad School/Fall 2020/Lab 2 FlankerTask/RW-subject-2.csv,legacy,Lentiform Loewenfeld,3.3.3,0,h,NA,h,NA,NA,h,566,NA,46458,NA,NA,566,2,legacy,1024,2,48000,-16,experiment,SSHSS,2,even,50367,NA,NA,NA,3897,NA,NA,144143,3906,NA,NA,143097,144246,144813,144141,144246,Flanker Task,52,34020,52,yes,1024
100,100,655,655,black,legacy,legacy,legacy,0,incongruent,uniform,1,undefined,1,h,0,0,0,52,0,52,0,52,0,0,0,52,52,52,52,52,9/16/2020 21:06,1500,The main experiment item,yes,FlankerTask Rene Wallace.osexp,C:\Users\18177\OneDrive\Documents\School\Grad School\Fall 2020\Lab 2 FlankerTask,no,mono,no,18,no,white,no,yes,768,legacy,52,52,C:/Users/18177/OneDrive/Documents/School/Grad School/Fall 2020/Lab 2 FlankerTask/RW-subject-2.csv,legacy,Lentiform Loewenfeld,3.3.3,0,h,NA,h,NA,NA,h,695,NA,46458,NA,NA,695,2,legacy,1024,2,48000,-16,experiment,SSHSS,2,even,50367,NA,NA,NA,3897,NA,NA,145873,3906,NA,NA,144826,145977,146672,145872,145977,Flanker Task,53,34715,53,yes,1024
100,100,654.2777778,654.2777778,black,legacy,legacy,legacy,0,congruent,uniform,1,undefined,1,s,0,0,0,53,0,53,0,53,0,0,0,53,53,53,53,53,9/16/2020 21:06,1500,The main experiment item,yes,FlankerTask Rene Wallace.osexp,C:\Users\18177\OneDrive\Documents\School\Grad School\Fall 2020\Lab 2 FlankerTask,no,mono,no,18,no,white,no,yes,768,legacy,53,53,C:/Users/18177/OneDrive/Documents/School/Grad School/Fall 2020/Lab 2 FlankerTask/RW-subject-2.csv,legacy,Lentiform Loewenfeld,3.3.3,0,s,NA,h,NA,NA,s,616,NA,46458,NA,NA,616,2,legacy,1024,2,48000,-16,experiment,SSSSS,2,even,50367,NA,NA,NA,3897,NA,NA,147747,3906,NA,NA,146685,147849,148467,147745,147849,Flanker Task,54,35331,54,yes,1024
100,100,651.8181818,651.8181818,black,legacy,legacy,legacy,0,congruent,uniform,1,undefined,1,s,0,0,0,54,0,54,0,54,0,0,0,54,54,54,54,54,9/16/2020 21:06,1500,The main experiment item,yes,FlankerTask Rene Wallace.osexp,C:\Users\18177\OneDrive\Documents\School\Grad School\Fall 2020\Lab 2 FlankerTask,no,mono,no,18,no,white,no,yes,768,legacy,54,54,C:/Users/18177/OneDrive/Documents/School/Grad School/Fall 2020/Lab 2 FlankerTask/RW-subject-2.csv,legacy,Lentiform Loewenfeld,3.3.3,0,s,NA,h,NA,NA,s,519,NA,46458,NA,NA,519,2,legacy,1024,2,48000,-16,experiment,SSSSS,2,even,50367,NA,NA,NA,3897,NA,NA,149526,3906,NA,NA,148478,149626,150146,149524,149626,Flanker Task,55,35850,55,yes,1024
100,100,650.4285714,650.4285714,black,legacy,legacy,legacy,0,congruent,uniform,1,undefined,1,h,0,0,0,55,0,55,0,55,0,0,0,55,55,55,55,55,9/16/2020 21:06,1500,The main experiment item,yes,FlankerTask Rene Wallace.osexp,C:\Users\18177\OneDrive\Documents\School\Grad School\Fall 2020\Lab 2 FlankerTask,no,mono,no,18,no,white,no,yes,768,legacy,55,55,C:/Users/18177/OneDrive/Documents/School/Grad School/Fall 2020/Lab 2 FlankerTask/RW-subject-2.csv,legacy,Lentiform Loewenfeld,3.3.3,0,h,NA,h,NA,NA,h,574,NA,46458,NA,NA,574,2,legacy,1024,2,48000,-16,experiment,HHHHH,2,even,50367,NA,NA,NA,3897,NA,NA,151206,3906,NA,NA,150157,151310,151884,151204,151309,Flanker Task,56,36424,56,yes,1024
100,100,649.4736842,649.4736842,black,legacy,legacy,legacy,0,incongruent,uniform,1,undefined,1,s,0,0,0,56,0,56,0,56,0,0,0,56,56,56,56,56,9/16/2020 21:06,1500,The main experiment item,yes,FlankerTask Rene Wallace.osexp,C:\Users\18177\OneDrive\Documents\School\Grad School\Fall 2020\Lab 2 FlankerTask,no,mono,no,18,no,white,no,yes,768,legacy,56,56,C:/Users/18177/OneDrive/Documents/School/Grad School/Fall 2020/Lab 2 FlankerTask/RW-subject-2.csv,legacy,Lentiform Loewenfeld,3.3.3,0,s,NA,h,NA,NA,s,596,NA,46458,NA,NA,596,2,legacy,1024,2,48000,-16,experiment,HHSHH,2,even,50367,NA,NA,NA,3897,NA,NA,152937,3906,NA,NA,151888,153041,153638,152935,153040,Flanker Task,57,37020,57,yes,1024
100,100,648,648,black,legacy,legacy,legacy,0,congruent,uniform,1,undefined,1,h,0,0,0,57,0,57,0,57,0,0,0,57,57,57,57,57,9/16/2020 21:06,1500,The main experiment item,yes,FlankerTask Rene Wallace.osexp,C:\Users\18177\OneDrive\Documents\School\Grad School\Fall 2020\Lab 2 FlankerTask,no,mono,no,18,no,white,no,yes,768,legacy,57,57,C:/Users/18177/OneDrive/Documents/School/Grad School/Fall 2020/Lab 2 FlankerTask/RW-subject-2.csv,legacy,Lentiform Loewenfeld,3.3.3,0,h,NA,h,NA,NA,h,564,NA,46458,NA,NA,564,2,legacy,1024,2,48000,-16,experiment,HHHHH,2,even,50367,NA,NA,NA,3897,NA,NA,154700,3906,NA,NA,153651,154802,155366,154697,154802,Flanker Task,58,37584,58,yes,1024
100,100,646.5423729,646.5423729,black,legacy,legacy,legacy,0,incongruent,uniform,1,undefined,1,h,0,0,0,58,0,58,0,58,0,0,0,58,58,58,58,58,9/16/2020 21:06,1500,The main experiment item,yes,FlankerTask Rene Wallace.osexp,C:\Users\18177\OneDrive\Documents\School\Grad School\Fall 2020\Lab 2 FlankerTask,no,mono,no,18,no,white,no,yes,768,legacy,58,58,C:/Users/18177/OneDrive/Documents/School/Grad School/Fall 2020/Lab 2 FlankerTask/RW-subject-2.csv,legacy,Lentiform Loewenfeld,3.3.3,0,h,NA,h,NA,NA,h,562,NA,46458,NA,NA,562,2,legacy,1024,2,48000,-16,experiment,SSHSS,2,even,50367,NA,NA,NA,3897,NA,NA,156432,3906,NA,NA,155378,156533,157095,156430,156533,Flanker Task,59,38146,59,yes,1024
100,100,644.3166667,644.3166667,black,legacy,legacy,legacy,0,incongruent,uniform,1,undefined,1,h,0,0,0,59,0,59,0,59,0,0,0,59,59,59,59,59,9/16/2020 21:06,1500,The main experiment item,yes,FlankerTask Rene Wallace.osexp,C:\Users\18177\OneDrive\Documents\School\Grad School\Fall 2020\Lab 2 FlankerTask,no,mono,no,18,no,white,no,yes,768,legacy,59,59,C:/Users/18177/OneDrive/Documents/School/Grad School/Fall 2020/Lab 2 FlankerTask/RW-subject-2.csv,legacy,Lentiform Loewenfeld,3.3.3,0,h,NA,h,NA,NA,h,513,NA,46458,NA,NA,513,2,legacy,1024,2,48000,-16,experiment,SSHSS,2,even,50367,NA,NA,NA,3897,NA,NA,158158,3906,NA,NA,157110,158262,158775,158156,158262,Flanker Task,60,38659,60,yes,1024
100,100,641.5901639,641.5901639,black,legacy,legacy,legacy,0,incongruent,uniform,1,undefined,1,h,0,0,0,60,0,60,0,60,0,0,0,60,60,60,60,60,9/16/2020 21:06,1500,The main experiment item,yes,FlankerTask Rene Wallace.osexp,C:\Users\18177\OneDrive\Documents\School\Grad School\Fall 2020\Lab 2 FlankerTask,no,mono,no,18,no,white,no,yes,768,legacy,60,60,C:/Users/18177/OneDrive/Documents/School/Grad School/Fall 2020/Lab 2 FlankerTask/RW-subject-2.csv,legacy,Lentiform Loewenfeld,3.3.3,0,h,NA,h,NA,NA,h,478,NA,46458,NA,NA,478,2,legacy,1024,2,48000,-16,experiment,SSHSS,2,even,50367,NA,NA,NA,3897,NA,NA,159835,3906,NA,NA,158788,159936,160414,159833,159936,Flanker Task,61,39137,61,yes,1024
100,100,640.4032258,640.4032258,black,legacy,legacy,legacy,0,incongruent,uniform,1,undefined,1,h,0,0,0,61,0,61,0,61,0,0,0,61,61,61,61,61,9/16/2020 21:06,1500,The main experiment item,yes,FlankerTask Rene Wallace.osexp,C:\Users\18177\OneDrive\Documents\School\Grad School\Fall 2020\Lab 2 FlankerTask,no,mono,no,18,no,white,no,yes,768,legacy,61,61,C:/Users/18177/OneDrive/Documents/School/Grad School/Fall 2020/Lab 2 FlankerTask/RW-subject-2.csv,legacy,Lentiform Loewenfeld,3.3.3,0,h,NA,h,NA,NA,h,568,NA,46458,NA,NA,568,2,legacy,1024,2,48000,-16,experiment,SSHSS,2,even,50367,NA,NA,NA,3897,NA,NA,161474,3906,NA,NA,160427,161578,162146,161472,161578,Flanker Task,62,39705,62,yes,1024
100,100,639.2063492,639.2063492,black,legacy,legacy,legacy,0,congruent,uniform,1,undefined,1,h,0,0,0,62,0,62,0,62,0,0,0,62,62,62,62,62,9/16/2020 21:06,1500,The main experiment item,yes,FlankerTask Rene Wallace.osexp,C:\Users\18177\OneDrive\Documents\School\Grad School\Fall 2020\Lab 2 FlankerTask,no,mono,no,18,no,white,no,yes,768,legacy,62,62,C:/Users/18177/OneDrive/Documents/School/Grad School/Fall 2020/Lab 2 FlankerTask/RW-subject-2.csv,legacy,Lentiform Loewenfeld,3.3.3,0,h,NA,h,NA,NA,h,565,NA,46458,NA,NA,565,2,legacy,1024,2,48000,-16,experiment,HHHHH,2,even,50367,NA,NA,NA,3897,NA,NA,163207,3906,NA,NA,162159,163309,163874,163205,163309,Flanker Task,63,40270,63,yes,1024
100,100,636.359375,636.359375,black,legacy,legacy,legacy,0,congruent,uniform,1,undefined,1,h,0,0,0,63,0,63,0,63,0,0,0,63,63,63,63,63,9/16/2020 21:06,1500,The main experiment item,yes,FlankerTask Rene Wallace.osexp,C:\Users\18177\OneDrive\Documents\School\Grad School\Fall 2020\Lab 2 FlankerTask,no,mono,no,18,no,white,no,yes,768,legacy,63,63,C:/Users/18177/OneDrive/Documents/School/Grad School/Fall 2020/Lab 2 FlankerTask/RW-subject-2.csv,legacy,Lentiform Loewenfeld,3.3.3,0,h,NA,h,NA,NA,h,457,NA,46458,NA,NA,457,2,legacy,1024,2,48000,-16,experiment,HHHHH,2,even,50367,NA,NA,NA,3897,NA,NA,164935,3906,NA,NA,163887,165038,165496,164933,165038,Flanker Task,64,40727,64,yes,1024
100,100,636.3230769,636.3230769,black,legacy,legacy,legacy,0,incongruent,uniform,1,undefined,1,s,0,0,0,64,0,64,0,64,0,0,0,64,64,64,64,64,9/16/2020 21:06,1500,The main experiment item,yes,FlankerTask Rene Wallace.osexp,C:\Users\18177\OneDrive\Documents\School\Grad School\Fall 2020\Lab 2 FlankerTask,no,mono,no,18,no,white,no,yes,768,legacy,64,64,C:/Users/18177/OneDrive/Documents/School/Grad School/Fall 2020/Lab 2 FlankerTask/RW-subject-2.csv,legacy,Lentiform Loewenfeld,3.3.3,0,s,NA,h,NA,NA,s,634,NA,46458,NA,NA,634,2,legacy,1024,2,48000,-16,experiment,HHSHH,2,even,50367,NA,NA,NA,3897,NA,NA,166548,3906,NA,NA,165499,166652,167287,166546,166652,Flanker Task,65,41361,65,yes,1024
100,100,636.4545455,636.4545455,black,legacy,legacy,legacy,0,incongruent,uniform,1,undefined,1,s,0,0,0,65,0,65,0,65,0,0,0,65,65,65,65,65,9/16/2020 21:06,1500,The main experiment item,yes,FlankerTask Rene Wallace.osexp,C:\Users\18177\OneDrive\Documents\School\Grad School\Fall 2020\Lab 2 FlankerTask,no,mono,no,18,no,white,no,yes,768,legacy,65,65,C:/Users/18177/OneDrive/Documents/School/Grad School/Fall 2020/Lab 2 FlankerTask/RW-subject-2.csv,legacy,Lentiform Loewenfeld,3.3.3,0,s,NA,h,NA,NA,s,645,NA,46458,NA,NA,645,2,legacy,1024,2,48000,-16,experiment,HHSHH,2,even,50367,NA,NA,NA,3897,NA,NA,168348,3906,NA,NA,167299,168452,169097,168347,168452,Flanker Task,66,42006,66,yes,1024
100,100,635.3134328,635.3134328,black,legacy,legacy,legacy,0,incongruent,uniform,1,undefined,1,s,0,0,0,66,0,66,0,66,0,0,0,66,66,66,66,66,9/16/2020 21:06,1500,The main experiment item,yes,FlankerTask Rene Wallace.osexp,C:\Users\18177\OneDrive\Documents\School\Grad School\Fall 2020\Lab 2 FlankerTask,no,mono,no,18,no,white,no,yes,768,legacy,66,66,C:/Users/18177/OneDrive/Documents/School/Grad School/Fall 2020/Lab 2 FlankerTask/RW-subject-2.csv,legacy,Lentiform Loewenfeld,3.3.3,0,s,NA,h,NA,NA,s,560,NA,46458,NA,NA,560,2,legacy,1024,2,48000,-16,experiment,HHSHH,2,even,50367,NA,NA,NA,3897,NA,NA,170159,3906,NA,NA,169109,170260,170820,170157,170260,Flanker Task,67,42566,67,yes,1024
100,100,633.9117647,633.9117647,black,legacy,legacy,legacy,0,incongruent,uniform,1,undefined,1,s,0,0,0,67,0,67,0,67,0,0,0,67,67,67,67,67,9/16/2020 21:06,1500,The main experiment item,yes,FlankerTask Rene Wallace.osexp,C:\Users\18177\OneDrive\Documents\School\Grad School\Fall 2020\Lab 2 FlankerTask,no,mono,no,18,no,white,no,yes,768,legacy,67,67,C:/Users/18177/OneDrive/Documents/School/Grad School/Fall 2020/Lab 2 FlankerTask/RW-subject-2.csv,legacy,Lentiform Loewenfeld,3.3.3,0,s,NA,h,NA,NA,s,540,NA,46458,NA,NA,540,2,legacy,1024,2,48000,-16,experiment,HHSHH,2,even,50367,NA,NA,NA,3897,NA,NA,171882,3906,NA,NA,170833,171986,172527,171880,171986,Flanker Task,68,43106,68,yes,1024
100,100,632.6376812,632.6376812,black,legacy,legacy,legacy,0,congruent,uniform,1,undefined,1,h,0,0,0,68,0,68,0,68,0,0,0,68,68,68,68,68,9/16/2020 21:06,1500,The main experiment item,yes,FlankerTask Rene Wallace.osexp,C:\Users\18177\OneDrive\Documents\School\Grad School\Fall 2020\Lab 2 FlankerTask,no,mono,no,18,no,white,no,yes,768,legacy,68,68,C:/Users/18177/OneDrive/Documents/School/Grad School/Fall 2020/Lab 2 FlankerTask/RW-subject-2.csv,legacy,Lentiform Loewenfeld,3.3.3,0,h,NA,h,NA,NA,h,546,NA,46458,NA,NA,546,2,legacy,1024,2,48000,-16,experiment,HHHHH,2,even,50367,NA,NA,NA,3897,NA,NA,173588,3906,NA,NA,172539,173692,174239,173586,173692,Flanker Task,69,43652,69,yes,1024
100,100,631.5142857,631.5142857,black,legacy,legacy,legacy,0,congruent,uniform,1,undefined,1,s,0,0,0,69,0,69,0,69,0,0,0,69,69,69,69,69,9/16/2020 21:06,1500,The main experiment item,yes,FlankerTask Rene Wallace.osexp,C:\Users\18177\OneDrive\Documents\School\Grad School\Fall 2020\Lab 2 FlankerTask,no,mono,no,18,no,white,no,yes,768,legacy,69,69,C:/Users/18177/OneDrive/Documents/School/Grad School/Fall 2020/Lab 2 FlankerTask/RW-subject-2.csv,legacy,Lentiform Loewenfeld,3.3.3,0,s,NA,h,NA,NA,s,554,NA,46458,NA,NA,554,2,legacy,1024,2,48000,-16,experiment,SSSSS,2,even,50367,NA,NA,NA,3897,NA,NA,175300,3906,NA,NA,174251,175404,175959,175298,175403,Flanker Task,70,44206,70,yes,1024
100,100,630.2816901,630.2816901,black,legacy,legacy,legacy,0,congruent,uniform,1,undefined,1,h,0,0,0,70,0,70,0,70,0,0,0,70,70,70,70,70,9/16/2020 21:06,1500,The main experiment item,yes,FlankerTask Rene Wallace.osexp,C:\Users\18177\OneDrive\Documents\School\Grad School\Fall 2020\Lab 2 FlankerTask,no,mono,no,18,no,white,no,yes,768,legacy,70,70,C:/Users/18177/OneDrive/Documents/School/Grad School/Fall 2020/Lab 2 FlankerTask/RW-subject-2.csv,legacy,Lentiform Loewenfeld,3.3.3,0,h,NA,h,NA,NA,h,544,NA,46458,NA,NA,544,2,legacy,1024,2,48000,-16,experiment,HHHHH,2,even,50367,NA,NA,NA,3897,NA,NA,177019,3906,NA,NA,175970,177122,177667,177017,177122,Flanker Task,71,44750,71,yes,1024
100,100,627.8611111,627.8611111,black,legacy,legacy,legacy,0,congruent,uniform,1,undefined,1,s,0,0,0,71,0,71,0,71,0,0,0,71,71,71,71,71,9/16/2020 21:06,1500,The main experiment item,yes,FlankerTask Rene Wallace.osexp,C:\Users\18177\OneDrive\Documents\School\Grad School\Fall 2020\Lab 2 FlankerTask,no,mono,no,18,no,white,no,yes,768,legacy,71,71,C:/Users/18177/OneDrive/Documents/School/Grad School/Fall 2020/Lab 2 FlankerTask/RW-subject-2.csv,legacy,Lentiform Loewenfeld,3.3.3,0,s,NA,h,NA,NA,s,456,NA,46458,NA,NA,456,2,legacy,1024,2,48000,-16,experiment,SSSSS,2,even,50367,NA,NA,NA,3897,NA,NA,178727,3906,NA,NA,177681,178828,179284,178725,178828,Flanker Task,72,45206,72,yes,1024
100,100,630.4109589,630.4109589,black,legacy,legacy,legacy,0,incongruent,uniform,1,undefined,1,s,0,0,0,72,0,72,0,72,0,0,0,72,72,72,72,72,9/16/2020 21:06,1500,The main experiment item,yes,FlankerTask Rene Wallace.osexp,C:\Users\18177\OneDrive\Documents\School\Grad School\Fall 2020\Lab 2 FlankerTask,no,mono,no,18,no,white,no,yes,768,legacy,72,72,C:/Users/18177/OneDrive/Documents/School/Grad School/Fall 2020/Lab 2 FlankerTask/RW-subject-2.csv,legacy,Lentiform Loewenfeld,3.3.3,0,s,NA,h,NA,NA,s,814,NA,46458,NA,NA,814,2,legacy,1024,2,48000,-16,experiment,HHSHH,2,even,50367,NA,NA,NA,3897,NA,NA,180347,3906,NA,NA,179298,180451,181266,180344,180451,Flanker Task,73,46020,73,yes,1024
100,100,628.5,628.5,black,legacy,legacy,legacy,0,congruent,uniform,1,undefined,1,s,0,0,0,73,0,73,0,73,0,0,0,73,73,73,73,73,9/16/2020 21:06,1500,The main experiment item,yes,FlankerTask Rene Wallace.osexp,C:\Users\18177\OneDrive\Documents\School\Grad School\Fall 2020\Lab 2 FlankerTask,no,mono,no,18,no,white,no,yes,768,legacy,73,73,C:/Users/18177/OneDrive/Documents/School/Grad School/Fall 2020/Lab 2 FlankerTask/RW-subject-2.csv,legacy,Lentiform Loewenfeld,3.3.3,0,s,NA,h,NA,NA,s,489,NA,46458,NA,NA,489,2,legacy,1024,2,48000,-16,experiment,SSSSS,2,even,50367,NA,NA,NA,3897,NA,NA,182331,3906,NA,NA,181279,182435,182925,182329,182435,Flanker Task,74,46509,74,yes,1024
100,100,628.9733333,628.9733333,black,legacy,legacy,legacy,0,incongruent,uniform,1,undefined,1,h,0,0,0,74,0,74,0,74,0,0,0,74,74,74,74,74,9/16/2020 21:06,1500,The main experiment item,yes,FlankerTask Rene Wallace.osexp,C:\Users\18177\OneDrive\Documents\School\Grad School\Fall 2020\Lab 2 FlankerTask,no,mono,no,18,no,white,no,yes,768,legacy,74,74,C:/Users/18177/OneDrive/Documents/School/Grad School/Fall 2020/Lab 2 FlankerTask/RW-subject-2.csv,legacy,Lentiform Loewenfeld,3.3.3,0,h,NA,h,NA,NA,h,664,NA,46458,NA,NA,664,2,legacy,1024,2,48000,-16,experiment,SSHSS,2,even,50367,NA,NA,NA,3897,NA,NA,183987,3906,NA,NA,182938,184091,184756,183986,184090,Flanker Task,75,47173,75,yes,1024
100,100,627.5921053,627.5921053,black,legacy,legacy,legacy,0,congruent,uniform,1,undefined,1,h,0,0,0,75,0,75,0,75,0,0,0,75,75,75,75,75,9/16/2020 21:06,1500,The main experiment item,yes,FlankerTask Rene Wallace.osexp,C:\Users\18177\OneDrive\Documents\School\Grad School\Fall 2020\Lab 2 FlankerTask,no,mono,no,18,no,white,no,yes,768,legacy,75,75,C:/Users/18177/OneDrive/Documents/School/Grad School/Fall 2020/Lab 2 FlankerTask/RW-subject-2.csv,legacy,Lentiform Loewenfeld,3.3.3,0,h,NA,h,NA,NA,h,524,NA,46458,NA,NA,524,2,legacy,1024,2,48000,-16,experiment,HHHHH,2,even,50367,NA,NA,NA,3897,NA,NA,185819,3906,NA,NA,184767,185923,186448,185816,185923,Flanker Task,76,47697,76,yes,1024
100,100,628.4285714,628.4285714,black,legacy,legacy,legacy,0,incongruent,uniform,1,undefined,1,s,0,0,0,76,0,76,0,76,0,0,0,76,76,76,76,76,9/16/2020 21:06,1500,The main experiment item,yes,FlankerTask Rene Wallace.osexp,C:\Users\18177\OneDrive\Documents\School\Grad School\Fall 2020\Lab 2 FlankerTask,no,mono,no,18,no,white,no,yes,768,legacy,76,76,C:/Users/18177/OneDrive/Documents/School/Grad School/Fall 2020/Lab 2 FlankerTask/RW-subject-2.csv,legacy,Lentiform Loewenfeld,3.3.3,0,s,NA,h,NA,NA,s,692,NA,46458,NA,NA,692,2,legacy,1024,2,48000,-16,experiment,HHSHH,2,even,50367,NA,NA,NA,3897,NA,NA,187511,3906,NA,NA,186461,187615,188307,187509,187615,Flanker Task,77,48389,77,yes,1024
100,100,627.8589744,627.8589744,black,legacy,legacy,legacy,0,congruent,uniform,1,undefined,1,s,0,0,0,77,0,77,0,77,0,0,0,77,77,77,77,77,9/16/2020 21:06,1500,The main experiment item,yes,FlankerTask Rene Wallace.osexp,C:\Users\18177\OneDrive\Documents\School\Grad School\Fall 2020\Lab 2 FlankerTask,no,mono,no,18,no,white,no,yes,768,legacy,77,77,C:/Users/18177/OneDrive/Documents/School/Grad School/Fall 2020/Lab 2 FlankerTask/RW-subject-2.csv,legacy,Lentiform Loewenfeld,3.3.3,0,s,NA,h,NA,NA,s,584,NA,46458,NA,NA,584,2,legacy,1024,2,48000,-16,experiment,SSSSS,2,even,50367,NA,NA,NA,3897,NA,NA,189368,3906,NA,NA,188319,189472,190057,189367,189471,Flanker Task,78,48973,78,yes,1024
100,100,628.6962025,628.6962025,black,legacy,legacy,legacy,0,incongruent,uniform,1,undefined,1,s,0,0,0,78,0,78,0,78,0,0,0,78,78,78,78,78,9/16/2020 21:06,1500,The main experiment item,yes,FlankerTask Rene Wallace.osexp,C:\Users\18177\OneDrive\Documents\School\Grad School\Fall 2020\Lab 2 FlankerTask,no,mono,no,18,no,white,no,yes,768,legacy,78,78,C:/Users/18177/OneDrive/Documents/School/Grad School/Fall 2020/Lab 2 FlankerTask/RW-subject-2.csv,legacy,Lentiform Loewenfeld,3.3.3,0,s,NA,h,NA,NA,s,694,NA,46458,NA,NA,694,2,legacy,1024,2,48000,-16,experiment,HHSHH,2,even,50367,NA,NA,NA,3897,NA,NA,191110,3906,NA,NA,190061,191212,191907,191107,191212,Flanker Task,79,49667,79,yes,1024
100,100,628.725,628.725,black,legacy,legacy,legacy,0,congruent,uniform,1,undefined,1,s,0,0,0,79,0,79,0,79,0,0,0,79,79,79,79,79,9/16/2020 21:06,1500,The main experiment item,yes,FlankerTask Rene Wallace.osexp,C:\Users\18177\OneDrive\Documents\School\Grad School\Fall 2020\Lab 2 FlankerTask,no,mono,no,18,no,white,no,yes,768,legacy,79,79,C:/Users/18177/OneDrive/Documents/School/Grad School/Fall 2020/Lab 2 FlankerTask/RW-subject-2.csv,legacy,Lentiform Loewenfeld,3.3.3,0,s,NA,h,NA,NA,s,631,NA,46458,NA,NA,631,2,legacy,1024,2,48000,-16,experiment,SSSSS,2,even,50367,NA,NA,NA,3897,NA,NA,192969,3906,NA,NA,191919,193073,193705,192967,193073,Flanker Task,80,50298,80,yes,1024
100,100,630.037037,630.037037,black,legacy,legacy,legacy,0,incongruent,uniform,1,undefined,1,h,0,0,0,80,0,80,0,80,0,0,0,80,80,80,80,80,9/16/2020 21:06,600,The main experiment item,yes,FlankerTask Rene Wallace.osexp,C:\Users\18177\OneDrive\Documents\School\Grad School\Fall 2020\Lab 2 FlankerTask,no,mono,no,18,no,white,no,yes,768,legacy,0,79,C:/Users/18177/OneDrive/Documents/School/Grad School/Fall 2020/Lab 2 FlankerTask/RW-subject-2.csv,legacy,Lentiform Loewenfeld,3.3.3,0,h,NA,h,h,NA,h,735,NA,46458,14051,NA,735,2,legacy,1024,2,48000,-16,experiment,SSHSS,2,even,50367,208781,NA,NA,3897,NA,NA,208827,3906,194729,NA,193719,208930,209666,208826,208929,Flanker Task,81,51033,81,yes,1024
100,100,628.0853659,628.0853659,black,legacy,legacy,legacy,0,congruent,uniform,1,undefined,1,s,0,0,0,81,0,81,0,81,0,0,0,81,81,81,81,81,9/16/2020 21:06,600,The main experiment item,yes,FlankerTask Rene Wallace.osexp,C:\Users\18177\OneDrive\Documents\School\Grad School\Fall 2020\Lab 2 FlankerTask,no,mono,no,18,no,white,no,yes,768,legacy,1,79,C:/Users/18177/OneDrive/Documents/School/Grad School/Fall 2020/Lab 2 FlankerTask/RW-subject-2.csv,legacy,Lentiform Loewenfeld,3.3.3,0,s,NA,h,h,NA,s,470,NA,46458,14051,NA,470,2,legacy,1024,2,48000,-16,experiment,SSSSS,2,even,50367,208781,NA,NA,3897,209678,NA,211225,3906,194729,NA,210179,211328,211799,211223,211328,Flanker Task,82,51503,82,yes,1024
98.79518072,98.79518072,624.8795181,624.8795181,black,legacy,legacy,legacy,0,incongruent,uniform,0,undefined,0,s,0,0,0,82,0,82,0,82,0,0,0,82,82,82,82,82,9/16/2020 21:06,600,The main experiment item,yes,FlankerTask Rene Wallace.osexp,C:\Users\18177\OneDrive\Documents\School\Grad School\Fall 2020\Lab 2 FlankerTask,no,mono,no,18,no,white,no,yes,768,legacy,2,79,C:/Users/18177/OneDrive/Documents/School/Grad School/Fall 2020/Lab 2 FlankerTask/RW-subject-2.csv,legacy,Lentiform Loewenfeld,3.3.3,0,h,NA,h,h,NA,h,362,NA,46458,14051,NA,362,2,legacy,1024,2,48000,-16,experiment,HHSHH,2,even,50367,208781,NA,NA,3897,209678,NA,212851,3906,194729,NA,211803,212953,213316,212849,212953,Flanker Task,82,51865,83,yes,1024
98.80952381,98.80952381,622.5952381,622.5952381,black,legacy,legacy,legacy,0,congruent,uniform,1,undefined,1,s,0,0,0,83,0,83,0,83,0,0,0,83,83,83,83,83,9/16/2020 21:06,600,The main experiment item,yes,FlankerTask Rene Wallace.osexp,C:\Users\18177\OneDrive\Documents\School\Grad School\Fall 2020\Lab 2 FlankerTask,no,mono,no,18,no,white,no,yes,768,legacy,3,79,C:/Users/18177/OneDrive/Documents/School/Grad School/Fall 2020/Lab 2 FlankerTask/RW-subject-2.csv,legacy,Lentiform Loewenfeld,3.3.3,0,s,NA,h,h,NA,s,433,NA,46458,14051,NA,433,2,legacy,1024,2,48000,-16,experiment,SSSSS,2,even,50367,208781,NA,213327,3897,209678,NA,214874,3906,194729,NA,213828,214975,215409,214873,214975,Flanker Task,83,52298,84,yes,1024
98.82352941,98.82352941,620.8117647,620.8117647,black,legacy,legacy,legacy,0,incongruent,uniform,1,undefined,1,s,0,0,0,84,0,84,0,84,0,0,0,84,84,84,84,84,9/16/2020 21:06,600,The main experiment item,yes,FlankerTask Rene Wallace.osexp,C:\Users\18177\OneDrive\Documents\School\Grad School\Fall 2020\Lab 2 FlankerTask,no,mono,no,18,no,white,no,yes,768,legacy,4,79,C:/Users/18177/OneDrive/Documents/School/Grad School/Fall 2020/Lab 2 FlankerTask/RW-subject-2.csv,legacy,Lentiform Loewenfeld,3.3.3,0,s,NA,h,h,NA,s,471,NA,46458,14051,NA,471,2,legacy,1024,2,48000,-16,experiment,HHSHH,2,even,50367,208781,NA,213327,3897,209678,NA,216469,3906,194729,NA,215421,216570,217041,216467,216570,Flanker Task,84,52769,85,yes,1024
98.8372093,98.8372093,619.1395349,619.1395349,black,legacy,legacy,legacy,0,incongruent,uniform,1,undefined,1,s,0,0,0,85,0,85,0,85,0,0,0,85,85,85,85,85,9/16/2020 21:06,600,The main experiment item,yes,FlankerTask Rene Wallace.osexp,C:\Users\18177\OneDrive\Documents\School\Grad School\Fall 2020\Lab 2 FlankerTask,no,mono,no,18,no,white,no,yes,768,legacy,5,79,C:/Users/18177/OneDrive/Documents/School/Grad School/Fall 2020/Lab 2 FlankerTask/RW-subject-2.csv,legacy,Lentiform Loewenfeld,3.3.3,0,s,NA,h,h,NA,s,477,NA,46458,14051,NA,477,2,legacy,1024,2,48000,-16,experiment,HHSHH,2,even,50367,208781,NA,213327,3897,209678,NA,218110,3906,194729,NA,217056,218211,218688,218108,218211,Flanker Task,85,53246,86,yes,1024
97.70114943,97.70114943,617.091954,617.091954,black,legacy,legacy,legacy,0,incongruent,uniform,0,undefined,0,h,0,0,0,86,0,86,0,86,0,0,0,86,86,86,86,86,9/16/2020 21:06,600,The main experiment item,yes,FlankerTask Rene Wallace.osexp,C:\Users\18177\OneDrive\Documents\School\Grad School\Fall 2020\Lab 2 FlankerTask,no,mono,no,18,no,white,no,yes,768,legacy,6,79,C:/Users/18177/OneDrive/Documents/School/Grad School/Fall 2020/Lab 2 FlankerTask/RW-subject-2.csv,legacy,Lentiform Loewenfeld,3.3.3,0,s,NA,h,h,NA,s,441,NA,46458,14051,NA,441,2,legacy,1024,2,48000,-16,experiment,SSHSS,2,even,50367,208781,NA,213327,3897,209678,NA,219741,3906,194729,NA,218692,219842,220284,219739,219842,Flanker Task,85,53687,87,yes,1024
97.72727273,97.72727273,615.2272727,615.2272727,black,legacy,legacy,legacy,0,congruent,uniform,1,undefined,1,s,0,0,0,87,0,87,0,87,0,0,0,87,87,87,87,87,9/16/2020 21:06,600,The main experiment item,yes,FlankerTask Rene Wallace.osexp,C:\Users\18177\OneDrive\Documents\School\Grad School\Fall 2020\Lab 2 FlankerTask,no,mono,no,18,no,white,no,yes,768,legacy,7,79,C:/Users/18177/OneDrive/Documents/School/Grad School/Fall 2020/Lab 2 FlankerTask/RW-subject-2.csv,legacy,Lentiform Loewenfeld,3.3.3,0,s,NA,h,h,NA,s,453,NA,46458,14051,NA,453,2,legacy,1024,2,48000,-16,experiment,SSSSS,2,even,50367,208781,NA,220297,3897,209678,NA,221843,3906,194729,NA,220798,221945,222399,221842,221945,Flanker Task,86,54140,88,yes,1024
97.75280899,97.75280899,614.8988764,614.8988764,black,legacy,legacy,legacy,0,incongruent,uniform,1,undefined,1,h,0,0,0,88,0,88,0,88,0,0,0,88,88,88,88,88,9/16/2020 21:06,600,The main experiment item,yes,FlankerTask Rene Wallace.osexp,C:\Users\18177\OneDrive\Documents\School\Grad School\Fall 2020\Lab 2 FlankerTask,no,mono,no,18,no,white,no,yes,768,legacy,8,79,C:/Users/18177/OneDrive/Documents/School/Grad School/Fall 2020/Lab 2 FlankerTask/RW-subject-2.csv,legacy,Lentiform Loewenfeld,3.3.3,0,h,NA,h,h,NA,h,586,NA,46458,14051,NA,586,2,legacy,1024,2,48000,-16,experiment,SSHSS,2,even,50367,208781,NA,220297,3897,209678,NA,223460,3906,194729,NA,222411,223563,224150,223458,223563,Flanker Task,87,54726,89,yes,1024
97.77777778,97.77777778,614.2777778,614.2777778,black,legacy,legacy,legacy,0,congruent,uniform,1,undefined,1,s,0,0,0,89,0,89,0,89,0,0,0,89,89,89,89,89,9/16/2020 21:06,600,The main experiment item,yes,FlankerTask Rene Wallace.osexp,C:\Users\18177\OneDrive\Documents\School\Grad School\Fall 2020\Lab 2 FlankerTask,no,mono,no,18,no,white,no,yes,768,legacy,9,79,C:/Users/18177/OneDrive/Documents/School/Grad School/Fall 2020/Lab 2 FlankerTask/RW-subject-2.csv,legacy,Lentiform Loewenfeld,3.3.3,0,s,NA,h,h,NA,s,559,NA,46458,14051,NA,559,2,legacy,1024,2,48000,-16,experiment,SSSSS,2,even,50367,208781,NA,220297,3897,209678,NA,225204,3906,194729,NA,224154,225308,225868,225202,225308,Flanker Task,88,55285,90,yes,1024
97.8021978,97.8021978,612.7912088,612.7912088,black,legacy,legacy,legacy,0,congruent,uniform,1,undefined,1,s,0,0,0,90,0,90,0,90,0,0,0,90,90,90,90,90,9/16/2020 21:06,600,The main experiment item,yes,FlankerTask Rene Wallace.osexp,C:\Users\18177\OneDrive\Documents\School\Grad School\Fall 2020\Lab 2 FlankerTask,no,mono,no,18,no,white,no,yes,768,legacy,10,79,C:/Users/18177/OneDrive/Documents/School/Grad School/Fall 2020/Lab 2 FlankerTask/RW-subject-2.csv,legacy,Lentiform Loewenfeld,3.3.3,0,s,NA,h,h,NA,s,479,NA,46458,14051,NA,479,2,legacy,1024,2,48000,-16,experiment,SSSSS,2,even,50367,208781,NA,220297,3897,209678,NA,226927,3906,194729,NA,225880,227030,227510,226925,227030,Flanker Task,89,55764,91,yes,1024
97.82608696,97.82608696,612.6630435,612.6630435,black,legacy,legacy,legacy,0,incongruent,uniform,1,undefined,1,h,0,0,0,91,0,91,0,91,0,0,0,91,91,91,91,91,9/16/2020 21:06,600,The main experiment item,yes,FlankerTask Rene Wallace.osexp,C:\Users\18177\OneDrive\Documents\School\Grad School\Fall 2020\Lab 2 FlankerTask,no,mono,no,18,no,white,no,yes,768,legacy,11,79,C:/Users/18177/OneDrive/Documents/School/Grad School/Fall 2020/Lab 2 FlankerTask/RW-subject-2.csv,legacy,Lentiform Loewenfeld,3.3.3,0,h,NA,h,h,NA,h,601,NA,46458,14051,NA,601,2,legacy,1024,2,48000,-16,experiment,SSHSS,2,even,50367,208781,NA,220297,3897,209678,NA,228575,3906,194729,NA,227523,228677,229279,228573,228677,Flanker Task,90,56365,92,yes,1024
97.84946237,97.84946237,612.6451613,612.6451613,black,legacy,legacy,legacy,0,congruent,uniform,1,undefined,1,h,0,0,0,92,0,92,0,92,0,0,0,92,92,92,92,92,9/16/2020 21:06,600,The main experiment item,yes,FlankerTask Rene Wallace.osexp,C:\Users\18177\OneDrive\Documents\School\Grad School\Fall 2020\Lab 2 FlankerTask,no,mono,no,18,no,white,no,yes,768,legacy,12,79,C:/Users/18177/OneDrive/Documents/School/Grad School/Fall 2020/Lab 2 FlankerTask/RW-subject-2.csv,legacy,Lentiform Loewenfeld,3.3.3,0,h,NA,h,h,NA,h,611,NA,46458,14051,NA,611,2,legacy,1024,2,48000,-16,experiment,HHHHH,2,even,50367,208781,NA,220297,3897,229291,NA,230856,3906,194729,NA,229792,230958,231570,230854,230958,Flanker Task,91,56976,93,yes,1024
97.87234043,97.87234043,610.1595745,610.1595745,black,legacy,legacy,legacy,0,congruent,uniform,1,undefined,1,h,0,0,0,93,0,93,0,93,0,0,0,93,93,93,93,93,9/16/2020 21:06,600,The main experiment item,yes,FlankerTask Rene Wallace.osexp,C:\Users\18177\OneDrive\Documents\School\Grad School\Fall 2020\Lab 2 FlankerTask,no,mono,no,18,no,white,no,yes,768,legacy,13,79,C:/Users/18177/OneDrive/Documents/School/Grad School/Fall 2020/Lab 2 FlankerTask/RW-subject-2.csv,legacy,Lentiform Loewenfeld,3.3.3,0,h,NA,h,h,NA,h,379,NA,46458,14051,NA,379,2,legacy,1024,2,48000,-16,experiment,HHHHH,2,even,50367,208781,NA,220297,3897,231583,NA,233131,3906,194729,NA,232084,233235,233615,233129,233234,Flanker Task,92,57355,94,yes,1024
97.89473684,97.89473684,609.6421053,609.6421053,black,legacy,legacy,legacy,0,incongruent,uniform,1,undefined,1,s,0,0,0,94,0,94,0,94,0,0,0,94,94,94,94,94,9/16/2020 21:06,600,The main experiment item,yes,FlankerTask Rene Wallace.osexp,C:\Users\18177\OneDrive\Documents\School\Grad School\Fall 2020\Lab 2 FlankerTask,no,mono,no,18,no,white,no,yes,768,legacy,14,79,C:/Users/18177/OneDrive/Documents/School/Grad School/Fall 2020/Lab 2 FlankerTask/RW-subject-2.csv,legacy,Lentiform Loewenfeld,3.3.3,0,s,NA,h,h,NA,s,561,NA,46458,14051,NA,561,2,legacy,1024,2,48000,-16,experiment,HHSHH,2,even,50367,208781,NA,220297,3897,231583,NA,234668,3906,194729,NA,233620,234769,235331,234666,234769,Flanker Task,93,57916,95,yes,1024
97.91666667,97.91666667,607.1354167,607.1354167,black,legacy,legacy,legacy,0,congruent,uniform,1,undefined,1,h,0,0,0,95,0,95,0,95,0,0,0,95,95,95,95,95,9/16/2020 21:06,600,The main experiment item,yes,FlankerTask Rene Wallace.osexp,C:\Users\18177\OneDrive\Documents\School\Grad School\Fall 2020\Lab 2 FlankerTask,no,mono,no,18,no,white,no,yes,768,legacy,15,79,C:/Users/18177/OneDrive/Documents/School/Grad School/Fall 2020/Lab 2 FlankerTask/RW-subject-2.csv,legacy,Lentiform Loewenfeld,3.3.3,0,h,NA,h,h,NA,h,369,NA,46458,14051,NA,369,2,legacy,1024,2,48000,-16,experiment,HHHHH,2,even,50367,208781,NA,220297,3897,231583,NA,236389,3906,194729,NA,235343,236489,236858,236387,236489,Flanker Task,94,58285,96,yes,1024
97.93814433,97.93814433,604.8556701,604.8556701,black,legacy,legacy,legacy,0,incongruent,uniform,1,undefined,1,s,0,0,0,96,0,96,0,96,0,0,0,96,96,96,96,96,9/16/2020 21:06,600,The main experiment item,yes,FlankerTask Rene Wallace.osexp,C:\Users\18177\OneDrive\Documents\School\Grad School\Fall 2020\Lab 2 FlankerTask,no,mono,no,18,no,white,no,yes,768,legacy,16,79,C:/Users/18177/OneDrive/Documents/School/Grad School/Fall 2020/Lab 2 FlankerTask/RW-subject-2.csv,legacy,Lentiform Loewenfeld,3.3.3,0,s,NA,h,h,NA,s,386,NA,46458,14051,NA,386,2,legacy,1024,2,48000,-16,experiment,HHSHH,2,even,50367,208781,NA,220297,3897,231583,NA,237920,3906,194729,NA,236871,238024,238411,237918,238024,Flanker Task,95,58671,97,yes,1024
97.95918367,97.95918367,604.2653061,604.2653061,black,legacy,legacy,legacy,0,incongruent,uniform,1,undefined,1,s,0,0,0,97,0,97,0,97,0,0,0,97,97,97,97,97,9/16/2020 21:06,600,The main experiment item,yes,FlankerTask Rene Wallace.osexp,C:\Users\18177\OneDrive\Documents\School\Grad School\Fall 2020\Lab 2 FlankerTask,no,mono,no,18,no,white,no,yes,768,legacy,17,79,C:/Users/18177/OneDrive/Documents/School/Grad School/Fall 2020/Lab 2 FlankerTask/RW-subject-2.csv,legacy,Lentiform Loewenfeld,3.3.3,0,s,NA,h,h,NA,s,547,NA,46458,14051,NA,547,2,legacy,1024,2,48000,-16,experiment,HHSHH,2,even,50367,208781,NA,220297,3897,231583,NA,239472,3906,194729,NA,238424,239576,240124,239470,239576,Flanker Task,96,59218,98,yes,1024
97.97979798,97.97979798,603.040404,603.040404,black,legacy,legacy,legacy,0,incongruent,uniform,1,undefined,1,s,0,0,0,98,0,98,0,98,0,0,0,98,98,98,98,98,9/16/2020 21:06,600,The main experiment item,yes,FlankerTask Rene Wallace.osexp,C:\Users\18177\OneDrive\Documents\School\Grad School\Fall 2020\Lab 2 FlankerTask,no,mono,no,18,no,white,no,yes,768,legacy,18,79,C:/Users/18177/OneDrive/Documents/School/Grad School/Fall 2020/Lab 2 FlankerTask/RW-subject-2.csv,legacy,Lentiform Loewenfeld,3.3.3,0,s,NA,h,h,NA,s,483,NA,46458,14051,NA,483,2,legacy,1024,2,48000,-16,experiment,HHSHH,2,even,50367,208781,NA,220297,3897,231583,NA,241184,3906,194729,NA,240137,241288,241772,241181,241288,Flanker Task,97,59701,99,yes,1024
97,97,601.62,601.62,black,legacy,legacy,legacy,0,incongruent,uniform,0,undefined,0,h,0,0,0,99,0,99,0,99,0,0,0,99,99,99,99,99,9/16/2020 21:06,600,The main experiment item,yes,FlankerTask Rene Wallace.osexp,C:\Users\18177\OneDrive\Documents\School\Grad School\Fall 2020\Lab 2 FlankerTask,no,mono,no,18,no,white,no,yes,768,legacy,19,79,C:/Users/18177/OneDrive/Documents/School/Grad School/Fall 2020/Lab 2 FlankerTask/RW-subject-2.csv,legacy,Lentiform Loewenfeld,3.3.3,0,s,NA,h,h,NA,s,461,NA,46458,14051,NA,461,2,legacy,1024,2,48000,-16,experiment,SSHSS,2,even,50367,208781,NA,220297,3897,231583,NA,242821,3906,194729,NA,241776,242924,243386,242820,242924,Flanker Task,97,60162,100,yes,1024
97.02970297,97.02970297,599.8613861,599.8613861,black,legacy,legacy,legacy,0,congruent,uniform,1,undefined,1,h,0,0,0,100,0,100,0,100,0,0,0,100,100,100,100,100,9/16/2020 21:06,600,The main experiment item,yes,FlankerTask Rene Wallace.osexp,C:\Users\18177\OneDrive\Documents\School\Grad School\Fall 2020\Lab 2 FlankerTask,no,mono,no,18,no,white,no,yes,768,legacy,20,79,C:/Users/18177/OneDrive/Documents/School/Grad School/Fall 2020/Lab 2 FlankerTask/RW-subject-2.csv,legacy,Lentiform Loewenfeld,3.3.3,0,h,NA,h,h,NA,h,424,NA,46458,14051,NA,424,2,legacy,1024,2,48000,-16,experiment,HHHHH,2,even,50367,208781,NA,243397,3897,231583,NA,244947,3906,194729,NA,243898,245048,245473,244945,245048,Flanker Task,98,60586,101,yes,1024
97.05882353,97.05882353,598.8823529,598.8823529,black,legacy,legacy,legacy,0,congruent,uniform,1,undefined,1,s,0,0,0,101,0,101,0,101,0,0,0,101,101,101,101,101,9/16/2020 21:06,600,The main experiment item,yes,FlankerTask Rene Wallace.osexp,C:\Users\18177\OneDrive\Documents\School\Grad School\Fall 2020\Lab 2 FlankerTask,no,mono,no,18,no,white,no,yes,768,legacy,21,79,C:/Users/18177/OneDrive/Documents/School/Grad School/Fall 2020/Lab 2 FlankerTask/RW-subject-2.csv,legacy,Lentiform Loewenfeld,3.3.3,0,s,NA,h,h,NA,s,500,NA,46458,14051,NA,500,2,legacy,1024,2,48000,-16,experiment,SSSSS,2,even,50367,208781,NA,243397,3897,231583,NA,246534,3906,194729,NA,245486,246638,247138,246532,246638,Flanker Task,99,61086,102,yes,1024
97.08737864,97.08737864,598.7184466,598.7184466,black,legacy,legacy,legacy,0,incongruent,uniform,1,undefined,1,h,0,0,0,102,0,102,0,102,0,0,0,102,102,102,102,102,9/16/2020 21:06,600,The main experiment item,yes,FlankerTask Rene Wallace.osexp,C:\Users\18177\OneDrive\Documents\School\Grad School\Fall 2020\Lab 2 FlankerTask,no,mono,no,18,no,white,no,yes,768,legacy,22,79,C:/Users/18177/OneDrive/Documents/School/Grad School/Fall 2020/Lab 2 FlankerTask/RW-subject-2.csv,legacy,Lentiform Loewenfeld,3.3.3,0,h,NA,h,h,NA,h,582,NA,46458,14051,NA,582,2,legacy,1024,2,48000,-16,experiment,SSHSS,2,even,50367,208781,NA,243397,3897,231583,NA,248201,3906,194729,NA,247152,248302,248885,248200,248302,Flanker Task,100,61668,103,yes,1024
97.11538462,97.11538462,598.2980769,598.2980769,black,legacy,legacy,legacy,0,congruent,uniform,1,undefined,1,s,0,0,0,103,0,103,0,103,0,0,0,103,103,103,103,103,9/16/2020 21:06,600,The main experiment item,yes,FlankerTask Rene Wallace.osexp,C:\Users\18177\OneDrive\Documents\School\Grad School\Fall 2020\Lab 2 FlankerTask,no,mono,no,18,no,white,no,yes,768,legacy,23,79,C:/Users/18177/OneDrive/Documents/School/Grad School/Fall 2020/Lab 2 FlankerTask/RW-subject-2.csv,legacy,Lentiform Loewenfeld,3.3.3,0,s,NA,h,h,NA,s,555,NA,46458,14051,NA,555,2,legacy,1024,2,48000,-16,experiment,SSSSS,2,even,50367,208781,NA,243397,3897,231583,NA,249943,3906,194729,NA,248897,250044,250599,249941,250044,Flanker Task,101,62223,104,yes,1024
97.14285714,97.14285714,598.5809524,598.5809524,black,legacy,legacy,legacy,0,incongruent,uniform,1,undefined,1,s,0,0,0,104,0,104,0,104,0,0,0,104,104,104,104,104,9/16/2020 21:06,600,The main experiment item,yes,FlankerTask Rene Wallace.osexp,C:\Users\18177\OneDrive\Documents\School\Grad School\Fall 2020\Lab 2 FlankerTask,no,mono,no,18,no,white,no,yes,768,legacy,24,79,C:/Users/18177/OneDrive/Documents/School/Grad School/Fall 2020/Lab 2 FlankerTask/RW-subject-2.csv,legacy,Lentiform Loewenfeld,3.3.3,0,s,NA,h,h,NA,s,628,NA,46458,14051,NA,628,2,legacy,1024,2,48000,-16,experiment,HHSHH,2,even,50367,208781,NA,243397,3897,231583,NA,251661,3906,194729,NA,250613,251764,252393,251659,251764,Flanker Task,102,62851,105,yes,1024
97.16981132,97.16981132,596.5188679,596.5188679,black,legacy,legacy,legacy,0,congruent,uniform,1,undefined,1,h,0,0,0,105,0,105,0,105,0,0,0,105,105,105,105,105,9/16/2020 21:06,600,The main experiment item,yes,FlankerTask Rene Wallace.osexp,C:\Users\18177\OneDrive\Documents\School\Grad School\Fall 2020\Lab 2 FlankerTask,no,mono,no,18,no,white,no,yes,768,legacy,25,79,C:/Users/18177/OneDrive/Documents/School/Grad School/Fall 2020/Lab 2 FlankerTask/RW-subject-2.csv,legacy,Lentiform Loewenfeld,3.3.3,0,h,NA,h,h,NA,h,380,NA,46458,14051,NA,380,2,legacy,1024,2,48000,-16,experiment,HHHHH,2,even,50367,208781,NA,243397,3897,252397,NA,253945,3906,194729,NA,252899,254049,254430,253943,254049,Flanker Task,103,63231,106,yes,1024
97.19626168,97.19626168,593.3551402,593.3551402,black,legacy,legacy,legacy,0,congruent,uniform,1,undefined,1,s,0,0,0,106,0,106,0,106,0,0,0,106,106,106,106,106,9/16/2020 21:06,600,The main experiment item,yes,FlankerTask Rene Wallace.osexp,C:\Users\18177\OneDrive\Documents\School\Grad School\Fall 2020\Lab 2 FlankerTask,no,mono,no,18,no,white,no,yes,768,legacy,26,79,C:/Users/18177/OneDrive/Documents/School/Grad School/Fall 2020/Lab 2 FlankerTask/RW-subject-2.csv,legacy,Lentiform Loewenfeld,3.3.3,0,s,NA,h,h,NA,s,258,NA,46458,14051,NA,258,2,legacy,1024,2,48000,-16,experiment,SSSSS,2,even,50367,208781,NA,243397,3897,252397,NA,255490,3906,194729,NA,254442,255594,255853,255488,255594,Flanker Task,104,63489,107,yes,1024
97.22222222,97.22222222,591.6944444,591.6944444,black,legacy,legacy,legacy,0,congruent,uniform,1,undefined,1,h,0,0,0,107,0,107,0,107,0,0,0,107,107,107,107,107,9/16/2020 21:06,600,The main experiment item,yes,FlankerTask Rene Wallace.osexp,C:\Users\18177\OneDrive\Documents\School\Grad School\Fall 2020\Lab 2 FlankerTask,no,mono,no,18,no,white,no,yes,768,legacy,27,79,C:/Users/18177/OneDrive/Documents/School/Grad School/Fall 2020/Lab 2 FlankerTask/RW-subject-2.csv,legacy,Lentiform Loewenfeld,3.3.3,0,h,NA,h,h,NA,h,414,NA,46458,14051,NA,414,2,legacy,1024,2,48000,-16,experiment,HHHHH,2,even,50367,208781,NA,243397,3897,252397,NA,256912,3906,194729,NA,255866,257015,257430,256910,257015,Flanker Task,105,63903,108,yes,1024
96.33027523,96.33027523,589.559633,589.559633,black,legacy,legacy,legacy,0,incongruent,uniform,0,undefined,0,h,0,0,0,108,0,108,0,108,0,0,0,108,108,108,108,108,9/16/2020 21:06,600,The main experiment item,yes,FlankerTask Rene Wallace.osexp,C:\Users\18177\OneDrive\Documents\School\Grad School\Fall 2020\Lab 2 FlankerTask,no,mono,no,18,no,white,no,yes,768,legacy,28,79,C:/Users/18177/OneDrive/Documents/School/Grad School/Fall 2020/Lab 2 FlankerTask/RW-subject-2.csv,legacy,Lentiform Loewenfeld,3.3.3,0,s,NA,h,h,NA,s,359,NA,46458,14051,NA,359,2,legacy,1024,2,48000,-16,experiment,SSHSS,2,even,50367,208781,NA,243397,3897,252397,NA,258491,3906,194729,NA,257442,258594,258953,258489,258594,Flanker Task,105,64262,109,yes,1024
96.36363636,96.36363636,589.0181818,589.0181818,black,legacy,legacy,legacy,0,incongruent,uniform,1,undefined,1,h,0,0,0,109,0,109,0,109,0,0,0,109,109,109,109,109,9/16/2020 21:06,600,The main experiment item,yes,FlankerTask Rene Wallace.osexp,C:\Users\18177\OneDrive\Documents\School\Grad School\Fall 2020\Lab 2 FlankerTask,no,mono,no,18,no,white,no,yes,768,legacy,29,79,C:/Users/18177/OneDrive/Documents/School/Grad School/Fall 2020/Lab 2 FlankerTask/RW-subject-2.csv,legacy,Lentiform Loewenfeld,3.3.3,0,h,NA,h,h,NA,h,530,NA,46458,14051,NA,530,2,legacy,1024,2,48000,-16,experiment,SSHSS,2,even,50367,208781,NA,258966,3897,252397,NA,260512,3906,194729,NA,259467,260613,261143,260511,260613,Flanker Task,106,64792,110,yes,1024
96.3963964,96.3963964,588.2612613,588.2612613,black,legacy,legacy,legacy,0,congruent,uniform,1,undefined,1,h,0,0,0,110,0,110,0,110,0,0,0,110,110,110,110,110,9/16/2020 21:06,600,The main experiment item,yes,FlankerTask Rene Wallace.osexp,C:\Users\18177\OneDrive\Documents\School\Grad School\Fall 2020\Lab 2 FlankerTask,no,mono,no,18,no,white,no,yes,768,legacy,30,79,C:/Users/18177/OneDrive/Documents/School/Grad School/Fall 2020/Lab 2 FlankerTask/RW-subject-2.csv,legacy,Lentiform Loewenfeld,3.3.3,0,h,NA,h,h,NA,h,505,NA,46458,14051,NA,505,2,legacy,1024,2,48000,-16,experiment,HHHHH,2,even,50367,208781,NA,258966,3897,252397,NA,262208,3906,194729,NA,261155,262311,262817,262206,262311,Flanker Task,107,65297,111,yes,1024
96.42857143,96.42857143,586.7857143,586.7857143,black,legacy,legacy,legacy,0,congruent,uniform,1,undefined,1,s,0,0,0,111,0,111,0,111,0,0,0,111,111,111,111,111,9/16/2020 21:06,600,The main experiment item,yes,FlankerTask Rene Wallace.osexp,C:\Users\18177\OneDrive\Documents\School\Grad School\Fall 2020\Lab 2 FlankerTask,no,mono,no,18,no,white,no,yes,768,legacy,31,79,C:/Users/18177/OneDrive/Documents/School/Grad School/Fall 2020/Lab 2 FlankerTask/RW-subject-2.csv,legacy,Lentiform Loewenfeld,3.3.3,0,s,NA,h,h,NA,s,423,NA,46458,14051,NA,423,2,legacy,1024,2,48000,-16,experiment,SSSSS,2,even,50367,208781,NA,258966,3897,252397,NA,263878,3906,194729,NA,262829,263982,264406,263876,263981,Flanker Task,108,65720,112,yes,1024
96.46017699,96.46017699,587.3893805,587.3893805,black,legacy,legacy,legacy,0,incongruent,uniform,1,undefined,1,s,0,0,0,112,0,112,0,112,0,0,0,112,112,112,112,112,9/16/2020 21:06,600,The main experiment item,yes,FlankerTask Rene Wallace.osexp,C:\Users\18177\OneDrive\Documents\School\Grad School\Fall 2020\Lab 2 FlankerTask,no,mono,no,18,no,white,no,yes,768,legacy,32,79,C:/Users/18177/OneDrive/Documents/School/Grad School/Fall 2020/Lab 2 FlankerTask/RW-subject-2.csv,legacy,Lentiform Loewenfeld,3.3.3,0,s,NA,h,h,NA,s,655,NA,46458,14051,NA,655,2,legacy,1024,2,48000,-16,experiment,HHSHH,2,even,50367,208781,NA,258966,3897,252397,NA,265466,3906,194729,NA,264417,265567,266223,265464,265567,Flanker Task,109,66375,113,yes,1024
95.61403509,95.61403509,585.8508772,585.8508772,black,legacy,legacy,legacy,0,incongruent,uniform,0,undefined,0,h,0,0,0,113,0,113,0,113,0,0,0,113,113,113,113,113,9/16/2020 21:06,600,The main experiment item,yes,FlankerTask Rene Wallace.osexp,C:\Users\18177\OneDrive\Documents\School\Grad School\Fall 2020\Lab 2 FlankerTask,no,mono,no,18,no,white,no,yes,768,legacy,33,79,C:/Users/18177/OneDrive/Documents/School/Grad School/Fall 2020/Lab 2 FlankerTask/RW-subject-2.csv,legacy,Lentiform Loewenfeld,3.3.3,0,s,NA,h,h,NA,s,412,NA,46458,14051,NA,412,2,legacy,1024,2,48000,-16,experiment,SSHSS,2,even,50367,208781,NA,258966,3897,266235,NA,267782,3906,194729,NA,266736,267883,268296,267780,267883,Flanker Task,109,66787,114,yes,1024
95.65217391,95.65217391,585.4086957,585.4086957,black,legacy,legacy,legacy,0,incongruent,uniform,1,undefined,1,h,0,0,0,114,0,114,0,114,0,0,0,114,114,114,114,114,9/16/2020 21:06,600,The main experiment item,yes,FlankerTask Rene Wallace.osexp,C:\Users\18177\OneDrive\Documents\School\Grad School\Fall 2020\Lab 2 FlankerTask,no,mono,no,18,no,white,no,yes,768,legacy,34,79,C:/Users/18177/OneDrive/Documents/School/Grad School/Fall 2020/Lab 2 FlankerTask/RW-subject-2.csv,legacy,Lentiform Loewenfeld,3.3.3,0,h,NA,h,h,NA,h,535,NA,46458,14051,NA,535,2,legacy,1024,2,48000,-16,experiment,SSHSS,2,even,50367,208781,NA,268309,3897,266235,NA,269858,3906,194729,NA,268811,269960,270496,269856,269959,Flanker Task,110,67322,115,yes,1024
95.68965517,95.68965517,584.362069,584.362069,black,legacy,legacy,legacy,0,incongruent,uniform,1,undefined,1,s,0,0,0,115,0,115,0,115,0,0,0,115,115,115,115,115,9/16/2020 21:06,600,The main experiment item,yes,FlankerTask Rene Wallace.osexp,C:\Users\18177\OneDrive\Documents\School\Grad School\Fall 2020\Lab 2 FlankerTask,no,mono,no,18,no,white,no,yes,768,legacy,35,79,C:/Users/18177/OneDrive/Documents/School/Grad School/Fall 2020/Lab 2 FlankerTask/RW-subject-2.csv,legacy,Lentiform Loewenfeld,3.3.3,0,s,NA,h,h,NA,s,464,NA,46458,14051,NA,464,2,legacy,1024,2,48000,-16,experiment,HHSHH,2,even,50367,208781,NA,268309,3897,266235,NA,271549,3906,194729,NA,270500,271653,272118,271547,271653,Flanker Task,111,67786,116,yes,1024
95.72649573,95.72649573,582.1111111,582.1111111,black,legacy,legacy,legacy,0,incongruent,uniform,1,undefined,1,h,0,0,0,116,0,116,0,116,0,0,0,116,116,116,116,116,9/16/2020 21:06,600,The main experiment item,yes,FlankerTask Rene Wallace.osexp,C:\Users\18177\OneDrive\Documents\School\Grad School\Fall 2020\Lab 2 FlankerTask,no,mono,no,18,no,white,no,yes,768,legacy,36,79,C:/Users/18177/OneDrive/Documents/School/Grad School/Fall 2020/Lab 2 FlankerTask/RW-subject-2.csv,legacy,Lentiform Loewenfeld,3.3.3,0,h,NA,h,h,NA,h,321,NA,46458,14051,NA,321,2,legacy,1024,2,48000,-16,experiment,SSHSS,2,even,50367,208781,NA,268309,3897,266235,NA,273179,3906,194729,NA,272130,273283,273605,273177,273283,Flanker Task,112,68107,117,yes,1024
95.76271186,95.76271186,581.9915254,581.9915254,black,legacy,legacy,legacy,0,congruent,uniform,1,undefined,1,s,0,0,0,117,0,117,0,117,0,0,0,117,117,117,117,117,9/16/2020 21:06,600,The main experiment item,yes,FlankerTask Rene Wallace.osexp,C:\Users\18177\OneDrive\Documents\School\Grad School\Fall 2020\Lab 2 FlankerTask,no,mono,no,18,no,white,no,yes,768,legacy,37,79,C:/Users/18177/OneDrive/Documents/School/Grad School/Fall 2020/Lab 2 FlankerTask/RW-subject-2.csv,legacy,Lentiform Loewenfeld,3.3.3,0,s,NA,h,h,NA,s,568,NA,46458,14051,NA,568,2,legacy,1024,2,48000,-16,experiment,SSSSS,2,even,50367,208781,NA,268309,3897,266235,NA,274663,3906,194729,NA,273617,274764,275332,274661,274764,Flanker Task,113,68675,118,yes,1024
95.79831933,95.79831933,582.0504202,582.0504202,black,legacy,legacy,legacy,0,incongruent,uniform,1,undefined,1,h,0,0,0,118,0,118,0,118,0,0,0,118,118,118,118,118,9/16/2020 21:06,600,The main experiment item,yes,FlankerTask Rene Wallace.osexp,C:\Users\18177\OneDrive\Documents\School\Grad School\Fall 2020\Lab 2 FlankerTask,no,mono,no,18,no,white,no,yes,768,legacy,38,79,C:/Users/18177/OneDrive/Documents/School/Grad School/Fall 2020/Lab 2 FlankerTask/RW-subject-2.csv,legacy,Lentiform Loewenfeld,3.3.3,0,h,NA,h,h,NA,h,589,NA,46458,14051,NA,589,2,legacy,1024,2,48000,-16,experiment,SSHSS,2,even,50367,208781,NA,268309,3897,266235,NA,276393,3906,194729,NA,275345,276496,277086,276391,276496,Flanker Task,114,69264,119,yes,1024
95,95,580.15,580.15,black,legacy,legacy,legacy,0,incongruent,uniform,0,undefined,0,h,0,0,0,119,0,119,0,119,0,0,0,119,119,119,119,119,9/16/2020 21:06,600,The main experiment item,yes,FlankerTask Rene Wallace.osexp,C:\Users\18177\OneDrive\Documents\School\Grad School\Fall 2020\Lab 2 FlankerTask,no,mono,no,18,no,white,no,yes,768,legacy,39,79,C:/Users/18177/OneDrive/Documents/School/Grad School/Fall 2020/Lab 2 FlankerTask/RW-subject-2.csv,legacy,Lentiform Loewenfeld,3.3.3,0,s,NA,h,h,NA,s,354,NA,46458,14051,NA,354,2,legacy,1024,2,48000,-16,experiment,SSHSS,2,even,50367,208781,NA,268309,3897,266235,NA,278146,3906,194729,NA,277097,278250,278604,278144,278250,Flanker Task,114,69618,120,yes,1024
95.04132231,95.04132231,579.4545455,579.4545455,black,legacy,legacy,legacy,0,congruent,uniform,1,undefined,1,s,0,0,0,120,0,120,0,120,0,0,0,120,120,120,120,120,9/16/2020 21:06,600,The main experiment item,yes,FlankerTask Rene Wallace.osexp,C:\Users\18177\OneDrive\Documents\School\Grad School\Fall 2020\Lab 2 FlankerTask,no,mono,no,18,no,white,no,yes,768,legacy,40,79,C:/Users/18177/OneDrive/Documents/School/Grad School/Fall 2020/Lab 2 FlankerTask/RW-subject-2.csv,legacy,Lentiform Loewenfeld,3.3.3,0,s,NA,h,h,NA,s,496,NA,46458,14051,NA,496,2,legacy,1024,2,48000,-16,experiment,SSSSS,2,even,50367,208781,NA,278609,3897,266235,NA,280157,3906,194729,NA,279110,280260,280757,280154,280260,Flanker Task,115,70114,121,yes,1024
94.26229508,94.26229508,578.8032787,578.8032787,black,legacy,legacy,legacy,0,incongruent,uniform,0,undefined,0,s,0,0,0,121,0,121,0,121,0,0,0,121,121,121,121,121,9/16/2020 21:06,600,The main experiment item,yes,FlankerTask Rene Wallace.osexp,C:\Users\18177\OneDrive\Documents\School\Grad School\Fall 2020\Lab 2 FlankerTask,no,mono,no,18,no,white,no,yes,768,legacy,41,79,C:/Users/18177/OneDrive/Documents/School/Grad School/Fall 2020/Lab 2 FlankerTask/RW-subject-2.csv,legacy,Lentiform Loewenfeld,3.3.3,0,h,NA,h,h,NA,h,500,NA,46458,14051,NA,500,2,legacy,1024,2,48000,-16,experiment,HHSHH,2,even,50367,208781,NA,278609,3897,266235,NA,281816,3906,194729,NA,280769,281918,282419,281815,281917,Flanker Task,115,70614,122,yes,1024
94.30894309,94.30894309,578.8699187,578.8699187,black,legacy,legacy,legacy,0,incongruent,uniform,1,undefined,1,s,0,0,0,122,0,122,0,122,0,0,0,122,122,122,122,122,9/16/2020 21:06,600,The main experiment item,yes,FlankerTask Rene Wallace.osexp,C:\Users\18177\OneDrive\Documents\School\Grad School\Fall 2020\Lab 2 FlankerTask,no,mono,no,18,no,white,no,yes,768,legacy,42,79,C:/Users/18177/OneDrive/Documents/School/Grad School/Fall 2020/Lab 2 FlankerTask/RW-subject-2.csv,legacy,Lentiform Loewenfeld,3.3.3,0,s,NA,h,h,NA,s,587,NA,46458,14051,NA,587,2,legacy,1024,2,48000,-16,experiment,HHSHH,2,even,50367,208781,NA,282431,3897,266235,NA,283978,3906,194729,NA,282932,284080,284668,283976,284080,Flanker Task,116,71201,123,yes,1024
94.35483871,94.35483871,578.5,578.5,black,legacy,legacy,legacy,0,congruent,uniform,1,undefined,1,h,0,0,0,123,0,123,0,123,0,0,0,123,123,123,123,123,9/16/2020 21:06,600,The main experiment item,yes,FlankerTask Rene Wallace.osexp,C:\Users\18177\OneDrive\Documents\School\Grad School\Fall 2020\Lab 2 FlankerTask,no,mono,no,18,no,white,no,yes,768,legacy,43,79,C:/Users/18177/OneDrive/Documents/School/Grad School/Fall 2020/Lab 2 FlankerTask/RW-subject-2.csv,legacy,Lentiform Loewenfeld,3.3.3,0,h,NA,h,h,NA,h,533,NA,46458,14051,NA,533,2,legacy,1024,2,48000,-16,experiment,HHHHH,2,even,50367,208781,NA,282431,3897,266235,NA,285727,3906,194729,NA,284680,285831,286365,285724,285830,Flanker Task,117,71734,124,yes,1024
94.4,94.4,577.44,577.44,black,legacy,legacy,legacy,0,incongruent,uniform,1,undefined,1,s,0,0,0,124,0,124,0,124,0,0,0,124,124,124,124,124,9/16/2020 21:06,600,The main experiment item,yes,FlankerTask Rene Wallace.osexp,C:\Users\18177\OneDrive\Documents\School\Grad School\Fall 2020\Lab 2 FlankerTask,no,mono,no,18,no,white,no,yes,768,legacy,44,79,C:/Users/18177/OneDrive/Documents/School/Grad School/Fall 2020/Lab 2 FlankerTask/RW-subject-2.csv,legacy,Lentiform Loewenfeld,3.3.3,0,s,NA,h,h,NA,s,446,NA,46458,14051,NA,446,2,legacy,1024,2,48000,-16,experiment,HHSHH,2,even,50367,208781,NA,282431,3897,266235,NA,287445,3906,194729,NA,286376,287546,287992,287443,287546,Flanker Task,118,72180,125,yes,1024
94.44444444,94.44444444,576.8333333,576.8333333,black,legacy,legacy,legacy,0,incongruent,uniform,1,undefined,1,s,0,0,0,125,0,125,0,125,0,0,0,125,125,125,125,125,9/16/2020 21:06,600,The main experiment item,yes,FlankerTask Rene Wallace.osexp,C:\Users\18177\OneDrive\Documents\School\Grad School\Fall 2020\Lab 2 FlankerTask,no,mono,no,18,no,white,no,yes,768,legacy,45,79,C:/Users/18177/OneDrive/Documents/School/Grad School/Fall 2020/Lab 2 FlankerTask/RW-subject-2.csv,legacy,Lentiform Loewenfeld,3.3.3,0,s,NA,h,h,NA,s,501,NA,46458,14051,NA,501,2,legacy,1024,2,48000,-16,experiment,HHSHH,2,even,50367,208781,NA,282431,3897,266235,NA,289052,3906,194729,NA,288004,289156,289657,289050,289156,Flanker Task,119,72681,126,yes,1024
94.48818898,94.48818898,575.6850394,575.6850394,black,legacy,legacy,legacy,0,congruent,uniform,1,undefined,1,s,0,0,0,126,0,126,0,126,0,0,0,126,126,126,126,126,9/16/2020 21:06,600,The main experiment item,yes,FlankerTask Rene Wallace.osexp,C:\Users\18177\OneDrive\Documents\School\Grad School\Fall 2020\Lab 2 FlankerTask,no,mono,no,18,no,white,no,yes,768,legacy,46,79,C:/Users/18177/OneDrive/Documents/School/Grad School/Fall 2020/Lab 2 FlankerTask/RW-subject-2.csv,legacy,Lentiform Loewenfeld,3.3.3,0,s,NA,h,h,NA,s,431,NA,46458,14051,NA,431,2,legacy,1024,2,48000,-16,experiment,SSSSS,2,even,50367,208781,NA,282431,3897,266235,NA,290716,3906,194729,NA,289670,290819,291251,290714,290819,Flanker Task,120,73112,127,yes,1024
94.53125,94.53125,574.7265625,574.7265625,black,legacy,legacy,legacy,0,congruent,uniform,1,undefined,1,s,0,0,0,127,0,127,0,127,0,0,0,127,127,127,127,127,9/16/2020 21:06,600,The main experiment item,yes,FlankerTask Rene Wallace.osexp,C:\Users\18177\OneDrive\Documents\School\Grad School\Fall 2020\Lab 2 FlankerTask,no,mono,no,18,no,white,no,yes,768,legacy,47,79,C:/Users/18177/OneDrive/Documents/School/Grad School/Fall 2020/Lab 2 FlankerTask/RW-subject-2.csv,legacy,Lentiform Loewenfeld,3.3.3,0,s,NA,h,h,NA,s,453,NA,46458,14051,NA,453,2,legacy,1024,2,48000,-16,experiment,SSSSS,2,even,50367,208781,NA,282431,3897,266235,NA,292317,3906,194729,NA,291265,292422,292876,292315,292421,Flanker Task,121,73565,128,yes,1024
94.57364341,94.57364341,573.9767442,573.9767442,black,legacy,legacy,legacy,0,congruent,uniform,1,undefined,1,h,0,0,0,128,0,128,0,128,0,0,0,128,128,128,128,128,9/16/2020 21:06,600,The main experiment item,yes,FlankerTask Rene Wallace.osexp,C:\Users\18177\OneDrive\Documents\School\Grad School\Fall 2020\Lab 2 FlankerTask,no,mono,no,18,no,white,no,yes,768,legacy,48,79,C:/Users/18177/OneDrive/Documents/School/Grad School/Fall 2020/Lab 2 FlankerTask/RW-subject-2.csv,legacy,Lentiform Loewenfeld,3.3.3,0,h,NA,h,h,NA,h,478,NA,46458,14051,NA,478,2,legacy,1024,2,48000,-16,experiment,HHHHH,2,even,50367,208781,NA,282431,3897,266235,NA,293942,3906,194729,NA,292890,294043,294522,293940,294043,Flanker Task,122,74043,129,yes,1024
94.61538462,94.61538462,573.9,573.9,black,legacy,legacy,legacy,0,congruent,uniform,1,undefined,1,s,0,0,0,129,0,129,0,129,0,0,0,129,129,129,129,129,9/16/2020 21:06,600,The main experiment item,yes,FlankerTask Rene Wallace.osexp,C:\Users\18177\OneDrive\Documents\School\Grad School\Fall 2020\Lab 2 FlankerTask,no,mono,no,18,no,white,no,yes,768,legacy,49,79,C:/Users/18177/OneDrive/Documents/School/Grad School/Fall 2020/Lab 2 FlankerTask/RW-subject-2.csv,legacy,Lentiform Loewenfeld,3.3.3,0,s,NA,h,h,NA,s,564,NA,46458,14051,NA,564,2,legacy,1024,2,48000,-16,experiment,SSSSS,2,even,50367,208781,NA,282431,3897,266235,NA,295583,3906,194729,NA,294534,295687,296252,295581,295686,Flanker Task,123,74607,130,yes,1024
94.65648855,94.65648855,572.9389313,572.9389313,black,legacy,legacy,legacy,0,congruent,uniform,1,undefined,1,s,0,0,0,130,0,130,0,130,0,0,0,130,130,130,130,130,9/16/2020 21:06,600,The main experiment item,yes,FlankerTask Rene Wallace.osexp,C:\Users\18177\OneDrive\Documents\School\Grad School\Fall 2020\Lab 2 FlankerTask,no,mono,no,18,no,white,no,yes,768,legacy,50,79,C:/Users/18177/OneDrive/Documents/School/Grad School/Fall 2020/Lab 2 FlankerTask/RW-subject-2.csv,legacy,Lentiform Loewenfeld,3.3.3,0,s,NA,h,h,NA,s,448,NA,46458,14051,NA,448,2,legacy,1024,2,48000,-16,experiment,SSSSS,2,even,50367,208781,NA,282431,3897,266235,NA,297310,3906,194729,NA,296264,297413,297861,297308,297413,Flanker Task,124,75055,131,yes,1024
93.93939394,93.93939394,572.8484848,572.8484848,black,legacy,legacy,legacy,0,incongruent,uniform,0,undefined,0,s,0,0,0,131,0,131,0,131,0,0,0,131,131,131,131,131,9/16/2020 21:06,600,The main experiment item,yes,FlankerTask Rene Wallace.osexp,C:\Users\18177\OneDrive\Documents\School\Grad School\Fall 2020\Lab 2 FlankerTask,no,mono,no,18,no,white,no,yes,768,legacy,51,79,C:/Users/18177/OneDrive/Documents/School/Grad School/Fall 2020/Lab 2 FlankerTask/RW-subject-2.csv,legacy,Lentiform Loewenfeld,3.3.3,0,h,NA,h,h,NA,h,561,NA,46458,14051,NA,561,2,legacy,1024,2,48000,-16,experiment,HHSHH,2,even,50367,208781,NA,282431,3897,266235,NA,298922,3906,194729,NA,297874,299025,299586,298920,299025,Flanker Task,124,75616,132,yes,1024
93.98496241,93.98496241,572.6766917,572.6766917,black,legacy,legacy,legacy,0,congruent,uniform,1,undefined,1,s,0,0,0,132,0,132,0,132,0,0,0,132,132,132,132,132,9/16/2020 21:06,600,The main experiment item,yes,FlankerTask Rene Wallace.osexp,C:\Users\18177\OneDrive\Documents\School\Grad School\Fall 2020\Lab 2 FlankerTask,no,mono,no,18,no,white,no,yes,768,legacy,52,79,C:/Users/18177/OneDrive/Documents/School/Grad School/Fall 2020/Lab 2 FlankerTask/RW-subject-2.csv,legacy,Lentiform Loewenfeld,3.3.3,0,s,NA,h,h,NA,s,550,NA,46458,14051,NA,550,2,legacy,1024,2,48000,-16,experiment,SSSSS,2,even,50367,208781,NA,299598,3897,266235,NA,301145,3906,194729,NA,300100,301250,301801,301143,301249,Flanker Task,125,76166,133,yes,1024
93.28358209,93.28358209,576.3656716,576.3656716,black,legacy,legacy,legacy,0,congruent,uniform,0,undefined,0,h,0,0,0,133,0,133,0,133,0,0,0,133,133,133,133,133,9/16/2020 21:06,600,The main experiment item,yes,FlankerTask Rene Wallace.osexp,C:\Users\18177\OneDrive\Documents\School\Grad School\Fall 2020\Lab 2 FlankerTask,no,mono,no,18,no,white,no,yes,768,legacy,53,79,C:/Users/18177/OneDrive/Documents/School/Grad School/Fall 2020/Lab 2 FlankerTask/RW-subject-2.csv,legacy,Lentiform Loewenfeld,3.3.3,0,s,NA,h,h,NA,s,1067,NA,46458,14051,NA,1067,2,legacy,1024,2,48000,-16,experiment,HHHHH,2,even,50367,208781,NA,299598,3897,266235,NA,302855,3906,194729,NA,301806,302957,304025,302854,302957,Flanker Task,125,77233,134,yes,1024
93.33333333,93.33333333,575.8148148,575.8148148,black,legacy,legacy,legacy,0,incongruent,uniform,1,undefined,1,s,0,0,0,134,0,134,0,134,0,0,0,134,134,134,134,134,9/16/2020 21:06,600,The main experiment item,yes,FlankerTask Rene Wallace.osexp,C:\Users\18177\OneDrive\Documents\School\Grad School\Fall 2020\Lab 2 FlankerTask,no,mono,no,18,no,white,no,yes,768,legacy,54,79,C:/Users/18177/OneDrive/Documents/School/Grad School/Fall 2020/Lab 2 FlankerTask/RW-subject-2.csv,legacy,Lentiform Loewenfeld,3.3.3,0,s,NA,h,h,NA,s,502,NA,46458,14051,NA,502,2,legacy,1024,2,48000,-16,experiment,HHSHH,2,even,50367,208781,NA,304038,3897,304539,NA,306106,3906,194729,NA,305040,306209,306712,306104,306209,Flanker Task,126,77735,135,yes,1024
93.38235294,93.38235294,575.6985294,575.6985294,black,legacy,legacy,legacy,0,incongruent,uniform,1,undefined,1,s,0,0,0,135,0,135,0,135,0,0,0,135,135,135,135,135,9/16/2020 21:06,600,The main experiment item,yes,FlankerTask Rene Wallace.osexp,C:\Users\18177\OneDrive\Documents\School\Grad School\Fall 2020\Lab 2 FlankerTask,no,mono,no,18,no,white,no,yes,768,legacy,55,79,C:/Users/18177/OneDrive/Documents/School/Grad School/Fall 2020/Lab 2 FlankerTask/RW-subject-2.csv,legacy,Lentiform Loewenfeld,3.3.3,0,s,NA,h,h,NA,s,560,NA,46458,14051,NA,560,2,legacy,1024,2,48000,-16,experiment,HHSHH,2,even,50367,208781,NA,304038,3897,304539,NA,307793,3906,194729,NA,306726,307896,308457,307791,307895,Flanker Task,127,78295,136,yes,1024
93.43065693,93.43065693,575.2262774,575.2262774,black,legacy,legacy,legacy,0,congruent,uniform,1,undefined,1,h,0,0,0,136,0,136,0,136,0,0,0,136,136,136,136,136,9/16/2020 21:06,600,The main experiment item,yes,FlankerTask Rene Wallace.osexp,C:\Users\18177\OneDrive\Documents\School\Grad School\Fall 2020\Lab 2 FlankerTask,no,mono,no,18,no,white,no,yes,768,legacy,56,79,C:/Users/18177/OneDrive/Documents/School/Grad School/Fall 2020/Lab 2 FlankerTask/RW-subject-2.csv,legacy,Lentiform Loewenfeld,3.3.3,0,h,NA,h,h,NA,h,511,NA,46458,14051,NA,511,2,legacy,1024,2,48000,-16,experiment,HHHHH,2,even,50367,208781,NA,304038,3897,304539,NA,309519,3906,194729,NA,308471,309621,310133,309518,309621,Flanker Task,128,78806,137,yes,1024
93.47826087,93.47826087,576.2246377,576.2246377,black,legacy,legacy,legacy,0,incongruent,uniform,1,undefined,1,h,0,0,0,137,0,137,0,137,0,0,0,137,137,137,137,137,9/16/2020 21:06,600,The main experiment item,yes,FlankerTask Rene Wallace.osexp,C:\Users\18177\OneDrive\Documents\School\Grad School\Fall 2020\Lab 2 FlankerTask,no,mono,no,18,no,white,no,yes,768,legacy,57,79,C:/Users/18177/OneDrive/Documents/School/Grad School/Fall 2020/Lab 2 FlankerTask/RW-subject-2.csv,legacy,Lentiform Loewenfeld,3.3.3,0,h,NA,h,h,NA,h,713,NA,46458,14051,NA,713,2,legacy,1024,2,48000,-16,experiment,SSHSS,2,even,50367,208781,NA,304038,3897,304539,NA,311215,3906,194729,NA,310146,311316,312030,311213,311316,Flanker Task,129,79519,138,yes,1024
93.52517986,93.52517986,575.5179856,575.5179856,black,legacy,legacy,legacy,0,congruent,uniform,1,undefined,1,s,0,0,0,138,0,138,0,138,0,0,0,138,138,138,138,138,9/16/2020 21:06,600,The main experiment item,yes,FlankerTask Rene Wallace.osexp,C:\Users\18177\OneDrive\Documents\School\Grad School\Fall 2020\Lab 2 FlankerTask,no,mono,no,18,no,white,no,yes,768,legacy,58,79,C:/Users/18177/OneDrive/Documents/School/Grad School/Fall 2020/Lab 2 FlankerTask/RW-subject-2.csv,legacy,Lentiform Loewenfeld,3.3.3,0,s,NA,h,h,NA,s,478,NA,46458,14051,NA,478,2,legacy,1024,2,48000,-16,experiment,SSSSS,2,even,50367,208781,NA,304038,3897,312042,NA,313588,3906,194729,NA,312543,313692,314171,313586,313691,Flanker Task,130,79997,139,yes,1024
93.57142857,93.57142857,574.4714286,574.4714286,black,legacy,legacy,legacy,0,congruent,uniform,1,undefined,1,s,0,0,0,139,0,139,0,139,0,0,0,139,139,139,139,139,9/16/2020 21:06,600,The main experiment item,yes,FlankerTask Rene Wallace.osexp,C:\Users\18177\OneDrive\Documents\School\Grad School\Fall 2020\Lab 2 FlankerTask,no,mono,no,18,no,white,no,yes,768,legacy,59,79,C:/Users/18177/OneDrive/Documents/School/Grad School/Fall 2020/Lab 2 FlankerTask/RW-subject-2.csv,legacy,Lentiform Loewenfeld,3.3.3,0,s,NA,h,h,NA,s,429,NA,46458,14051,NA,429,2,legacy,1024,2,48000,-16,experiment,SSSSS,2,even,50367,208781,NA,304038,3897,312042,NA,315229,3906,194729,NA,314183,315333,315763,315227,315333,Flanker Task,131,80426,140,yes,1024
93.61702128,93.61702128,574.141844,574.141844,black,legacy,legacy,legacy,0,congruent,uniform,1,undefined,1,h,0,0,0,140,0,140,0,140,0,0,0,140,140,140,140,140,9/16/2020 21:06,600,The main experiment item,yes,FlankerTask Rene Wallace.osexp,C:\Users\18177\OneDrive\Documents\School\Grad School\Fall 2020\Lab 2 FlankerTask,no,mono,no,18,no,white,no,yes,768,legacy,60,79,C:/Users/18177/OneDrive/Documents/School/Grad School/Fall 2020/Lab 2 FlankerTask/RW-subject-2.csv,legacy,Lentiform Loewenfeld,3.3.3,0,h,NA,h,h,NA,h,528,NA,46458,14051,NA,528,2,legacy,1024,2,48000,-16,experiment,HHHHH,2,even,50367,208781,NA,304038,3897,312042,NA,316821,3906,194729,NA,315775,316922,317451,316819,316922,Flanker Task,132,80954,141,yes,1024
93.66197183,93.66197183,573.3732394,573.3732394,black,legacy,legacy,legacy,0,congruent,uniform,1,undefined,1,h,0,0,0,141,0,141,0,141,0,0,0,141,141,141,141,141,9/16/2020 21:06,600,The main experiment item,yes,FlankerTask Rene Wallace.osexp,C:\Users\18177\OneDrive\Documents\School\Grad School\Fall 2020\Lab 2 FlankerTask,no,mono,no,18,no,white,no,yes,768,legacy,61,79,C:/Users/18177/OneDrive/Documents/School/Grad School/Fall 2020/Lab 2 FlankerTask/RW-subject-2.csv,legacy,Lentiform Loewenfeld,3.3.3,0,h,NA,h,h,NA,h,465,NA,46458,14051,NA,465,2,legacy,1024,2,48000,-16,experiment,HHHHH,2,even,50367,208781,NA,304038,3897,312042,NA,318511,3906,194729,NA,317463,318613,319078,318509,318613,Flanker Task,133,81419,142,yes,1024
