"acc","accuracy","average_response_time","avg_rt","background","canvas_backend","clock_backend","color_backend","compensation","condition","coordinates","correct","correct_instructions","correct_keyboard_response","correct_response","count_ISI","count_block1","count_block2","count_block3","count_errorFeedback","count_experiment","count_faster","count_finish","count_fixation","count_instructions","count_instructions2","count_instructions3","count_keyboard_response","count_logger","count_sequence","count_stimulus","datetime","deadline","description","disable_garbage_collection","experiment_file","experiment_path","font_bold","font_family","font_italic","font_size","font_underline","foreground","form_clicks","fullscreen","height","keyboard_backend","live_row","live_row_block1","logfile","mouse_backend","opensesame_codename","opensesame_version","repeat_cycle","response","response_finish","response_instructions","response_instructions2","response_instructions3","response_keyboard_response","response_time","response_time_finish","response_time_instructions","response_time_instructions2","response_time_instructions3","response_time_keyboard_response","round_decimals","sampler_backend","sound_buf_size","sound_channels","sound_freq","sound_sample_size","start","stimulus","subject_nr","subject_parity","time_ISI","time_block1","time_block2","time_block3","time_errorFeedback","time_experiment","time_faster","time_finish","time_fixation","time_instructions","time_instructions2","time_instructions3","time_keyboard_response","time_logger","time_sequence","time_stimulus","title","total_correct","total_response_time","total_responses","uniform_coordinates","width"
"100","100","974","974","black","legacy","legacy","legacy","0","congruent","uniform","1","undefined","1","s","0","0","0","0","0","0","0","0","0","0","0","0","0","0","0","0","Sat Sep 19 16:06:07 2020","1500","The main experiment item","yes","FlankerTask.osexp","/Users/suzannejosey","no","mono","no","18","no","white","no","yes","768","legacy","0","0","/Users/suzannejosey/subject-1.csv","legacy","Lentiform Loewenfeld","3.3.3","0","s","NA","h","NA","NA","s","974","NA","18039","NA","NA","974","2","legacy","1024","2","48000","-16","experiment","SSSSS","1","odd","NA","21242","NA","NA","NA","3171","NA","NA","21312","3182","NA","NA","21427","22402","21303","21427","Flanker Task","1","974","1","yes","1024"
"100","100","873.5","873.5","black","legacy","legacy","legacy","0","incongruent","uniform","1","undefined","1","h","1","0","0","0","1","0","1","0","1","0","0","0","1","1","1","1","Sat Sep 19 16:06:07 2020","1500","The main experiment item","yes","FlankerTask.osexp","/Users/suzannejosey","no","mono","no","18","no","white","no","yes","768","legacy","1","1","/Users/suzannejosey/subject-1.csv","legacy","Lentiform Loewenfeld","3.3.3","0","h","NA","h","NA","NA","h","773","NA","18039","NA","NA","773","2","legacy","1024","2","48000","-16","experiment","SSHSS","1","odd","22418","21242","NA","NA","NA","3171","NA","NA","23500","3182","NA","NA","23613","24386","23490","23613","Flanker Task","2","1747","2","yes","1024"
"100","100","798","798","black","legacy","legacy","legacy","0","incongruent","uniform","1","undefined","1","h","2","0","0","0","2","0","2","0","2","0","0","0","2","2","2","2","Sat Sep 19 16:06:07 2020","1500","The main experiment item","yes","FlankerTask.osexp","/Users/suzannejosey","no","mono","no","18","no","white","no","yes","768","legacy","2","2","/Users/suzannejosey/subject-1.csv","legacy","Lentiform Loewenfeld","3.3.3","0","h","NA","h","NA","NA","h","647","NA","18039","NA","NA","647","2","legacy","1024","2","48000","-16","experiment","SSHSS","1","odd","24400","21242","NA","NA","NA","3171","NA","NA","25475","3182","NA","NA","25590","26238","25463","25590","Flanker Task","3","2394","3","yes","1024"
"100","100","757.5","757.5","black","legacy","legacy","legacy","0","incongruent","uniform","1","undefined","1","s","3","0","0","0","3","0","3","0","3","0","0","0","3","3","3","3","Sat Sep 19 16:06:07 2020","1500","The main experiment item","yes","FlankerTask.osexp","/Users/suzannejosey","no","mono","no","18","no","white","no","yes","768","legacy","3","3","/Users/suzannejosey/subject-1.csv","legacy","Lentiform Loewenfeld","3.3.3","0","s","NA","h","NA","NA","s","636","NA","18039","NA","NA","636","2","legacy","1024","2","48000","-16","experiment","HHSHH","1","odd","26248","21242","NA","NA","NA","3171","NA","NA","27306","3182","NA","NA","27419","28055","27297","27419","Flanker Task","4","3030","4","yes","1024"
"100","100","717.6","717.6","black","legacy","legacy","legacy","0","congruent","uniform","1","undefined","1","s","4","0","0","0","4","0","4","0","4","0","0","0","4","4","4","4","Sat Sep 19 16:06:07 2020","1500","The main experiment item","yes","FlankerTask.osexp","/Users/suzannejosey","no","mono","no","18","no","white","no","yes","768","legacy","4","4","/Users/suzannejosey/subject-1.csv","legacy","Lentiform Loewenfeld","3.3.3","0","s","NA","h","NA","NA","s","558","NA","18039","NA","NA","558","2","legacy","1024","2","48000","-16","experiment","SSSSS","1","odd","28070","21242","NA","NA","NA","3171","NA","NA","29143","3182","NA","NA","29257","29815","29131","29257","Flanker Task","5","3588","5","yes","1024"
"100","100","712.6666666666666","712.6666666666666","black","legacy","legacy","legacy","0","congruent","uniform","1","undefined","1","h","5","0","0","0","5","0","5","0","5","0","0","0","5","5","5","5","Sat Sep 19 16:06:07 2020","1500","The main experiment item","yes","FlankerTask.osexp","/Users/suzannejosey","no","mono","no","18","no","white","no","yes","768","legacy","5","5","/Users/suzannejosey/subject-1.csv","legacy","Lentiform Loewenfeld","3.3.3","0","h","NA","h","NA","NA","h","688","NA","18039","NA","NA","688","2","legacy","1024","2","48000","-16","experiment","HHHHH","1","odd","29829","21242","NA","NA","NA","3171","NA","NA","30903","3182","NA","NA","31018","31706","30891","31018","Flanker Task","6","4276","6","yes","1024"
"100","100","681.7142857142857","681.7142857142857","black","legacy","legacy","legacy","0","congruent","uniform","1","undefined","1","s","6","0","0","0","6","0","6","0","6","0","0","0","6","6","6","6","Sat Sep 19 16:06:07 2020","1500","The main experiment item","yes","FlankerTask.osexp","/Users/suzannejosey","no","mono","no","18","no","white","no","yes","768","legacy","6","6","/Users/suzannejosey/subject-1.csv","legacy","Lentiform Loewenfeld","3.3.3","0","s","NA","h","NA","NA","s","496","NA","18039","NA","NA","496","2","legacy","1024","2","48000","-16","experiment","SSSSS","1","odd","31720","21242","NA","NA","NA","3171","NA","NA","32793","3182","NA","NA","32907","33404","32782","32907","Flanker Task","7","4772","7","yes","1024"
"100","100","667.375","667.375","black","legacy","legacy","legacy","0","congruent","uniform","1","undefined","1","s","7","0","0","0","7","0","7","0","7","0","0","0","7","7","7","7","Sat Sep 19 16:06:07 2020","1500","The main experiment item","yes","FlankerTask.osexp","/Users/suzannejosey","no","mono","no","18","no","white","no","yes","768","legacy","7","7","/Users/suzannejosey/subject-1.csv","legacy","Lentiform Loewenfeld","3.3.3","0","s","NA","h","NA","NA","s","567","NA","18039","NA","NA","567","2","legacy","1024","2","48000","-16","experiment","SSSSS","1","odd","33417","21242","NA","NA","NA","3171","NA","NA","34491","3182","NA","NA","34605","35172","34479","34605","Flanker Task","8","5339","8","yes","1024"
"100","100","651.5555555555555","651.5555555555555","black","legacy","legacy","legacy","0","congruent","uniform","1","undefined","1","s","8","0","0","0","8","0","8","0","8","0","0","0","8","8","8","8","Sat Sep 19 16:06:07 2020","1500","The main experiment item","yes","FlankerTask.osexp","/Users/suzannejosey","no","mono","no","18","no","white","no","yes","768","legacy","8","8","/Users/suzannejosey/subject-1.csv","legacy","Lentiform Loewenfeld","3.3.3","0","s","NA","h","NA","NA","s","525","NA","18039","NA","NA","525","2","legacy","1024","2","48000","-16","experiment","SSSSS","1","odd","35186","21242","NA","NA","NA","3171","NA","NA","36267","3182","NA","NA","36386","36913","36252","36385","Flanker Task","9","5864","9","yes","1024"
"100","100","634.2","634.2","black","legacy","legacy","legacy","0","congruent","uniform","1","undefined","1","h","9","0","0","0","9","0","9","0","9","0","0","0","9","9","9","9","Sat Sep 19 16:06:07 2020","1500","The main experiment item","yes","FlankerTask.osexp","/Users/suzannejosey","no","mono","no","18","no","white","no","yes","768","legacy","9","9","/Users/suzannejosey/subject-1.csv","legacy","Lentiform Loewenfeld","3.3.3","0","h","NA","h","NA","NA","h","478","NA","18039","NA","NA","478","2","legacy","1024","2","48000","-16","experiment","HHHHH","1","odd","36931","21242","NA","NA","NA","3171","NA","NA","38020","3182","NA","NA","38137","38616","38005","38137","Flanker Task","10","6342","10","yes","1024"
"100","100","622.0909090909091","622.0909090909091","black","legacy","legacy","legacy","0","congruent","uniform","1","undefined","1","s","10","0","0","0","10","0","10","0","10","0","0","0","10","10","10","10","Sat Sep 19 16:06:07 2020","1500","The main experiment item","yes","FlankerTask.osexp","/Users/suzannejosey","no","mono","no","18","no","white","no","yes","768","legacy","10","10","/Users/suzannejosey/subject-1.csv","legacy","Lentiform Loewenfeld","3.3.3","0","s","NA","h","NA","NA","s","501","NA","18039","NA","NA","501","2","legacy","1024","2","48000","-16","experiment","SSSSS","1","odd","38638","21242","NA","NA","NA","3171","NA","NA","39745","3182","NA","NA","39864","40367","39726","39864","Flanker Task","11","6843","11","yes","1024"
"100","100","618.6666666666666","618.6666666666666","black","legacy","legacy","legacy","0","incongruent","uniform","1","undefined","1","s","11","0","0","0","11","0","11","0","11","0","0","0","11","11","11","11","Sat Sep 19 16:06:07 2020","1500","The main experiment item","yes","FlankerTask.osexp","/Users/suzannejosey","no","mono","no","18","no","white","no","yes","768","legacy","11","11","/Users/suzannejosey/subject-1.csv","legacy","Lentiform Loewenfeld","3.3.3","0","s","NA","h","NA","NA","s","581","NA","18039","NA","NA","581","2","legacy","1024","2","48000","-16","experiment","HHSHH","1","odd","40388","21242","NA","NA","NA","3171","NA","NA","41501","3182","NA","NA","41622","42205","41480","41622","Flanker Task","12","7424","12","yes","1024"
"100","100","610.8461538461538","610.8461538461538","black","legacy","legacy","legacy","0","congruent","uniform","1","undefined","1","s","12","0","0","0","12","0","12","0","12","0","0","0","12","12","12","12","Sat Sep 19 16:06:07 2020","1500","The main experiment item","yes","FlankerTask.osexp","/Users/suzannejosey","no","mono","no","18","no","white","no","yes","768","legacy","12","12","/Users/suzannejosey/subject-1.csv","legacy","Lentiform Loewenfeld","3.3.3","0","s","NA","h","NA","NA","s","517","NA","18039","NA","NA","517","2","legacy","1024","2","48000","-16","experiment","SSSSS","1","odd","42228","21242","NA","NA","NA","3171","NA","NA","43352","3182","NA","NA","43474","43994","43330","43474","Flanker Task","13","7941","13","yes","1024"
"100","100","601.7857142857143","601.7857142857143","black","legacy","legacy","legacy","0","congruent","uniform","1","undefined","1","s","13","0","0","0","13","0","13","0","13","0","0","0","13","13","13","13","Sat Sep 19 16:06:07 2020","1500","The main experiment item","yes","FlankerTask.osexp","/Users/suzannejosey","no","mono","no","18","no","white","no","yes","768","legacy","13","13","/Users/suzannejosey/subject-1.csv","legacy","Lentiform Loewenfeld","3.3.3","0","s","NA","h","NA","NA","s","484","NA","18039","NA","NA","484","2","legacy","1024","2","48000","-16","experiment","SSSSS","1","odd","44017","21242","NA","NA","NA","3171","NA","NA","45147","3182","NA","NA","45271","45757","45123","45271","Flanker Task","14","8425","14","yes","1024"
"100","100","594.7333333333333","594.7333333333333","black","legacy","legacy","legacy","0","congruent","uniform","1","undefined","1","h","14","0","0","0","14","0","14","0","14","0","0","0","14","14","14","14","Sat Sep 19 16:06:07 2020","1500","The main experiment item","yes","FlankerTask.osexp","/Users/suzannejosey","no","mono","no","18","no","white","no","yes","768","legacy","14","14","/Users/suzannejosey/subject-1.csv","legacy","Lentiform Loewenfeld","3.3.3","0","h","NA","h","NA","NA","h","496","NA","18039","NA","NA","496","2","legacy","1024","2","48000","-16","experiment","HHHHH","1","odd","45784","21242","NA","NA","NA","3171","NA","NA","46862","3182","NA","NA","46976","47473","46850","46976","Flanker Task","15","8921","15","yes","1024"
"100","100","598.5","598.5","black","legacy","legacy","legacy","0","incongruent","uniform","1","undefined","1","h","15","0","0","0","15","0","15","0","15","0","0","0","15","15","15","15","Sat Sep 19 16:06:07 2020","1500","The main experiment item","yes","FlankerTask.osexp","/Users/suzannejosey","no","mono","no","18","no","white","no","yes","768","legacy","15","15","/Users/suzannejosey/subject-1.csv","legacy","Lentiform Loewenfeld","3.3.3","0","h","NA","h","NA","NA","h","655","NA","18039","NA","NA","655","2","legacy","1024","2","48000","-16","experiment","SSHSS","1","odd","47487","21242","NA","NA","NA","3171","NA","NA","48561","3182","NA","NA","48673","49329","48550","48673","Flanker Task","16","9576","16","yes","1024"
"100","100","596.4117647058823","596.4117647058823","black","legacy","legacy","legacy","0","incongruent","uniform","1","undefined","1","s","16","0","0","0","16","0","16","0","16","0","0","0","16","16","16","16","Sat Sep 19 16:06:07 2020","1500","The main experiment item","yes","FlankerTask.osexp","/Users/suzannejosey","no","mono","no","18","no","white","no","yes","768","legacy","16","16","/Users/suzannejosey/subject-1.csv","legacy","Lentiform Loewenfeld","3.3.3","0","s","NA","h","NA","NA","s","563","NA","18039","NA","NA","563","2","legacy","1024","2","48000","-16","experiment","HHSHH","1","odd","49342","21242","NA","NA","NA","3171","NA","NA","50419","3182","NA","NA","50533","51097","50407","50533","Flanker Task","17","10139","17","yes","1024"
"100","100","602.2777777777778","602.2777777777778","black","legacy","legacy","legacy","0","congruent","uniform","1","undefined","1","s","17","0","0","0","17","0","17","0","17","0","0","0","17","17","17","17","Sat Sep 19 16:06:07 2020","1500","The main experiment item","yes","FlankerTask.osexp","/Users/suzannejosey","no","mono","no","18","no","white","no","yes","768","legacy","17","17","/Users/suzannejosey/subject-1.csv","legacy","Lentiform Loewenfeld","3.3.3","0","s","NA","h","NA","NA","s","702","NA","18039","NA","NA","702","2","legacy","1024","2","48000","-16","experiment","SSSSS","1","odd","51110","21242","NA","NA","NA","3171","NA","NA","52184","3182","NA","NA","52297","53000","52173","52297","Flanker Task","18","10841","18","yes","1024"
"100","100","603.3157894736842","603.3157894736842","black","legacy","legacy","legacy","0","congruent","uniform","1","undefined","1","s","18","0","0","0","18","0","18","0","18","0","0","0","18","18","18","18","Sat Sep 19 16:06:07 2020","1500","The main experiment item","yes","FlankerTask.osexp","/Users/suzannejosey","no","mono","no","18","no","white","no","yes","768","legacy","18","18","/Users/suzannejosey/subject-1.csv","legacy","Lentiform Loewenfeld","3.3.3","0","s","NA","h","NA","NA","s","622","NA","18039","NA","NA","622","2","legacy","1024","2","48000","-16","experiment","SSSSS","1","odd","53012","21242","NA","NA","NA","3171","NA","NA","54085","3182","NA","NA","54200","54823","54074","54200","Flanker Task","19","11463","19","yes","1024"
"100","100","593.25","593.25","black","legacy","legacy","legacy","0","incongruent","uniform","1","undefined","1","s","19","0","0","0","19","0","19","0","19","0","0","0","19","19","19","19","Sat Sep 19 16:06:07 2020","1500","The main experiment item","yes","FlankerTask.osexp","/Users/suzannejosey","no","mono","no","18","no","white","no","yes","768","legacy","19","19","/Users/suzannejosey/subject-1.csv","legacy","Lentiform Loewenfeld","3.3.3","0","s","NA","h","NA","NA","s","402","NA","18039","NA","NA","402","2","legacy","1024","2","48000","-16","experiment","HHSHH","1","odd","54836","21242","NA","NA","NA","3171","NA","NA","55909","3182","NA","NA","56021","56424","55898","56020","Flanker Task","20","11865","20","yes","1024"
"100","100","584.8095238095239","584.8095238095239","black","legacy","legacy","legacy","0","congruent","uniform","1","undefined","1","h","20","0","0","0","20","0","20","0","20","0","0","0","20","20","20","20","Sat Sep 19 16:06:07 2020","1500","The main experiment item","yes","FlankerTask.osexp","/Users/suzannejosey","no","mono","no","18","no","white","no","yes","768","legacy","20","20","/Users/suzannejosey/subject-1.csv","legacy","Lentiform Loewenfeld","3.3.3","0","h","NA","h","NA","NA","h","416","NA","18039","NA","NA","416","2","legacy","1024","2","48000","-16","experiment","HHHHH","1","odd","56437","21242","NA","NA","NA","3171","NA","NA","57510","3182","NA","NA","57622","58039","57498","57622","Flanker Task","21","12281","21","yes","1024"
"100","100","591.7272727272727","591.7272727272727","black","legacy","legacy","legacy","0","congruent","uniform","1","undefined","1","s","21","0","0","0","21","0","21","0","21","0","0","0","21","21","21","21","Sat Sep 19 16:06:07 2020","1500","The main experiment item","yes","FlankerTask.osexp","/Users/suzannejosey","no","mono","no","18","no","white","no","yes","768","legacy","21","21","/Users/suzannejosey/subject-1.csv","legacy","Lentiform Loewenfeld","3.3.3","0","s","NA","h","NA","NA","s","737","NA","18039","NA","NA","737","2","legacy","1024","2","48000","-16","experiment","SSSSS","1","odd","58053","21242","NA","NA","NA","3171","NA","NA","59126","3182","NA","NA","59240","59978","59114","59240","Flanker Task","22","13018","22","yes","1024"
"100","100","587.4782608695652","587.4782608695652","black","legacy","legacy","legacy","0","congruent","uniform","1","undefined","1","h","22","0","0","0","22","0","22","0","22","0","0","0","22","22","22","22","Sat Sep 19 16:06:07 2020","1500","The main experiment item","yes","FlankerTask.osexp","/Users/suzannejosey","no","mono","no","18","no","white","no","yes","768","legacy","22","22","/Users/suzannejosey/subject-1.csv","legacy","Lentiform Loewenfeld","3.3.3","0","h","NA","h","NA","NA","h","494","NA","18039","NA","NA","494","2","legacy","1024","2","48000","-16","experiment","HHHHH","1","odd","59991","21242","NA","NA","NA","3171","NA","NA","61067","3182","NA","NA","61183","61679","61054","61183","Flanker Task","23","13512","23","yes","1024"
"100","100","582.2083333333334","582.2083333333334","black","legacy","legacy","legacy","0","congruent","uniform","1","undefined","1","s","23","0","0","0","23","0","23","0","23","0","0","0","23","23","23","23","Sat Sep 19 16:06:07 2020","1500","The main experiment item","yes","FlankerTask.osexp","/Users/suzannejosey","no","mono","no","18","no","white","no","yes","768","legacy","23","23","/Users/suzannejosey/subject-1.csv","legacy","Lentiform Loewenfeld","3.3.3","0","s","NA","h","NA","NA","s","461","NA","18039","NA","NA","461","2","legacy","1024","2","48000","-16","experiment","SSSSS","1","odd","61696","21242","NA","NA","NA","3171","NA","NA","62786","3182","NA","NA","62903","63366","62770","62902","Flanker Task","24","13973","24","yes","1024"
"100","100","605.36","605.36","black","legacy","legacy","legacy","0","incongruent","uniform","1","undefined","1","h","24","0","0","0","24","0","24","0","24","0","0","0","24","24","24","24","Sat Sep 19 16:06:07 2020","1500","The main experiment item","yes","FlankerTask.osexp","/Users/suzannejosey","no","mono","no","18","no","white","no","yes","768","legacy","24","24","/Users/suzannejosey/subject-1.csv","legacy","Lentiform Loewenfeld","3.3.3","0","h","NA","h","NA","NA","h","1161","NA","18039","NA","NA","1161","2","legacy","1024","2","48000","-16","experiment","SSHSS","1","odd","63389","21242","NA","NA","NA","3171","NA","NA","64487","3182","NA","NA","64605","65768","64470","64605","Flanker Task","25","15134","25","yes","1024"
"100","100","605.8461538461538","605.8461538461538","black","legacy","legacy","legacy","0","incongruent","uniform","1","undefined","1","s","25","0","0","0","25","0","25","0","25","0","0","0","25","25","25","25","Sat Sep 19 16:06:07 2020","1500","The main experiment item","yes","FlankerTask.osexp","/Users/suzannejosey","no","mono","no","18","no","white","no","yes","768","legacy","25","25","/Users/suzannejosey/subject-1.csv","legacy","Lentiform Loewenfeld","3.3.3","0","s","NA","h","NA","NA","s","618","NA","18039","NA","NA","618","2","legacy","1024","2","48000","-16","experiment","HHSHH","1","odd","65790","21242","NA","NA","NA","3171","NA","NA","66901","3182","NA","NA","67021","67641","66880","67021","Flanker Task","26","15752","26","yes","1024"
"100","100","603.0370370370371","603.0370370370371","black","legacy","legacy","legacy","0","congruent","uniform","1","undefined","1","s","26","0","0","0","26","0","26","0","26","0","0","0","26","26","26","26","Sat Sep 19 16:06:07 2020","1500","The main experiment item","yes","FlankerTask.osexp","/Users/suzannejosey","no","mono","no","18","no","white","no","yes","768","legacy","26","26","/Users/suzannejosey/subject-1.csv","legacy","Lentiform Loewenfeld","3.3.3","0","s","NA","h","NA","NA","s","530","NA","18039","NA","NA","530","2","legacy","1024","2","48000","-16","experiment","SSSSS","1","odd","67665","21242","NA","NA","NA","3171","NA","NA","68783","3182","NA","NA","68905","69437","68761","68905","Flanker Task","27","16282","27","yes","1024"
"100","100","597.6428571428571","597.6428571428571","black","legacy","legacy","legacy","0","congruent","uniform","1","undefined","1","s","27","0","0","0","27","0","27","0","27","0","0","0","27","27","27","27","Sat Sep 19 16:06:07 2020","1500","The main experiment item","yes","FlankerTask.osexp","/Users/suzannejosey","no","mono","no","18","no","white","no","yes","768","legacy","27","27","/Users/suzannejosey/subject-1.csv","legacy","Lentiform Loewenfeld","3.3.3","0","s","NA","h","NA","NA","s","452","NA","18039","NA","NA","452","2","legacy","1024","2","48000","-16","experiment","SSSSS","1","odd","69461","21242","NA","NA","NA","3171","NA","NA","70580","3182","NA","NA","70702","71156","70558","70701","Flanker Task","28","16734","28","yes","1024"
"100","100","594.5862068965517","594.5862068965517","black","legacy","legacy","legacy","0","congruent","uniform","1","undefined","1","h","28","0","0","0","28","0","28","0","28","0","0","0","28","28","28","28","Sat Sep 19 16:06:07 2020","1500","The main experiment item","yes","FlankerTask.osexp","/Users/suzannejosey","no","mono","no","18","no","white","no","yes","768","legacy","28","28","/Users/suzannejosey/subject-1.csv","legacy","Lentiform Loewenfeld","3.3.3","0","h","NA","h","NA","NA","h","509","NA","18039","NA","NA","509","2","legacy","1024","2","48000","-16","experiment","HHHHH","1","odd","71184","21242","NA","NA","NA","3171","NA","NA","72311","3182","NA","NA","72423","72934","72287","72423","Flanker Task","29","17243","29","yes","1024"
"100","100","591.6666666666666","591.6666666666666","black","legacy","legacy","legacy","0","incongruent","uniform","1","undefined","1","s","29","0","0","0","29","0","29","0","29","0","0","0","29","29","29","29","Sat Sep 19 16:06:07 2020","1500","The main experiment item","yes","FlankerTask.osexp","/Users/suzannejosey","no","mono","no","18","no","white","no","yes","768","legacy","29","29","/Users/suzannejosey/subject-1.csv","legacy","Lentiform Loewenfeld","3.3.3","0","s","NA","h","NA","NA","s","507","NA","18039","NA","NA","507","2","legacy","1024","2","48000","-16","experiment","HHSHH","1","odd","72944","21242","NA","NA","NA","3171","NA","NA","74015","3182","NA","NA","74129","74637","74004","74129","Flanker Task","30","17750","30","yes","1024"
"100","100","594.3548387096774","594.3548387096774","black","legacy","legacy","legacy","0","incongruent","uniform","1","undefined","1","h","30","0","0","0","30","0","30","0","30","0","0","0","30","30","30","30","Sat Sep 19 16:06:07 2020","1500","The main experiment item","yes","FlankerTask.osexp","/Users/suzannejosey","no","mono","no","18","no","white","no","yes","768","legacy","30","30","/Users/suzannejosey/subject-1.csv","legacy","Lentiform Loewenfeld","3.3.3","0","h","NA","h","NA","NA","h","675","NA","18039","NA","NA","675","2","legacy","1024","2","48000","-16","experiment","SSHSS","1","odd","74650","21242","NA","NA","NA","3171","NA","NA","75723","3182","NA","NA","75835","76511","75711","75835","Flanker Task","31","18425","31","yes","1024"
"100","100","591.8125","591.8125","black","legacy","legacy","legacy","0","incongruent","uniform","1","undefined","1","s","31","0","0","0","31","0","31","0","31","0","0","0","31","31","31","31","Sat Sep 19 16:06:07 2020","1500","The main experiment item","yes","FlankerTask.osexp","/Users/suzannejosey","no","mono","no","18","no","white","no","yes","768","legacy","31","31","/Users/suzannejosey/subject-1.csv","legacy","Lentiform Loewenfeld","3.3.3","0","s","NA","h","NA","NA","s","513","NA","18039","NA","NA","513","2","legacy","1024","2","48000","-16","experiment","HHSHH","1","odd","76525","21242","NA","NA","NA","3171","NA","NA","77598","3182","NA","NA","77712","78226","77586","77712","Flanker Task","32","18938","32","yes","1024"
"100","100","588.8181818181819","588.8181818181819","black","legacy","legacy","legacy","0","incongruent","uniform","1","undefined","1","h","32","0","0","0","32","0","32","0","32","0","0","0","32","32","32","32","Sat Sep 19 16:06:07 2020","1500","The main experiment item","yes","FlankerTask.osexp","/Users/suzannejosey","no","mono","no","18","no","white","no","yes","768","legacy","32","32","/Users/suzannejosey/subject-1.csv","legacy","Lentiform Loewenfeld","3.3.3","0","h","NA","h","NA","NA","h","493","NA","18039","NA","NA","493","2","legacy","1024","2","48000","-16","experiment","SSHSS","1","odd","78237","21242","NA","NA","NA","3171","NA","NA","79311","3182","NA","NA","79425","79919","79298","79425","Flanker Task","33","19431","33","yes","1024"
"100","100","584.3823529411765","584.3823529411765","black","legacy","legacy","legacy","0","incongruent","uniform","1","undefined","1","s","33","0","0","0","33","0","33","0","33","0","0","0","33","33","33","33","Sat Sep 19 16:06:07 2020","1500","The main experiment item","yes","FlankerTask.osexp","/Users/suzannejosey","no","mono","no","18","no","white","no","yes","768","legacy","33","33","/Users/suzannejosey/subject-1.csv","legacy","Lentiform Loewenfeld","3.3.3","0","s","NA","h","NA","NA","s","438","NA","18039","NA","NA","438","2","legacy","1024","2","48000","-16","experiment","HHSHH","1","odd","79932","21242","NA","NA","NA","3171","NA","NA","81003","3182","NA","NA","81118","81557","80993","81118","Flanker Task","34","19869","34","yes","1024"
"100","100","580.6285714285714","580.6285714285714","black","legacy","legacy","legacy","0","congruent","uniform","1","undefined","1","h","34","0","0","0","34","0","34","0","34","0","0","0","34","34","34","34","Sat Sep 19 16:06:07 2020","1500","The main experiment item","yes","FlankerTask.osexp","/Users/suzannejosey","no","mono","no","18","no","white","no","yes","768","legacy","34","34","/Users/suzannejosey/subject-1.csv","legacy","Lentiform Loewenfeld","3.3.3","0","h","NA","h","NA","NA","h","453","NA","18039","NA","NA","453","2","legacy","1024","2","48000","-16","experiment","HHHHH","1","odd","81571","21242","NA","NA","NA","3171","NA","NA","82644","3182","NA","NA","82758","83212","82633","82758","Flanker Task","35","20322","35","yes","1024"
"100","100","579.5833333333334","579.5833333333334","black","legacy","legacy","legacy","0","incongruent","uniform","1","undefined","1","h","35","0","0","0","35","0","35","0","35","0","0","0","35","35","35","35","Sat Sep 19 16:06:07 2020","1500","The main experiment item","yes","FlankerTask.osexp","/Users/suzannejosey","no","mono","no","18","no","white","no","yes","768","legacy","35","35","/Users/suzannejosey/subject-1.csv","legacy","Lentiform Loewenfeld","3.3.3","0","h","NA","h","NA","NA","h","543","NA","18039","NA","NA","543","2","legacy","1024","2","48000","-16","experiment","SSHSS","1","odd","83225","21242","NA","NA","NA","3171","NA","NA","84299","3182","NA","NA","84413","84957","84288","84413","Flanker Task","36","20865","36","yes","1024"
"100","100","578.5945945945946","578.5945945945946","black","legacy","legacy","legacy","0","congruent","uniform","1","undefined","1","s","36","0","0","0","36","0","36","0","36","0","0","0","36","36","36","36","Sat Sep 19 16:06:07 2020","1500","The main experiment item","yes","FlankerTask.osexp","/Users/suzannejosey","no","mono","no","18","no","white","no","yes","768","legacy","36","36","/Users/suzannejosey/subject-1.csv","legacy","Lentiform Loewenfeld","3.3.3","0","s","NA","h","NA","NA","s","543","NA","18039","NA","NA","543","2","legacy","1024","2","48000","-16","experiment","SSSSS","1","odd","84970","21242","NA","NA","NA","3171","NA","NA","86040","3182","NA","NA","86154","86698","86028","86153","Flanker Task","37","21408","37","yes","1024"
"100","100","581.0526315789474","581.0526315789474","black","legacy","legacy","legacy","0","incongruent","uniform","1","undefined","1","s","37","0","0","0","37","0","37","0","37","0","0","0","37","37","37","37","Sat Sep 19 16:06:07 2020","1500","The main experiment item","yes","FlankerTask.osexp","/Users/suzannejosey","no","mono","no","18","no","white","no","yes","768","legacy","37","37","/Users/suzannejosey/subject-1.csv","legacy","Lentiform Loewenfeld","3.3.3","0","s","NA","h","NA","NA","s","672","NA","18039","NA","NA","672","2","legacy","1024","2","48000","-16","experiment","HHSHH","1","odd","86711","21242","NA","NA","NA","3171","NA","NA","87784","3182","NA","NA","87898","88571","87772","87898","Flanker Task","38","22080","38","yes","1024"
"100","100","579.8205128205128","579.8205128205128","black","legacy","legacy","legacy","0","incongruent","uniform","1","undefined","1","h","38","0","0","0","38","0","38","0","38","0","0","0","38","38","38","38","Sat Sep 19 16:06:07 2020","1500","The main experiment item","yes","FlankerTask.osexp","/Users/suzannejosey","no","mono","no","18","no","white","no","yes","768","legacy","38","38","/Users/suzannejosey/subject-1.csv","legacy","Lentiform Loewenfeld","3.3.3","0","h","NA","h","NA","NA","h","533","NA","18039","NA","NA","533","2","legacy","1024","2","48000","-16","experiment","SSHSS","1","odd","88584","21242","NA","NA","NA","3171","NA","NA","89659","3182","NA","NA","89773","90307","89647","89773","Flanker Task","39","22613","39","yes","1024"
"100","100","577.65","577.65","black","legacy","legacy","legacy","0","incongruent","uniform","1","undefined","1","h","39","0","0","0","39","0","39","0","39","0","0","0","39","39","39","39","Sat Sep 19 16:06:07 2020","1500","The main experiment item","yes","FlankerTask.osexp","/Users/suzannejosey","no","mono","no","18","no","white","no","yes","768","legacy","39","39","/Users/suzannejosey/subject-1.csv","legacy","Lentiform Loewenfeld","3.3.3","0","h","NA","h","NA","NA","h","493","NA","18039","NA","NA","493","2","legacy","1024","2","48000","-16","experiment","SSHSS","1","odd","90320","21242","NA","NA","NA","3171","NA","NA","91395","3182","NA","NA","91507","92000","91383","91507","Flanker Task","40","23106","40","yes","1024"
"100","100","575.219512195122","575.219512195122","black","legacy","legacy","legacy","0","congruent","uniform","1","undefined","1","h","40","0","0","0","40","0","40","0","40","0","0","0","40","40","40","40","Sat Sep 19 16:06:07 2020","1500","The main experiment item","yes","FlankerTask.osexp","/Users/suzannejosey","no","mono","no","18","no","white","no","yes","768","legacy","40","40","/Users/suzannejosey/subject-1.csv","legacy","Lentiform Loewenfeld","3.3.3","0","h","NA","h","NA","NA","h","478","NA","18039","NA","NA","478","2","legacy","1024","2","48000","-16","experiment","HHHHH","1","odd","92014","21242","NA","NA","NA","3171","NA","NA","93088","3182","NA","NA","93202","93681","93076","93202","Flanker Task","41","23584","41","yes","1024"
"100","100","574.547619047619","574.547619047619","black","legacy","legacy","legacy","0","incongruent","uniform","1","undefined","1","s","41","0","0","0","41","0","41","0","41","0","0","0","41","41","41","41","Sat Sep 19 16:06:07 2020","1500","The main experiment item","yes","FlankerTask.osexp","/Users/suzannejosey","no","mono","no","18","no","white","no","yes","768","legacy","41","41","/Users/suzannejosey/subject-1.csv","legacy","Lentiform Loewenfeld","3.3.3","0","s","NA","h","NA","NA","s","547","NA","18039","NA","NA","547","2","legacy","1024","2","48000","-16","experiment","HHSHH","1","odd","93694","21242","NA","NA","NA","3171","NA","NA","94767","3182","NA","NA","94881","95429","94755","94881","Flanker Task","42","24131","42","yes","1024"
"100","100","570.6279069767442","570.6279069767442","black","legacy","legacy","legacy","0","congruent","uniform","1","undefined","1","h","42","0","0","0","42","0","42","0","42","0","0","0","42","42","42","42","Sat Sep 19 16:06:07 2020","1500","The main experiment item","yes","FlankerTask.osexp","/Users/suzannejosey","no","mono","no","18","no","white","no","yes","768","legacy","42","42","/Users/suzannejosey/subject-1.csv","legacy","Lentiform Loewenfeld","3.3.3","0","h","NA","h","NA","NA","h","406","NA","18039","NA","NA","406","2","legacy","1024","2","48000","-16","experiment","HHHHH","1","odd","95442","21242","NA","NA","NA","3171","NA","NA","96514","3182","NA","NA","96629","97036","96503","96629","Flanker Task","43","24537","43","yes","1024"
"100","100","568.2045454545455","568.2045454545455","black","legacy","legacy","legacy","0","incongruent","uniform","1","undefined","1","s","43","0","0","0","43","0","43","0","43","0","0","0","43","43","43","43","Sat Sep 19 16:06:07 2020","1500","The main experiment item","yes","FlankerTask.osexp","/Users/suzannejosey","no","mono","no","18","no","white","no","yes","768","legacy","43","43","/Users/suzannejosey/subject-1.csv","legacy","Lentiform Loewenfeld","3.3.3","0","s","NA","h","NA","NA","s","464","NA","18039","NA","NA","464","2","legacy","1024","2","48000","-16","experiment","HHSHH","1","odd","97049","21242","NA","NA","NA","3171","NA","NA","98123","3182","NA","NA","98238","98703","98112","98238","Flanker Task","44","25001","44","yes","1024"
"100","100","567.7111111111111","567.7111111111111","black","legacy","legacy","legacy","0","incongruent","uniform","1","undefined","1","s","44","0","0","0","44","0","44","0","44","0","0","0","44","44","44","44","Sat Sep 19 16:06:07 2020","1500","The main experiment item","yes","FlankerTask.osexp","/Users/suzannejosey","no","mono","no","18","no","white","no","yes","768","legacy","44","44","/Users/suzannejosey/subject-1.csv","legacy","Lentiform Loewenfeld","3.3.3","0","s","NA","h","NA","NA","s","546","NA","18039","NA","NA","546","2","legacy","1024","2","48000","-16","experiment","HHSHH","1","odd","98716","21242","NA","NA","NA","3171","NA","NA","99789","3182","NA","NA","99903","100450","99777","99903","Flanker Task","45","25547","45","yes","1024"
"100","100","566.6521739130435","566.6521739130435","black","legacy","legacy","legacy","0","congruent","uniform","1","undefined","1","s","45","0","0","0","45","0","45","0","45","0","0","0","45","45","45","45","Sat Sep 19 16:06:07 2020","1500","The main experiment item","yes","FlankerTask.osexp","/Users/suzannejosey","no","mono","no","18","no","white","no","yes","768","legacy","45","45","/Users/suzannejosey/subject-1.csv","legacy","Lentiform Loewenfeld","3.3.3","0","s","NA","h","NA","NA","s","519","NA","18039","NA","NA","519","2","legacy","1024","2","48000","-16","experiment","SSSSS","1","odd","100463","21242","NA","NA","NA","3171","NA","NA","101539","3182","NA","NA","101653","102173","101528","101652","Flanker Task","46","26066","46","yes","1024"
"100","100","568.8936170212766","568.8936170212766","black","legacy","legacy","legacy","0","congruent","uniform","1","undefined","1","h","46","0","0","0","46","0","46","0","46","0","0","0","46","46","46","46","Sat Sep 19 16:06:07 2020","1500","The main experiment item","yes","FlankerTask.osexp","/Users/suzannejosey","no","mono","no","18","no","white","no","yes","768","legacy","46","46","/Users/suzannejosey/subject-1.csv","legacy","Lentiform Loewenfeld","3.3.3","0","h","NA","h","NA","NA","h","672","NA","18039","NA","NA","672","2","legacy","1024","2","48000","-16","experiment","HHHHH","1","odd","102186","21242","NA","NA","NA","3171","NA","NA","103261","3182","NA","NA","103376","104049","103250","103376","Flanker Task","47","26738","47","yes","1024"
"100","100","567.75","567.75","black","legacy","legacy","legacy","0","incongruent","uniform","1","undefined","1","h","47","0","0","0","47","0","47","0","47","0","0","0","47","47","47","47","Sat Sep 19 16:06:07 2020","1500","The main experiment item","yes","FlankerTask.osexp","/Users/suzannejosey","no","mono","no","18","no","white","no","yes","768","legacy","47","47","/Users/suzannejosey/subject-1.csv","legacy","Lentiform Loewenfeld","3.3.3","0","h","NA","h","NA","NA","h","514","NA","18039","NA","NA","514","2","legacy","1024","2","48000","-16","experiment","SSHSS","1","odd","104062","21242","NA","NA","NA","3171","NA","NA","105137","3182","NA","NA","105252","105767","105125","105252","Flanker Task","48","27252","48","yes","1024"
"100","100","567.3265306122449","567.3265306122449","black","legacy","legacy","legacy","0","incongruent","uniform","1","undefined","1","s","48","0","0","0","48","0","48","0","48","0","0","0","48","48","48","48","Sat Sep 19 16:06:07 2020","1500","The main experiment item","yes","FlankerTask.osexp","/Users/suzannejosey","no","mono","no","18","no","white","no","yes","768","legacy","48","48","/Users/suzannejosey/subject-1.csv","legacy","Lentiform Loewenfeld","3.3.3","0","s","NA","h","NA","NA","s","547","NA","18039","NA","NA","547","2","legacy","1024","2","48000","-16","experiment","HHSHH","1","odd","105780","21242","NA","NA","NA","3171","NA","NA","106852","3182","NA","NA","106966","107514","106841","106966","Flanker Task","49","27799","49","yes","1024"
"100","100","568.92","568.92","black","legacy","legacy","legacy","0","congruent","uniform","1","undefined","1","h","49","0","0","0","49","0","49","0","49","0","0","0","49","49","49","49","Sat Sep 19 16:06:07 2020","1500","The main experiment item","yes","FlankerTask.osexp","/Users/suzannejosey","no","mono","no","18","no","white","no","yes","768","legacy","49","49","/Users/suzannejosey/subject-1.csv","legacy","Lentiform Loewenfeld","3.3.3","0","h","NA","h","NA","NA","h","647","NA","18039","NA","NA","647","2","legacy","1024","2","48000","-16","experiment","HHHHH","1","odd","107526","21242","NA","NA","NA","3171","NA","NA","108600","3182","NA","NA","108714","109362","108588","108714","Flanker Task","50","28446","50","yes","1024"
"100","100","567.156862745098","567.156862745098","black","legacy","legacy","legacy","0","congruent","uniform","1","undefined","1","h","50","0","0","0","50","0","50","0","50","0","0","0","50","50","50","50","Sat Sep 19 16:06:07 2020","1500","The main experiment item","yes","FlankerTask.osexp","/Users/suzannejosey","no","mono","no","18","no","white","no","yes","768","legacy","50","50","/Users/suzannejosey/subject-1.csv","legacy","Lentiform Loewenfeld","3.3.3","0","h","NA","h","NA","NA","h","479","NA","18039","NA","NA","479","2","legacy","1024","2","48000","-16","experiment","HHHHH","1","odd","109375","21242","NA","NA","NA","3171","NA","NA","110448","3182","NA","NA","110562","111042","110435","110562","Flanker Task","51","28925","51","yes","1024"
"100","100","564.5","564.5","black","legacy","legacy","legacy","0","congruent","uniform","1","undefined","1","h","51","0","0","0","51","0","51","0","51","0","0","0","51","51","51","51","Sat Sep 19 16:06:07 2020","1500","The main experiment item","yes","FlankerTask.osexp","/Users/suzannejosey","no","mono","no","18","no","white","no","yes","768","legacy","51","51","/Users/suzannejosey/subject-1.csv","legacy","Lentiform Loewenfeld","3.3.3","0","h","NA","h","NA","NA","h","429","NA","18039","NA","NA","429","2","legacy","1024","2","48000","-16","experiment","HHHHH","1","odd","111055","21242","NA","NA","NA","3171","NA","NA","112133","3182","NA","NA","112248","112679","112120","112248","Flanker Task","52","29354","52","yes","1024"
"100","100","563.188679245283","563.188679245283","black","legacy","legacy","legacy","0","congruent","uniform","1","undefined","1","s","52","0","0","0","52","0","52","0","52","0","0","0","52","52","52","52","Sat Sep 19 16:06:07 2020","1500","The main experiment item","yes","FlankerTask.osexp","/Users/suzannejosey","no","mono","no","18","no","white","no","yes","768","legacy","52","52","/Users/suzannejosey/subject-1.csv","legacy","Lentiform Loewenfeld","3.3.3","0","s","NA","h","NA","NA","s","495","NA","18039","NA","NA","495","2","legacy","1024","2","48000","-16","experiment","SSSSS","1","odd","112696","21242","NA","NA","NA","3171","NA","NA","113781","3182","NA","NA","113897","114394","113766","113897","Flanker Task","53","29849","53","yes","1024"
"100","100","559.8148148148148","559.8148148148148","black","legacy","legacy","legacy","0","congruent","uniform","1","undefined","1","h","53","0","0","0","53","0","53","0","53","0","0","0","53","53","53","53","Sat Sep 19 16:06:07 2020","1500","The main experiment item","yes","FlankerTask.osexp","/Users/suzannejosey","no","mono","no","18","no","white","no","yes","768","legacy","53","53","/Users/suzannejosey/subject-1.csv","legacy","Lentiform Loewenfeld","3.3.3","0","h","NA","h","NA","NA","h","381","NA","18039","NA","NA","381","2","legacy","1024","2","48000","-16","experiment","HHHHH","1","odd","114413","21242","NA","NA","NA","3171","NA","NA","115507","3182","NA","NA","115625","116008","115489","115625","Flanker Task","54","30230","54","yes","1024"
"100","100","559.3636363636364","559.3636363636364","black","legacy","legacy","legacy","0","incongruent","uniform","1","undefined","1","s","54","0","0","0","54","0","54","0","54","0","0","0","54","54","54","54","Sat Sep 19 16:06:07 2020","1500","The main experiment item","yes","FlankerTask.osexp","/Users/suzannejosey","no","mono","no","18","no","white","no","yes","768","legacy","54","54","/Users/suzannejosey/subject-1.csv","legacy","Lentiform Loewenfeld","3.3.3","0","s","NA","h","NA","NA","s","535","NA","18039","NA","NA","535","2","legacy","1024","2","48000","-16","experiment","HHSHH","1","odd","116028","21242","NA","NA","NA","3171","NA","NA","117134","3182","NA","NA","117253","117790","117114","117253","Flanker Task","55","30765","55","yes","1024"
"100","100","558.6785714285714","558.6785714285714","black","legacy","legacy","legacy","0","congruent","uniform","1","undefined","1","h","55","0","0","0","55","0","55","0","55","0","0","0","55","55","55","55","Sat Sep 19 16:06:07 2020","1500","The main experiment item","yes","FlankerTask.osexp","/Users/suzannejosey","no","mono","no","18","no","white","no","yes","768","legacy","55","55","/Users/suzannejosey/subject-1.csv","legacy","Lentiform Loewenfeld","3.3.3","0","h","NA","h","NA","NA","h","521","NA","18039","NA","NA","521","2","legacy","1024","2","48000","-16","experiment","HHHHH","1","odd","117812","21242","NA","NA","NA","3171","NA","NA","118922","3182","NA","NA","119042","119565","118902","119042","Flanker Task","56","31286","56","yes","1024"
"100","100","559.0701754385965","559.0701754385965","black","legacy","legacy","legacy","0","incongruent","uniform","1","undefined","1","h","56","0","0","0","56","0","56","0","56","0","0","0","56","56","56","56","Sat Sep 19 16:06:07 2020","1500","The main experiment item","yes","FlankerTask.osexp","/Users/suzannejosey","no","mono","no","18","no","white","no","yes","768","legacy","56","56","/Users/suzannejosey/subject-1.csv","legacy","Lentiform Loewenfeld","3.3.3","0","h","NA","h","NA","NA","h","581","NA","18039","NA","NA","581","2","legacy","1024","2","48000","-16","experiment","SSHSS","1","odd","119589","21242","NA","NA","NA","3171","NA","NA","120708","3182","NA","NA","120830","121413","120686","120830","Flanker Task","57","31867","57","yes","1024"
"100","100","559.7241379310345","559.7241379310345","black","legacy","legacy","legacy","0","incongruent","uniform","1","undefined","1","h","57","0","0","0","57","0","57","0","57","0","0","0","57","57","57","57","Sat Sep 19 16:06:07 2020","1500","The main experiment item","yes","FlankerTask.osexp","/Users/suzannejosey","no","mono","no","18","no","white","no","yes","768","legacy","57","57","/Users/suzannejosey/subject-1.csv","legacy","Lentiform Loewenfeld","3.3.3","0","h","NA","h","NA","NA","h","597","NA","18039","NA","NA","597","2","legacy","1024","2","48000","-16","experiment","SSHSS","1","odd","121438","21242","NA","NA","NA","3171","NA","NA","122523","3182","NA","NA","122635","123233","122507","122635","Flanker Task","58","32464","58","yes","1024"
"100","100","556.6610169491526","556.6610169491526","black","legacy","legacy","legacy","0","incongruent","uniform","1","undefined","1","h","58","0","0","0","58","0","58","0","58","0","0","0","58","58","58","58","Sat Sep 19 16:06:07 2020","1500","The main experiment item","yes","FlankerTask.osexp","/Users/suzannejosey","no","mono","no","18","no","white","no","yes","768","legacy","58","58","/Users/suzannejosey/subject-1.csv","legacy","Lentiform Loewenfeld","3.3.3","0","h","NA","h","NA","NA","h","379","NA","18039","NA","NA","379","2","legacy","1024","2","48000","-16","experiment","SSHSS","1","odd","123247","21242","NA","NA","NA","3171","NA","NA","124309","3182","NA","NA","124423","124803","124299","124423","Flanker Task","59","32843","59","yes","1024"
"100","100","556.95","556.95","black","legacy","legacy","legacy","0","congruent","uniform","1","undefined","1","s","59","0","0","0","59","0","59","0","59","0","0","0","59","59","59","59","Sat Sep 19 16:06:07 2020","1500","The main experiment item","yes","FlankerTask.osexp","/Users/suzannejosey","no","mono","no","18","no","white","no","yes","768","legacy","59","59","/Users/suzannejosey/subject-1.csv","legacy","Lentiform Loewenfeld","3.3.3","0","s","NA","h","NA","NA","s","574","NA","18039","NA","NA","574","2","legacy","1024","2","48000","-16","experiment","SSSSS","1","odd","124814","21242","NA","NA","NA","3171","NA","NA","125888","3182","NA","NA","126001","126576","125876","126001","Flanker Task","60","33417","60","yes","1024"
"100","100","555.7540983606557","555.7540983606557","black","legacy","legacy","legacy","0","incongruent","uniform","1","undefined","1","h","60","0","0","0","60","0","60","0","60","0","0","0","60","60","60","60","Sat Sep 19 16:06:07 2020","1500","The main experiment item","yes","FlankerTask.osexp","/Users/suzannejosey","no","mono","no","18","no","white","no","yes","768","legacy","60","60","/Users/suzannejosey/subject-1.csv","legacy","Lentiform Loewenfeld","3.3.3","0","h","NA","h","NA","NA","h","484","NA","18039","NA","NA","484","2","legacy","1024","2","48000","-16","experiment","SSHSS","1","odd","126589","21242","NA","NA","NA","3171","NA","NA","127678","3182","NA","NA","127789","128275","127662","127789","Flanker Task","61","33901","61","yes","1024"
"100","100","555.6290322580645","555.6290322580645","black","legacy","legacy","legacy","0","incongruent","uniform","1","undefined","1","s","61","0","0","0","61","0","61","0","61","0","0","0","61","61","61","61","Sat Sep 19 16:06:07 2020","1500","The main experiment item","yes","FlankerTask.osexp","/Users/suzannejosey","no","mono","no","18","no","white","no","yes","768","legacy","61","61","/Users/suzannejosey/subject-1.csv","legacy","Lentiform Loewenfeld","3.3.3","0","s","NA","h","NA","NA","s","548","NA","18039","NA","NA","548","2","legacy","1024","2","48000","-16","experiment","HHSHH","1","odd","128288","21242","NA","NA","NA","3171","NA","NA","129361","3182","NA","NA","129475","130024","129350","129475","Flanker Task","62","34449","62","yes","1024"
"100","100","555.1111111111111","555.1111111111111","black","legacy","legacy","legacy","0","congruent","uniform","1","undefined","1","h","62","0","0","0","62","0","62","0","62","0","0","0","62","62","62","62","Sat Sep 19 16:06:07 2020","1500","The main experiment item","yes","FlankerTask.osexp","/Users/suzannejosey","no","mono","no","18","no","white","no","yes","768","legacy","62","62","/Users/suzannejosey/subject-1.csv","legacy","Lentiform Loewenfeld","3.3.3","0","h","NA","h","NA","NA","h","523","NA","18039","NA","NA","523","2","legacy","1024","2","48000","-16","experiment","HHHHH","1","odd","130037","21242","NA","NA","NA","3171","NA","NA","131112","3182","NA","NA","131228","131752","131100","131228","Flanker Task","63","34972","63","yes","1024"
"100","100","554.59375","554.59375","black","legacy","legacy","legacy","0","congruent","uniform","1","undefined","1","h","63","0","0","0","63","0","63","0","63","0","0","0","63","63","63","63","Sat Sep 19 16:06:07 2020","1500","The main experiment item","yes","FlankerTask.osexp","/Users/suzannejosey","no","mono","no","18","no","white","no","yes","768","legacy","63","63","/Users/suzannejosey/subject-1.csv","legacy","Lentiform Loewenfeld","3.3.3","0","h","NA","h","NA","NA","h","522","NA","18039","NA","NA","522","2","legacy","1024","2","48000","-16","experiment","HHHHH","1","odd","131765","21242","NA","NA","NA","3171","NA","NA","132837","3182","NA","NA","132948","133471","132826","132948","Flanker Task","64","35494","64","yes","1024"
"100","100","553.4769230769231","553.4769230769231","black","legacy","legacy","legacy","0","incongruent","uniform","1","undefined","1","h","64","0","0","0","64","0","64","0","64","0","0","0","64","64","64","64","Sat Sep 19 16:06:07 2020","1500","The main experiment item","yes","FlankerTask.osexp","/Users/suzannejosey","no","mono","no","18","no","white","no","yes","768","legacy","64","64","/Users/suzannejosey/subject-1.csv","legacy","Lentiform Loewenfeld","3.3.3","0","h","NA","h","NA","NA","h","482","NA","18039","NA","NA","482","2","legacy","1024","2","48000","-16","experiment","SSHSS","1","odd","133484","21242","NA","NA","NA","3171","NA","NA","134556","3182","NA","NA","134670","135153","134544","134670","Flanker Task","65","35976","65","yes","1024"
"100","100","553.7727272727273","553.7727272727273","black","legacy","legacy","legacy","0","congruent","uniform","1","undefined","1","s","65","0","0","0","65","0","65","0","65","0","0","0","65","65","65","65","Sat Sep 19 16:06:07 2020","1500","The main experiment item","yes","FlankerTask.osexp","/Users/suzannejosey","no","mono","no","18","no","white","no","yes","768","legacy","65","65","/Users/suzannejosey/subject-1.csv","legacy","Lentiform Loewenfeld","3.3.3","0","s","NA","h","NA","NA","s","573","NA","18039","NA","NA","573","2","legacy","1024","2","48000","-16","experiment","SSSSS","1","odd","135168","21242","NA","NA","NA","3171","NA","NA","136240","3182","NA","NA","136355","136929","136229","136354","Flanker Task","66","36549","66","yes","1024"
"100","100","553.2388059701492","553.2388059701492","black","legacy","legacy","legacy","0","incongruent","uniform","1","undefined","1","s","66","0","0","0","66","0","66","0","66","0","0","0","66","66","66","66","Sat Sep 19 16:06:07 2020","1500","The main experiment item","yes","FlankerTask.osexp","/Users/suzannejosey","no","mono","no","18","no","white","no","yes","768","legacy","66","66","/Users/suzannejosey/subject-1.csv","legacy","Lentiform Loewenfeld","3.3.3","0","s","NA","h","NA","NA","s","518","NA","18039","NA","NA","518","2","legacy","1024","2","48000","-16","experiment","HHSHH","1","odd","136943","21242","NA","NA","NA","3171","NA","NA","138015","3182","NA","NA","138129","138648","138003","138129","Flanker Task","67","37067","67","yes","1024"
"100","100","552.8823529411765","552.8823529411765","black","legacy","legacy","legacy","0","incongruent","uniform","1","undefined","1","h","67","0","0","0","67","0","67","0","67","0","0","0","67","67","67","67","Sat Sep 19 16:06:07 2020","1500","The main experiment item","yes","FlankerTask.osexp","/Users/suzannejosey","no","mono","no","18","no","white","no","yes","768","legacy","67","67","/Users/suzannejosey/subject-1.csv","legacy","Lentiform Loewenfeld","3.3.3","0","h","NA","h","NA","NA","h","529","NA","18039","NA","NA","529","2","legacy","1024","2","48000","-16","experiment","SSHSS","1","odd","138661","21242","NA","NA","NA","3171","NA","NA","139734","3182","NA","NA","139847","140377","139723","139847","Flanker Task","68","37596","68","yes","1024"
"100","100","551.6666666666666","551.6666666666666","black","legacy","legacy","legacy","0","incongruent","uniform","1","undefined","1","s","68","0","0","0","68","0","68","0","68","0","0","0","68","68","68","68","Sat Sep 19 16:06:07 2020","1500","The main experiment item","yes","FlankerTask.osexp","/Users/suzannejosey","no","mono","no","18","no","white","no","yes","768","legacy","68","68","/Users/suzannejosey/subject-1.csv","legacy","Lentiform Loewenfeld","3.3.3","0","s","NA","h","NA","NA","s","469","NA","18039","NA","NA","469","2","legacy","1024","2","48000","-16","experiment","HHSHH","1","odd","140390","21242","NA","NA","NA","3171","NA","NA","141465","3182","NA","NA","141579","142049","141453","141579","Flanker Task","69","38065","69","yes","1024"
"100","100","550.4","550.4","black","legacy","legacy","legacy","0","congruent","uniform","1","undefined","1","h","69","0","0","0","69","0","69","0","69","0","0","0","69","69","69","69","Sat Sep 19 16:06:07 2020","1500","The main experiment item","yes","FlankerTask.osexp","/Users/suzannejosey","no","mono","no","18","no","white","no","yes","768","legacy","69","69","/Users/suzannejosey/subject-1.csv","legacy","Lentiform Loewenfeld","3.3.3","0","h","NA","h","NA","NA","h","463","NA","18039","NA","NA","463","2","legacy","1024","2","48000","-16","experiment","HHHHH","1","odd","142062","21242","NA","NA","NA","3171","NA","NA","143135","3182","NA","NA","143250","143714","143124","143250","Flanker Task","70","38528","70","yes","1024"
"100","100","550.887323943662","550.887323943662","black","legacy","legacy","legacy","0","incongruent","uniform","1","undefined","1","h","70","0","0","0","70","0","70","0","70","0","0","0","70","70","70","70","Sat Sep 19 16:06:07 2020","1500","The main experiment item","yes","FlankerTask.osexp","/Users/suzannejosey","no","mono","no","18","no","white","no","yes","768","legacy","70","70","/Users/suzannejosey/subject-1.csv","legacy","Lentiform Loewenfeld","3.3.3","0","h","NA","h","NA","NA","h","585","NA","18039","NA","NA","585","2","legacy","1024","2","48000","-16","experiment","SSHSS","1","odd","143727","21242","NA","NA","NA","3171","NA","NA","144800","3182","NA","NA","144914","145500","144789","144914","Flanker Task","71","39113","71","yes","1024"
"100","100","550.5833333333334","550.5833333333334","black","legacy","legacy","legacy","0","congruent","uniform","1","undefined","1","h","71","0","0","0","71","0","71","0","71","0","0","0","71","71","71","71","Sat Sep 19 16:06:07 2020","1500","The main experiment item","yes","FlankerTask.osexp","/Users/suzannejosey","no","mono","no","18","no","white","no","yes","768","legacy","71","71","/Users/suzannejosey/subject-1.csv","legacy","Lentiform Loewenfeld","3.3.3","0","h","NA","h","NA","NA","h","529","NA","18039","NA","NA","529","2","legacy","1024","2","48000","-16","experiment","HHHHH","1","odd","145513","21242","NA","NA","NA","3171","NA","NA","146588","3182","NA","NA","146702","147232","146576","146702","Flanker Task","72","39642","72","yes","1024"
"100","100","549.3835616438356","549.3835616438356","black","legacy","legacy","legacy","0","incongruent","uniform","1","undefined","1","h","72","0","0","0","72","0","72","0","72","0","0","0","72","72","72","72","Sat Sep 19 16:06:07 2020","1500","The main experiment item","yes","FlankerTask.osexp","/Users/suzannejosey","no","mono","no","18","no","white","no","yes","768","legacy","72","72","/Users/suzannejosey/subject-1.csv","legacy","Lentiform Loewenfeld","3.3.3","0","h","NA","h","NA","NA","h","463","NA","18039","NA","NA","463","2","legacy","1024","2","48000","-16","experiment","SSHSS","1","odd","147245","21242","NA","NA","NA","3171","NA","NA","148320","3182","NA","NA","148435","148899","148309","148434","Flanker Task","73","40105","73","yes","1024"
"100","100","548.8783783783783","548.8783783783783","black","legacy","legacy","legacy","0","incongruent","uniform","1","undefined","1","s","73","0","0","0","73","0","73","0","73","0","0","0","73","73","73","73","Sat Sep 19 16:06:07 2020","1500","The main experiment item","yes","FlankerTask.osexp","/Users/suzannejosey","no","mono","no","18","no","white","no","yes","768","legacy","73","73","/Users/suzannejosey/subject-1.csv","legacy","Lentiform Loewenfeld","3.3.3","0","s","NA","h","NA","NA","s","512","NA","18039","NA","NA","512","2","legacy","1024","2","48000","-16","experiment","HHSHH","1","odd","148913","21242","NA","NA","NA","3171","NA","NA","149988","3182","NA","NA","150103","150616","149977","150103","Flanker Task","74","40617","74","yes","1024"
"100","100","548.2","548.2","black","legacy","legacy","legacy","0","congruent","uniform","1","undefined","1","h","74","0","0","0","74","0","74","0","74","0","0","0","74","74","74","74","Sat Sep 19 16:06:07 2020","1500","The main experiment item","yes","FlankerTask.osexp","/Users/suzannejosey","no","mono","no","18","no","white","no","yes","768","legacy","74","74","/Users/suzannejosey/subject-1.csv","legacy","Lentiform Loewenfeld","3.3.3","0","h","NA","h","NA","NA","h","498","NA","18039","NA","NA","498","2","legacy","1024","2","48000","-16","experiment","HHHHH","1","odd","150629","21242","NA","NA","NA","3171","NA","NA","151703","3182","NA","NA","151817","152316","151691","151817","Flanker Task","75","41115","75","yes","1024"
"100","100","546.5394736842105","546.5394736842105","black","legacy","legacy","legacy","0","incongruent","uniform","1","undefined","1","s","75","0","0","0","75","0","75","0","75","0","0","0","75","75","75","75","Sat Sep 19 16:06:07 2020","1500","The main experiment item","yes","FlankerTask.osexp","/Users/suzannejosey","no","mono","no","18","no","white","no","yes","768","legacy","75","75","/Users/suzannejosey/subject-1.csv","legacy","Lentiform Loewenfeld","3.3.3","0","s","NA","h","NA","NA","s","422","NA","18039","NA","NA","422","2","legacy","1024","2","48000","-16","experiment","HHSHH","1","odd","152329","21242","NA","NA","NA","3171","NA","NA","153404","3182","NA","NA","153518","153941","153392","153518","Flanker Task","76","41537","76","yes","1024"
"100","100","544.6233766233767","544.6233766233767","black","legacy","legacy","legacy","0","incongruent","uniform","1","undefined","1","h","76","0","0","0","76","0","76","0","76","0","0","0","76","76","76","76","Sat Sep 19 16:06:07 2020","1500","The main experiment item","yes","FlankerTask.osexp","/Users/suzannejosey","no","mono","no","18","no","white","no","yes","768","legacy","76","76","/Users/suzannejosey/subject-1.csv","legacy","Lentiform Loewenfeld","3.3.3","0","h","NA","h","NA","NA","h","399","NA","18039","NA","NA","399","2","legacy","1024","2","48000","-16","experiment","SSHSS","1","odd","153955","21242","NA","NA","NA","3171","NA","NA","155027","3182","NA","NA","155141","155541","155015","155141","Flanker Task","77","41936","77","yes","1024"
"100","100","542.7179487179487","542.7179487179487","black","legacy","legacy","legacy","0","incongruent","uniform","1","undefined","1","s","77","0","0","0","77","0","77","0","77","0","0","0","77","77","77","77","Sat Sep 19 16:06:07 2020","1500","The main experiment item","yes","FlankerTask.osexp","/Users/suzannejosey","no","mono","no","18","no","white","no","yes","768","legacy","77","77","/Users/suzannejosey/subject-1.csv","legacy","Lentiform Loewenfeld","3.3.3","0","s","NA","h","NA","NA","s","396","NA","18039","NA","NA","396","2","legacy","1024","2","48000","-16","experiment","HHSHH","1","odd","155554","21242","NA","NA","NA","3171","NA","NA","156628","3182","NA","NA","156743","157140","156617","156743","Flanker Task","78","42332","78","yes","1024"
"98.73417721518987","98.73417721518987","541.3291139240506","541.3291139240506","black","legacy","legacy","legacy","0","congruent","uniform","0","undefined","0","s","78","0","0","0","78","0","78","0","78","0","0","0","78","78","78","78","Sat Sep 19 16:06:07 2020","1500","The main experiment item","yes","FlankerTask.osexp","/Users/suzannejosey","no","mono","no","18","no","white","no","yes","768","legacy","78","78","/Users/suzannejosey/subject-1.csv","legacy","Lentiform Loewenfeld","3.3.3","0","h","NA","h","NA","NA","h","433","NA","18039","NA","NA","433","2","legacy","1024","2","48000","-16","experiment","SSSSS","1","odd","157153","21242","NA","NA","NA","3171","NA","NA","158227","3182","NA","NA","158339","158773","158215","158339","Flanker Task","78","42765","79","yes","1024"
"98.75","98.75","542.5375","542.5375","black","legacy","legacy","legacy","0","incongruent","uniform","1","undefined","1","h","79","0","0","0","79","0","79","0","79","0","0","0","79","79","79","79","Sat Sep 19 16:06:07 2020","1500","The main experiment item","yes","FlankerTask.osexp","/Users/suzannejosey","no","mono","no","18","no","white","no","yes","768","legacy","79","79","/Users/suzannejosey/subject-1.csv","legacy","Lentiform Loewenfeld","3.3.3","0","h","NA","h","NA","NA","h","638","NA","18039","NA","NA","638","2","legacy","1024","2","48000","-16","experiment","SSHSS","1","odd","159299","21242","NA","NA","158787","3171","NA","NA","160373","3182","NA","NA","160487","161126","160361","160487","Flanker Task","79","43403","80","yes","1024"
"98.76543209876543","98.76543209876543","544.2469135802469","544.2469135802469","black","legacy","legacy","legacy","0","congruent","uniform","1","undefined","1","s","80","0","0","0","80","0","80","0","80","0","0","0","80","80","80","80","Sat Sep 19 16:06:07 2020","600","The main experiment item","yes","FlankerTask.osexp","/Users/suzannejosey","no","mono","no","18","no","white","no","yes","768","legacy","0","79","/Users/suzannejosey/subject-1.csv","legacy","Lentiform Loewenfeld","3.3.3","0","s","NA","h","h","NA","s","681","NA","18039","259023","NA","681","2","legacy","1024","2","48000","-16","experiment","SSSSS","1","odd","161139","21242","421205","NA","158787","3171","NA","NA","421249","3182","162181","NA","421361","422044","421239","421361","Flanker Task","80","44084","81","yes","1024"
"98.78048780487805","98.78048780487805","544.219512195122","544.219512195122","black","legacy","legacy","legacy","0","incongruent","uniform","1","undefined","1","h","81","0","0","0","81","0","81","0","81","0","0","0","81","81","81","81","Sat Sep 19 16:06:07 2020","600","The main experiment item","yes","FlankerTask.osexp","/Users/suzannejosey","no","mono","no","18","no","white","no","yes","768","legacy","1","79","/Users/suzannejosey/subject-1.csv","legacy","Lentiform Loewenfeld","3.3.3","0","h","NA","h","h","NA","h","542","NA","18039","259023","NA","542","2","legacy","1024","2","48000","-16","experiment","SSHSS","1","odd","422571","21242","421205","NA","158787","3171","422057","NA","423648","3182","162181","NA","423762","424305","423636","423762","Flanker Task","81","44626","82","yes","1024"
"98.79518072289157","98.79518072289157","543.8313253012049","543.8313253012049","black","legacy","legacy","legacy","0","incongruent","uniform","1","undefined","1","h","82","0","0","0","82","0","82","0","82","0","0","0","82","82","82","82","Sat Sep 19 16:06:07 2020","600","The main experiment item","yes","FlankerTask.osexp","/Users/suzannejosey","no","mono","no","18","no","white","no","yes","768","legacy","2","79","/Users/suzannejosey/subject-1.csv","legacy","Lentiform Loewenfeld","3.3.3","0","h","NA","h","h","NA","h","512","NA","18039","259023","NA","512","2","legacy","1024","2","48000","-16","experiment","SSHSS","1","odd","424318","21242","421205","NA","158787","3171","422057","NA","425392","3182","162181","NA","425506","426019","425380","425506","Flanker Task","82","45138","83","yes","1024"
"98.80952380952381","98.80952380952381","542.75","542.75","black","legacy","legacy","legacy","0","congruent","uniform","1","undefined","1","h","83","0","0","0","83","0","83","0","83","0","0","0","83","83","83","83","Sat Sep 19 16:06:07 2020","600","The main experiment item","yes","FlankerTask.osexp","/Users/suzannejosey","no","mono","no","18","no","white","no","yes","768","legacy","3","79","/Users/suzannejosey/subject-1.csv","legacy","Lentiform Loewenfeld","3.3.3","0","h","NA","h","h","NA","h","453","NA","18039","259023","NA","453","2","legacy","1024","2","48000","-16","experiment","HHHHH","1","odd","426033","21242","421205","NA","158787","3171","422057","NA","427107","3182","162181","NA","427221","427675","427095","427221","Flanker Task","83","45591","84","yes","1024"
"98.82352941176471","98.82352941176471","543.5764705882353","543.5764705882353","black","legacy","legacy","legacy","0","incongruent","uniform","1","undefined","1","h","84","0","0","0","84","0","84","0","84","0","0","0","84","84","84","84","Sat Sep 19 16:06:07 2020","600","The main experiment item","yes","FlankerTask.osexp","/Users/suzannejosey","no","mono","no","18","no","white","no","yes","768","legacy","4","79","/Users/suzannejosey/subject-1.csv","legacy","Lentiform Loewenfeld","3.3.3","0","h","NA","h","h","NA","h","613","NA","18039","259023","NA","613","2","legacy","1024","2","48000","-16","experiment","SSHSS","1","odd","427687","21242","421205","NA","158787","3171","422057","NA","428760","3182","162181","NA","428874","429488","428749","428874","Flanker Task","84","46204","85","yes","1024"
"98.83720930232558","98.83720930232558","541.2906976744187","541.2906976744187","black","legacy","legacy","legacy","0","congruent","uniform","1","undefined","1","h","85","0","0","0","85","0","85","0","85","0","0","0","85","85","85","85","Sat Sep 19 16:06:07 2020","600","The main experiment item","yes","FlankerTask.osexp","/Users/suzannejosey","no","mono","no","18","no","white","no","yes","768","legacy","5","79","/Users/suzannejosey/subject-1.csv","legacy","Lentiform Loewenfeld","3.3.3","0","h","NA","h","h","NA","h","347","NA","18039","259023","NA","347","2","legacy","1024","2","48000","-16","experiment","HHHHH","1","odd","430014","21242","421205","NA","158787","3171","429502","NA","431087","3182","162181","NA","431201","431549","431075","431201","Flanker Task","85","46551","86","yes","1024"
"98.85057471264368","98.85057471264368","538.816091954023","538.816091954023","black","legacy","legacy","legacy","0","congruent","uniform","1","undefined","1","h","86","0","0","0","86","0","86","0","86","0","0","0","86","86","86","86","Sat Sep 19 16:06:07 2020","600","The main experiment item","yes","FlankerTask.osexp","/Users/suzannejosey","no","mono","no","18","no","white","no","yes","768","legacy","6","79","/Users/suzannejosey/subject-1.csv","legacy","Lentiform Loewenfeld","3.3.3","0","h","NA","h","h","NA","h","326","NA","18039","259023","NA","326","2","legacy","1024","2","48000","-16","experiment","HHHHH","1","odd","431563","21242","421205","NA","158787","3171","429502","NA","432639","3182","162181","NA","432753","433080","432627","432752","Flanker Task","86","46877","87","yes","1024"
"97.72727272727273","97.72727272727273","536.4545454545455","536.4545454545455","black","legacy","legacy","legacy","0","congruent","uniform","0","undefined","0","s","87","0","0","0","87","0","87","0","87","0","0","0","87","87","87","87","Sat Sep 19 16:06:07 2020","600","The main experiment item","yes","FlankerTask.osexp","/Users/suzannejosey","no","mono","no","18","no","white","no","yes","768","legacy","7","79","/Users/suzannejosey/subject-1.csv","legacy","Lentiform Loewenfeld","3.3.3","0","h","NA","h","h","NA","h","331","NA","18039","259023","NA","331","2","legacy","1024","2","48000","-16","experiment","SSSSS","1","odd","433093","21242","421205","NA","158787","3171","429502","NA","434166","3182","162181","NA","434279","434611","434153","434279","Flanker Task","86","47208","88","yes","1024"
"97.75280898876404","97.75280898876404","535.7865168539325","535.7865168539325","black","legacy","legacy","legacy","0","incongruent","uniform","1","undefined","1","h","88","0","0","0","88","0","88","0","88","0","0","0","88","88","88","88","Sat Sep 19 16:06:07 2020","600","The main experiment item","yes","FlankerTask.osexp","/Users/suzannejosey","no","mono","no","18","no","white","no","yes","768","legacy","8","79","/Users/suzannejosey/subject-1.csv","legacy","Lentiform Loewenfeld","3.3.3","0","h","NA","h","h","NA","h","477","NA","18039","259023","NA","477","2","legacy","1024","2","48000","-16","experiment","SSHSS","1","odd","435137","21242","421205","NA","434625","3171","429502","NA","436211","3182","162181","NA","436325","436803","436199","436325","Flanker Task","87","47685","89","yes","1024"
"97.77777777777777","97.77777777777777","533.8222222222222","533.8222222222222","black","legacy","legacy","legacy","0","congruent","uniform","1","undefined","1","h","89","0","0","0","89","0","89","0","89","0","0","0","89","89","89","89","Sat Sep 19 16:06:07 2020","600","The main experiment item","yes","FlankerTask.osexp","/Users/suzannejosey","no","mono","no","18","no","white","no","yes","768","legacy","9","79","/Users/suzannejosey/subject-1.csv","legacy","Lentiform Loewenfeld","3.3.3","0","h","NA","h","h","NA","h","359","NA","18039","259023","NA","359","2","legacy","1024","2","48000","-16","experiment","HHHHH","1","odd","436816","21242","421205","NA","434625","3171","429502","NA","437890","3182","162181","NA","438004","438365","437878","438003","Flanker Task","88","48044","90","yes","1024"
"97.8021978021978","97.8021978021978","532.8131868131868","532.8131868131868","black","legacy","legacy","legacy","0","incongruent","uniform","1","undefined","1","s","90","0","0","0","90","0","90","0","90","0","0","0","90","90","90","90","Sat Sep 19 16:06:07 2020","600","The main experiment item","yes","FlankerTask.osexp","/Users/suzannejosey","no","mono","no","18","no","white","no","yes","768","legacy","10","79","/Users/suzannejosey/subject-1.csv","legacy","Lentiform Loewenfeld","3.3.3","0","s","NA","h","h","NA","s","442","NA","18039","259023","NA","442","2","legacy","1024","2","48000","-16","experiment","HHSHH","1","odd","438377","21242","421205","NA","434625","3171","429502","NA","439452","3182","162181","NA","439566","440009","439440","439566","Flanker Task","89","48486","91","yes","1024"
"97.82608695652173","97.82608695652173","532.5108695652174","532.5108695652174","black","legacy","legacy","legacy","0","congruent","uniform","1","undefined","1","s","91","0","0","0","91","0","91","0","91","0","0","0","91","91","91","91","Sat Sep 19 16:06:07 2020","600","The main experiment item","yes","FlankerTask.osexp","/Users/suzannejosey","no","mono","no","18","no","white","no","yes","768","legacy","11","79","/Users/suzannejosey/subject-1.csv","legacy","Lentiform Loewenfeld","3.3.3","0","s","NA","h","h","NA","s","505","NA","18039","259023","NA","505","2","legacy","1024","2","48000","-16","experiment","SSSSS","1","odd","440023","21242","421205","NA","434625","3171","429502","NA","441098","3182","162181","NA","441213","441719","441086","441213","Flanker Task","90","48991","92","yes","1024"
"97.84946236559139","97.84946236559139","530.8387096774194","530.8387096774194","black","legacy","legacy","legacy","0","congruent","uniform","1","undefined","1","h","92","0","0","0","92","0","92","0","92","0","0","0","92","92","92","92","Sat Sep 19 16:06:07 2020","600","The main experiment item","yes","FlankerTask.osexp","/Users/suzannejosey","no","mono","no","18","no","white","no","yes","768","legacy","12","79","/Users/suzannejosey/subject-1.csv","legacy","Lentiform Loewenfeld","3.3.3","0","h","NA","h","h","NA","h","377","NA","18039","259023","NA","377","2","legacy","1024","2","48000","-16","experiment","HHHHH","1","odd","441732","21242","421205","NA","434625","3171","429502","NA","442808","3182","162181","NA","442922","443300","442796","442922","Flanker Task","91","49368","93","yes","1024"
"97.87234042553192","97.87234042553192","529.4574468085107","529.4574468085107","black","legacy","legacy","legacy","0","congruent","uniform","1","undefined","1","h","93","0","0","0","93","0","93","0","93","0","0","0","93","93","93","93","Sat Sep 19 16:06:07 2020","600","The main experiment item","yes","FlankerTask.osexp","/Users/suzannejosey","no","mono","no","18","no","white","no","yes","768","legacy","13","79","/Users/suzannejosey/subject-1.csv","legacy","Lentiform Loewenfeld","3.3.3","0","h","NA","h","h","NA","h","401","NA","18039","259023","NA","401","2","legacy","1024","2","48000","-16","experiment","HHHHH","1","odd","443313","21242","421205","NA","434625","3171","429502","NA","444383","3182","162181","NA","444497","444899","444372","444496","Flanker Task","92","49769","94","yes","1024"
"97.89473684210526","97.89473684210526","528.421052631579","528.421052631579","black","legacy","legacy","legacy","0","congruent","uniform","1","undefined","1","s","94","0","0","0","94","0","94","0","94","0","0","0","94","94","94","94","Sat Sep 19 16:06:07 2020","600","The main experiment item","yes","FlankerTask.osexp","/Users/suzannejosey","no","mono","no","18","no","white","no","yes","768","legacy","14","79","/Users/suzannejosey/subject-1.csv","legacy","Lentiform Loewenfeld","3.3.3","0","s","NA","h","h","NA","s","431","NA","18039","259023","NA","431","2","legacy","1024","2","48000","-16","experiment","SSSSS","1","odd","444912","21242","421205","NA","434625","3171","429502","NA","445986","3182","162181","NA","446099","446531","445974","446099","Flanker Task","93","50200","95","yes","1024"
"97.91666666666667","97.91666666666667","526.3645833333334","526.3645833333334","black","legacy","legacy","legacy","0","congruent","uniform","1","undefined","1","s","95","0","0","0","95","0","95","0","95","0","0","0","95","95","95","95","Sat Sep 19 16:06:07 2020","600","The main experiment item","yes","FlankerTask.osexp","/Users/suzannejosey","no","mono","no","18","no","white","no","yes","768","legacy","15","79","/Users/suzannejosey/subject-1.csv","legacy","Lentiform Loewenfeld","3.3.3","0","s","NA","h","h","NA","s","331","NA","18039","259023","NA","331","2","legacy","1024","2","48000","-16","experiment","SSSSS","1","odd","446544","21242","421205","NA","434625","3171","429502","NA","447622","3182","162181","NA","447736","448069","447610","447736","Flanker Task","94","50531","96","yes","1024"
"97.9381443298969","97.9381443298969","524.4226804123712","524.4226804123712","black","legacy","legacy","legacy","0","incongruent","uniform","1","undefined","1","h","96","0","0","0","96","0","96","0","96","0","0","0","96","96","96","96","Sat Sep 19 16:06:07 2020","600","The main experiment item","yes","FlankerTask.osexp","/Users/suzannejosey","no","mono","no","18","no","white","no","yes","768","legacy","16","79","/Users/suzannejosey/subject-1.csv","legacy","Lentiform Loewenfeld","3.3.3","0","h","NA","h","h","NA","h","338","NA","18039","259023","NA","338","2","legacy","1024","2","48000","-16","experiment","SSHSS","1","odd","448082","21242","421205","NA","434625","3171","429502","NA","449157","3182","162181","NA","449271","449610","449146","449271","Flanker Task","95","50869","97","yes","1024"
"97.95918367346938","97.95918367346938","524.3163265306123","524.3163265306123","black","legacy","legacy","legacy","0","incongruent","uniform","1","undefined","1","s","97","0","0","0","97","0","97","0","97","0","0","0","97","97","97","97","Sat Sep 19 16:06:07 2020","600","The main experiment item","yes","FlankerTask.osexp","/Users/suzannejosey","no","mono","no","18","no","white","no","yes","768","legacy","17","79","/Users/suzannejosey/subject-1.csv","legacy","Lentiform Loewenfeld","3.3.3","0","s","NA","h","h","NA","s","514","NA","18039","259023","NA","514","2","legacy","1024","2","48000","-16","experiment","HHSHH","1","odd","449623","21242","421205","NA","434625","3171","429502","NA","450701","3182","162181","NA","450815","451330","450689","450815","Flanker Task","96","51383","98","yes","1024"
"97.97979797979798","97.97979797979798","522.7777777777778","522.7777777777778","black","legacy","legacy","legacy","0","congruent","uniform","1","undefined","1","s","98","0","0","0","98","0","98","0","98","0","0","0","98","98","98","98","Sat Sep 19 16:06:07 2020","600","The main experiment item","yes","FlankerTask.osexp","/Users/suzannejosey","no","mono","no","18","no","white","no","yes","768","legacy","18","79","/Users/suzannejosey/subject-1.csv","legacy","Lentiform Loewenfeld","3.3.3","0","s","NA","h","h","NA","s","372","NA","18039","259023","NA","372","2","legacy","1024","2","48000","-16","experiment","SSSSS","1","odd","451343","21242","421205","NA","434625","3171","429502","NA","452417","3182","162181","NA","452533","452906","452405","452533","Flanker Task","97","51755","99","yes","1024"
"98","98","520.78","520.78","black","legacy","legacy","legacy","0","incongruent","uniform","1","undefined","1","s","99","0","0","0","99","0","99","0","99","0","0","0","99","99","99","99","Sat Sep 19 16:06:07 2020","600","The main experiment item","yes","FlankerTask.osexp","/Users/suzannejosey","no","mono","no","18","no","white","no","yes","768","legacy","19","79","/Users/suzannejosey/subject-1.csv","legacy","Lentiform Loewenfeld","3.3.3","0","s","NA","h","h","NA","s","323","NA","18039","259023","NA","323","2","legacy","1024","2","48000","-16","experiment","HHSHH","1","odd","452919","21242","421205","NA","434625","3171","429502","NA","453996","3182","162181","NA","454110","454434","453984","454110","Flanker Task","98","52078","100","yes","1024"
"98.01980198019803","98.01980198019803","519.2970297029703","519.2970297029703","black","legacy","legacy","legacy","0","congruent","uniform","1","undefined","1","h","100","0","0","0","100","0","100","0","100","0","0","0","100","100","100","100","Sat Sep 19 16:06:07 2020","600","The main experiment item","yes","FlankerTask.osexp","/Users/suzannejosey","no","mono","no","18","no","white","no","yes","768","legacy","20","79","/Users/suzannejosey/subject-1.csv","legacy","Lentiform Loewenfeld","3.3.3","0","h","NA","h","h","NA","h","371","NA","18039","259023","NA","371","2","legacy","1024","2","48000","-16","experiment","HHHHH","1","odd","454447","21242","421205","NA","434625","3171","429502","NA","455522","3182","162181","NA","455636","456008","455510","455636","Flanker Task","99","52449","101","yes","1024"
"98.03921568627452","98.03921568627452","518.5882352941177","518.5882352941177","black","legacy","legacy","legacy","0","incongruent","uniform","1","undefined","1","s","101","0","0","0","101","0","101","0","101","0","0","0","101","101","101","101","Sat Sep 19 16:06:07 2020","600","The main experiment item","yes","FlankerTask.osexp","/Users/suzannejosey","no","mono","no","18","no","white","no","yes","768","legacy","21","79","/Users/suzannejosey/subject-1.csv","legacy","Lentiform Loewenfeld","3.3.3","0","s","NA","h","h","NA","s","447","NA","18039","259023","NA","447","2","legacy","1024","2","48000","-16","experiment","HHSHH","1","odd","456022","21242","421205","NA","434625","3171","429502","NA","457095","3182","162181","NA","457210","457658","457083","457210","Flanker Task","100","52896","102","yes","1024"
"98.05825242718447","98.05825242718447","517.5145631067961","517.5145631067961","black","legacy","legacy","legacy","0","congruent","uniform","1","undefined","1","s","102","0","0","0","102","0","102","0","102","0","0","0","102","102","102","102","Sat Sep 19 16:06:07 2020","600","The main experiment item","yes","FlankerTask.osexp","/Users/suzannejosey","no","mono","no","18","no","white","no","yes","768","legacy","22","79","/Users/suzannejosey/subject-1.csv","legacy","Lentiform Loewenfeld","3.3.3","0","s","NA","h","h","NA","s","408","NA","18039","259023","NA","408","2","legacy","1024","2","48000","-16","experiment","SSSSS","1","odd","457671","21242","421205","NA","434625","3171","429502","NA","458745","3182","162181","NA","458859","459268","458733","458859","Flanker Task","101","53304","103","yes","1024"
"98.07692307692308","98.07692307692308","516.3269230769231","516.3269230769231","black","legacy","legacy","legacy","0","incongruent","uniform","1","undefined","1","h","103","0","0","0","103","0","103","0","103","0","0","0","103","103","103","103","Sat Sep 19 16:06:07 2020","600","The main experiment item","yes","FlankerTask.osexp","/Users/suzannejosey","no","mono","no","18","no","white","no","yes","768","legacy","23","79","/Users/suzannejosey/subject-1.csv","legacy","Lentiform Loewenfeld","3.3.3","0","h","NA","h","h","NA","h","394","NA","18039","259023","NA","394","2","legacy","1024","2","48000","-16","experiment","SSHSS","1","odd","459282","21242","421205","NA","434625","3171","429502","NA","460355","3182","162181","NA","460469","460864","460343","460469","Flanker Task","102","53698","104","yes","1024"
"98.0952380952381","98.0952380952381","516.2761904761904","516.2761904761904","black","legacy","legacy","legacy","0","congruent","uniform","1","undefined","1","s","104","0","0","0","104","0","104","0","104","0","0","0","104","104","104","104","Sat Sep 19 16:06:07 2020","600","The main experiment item","yes","FlankerTask.osexp","/Users/suzannejosey","no","mono","no","18","no","white","no","yes","768","legacy","24","79","/Users/suzannejosey/subject-1.csv","legacy","Lentiform Loewenfeld","3.3.3","0","s","NA","h","h","NA","s","511","NA","18039","259023","NA","511","2","legacy","1024","2","48000","-16","experiment","SSSSS","1","odd","460877","21242","421205","NA","434625","3171","429502","NA","461953","3182","162181","NA","462066","462578","461941","462066","Flanker Task","103","54209","105","yes","1024"
"98.11320754716981","98.11320754716981","515.0943396226415","515.0943396226415","black","legacy","legacy","legacy","0","incongruent","uniform","1","undefined","1","h","105","0","0","0","105","0","105","0","105","0","0","0","105","105","105","105","Sat Sep 19 16:06:07 2020","600","The main experiment item","yes","FlankerTask.osexp","/Users/suzannejosey","no","mono","no","18","no","white","no","yes","768","legacy","25","79","/Users/suzannejosey/subject-1.csv","legacy","Lentiform Loewenfeld","3.3.3","0","h","NA","h","h","NA","h","391","NA","18039","259023","NA","391","2","legacy","1024","2","48000","-16","experiment","SSHSS","1","odd","462591","21242","421205","NA","434625","3171","429502","NA","463667","3182","162181","NA","463781","464173","463655","463781","Flanker Task","104","54600","106","yes","1024"
"98.13084112149532","98.13084112149532","514.3084112149533","514.3084112149533","black","legacy","legacy","legacy","0","congruent","uniform","1","undefined","1","h","106","0","0","0","106","0","106","0","106","0","0","0","106","106","106","106","Sat Sep 19 16:06:07 2020","600","The main experiment item","yes","FlankerTask.osexp","/Users/suzannejosey","no","mono","no","18","no","white","no","yes","768","legacy","26","79","/Users/suzannejosey/subject-1.csv","legacy","Lentiform Loewenfeld","3.3.3","0","h","NA","h","h","NA","h","431","NA","18039","259023","NA","431","2","legacy","1024","2","48000","-16","experiment","HHHHH","1","odd","464186","21242","421205","NA","434625","3171","429502","NA","465260","3182","162181","NA","465374","465806","465249","465374","Flanker Task","105","55031","107","yes","1024"
"98.14814814814815","98.14814814814815","513.3888888888889","513.3888888888889","black","legacy","legacy","legacy","0","congruent","uniform","1","undefined","1","h","107","0","0","0","107","0","107","0","107","0","0","0","107","107","107","107","Sat Sep 19 16:06:07 2020","600","The main experiment item","yes","FlankerTask.osexp","/Users/suzannejosey","no","mono","no","18","no","white","no","yes","768","legacy","27","79","/Users/suzannejosey/subject-1.csv","legacy","Lentiform Loewenfeld","3.3.3","0","h","NA","h","h","NA","h","415","NA","18039","259023","NA","415","2","legacy","1024","2","48000","-16","experiment","HHHHH","1","odd","465819","21242","421205","NA","434625","3171","429502","NA","466893","3182","162181","NA","467006","467422","466881","467006","Flanker Task","106","55446","108","yes","1024"
"98.1651376146789","98.1651376146789","513.2752293577981","513.2752293577981","black","legacy","legacy","legacy","0","incongruent","uniform","1","undefined","1","h","108","0","0","0","108","0","108","0","108","0","0","0","108","108","108","108","Sat Sep 19 16:06:07 2020","600","The main experiment item","yes","FlankerTask.osexp","/Users/suzannejosey","no","mono","no","18","no","white","no","yes","768","legacy","28","79","/Users/suzannejosey/subject-1.csv","legacy","Lentiform Loewenfeld","3.3.3","0","h","NA","h","h","NA","h","501","NA","18039","259023","NA","501","2","legacy","1024","2","48000","-16","experiment","SSHSS","1","odd","467435","21242","421205","NA","434625","3171","429502","NA","468509","3182","162181","NA","468623","469125","468497","468623","Flanker Task","107","55947","109","yes","1024"
"98.18181818181819","98.18181818181819","513.1636363636363","513.1636363636363","black","legacy","legacy","legacy","0","incongruent","uniform","1","undefined","1","s","109","0","0","0","109","0","109","0","109","0","0","0","109","109","109","109","Sat Sep 19 16:06:07 2020","600","The main experiment item","yes","FlankerTask.osexp","/Users/suzannejosey","no","mono","no","18","no","white","no","yes","768","legacy","29","79","/Users/suzannejosey/subject-1.csv","legacy","Lentiform Loewenfeld","3.3.3","0","s","NA","h","h","NA","s","501","NA","18039","259023","NA","501","2","legacy","1024","2","48000","-16","experiment","HHSHH","1","odd","469137","21242","421205","NA","434625","3171","429502","NA","470198","3182","162181","NA","470310","470812","470189","470309","Flanker Task","108","56448","110","yes","1024"
"98.1981981981982","98.1981981981982","514.7027027027027","514.7027027027027","black","legacy","legacy","legacy","0","congruent","uniform","1","undefined","1","h","110","0","0","0","110","0","110","0","110","0","0","0","110","110","110","110","Sat Sep 19 16:06:07 2020","600","The main experiment item","yes","FlankerTask.osexp","/Users/suzannejosey","no","mono","no","18","no","white","no","yes","768","legacy","30","79","/Users/suzannejosey/subject-1.csv","legacy","Lentiform Loewenfeld","3.3.3","0","h","NA","h","h","NA","h","684","NA","18039","259023","NA","684","2","legacy","1024","2","48000","-16","experiment","HHHHH","1","odd","470825","21242","421205","NA","434625","3171","429502","NA","471902","3182","162181","NA","472016","472701","471890","472016","Flanker Task","109","57132","111","yes","1024"
"98.21428571428571","98.21428571428571","514.625","514.625","black","legacy","legacy","legacy","0","incongruent","uniform","1","undefined","1","h","111","0","0","0","111","0","111","0","111","0","0","0","111","111","111","111","Sat Sep 19 16:06:07 2020","600","The main experiment item","yes","FlankerTask.osexp","/Users/suzannejosey","no","mono","no","18","no","white","no","yes","768","legacy","31","79","/Users/suzannejosey/subject-1.csv","legacy","Lentiform Loewenfeld","3.3.3","0","h","NA","h","h","NA","h","506","NA","18039","259023","NA","506","2","legacy","1024","2","48000","-16","experiment","SSHSS","1","odd","473227","21242","421205","NA","434625","3171","472714","NA","474300","3182","162181","NA","474413","474920","474288","474413","Flanker Task","110","57638","112","yes","1024"
"98.23008849557522","98.23008849557522","514.2300884955753","514.2300884955753","black","legacy","legacy","legacy","0","congruent","uniform","1","undefined","1","s","112","0","0","0","112","0","112","0","112","0","0","0","112","112","112","112","Sat Sep 19 16:06:07 2020","600","The main experiment item","yes","FlankerTask.osexp","/Users/suzannejosey","no","mono","no","18","no","white","no","yes","768","legacy","32","79","/Users/suzannejosey/subject-1.csv","legacy","Lentiform Loewenfeld","3.3.3","0","s","NA","h","h","NA","s","470","NA","18039","259023","NA","470","2","legacy","1024","2","48000","-16","experiment","SSSSS","1","odd","474933","21242","421205","NA","434625","3171","472714","NA","476007","3182","162181","NA","476121","476592","475996","476121","Flanker Task","111","58108","113","yes","1024"
"98.24561403508773","98.24561403508773","513.4473684210526","513.4473684210526","black","legacy","legacy","legacy","0","congruent","uniform","1","undefined","1","s","113","0","0","0","113","0","113","0","113","0","0","0","113","113","113","113","Sat Sep 19 16:06:07 2020","600","The main experiment item","yes","FlankerTask.osexp","/Users/suzannejosey","no","mono","no","18","no","white","no","yes","768","legacy","33","79","/Users/suzannejosey/subject-1.csv","legacy","Lentiform Loewenfeld","3.3.3","0","s","NA","h","h","NA","s","425","NA","18039","259023","NA","425","2","legacy","1024","2","48000","-16","experiment","SSSSS","1","odd","476605","21242","421205","NA","434625","3171","472714","NA","477681","3182","162181","NA","477795","478222","477669","477795","Flanker Task","112","58533","114","yes","1024"
"98.26086956521739","98.26086956521739","513.2695652173913","513.2695652173913","black","legacy","legacy","legacy","0","incongruent","uniform","1","undefined","1","h","114","0","0","0","114","0","114","0","114","0","0","0","114","114","114","114","Sat Sep 19 16:06:07 2020","600","The main experiment item","yes","FlankerTask.osexp","/Users/suzannejosey","no","mono","no","18","no","white","no","yes","768","legacy","34","79","/Users/suzannejosey/subject-1.csv","legacy","Lentiform Loewenfeld","3.3.3","0","h","NA","h","h","NA","h","493","NA","18039","259023","NA","493","2","legacy","1024","2","48000","-16","experiment","SSHSS","1","odd","478238","21242","421205","NA","434625","3171","472714","NA","479320","3182","162181","NA","479435","479931","479305","479435","Flanker Task","113","59026","115","yes","1024"
"98.27586206896552","98.27586206896552","513.1120689655172","513.1120689655172","black","legacy","legacy","legacy","0","congruent","uniform","1","undefined","1","s","115","0","0","0","115","0","115","0","115","0","0","0","115","115","115","115","Sat Sep 19 16:06:07 2020","600","The main experiment item","yes","FlankerTask.osexp","/Users/suzannejosey","no","mono","no","18","no","white","no","yes","768","legacy","35","79","/Users/suzannejosey/subject-1.csv","legacy","Lentiform Loewenfeld","3.3.3","0","s","NA","h","h","NA","s","495","NA","18039","259023","NA","495","2","legacy","1024","2","48000","-16","experiment","SSSSS","1","odd","479949","21242","421205","NA","434625","3171","472714","NA","481038","3182","162181","NA","481154","481651","481022","481154","Flanker Task","114","59521","116","yes","1024"
"98.2905982905983","98.2905982905983","512.5555555555555","512.5555555555555","black","legacy","legacy","legacy","0","incongruent","uniform","1","undefined","1","s","116","0","0","0","116","0","116","0","116","0","0","0","116","116","116","116","Sat Sep 19 16:06:07 2020","600","The main experiment item","yes","FlankerTask.osexp","/Users/suzannejosey","no","mono","no","18","no","white","no","yes","768","legacy","36","79","/Users/suzannejosey/subject-1.csv","legacy","Lentiform Loewenfeld","3.3.3","0","s","NA","h","h","NA","s","448","NA","18039","259023","NA","448","2","legacy","1024","2","48000","-16","experiment","HHSHH","1","odd","481672","21242","421205","NA","434625","3171","472714","NA","482771","3182","162181","NA","482891","483341","482754","482891","Flanker Task","115","59969","117","yes","1024"
"98.30508474576271","98.30508474576271","511.99152542372883","511.99152542372883","black","legacy","legacy","legacy","0","incongruent","uniform","1","undefined","1","s","117","0","0","0","117","0","117","0","117","0","0","0","117","117","117","117","Sat Sep 19 16:06:07 2020","600","The main experiment item","yes","FlankerTask.osexp","/Users/suzannejosey","no","mono","no","18","no","white","no","yes","768","legacy","37","79","/Users/suzannejosey/subject-1.csv","legacy","Lentiform Loewenfeld","3.3.3","0","s","NA","h","h","NA","s","446","NA","18039","259023","NA","446","2","legacy","1024","2","48000","-16","experiment","HHSHH","1","odd","483363","21242","421205","NA","434625","3171","472714","NA","484469","3182","162181","NA","484588","485037","484449","484588","Flanker Task","116","60415","118","yes","1024"
"98.31932773109244","98.31932773109244","511.4957983193277","511.4957983193277","black","legacy","legacy","legacy","0","congruent","uniform","1","undefined","1","h","118","0","0","0","118","0","118","0","118","0","0","0","118","118","118","118","Sat Sep 19 16:06:07 2020","600","The main experiment item","yes","FlankerTask.osexp","/Users/suzannejosey","no","mono","no","18","no","white","no","yes","768","legacy","38","79","/Users/suzannejosey/subject-1.csv","legacy","Lentiform Loewenfeld","3.3.3","0","h","NA","h","h","NA","h","453","NA","18039","259023","NA","453","2","legacy","1024","2","48000","-16","experiment","HHHHH","1","odd","485060","21242","421205","NA","434625","3171","472714","NA","486172","3182","162181","NA","486292","486748","486151","486292","Flanker Task","117","60868","119","yes","1024"
"98.33333333333333","98.33333333333333","510.85","510.85","black","legacy","legacy","legacy","0","congruent","uniform","1","undefined","1","s","119","0","0","0","119","0","119","0","119","0","0","0","119","119","119","119","Sat Sep 19 16:06:07 2020","600","The main experiment item","yes","FlankerTask.osexp","/Users/suzannejosey","no","mono","no","18","no","white","no","yes","768","legacy","39","79","/Users/suzannejosey/subject-1.csv","legacy","Lentiform Loewenfeld","3.3.3","0","s","NA","h","h","NA","s","434","NA","18039","259023","NA","434","2","legacy","1024","2","48000","-16","experiment","SSSSS","1","odd","486773","21242","421205","NA","434625","3171","472714","NA","487892","3182","162181","NA","488012","488448","487870","488012","Flanker Task","118","61302","120","yes","1024"
"98.34710743801652","98.34710743801652","511.22314049586777","511.22314049586777","black","legacy","legacy","legacy","0","incongruent","uniform","1","undefined","1","s","120","0","0","0","120","0","120","0","120","0","0","0","120","120","120","120","Sat Sep 19 16:06:07 2020","600","The main experiment item","yes","FlankerTask.osexp","/Users/suzannejosey","no","mono","no","18","no","white","no","yes","768","legacy","40","79","/Users/suzannejosey/subject-1.csv","legacy","Lentiform Loewenfeld","3.3.3","0","s","NA","h","h","NA","s","556","NA","18039","259023","NA","556","2","legacy","1024","2","48000","-16","experiment","HHSHH","1","odd","488460","21242","421205","NA","434625","3171","472714","NA","489533","3182","162181","NA","489647","490204","489522","489647","Flanker Task","119","61858","121","yes","1024"
"98.36065573770492","98.36065573770492","511.9672131147541","511.9672131147541","black","legacy","legacy","legacy","0","incongruent","uniform","1","undefined","1","h","121","0","0","0","121","0","121","0","121","0","0","0","121","121","121","121","Sat Sep 19 16:06:07 2020","600","The main experiment item","yes","FlankerTask.osexp","/Users/suzannejosey","no","mono","no","18","no","white","no","yes","768","legacy","41","79","/Users/suzannejosey/subject-1.csv","legacy","Lentiform Loewenfeld","3.3.3","0","h","NA","h","h","NA","h","602","NA","18039","259023","NA","602","2","legacy","1024","2","48000","-16","experiment","SSHSS","1","odd","490217","21242","421205","NA","434625","3171","472714","NA","491290","3182","162181","NA","491403","492007","491279","491403","Flanker Task","120","62460","122","yes","1024"
"98.3739837398374","98.3739837398374","511.9593495934959","511.9593495934959","black","legacy","legacy","legacy","0","incongruent","uniform","1","undefined","1","s","122","0","0","0","122","0","122","0","122","0","0","0","122","122","122","122","Sat Sep 19 16:06:07 2020","600","The main experiment item","yes","FlankerTask.osexp","/Users/suzannejosey","no","mono","no","18","no","white","no","yes","768","legacy","42","79","/Users/suzannejosey/subject-1.csv","legacy","Lentiform Loewenfeld","3.3.3","0","s","NA","h","h","NA","s","511","NA","18039","259023","NA","511","2","legacy","1024","2","48000","-16","experiment","HHSHH","1","odd","492533","21242","421205","NA","434625","3171","492020","NA","493606","3182","162181","NA","493720","494233","493594","493719","Flanker Task","121","62971","123","yes","1024"
"98.38709677419355","98.38709677419355","511.89516129032256","511.89516129032256","black","legacy","legacy","legacy","0","incongruent","uniform","1","undefined","1","s","123","0","0","0","123","0","123","0","123","0","0","0","123","123","123","123","Sat Sep 19 16:06:07 2020","600","The main experiment item","yes","FlankerTask.osexp","/Users/suzannejosey","no","mono","no","18","no","white","no","yes","768","legacy","43","79","/Users/suzannejosey/subject-1.csv","legacy","Lentiform Loewenfeld","3.3.3","0","s","NA","h","h","NA","s","504","NA","18039","259023","NA","504","2","legacy","1024","2","48000","-16","experiment","HHSHH","1","odd","494246","21242","421205","NA","434625","3171","492020","NA","495321","3182","162181","NA","495435","495941","495309","495435","Flanker Task","122","63475","124","yes","1024"
"98.4","98.4","510.704","510.704","black","legacy","legacy","legacy","0","incongruent","uniform","1","undefined","1","s","124","0","0","0","124","0","124","0","124","0","0","0","124","124","124","124","Sat Sep 19 16:06:07 2020","600","The main experiment item","yes","FlankerTask.osexp","/Users/suzannejosey","no","mono","no","18","no","white","no","yes","768","legacy","44","79","/Users/suzannejosey/subject-1.csv","legacy","Lentiform Loewenfeld","3.3.3","0","s","NA","h","h","NA","s","363","NA","18039","259023","NA","363","2","legacy","1024","2","48000","-16","experiment","HHSHH","1","odd","495954","21242","421205","NA","434625","3171","492020","NA","497028","3182","162181","NA","497143","497508","497016","497142","Flanker Task","123","63838","125","yes","1024"
"98.41269841269842","98.41269841269842","510.95238095238096","510.95238095238096","black","legacy","legacy","legacy","0","congruent","uniform","1","undefined","1","h","125","0","0","0","125","0","125","0","125","0","0","0","125","125","125","125","Sat Sep 19 16:06:07 2020","600","The main experiment item","yes","FlankerTask.osexp","/Users/suzannejosey","no","mono","no","18","no","white","no","yes","768","legacy","45","79","/Users/suzannejosey/subject-1.csv","legacy","Lentiform Loewenfeld","3.3.3","0","h","NA","h","h","NA","h","542","NA","18039","259023","NA","542","2","legacy","1024","2","48000","-16","experiment","HHHHH","1","odd","497522","21242","421205","NA","434625","3171","492020","NA","498600","3182","162181","NA","498715","499259","498586","498714","Flanker Task","124","64380","126","yes","1024"
"98.4251968503937","98.4251968503937","510.251968503937","510.251968503937","black","legacy","legacy","legacy","0","congruent","uniform","1","undefined","1","s","126","0","0","0","126","0","126","0","126","0","0","0","126","126","126","126","Sat Sep 19 16:06:07 2020","600","The main experiment item","yes","FlankerTask.osexp","/Users/suzannejosey","no","mono","no","18","no","white","no","yes","768","legacy","46","79","/Users/suzannejosey/subject-1.csv","legacy","Lentiform Loewenfeld","3.3.3","0","s","NA","h","h","NA","s","422","NA","18039","259023","NA","422","2","legacy","1024","2","48000","-16","experiment","SSSSS","1","odd","499276","21242","421205","NA","434625","3171","492020","NA","500362","3182","162181","NA","500479","500904","500347","500479","Flanker Task","125","64802","127","yes","1024"
