"acc","accuracy","average_response_time","avg_rt","background","canvas_backend","clock_backend","color_backend","compensation","condition","coordinates","correct","correct_instructions1","correct_keyboard_response","correct_response","count_ISI","count_block1","count_block2","count_block3","count_errorFeedback","count_experiment","count_faster","count_finish","count_fixation","count_instructions1","count_instructions2","count_instructions3","count_keyboard_response","count_logger","count_sequence","count_stimulus","datetime","deadline","description","disable_garbage_collection","experiment_file","experiment_path","font_bold","font_family","font_italic","font_size","font_underline","foreground","form_clicks","fullscreen","height","keyboard_backend","live_row","live_row_block1","logfile","mouse_backend","opensesame_codename","opensesame_version","repeat_cycle","response","response_finish","response_instructions1","response_instructions2","response_instructions3","response_keyboard_response","response_time","response_time_finish","response_time_instructions1","response_time_instructions2","response_time_instructions3","response_time_keyboard_response","round_decimals","sampler_backend","sound_buf_size","sound_channels","sound_freq","sound_sample_size","start","stimulus","subject_nr","subject_parity","time_ISI","time_block1","time_block2","time_block3","time_errorFeedback","time_experiment","time_faster","time_finish","time_fixation","time_instructions1","time_instructions2","time_instructions3","time_keyboard_response","time_logger","time_sequence","time_stimulus","title","total_correct","total_response_time","total_responses","uniform_coordinates","width"
"100","100","761.1402000002563","761.1402000002563","black","psycho","psycho","psycho","0","congruent","uniform","1","undefined","1","h","0","0","0","0","0","0","0","0","0","0","0","0","0","0","0","0","Sat Sep 26 13:36:59 2020","1500","The main experiment item","yes","CS-FlankerTask2.1.osexp","C:/Users/Colton/OneDrive/Desktop","no","mono","no","18","no","white","no","yes","768","psycho","0","0","C:/Users/Colton/OneDrive/Desktop/CS-subject-3.csv","psycho","Lentiform Loewenfeld","3.3.3","0","h","NA","h","NA","NA","h","761.1402000002563","NA","12169943.6362","NA","NA","761.1402000002563","2","psycho","1024","2","48000","-16","experiment","HHHHH","3","odd","NA","12181467.8389","NA","NA","NA","11488.783899998452","NA","NA","12181725.6051","11519.751099998757","NA","NA","12181836.4559","12182599.606600001","12181704.605700001","12181835.9274","Flanker Task 2.1","1","761.1402000002563","1","yes","1024"
"100","100","615.0910500008613","615.0910500008613","black","psycho","psycho","psycho","0","incongruent","uniform","1","undefined","1","s","1","0","0","0","1","0","1","0","1","0","0","0","1","1","1","1","Sat Sep 26 13:36:59 2020","1500","The main experiment item","yes","CS-FlankerTask2.1.osexp","C:/Users/Colton/OneDrive/Desktop","no","mono","no","18","no","white","no","yes","768","psycho","1","1","C:/Users/Colton/OneDrive/Desktop/CS-subject-3.csv","psycho","Lentiform Loewenfeld","3.3.3","0","s","NA","h","NA","NA","s","469.0419000014663","NA","12169943.6362","NA","NA","469.0419000014663","2","psycho","1024","2","48000","-16","experiment","HHSHH","3","odd","12182715.123399997","12181467.8389","NA","NA","NA","11488.783899998452","NA","NA","12184044.4784","11519.751099998757","NA","NA","12184153.93","12184625.5198","12184034.9102","12184153.413","Flanker Task 2.1","2","1230.1821000017226","2","yes","1024"
"100","100","536.2688000003496","536.2688000003496","black","psycho","psycho","psycho","0","congruent","uniform","1","undefined","1","h","2","0","0","0","2","0","2","0","2","0","0","0","2","2","2","2","Sat Sep 26 13:36:59 2020","1500","The main experiment item","yes","CS-FlankerTask2.1.osexp","C:/Users/Colton/OneDrive/Desktop","no","mono","no","18","no","white","no","yes","768","psycho","2","2","C:/Users/Colton/OneDrive/Desktop/CS-subject-3.csv","psycho","Lentiform Loewenfeld","3.3.3","0","h","NA","h","NA","NA","h","378.62429999932647","NA","12169943.6362","NA","NA","378.62429999932647","2","psycho","1024","2","48000","-16","experiment","HHHHH","3","odd","12184690.6188","12181467.8389","NA","NA","NA","11488.783899998452","NA","NA","12186029.743299998","11519.751099998757","NA","NA","12186140.0349","12186520.893000001","12186018.3983","12186139.541199999","Flanker Task 2.1","3","1608.806400001049","3","yes","1024"
"75","75","472.1462749997154","472.1462749997154","black","psycho","psycho","psycho","0","incongruent","uniform","0","undefined","0","h","3","0","0","0","3","0","3","0","3","0","0","0","3","3","3","3","Sat Sep 26 13:36:59 2020","1500","The main experiment item","yes","CS-FlankerTask2.1.osexp","C:/Users/Colton/OneDrive/Desktop","no","mono","no","18","no","white","no","yes","768","psycho","3","3","C:/Users/Colton/OneDrive/Desktop/CS-subject-3.csv","psycho","Lentiform Loewenfeld","3.3.3","0","s","NA","h","NA","NA","s","279.7786999978125","NA","12169943.6362","NA","NA","279.7786999978125","2","psycho","1024","2","48000","-16","experiment","SSHSS","3","odd","12186590.440100001","12181467.8389","NA","NA","NA","11488.783899998452","NA","NA","12187894.657699998","11519.751099998757","NA","NA","12188002.889700001","12188285.891999999","12187884.392600002","12188002.398500001","Flanker Task 2.1","3","1888.5850999988616","4","yes","1024"
"80","80","465.62761999964715","465.62761999964715","black","psycho","psycho","psycho","0","incongruent","uniform","1","undefined","1","h","4","0","0","0","4","0","4","0","4","0","0","0","4","4","4","4","Sat Sep 26 13:36:59 2020","1500","The main experiment item","yes","CS-FlankerTask2.1.osexp","C:/Users/Colton/OneDrive/Desktop","no","mono","no","18","no","white","no","yes","768","psycho","4","4","C:/Users/Colton/OneDrive/Desktop/CS-subject-3.csv","psycho","Lentiform Loewenfeld","3.3.3","0","h","NA","h","NA","NA","h","439.55299999937415","NA","12169943.6362","NA","NA","439.55299999937415","2","psycho","1024","2","48000","-16","experiment","SSHSS","3","odd","12188834.3235","12181467.8389","NA","NA","12188325.100599999","11488.783899998452","NA","NA","12190131.205999998","11519.751099998757","NA","NA","12190239.275","12190681.3514","12190122.3182","12190238.870499998","Flanker Task 2.1","4","2328.1380999982357","5","yes","1024"
"83.33333333333333","83.33333333333333","446.53125","446.53125","black","psycho","psycho","psycho","0","congruent","uniform","1","undefined","1","h","5","0","0","0","5","0","5","0","5","0","0","0","5","5","5","5","Sat Sep 26 13:36:59 2020","1500","The main experiment item","yes","CS-FlankerTask2.1.osexp","C:/Users/Colton/OneDrive/Desktop","no","mono","no","18","no","white","no","yes","768","psycho","5","5","C:/Users/Colton/OneDrive/Desktop/CS-subject-3.csv","psycho","Lentiform Loewenfeld","3.3.3","0","h","NA","h","NA","NA","h","351.0494000017643","NA","12169943.6362","NA","NA","351.0494000017643","2","psycho","1024","2","48000","-16","experiment","HHHHH","3","odd","12190725.676399998","12181467.8389","NA","NA","12188325.100599999","11488.783899998452","NA","NA","12192025.2768","11519.751099998757","NA","NA","12192133.2645","12192487.864599999","12192015.655","12192132.7952","Flanker Task 2.1","5","2679.1875","6","yes","1024"
"71.42857142857143","71.42857142857143","427.2484999998872","427.2484999998872","black","psycho","psycho","psycho","0","incongruent","uniform","0","undefined","0","s","6","0","0","0","6","0","6","0","6","0","0","0","6","6","6","6","Sat Sep 26 13:36:59 2020","1500","The main experiment item","yes","CS-FlankerTask2.1.osexp","C:/Users/Colton/OneDrive/Desktop","no","mono","no","18","no","white","no","yes","768","psycho","6","6","C:/Users/Colton/OneDrive/Desktop/CS-subject-3.csv","psycho","Lentiform Loewenfeld","3.3.3","0","h","NA","h","NA","NA","h","311.55199999921024","NA","12169943.6362","NA","NA","311.55199999921024","2","psycho","1024","2","48000","-16","experiment","HHSHH","3","odd","12192524.9716","12181467.8389","NA","NA","12188325.100599999","11488.783899998452","NA","NA","12193819.2758","11519.751099998757","NA","NA","12193929.2127","12194243.040900001","12193810.042099997","12193928.6947","Flanker Task 2.1","5","2990.7394999992102","7","yes","1024"
"75","75","424.48043749993667","424.48043749993667","black","psycho","psycho","psycho","0","incongruent","uniform","1","undefined","1","h","7","0","0","0","7","0","7","0","7","0","0","0","7","7","7","7","Sat Sep 26 13:36:59 2020","1500","The main experiment item","yes","CS-FlankerTask2.1.osexp","C:/Users/Colton/OneDrive/Desktop","no","mono","no","18","no","white","no","yes","768","psycho","7","7","C:/Users/Colton/OneDrive/Desktop/CS-subject-3.csv","psycho","Lentiform Loewenfeld","3.3.3","0","h","NA","h","NA","NA","h","405.1040000002831","NA","12169943.6362","NA","NA","405.1040000002831","2","psycho","1024","2","48000","-16","experiment","SSHSS","3","odd","12194825.5823","12181467.8389","NA","NA","12194314.7345","11488.783899998452","NA","NA","12196117.9146","11519.751099998757","NA","NA","12196225.8314","12196633.2597","12196109.3909","12196225.3962","Flanker Task 2.1","6","3395.8434999994934","8","yes","1024"
"77.77777777777777","77.77777777777777","428.66601111098294","428.66601111098294","black","psycho","psycho","psycho","0","incongruent","uniform","1","undefined","1","s","8","0","0","0","8","0","8","0","8","0","0","0","8","8","8","8","Sat Sep 26 13:36:59 2020","1500","The main experiment item","yes","CS-FlankerTask2.1.osexp","C:/Users/Colton/OneDrive/Desktop","no","mono","no","18","no","white","no","yes","768","psycho","8","8","C:/Users/Colton/OneDrive/Desktop/CS-subject-3.csv","psycho","Lentiform Loewenfeld","3.3.3","0","s","NA","h","NA","NA","s","462.1505999993533","NA","12169943.6362","NA","NA","462.1505999993533","2","psycho","1024","2","48000","-16","experiment","HHSHH","3","odd","12196670.621199999","12181467.8389","NA","NA","12194314.7345","11488.783899998452","NA","NA","12197971.0619","11519.751099998757","NA","NA","12198079.511699999","12198544.3261","12197961.452799998","12198079.0481","Flanker Task 2.1","7","3857.9940999988467","9","yes","1024"
"80","80","425.51433999985454","425.51433999985454","black","psycho","psycho","psycho","0","incongruent","uniform","1","undefined","1","h","9","0","0","0","9","0","9","0","9","0","0","0","9","9","9","9","Sat Sep 26 13:36:59 2020","1500","The main experiment item","yes","CS-FlankerTask2.1.osexp","C:/Users/Colton/OneDrive/Desktop","no","mono","no","18","no","white","no","yes","768","psycho","9","9","C:/Users/Colton/OneDrive/Desktop/CS-subject-3.csv","psycho","Lentiform Loewenfeld","3.3.3","0","h","NA","h","NA","NA","h","397.149299999699","NA","12169943.6362","NA","NA","397.149299999699","2","psycho","1024","2","48000","-16","experiment","SSHSS","3","odd","12198615.729","12181467.8389","NA","NA","12194314.7345","11488.783899998452","NA","NA","12199922.3594","11519.751099998757","NA","NA","12200030.6318","12200430.451299999","12199913.2122","12200030.1473","Flanker Task 2.1","8","4255.143399998546","10","yes","1024"
"81.81818181818181","81.81818181818181","418.36103636365044","418.36103636365044","black","psycho","psycho","psycho","0","congruent","uniform","1","undefined","1","s","10","0","0","0","10","0","10","0","10","0","0","0","10","10","10","10","Sat Sep 26 13:36:59 2020","1500","The main experiment item","yes","CS-FlankerTask2.1.osexp","C:/Users/Colton/OneDrive/Desktop","no","mono","no","18","no","white","no","yes","768","psycho","10","10","C:/Users/Colton/OneDrive/Desktop/CS-subject-3.csv","psycho","Lentiform Loewenfeld","3.3.3","0","s","NA","h","NA","NA","s","346.8280000016093","NA","12169943.6362","NA","NA","346.8280000016093","2","psycho","1024","2","48000","-16","experiment","SSSSS","3","odd","12200495.096899997","12181467.8389","NA","NA","12194314.7345","11488.783899998452","NA","NA","12201805.8647","11519.751099998757","NA","NA","12201913.869299999","12202264.433699999","12201796.1965","12201913.455400001","Flanker Task 2.1","9","4601.971400000155","11","yes","1024"
"83.33333333333333","83.33333333333333","416.4227166666339","416.4227166666339","black","psycho","psycho","psycho","0","incongruent","uniform","1","undefined","1","s","11","0","0","0","11","0","11","0","11","0","0","0","11","11","11","11","Sat Sep 26 13:36:59 2020","1500","The main experiment item","yes","CS-FlankerTask2.1.osexp","C:/Users/Colton/OneDrive/Desktop","no","mono","no","18","no","white","no","yes","768","psycho","11","11","C:/Users/Colton/OneDrive/Desktop/CS-subject-3.csv","psycho","Lentiform Loewenfeld","3.3.3","0","s","NA","h","NA","NA","s","395.10119999945164","NA","12169943.6362","NA","NA","395.10119999945164","2","psycho","1024","2","48000","-16","experiment","HHSHH","3","odd","12202338.1591","12181467.8389","NA","NA","12194314.7345","11488.783899998452","NA","NA","12203649.0814","11519.751099998757","NA","NA","12203757.8355","12204155.8127","12203639.690799998","12203757.301099999","Flanker Task 2.1","10","4997.072599999607","12","yes","1024"
"84.61538461538461","84.61538461538461","414.85281538476164","414.85281538476164","black","psycho","psycho","psycho","0","incongruent","uniform","1","undefined","1","h","12","0","0","0","12","0","12","0","12","0","0","0","12","12","12","12","Sat Sep 26 13:36:59 2020","1500","The main experiment item","yes","CS-FlankerTask2.1.osexp","C:/Users/Colton/OneDrive/Desktop","no","mono","no","18","no","white","no","yes","768","psycho","12","12","C:/Users/Colton/OneDrive/Desktop/CS-subject-3.csv","psycho","Lentiform Loewenfeld","3.3.3","0","h","NA","h","NA","NA","h","396.0140000022948","NA","12169943.6362","NA","NA","396.0140000022948","2","psycho","1024","2","48000","-16","experiment","SSHSS","3","odd","12204226.6228","12181467.8389","NA","NA","12194314.7345","11488.783899998452","NA","NA","12205535.321899999","11519.751099998757","NA","NA","12205643.807599997","12206043.028199999","12205525.1302","12205643.3211","Flanker Task 2.1","11","5393.086600001901","13","yes","1024"
"85.71428571428571","85.71428571428571","415.56624285717095","415.56624285717095","black","psycho","psycho","psycho","0","congruent","uniform","1","undefined","1","s","13","0","0","0","13","0","13","0","13","0","0","0","13","13","13","13","Sat Sep 26 13:36:59 2020","1500","The main experiment item","yes","CS-FlankerTask2.1.osexp","C:/Users/Colton/OneDrive/Desktop","no","mono","no","18","no","white","no","yes","768","psycho","13","13","C:/Users/Colton/OneDrive/Desktop/CS-subject-3.csv","psycho","Lentiform Loewenfeld","3.3.3","0","s","NA","h","NA","NA","s","424.840799998492","NA","12169943.6362","NA","NA","424.840799998492","2","psycho","1024","2","48000","-16","experiment","SSSSS","3","odd","12206081.263199998","12181467.8389","NA","NA","12194314.7345","11488.783899998452","NA","NA","12207385.708899997","11519.751099998757","NA","NA","12207494.5434","12207922.422699997","12207376.4752","12207494.0909","Flanker Task 2.1","12","5817.927400000393","14","yes","1024"
"86.66666666666667","86.66666666666667","411.55064666668574","411.55064666668574","black","psycho","psycho","psycho","0","congruent","uniform","1","undefined","1","h","14","0","0","0","14","0","14","0","14","0","0","0","14","14","14","14","Sat Sep 26 13:36:59 2020","1500","The main experiment item","yes","CS-FlankerTask2.1.osexp","C:/Users/Colton/OneDrive/Desktop","no","mono","no","18","no","white","no","yes","768","psycho","14","14","C:/Users/Colton/OneDrive/Desktop/CS-subject-3.csv","psycho","Lentiform Loewenfeld","3.3.3","0","h","NA","h","NA","NA","h","355.3322999998927","NA","12169943.6362","NA","NA","355.3322999998927","2","psycho","1024","2","48000","-16","experiment","HHHHH","3","odd","12207995.216899998","12181467.8389","NA","NA","12194314.7345","11488.783899998452","NA","NA","12209292.828999998","11519.751099998757","NA","NA","12209402.250799999","12209760.397899998","12209283.773299998","12209401.741499998","Flanker Task 2.1","13","6173.259700000286","15","yes","1024"
"87.5","87.5","408.7799999999115","408.7799999999115","black","psycho","psycho","psycho","0","congruent","uniform","1","undefined","1","s","15","0","0","0","15","0","15","0","15","0","0","0","15","15","15","15","Sat Sep 26 13:36:59 2020","1500","The main experiment item","yes","CS-FlankerTask2.1.osexp","C:/Users/Colton/OneDrive/Desktop","no","mono","no","18","no","white","no","yes","768","psycho","15","15","C:/Users/Colton/OneDrive/Desktop/CS-subject-3.csv","psycho","Lentiform Loewenfeld","3.3.3","0","s","NA","h","NA","NA","s","367.2202999982983","NA","12169943.6362","NA","NA","367.2202999982983","2","psycho","1024","2","48000","-16","experiment","SSSSS","3","odd","12209826.259999998","12181467.8389","NA","NA","12194314.7345","11488.783899998452","NA","NA","12211129.485599998","11519.751099998757","NA","NA","12211237.744099999","12211607.945600001","12211120.4507","12211237.2135","Flanker Task 2.1","14","6540.479999998584","16","yes","1024"
"88.23529411764706","88.23529411764706","405.32771764684685","405.32771764684685","black","psycho","psycho","psycho","0","congruent","uniform","1","undefined","1","h","16","0","0","0","16","0","16","0","16","0","0","0","16","16","16","16","Sat Sep 26 13:36:59 2020","1500","The main experiment item","yes","CS-FlankerTask2.1.osexp","C:/Users/Colton/OneDrive/Desktop","no","mono","no","18","no","white","no","yes","768","psycho","16","16","C:/Users/Colton/OneDrive/Desktop/CS-subject-3.csv","psycho","Lentiform Loewenfeld","3.3.3","0","h","NA","h","NA","NA","h","350.0911999978125","NA","12169943.6362","NA","NA","350.0911999978125","2","psycho","1024","2","48000","-16","experiment","HHHHH","3","odd","12211669.930799998","12181467.8389","NA","NA","12194314.7345","11488.783899998452","NA","NA","12212953.6033","11519.751099998757","NA","NA","12213062.8172","12213416.253700001","12212944.5654","12213062.277","Flanker Task 2.1","15","6890.571199996397","17","yes","1024"
"88.88888888888889","88.88888888888889","401.37507777774914","401.37507777774914","black","psycho","psycho","psycho","0","incongruent","uniform","1","undefined","1","s","17","0","0","0","17","0","17","0","17","0","0","0","17","17","17","17","Sat Sep 26 13:36:59 2020","1500","The main experiment item","yes","CS-FlankerTask2.1.osexp","C:/Users/Colton/OneDrive/Desktop","no","mono","no","18","no","white","no","yes","768","psycho","17","17","C:/Users/Colton/OneDrive/Desktop/CS-subject-3.csv","psycho","Lentiform Loewenfeld","3.3.3","0","s","NA","h","NA","NA","s","334.1802000030875","NA","12169943.6362","NA","NA","334.1802000030875","2","psycho","1024","2","48000","-16","experiment","HHSHH","3","odd","12213483.415","12181467.8389","NA","NA","12194314.7345","11488.783899998452","NA","NA","12214784.825499998","11519.751099998757","NA","NA","12214893.196999997","12215231.034199998","12214776.1216","12214892.7735","Flanker Task 2.1","16","7224.751399999484","18","yes","1024"
"89.47368421052632","89.47368421052632","408.63433684212595","408.63433684212595","black","psycho","psycho","psycho","0","incongruent","uniform","1","undefined","1","s","18","0","0","0","18","0","18","0","18","0","0","0","18","18","18","18","Sat Sep 26 13:36:59 2020","1500","The main experiment item","yes","CS-FlankerTask2.1.osexp","C:/Users/Colton/OneDrive/Desktop","no","mono","no","18","no","white","no","yes","768","psycho","18","18","C:/Users/Colton/OneDrive/Desktop/CS-subject-3.csv","psycho","Lentiform Loewenfeld","3.3.3","0","s","NA","h","NA","NA","s","539.301000000909","NA","12169943.6362","NA","NA","539.301000000909","2","psycho","1024","2","48000","-16","experiment","HHSHH","3","odd","12215292.999699999","12181467.8389","NA","NA","12194314.7345","11488.783899998452","NA","NA","12216607.182","11519.751099998757","NA","NA","12216716.2379","12217258.8085","12216598.2321","12216715.7558","Flanker Task 2.1","17","7764.052400000393","19","yes","1024"
"90","90","405.8560000000522","405.8560000000522","black","psycho","psycho","psycho","0","congruent","uniform","1","undefined","1","h","19","0","0","0","19","0","19","0","19","0","0","0","19","19","19","19","Sat Sep 26 13:36:59 2020","1500","The main experiment item","yes","CS-FlankerTask2.1.osexp","C:/Users/Colton/OneDrive/Desktop","no","mono","no","18","no","white","no","yes","768","psycho","19","19","C:/Users/Colton/OneDrive/Desktop/CS-subject-3.csv","psycho","Lentiform Loewenfeld","3.3.3","0","h","NA","h","NA","NA","h","353.0676000006497","NA","12169943.6362","NA","NA","353.0676000006497","2","psycho","1024","2","48000","-16","experiment","HHHHH","3","odd","12217326.6502","12181467.8389","NA","NA","12194314.7345","11488.783899998452","NA","NA","12218638.6604","11519.751099998757","NA","NA","12218746.917699998","12219103.224399999","12218627.8408","12218746.4443","Flanker Task 2.1","18","8117.120000001043","20","yes","1024"
"90.47619047619048","90.47619047619048","404.0155809525223","404.0155809525223","black","psycho","psycho","psycho","0","congruent","uniform","1","undefined","1","h","20","0","0","0","20","0","20","0","20","0","0","0","20","20","20","20","Sat Sep 26 13:36:59 2020","1500","The main experiment item","yes","CS-FlankerTask2.1.osexp","C:/Users/Colton/OneDrive/Desktop","no","mono","no","18","no","white","no","yes","768","psycho","20","20","C:/Users/Colton/OneDrive/Desktop/CS-subject-3.csv","psycho","Lentiform Loewenfeld","3.3.3","0","h","NA","h","NA","NA","h","367.20720000192523","NA","12169943.6362","NA","NA","367.20720000192523","2","psycho","1024","2","48000","-16","experiment","HHHHH","3","odd","12219171.458500002","12181467.8389","NA","NA","12194314.7345","11488.783899998452","NA","NA","12220483.365600001","11519.751099998757","NA","NA","12220592.595099999","12220962.7511","12220473.6873","12220592.125299998","Flanker Task 2.1","19","8484.327200002968","21","yes","1024"
"86.36363636363636","86.36363636363636","399.8939454545352","399.8939454545352","black","psycho","psycho","psycho","0","incongruent","uniform","0","undefined","0","h","21","0","0","0","21","0","21","0","21","0","0","0","21","21","21","21","Sat Sep 26 13:36:59 2020","1500","The main experiment item","yes","CS-FlankerTask2.1.osexp","C:/Users/Colton/OneDrive/Desktop","no","mono","no","18","no","white","no","yes","768","psycho","21","21","C:/Users/Colton/OneDrive/Desktop/CS-subject-3.csv","psycho","Lentiform Loewenfeld","3.3.3","0","s","NA","h","NA","NA","s","313.3395999968052","NA","12169943.6362","NA","NA","313.3395999968052","2","psycho","1024","2","48000","-16","experiment","SSHSS","3","odd","12221004.1087","12181467.8389","NA","NA","12194314.7345","11488.783899998452","NA","NA","12222304.486099998","11519.751099998757","NA","NA","12222412.937500002","12222729.9598","12222295.2959","12222412.424099999","Flanker Task 2.1","19","8797.666799999774","22","yes","1024"
"86.95652173913044","86.95652173913044","402.54324782607347","402.54324782607347","black","psycho","psycho","psycho","0","incongruent","uniform","1","undefined","1","h","22","0","0","0","22","0","22","0","22","0","0","0","22","22","22","22","Sat Sep 26 13:36:59 2020","1500","The main experiment item","yes","CS-FlankerTask2.1.osexp","C:/Users/Colton/OneDrive/Desktop","no","mono","no","18","no","white","no","yes","768","psycho","22","22","C:/Users/Colton/OneDrive/Desktop/CS-subject-3.csv","psycho","Lentiform Loewenfeld","3.3.3","0","h","NA","h","NA","NA","h","460.82789999991655","NA","12169943.6362","NA","NA","460.82789999991655","2","psycho","1024","2","48000","-16","experiment","SSHSS","3","odd","12223308.9487","12181467.8389","NA","NA","12222798.210099999","11488.783899998452","NA","NA","12224607.3736","11519.751099998757","NA","NA","12224715.577499999","12225180.0971","12224597.885499999","12224715.134399997","Flanker Task 2.1","20","9258.49469999969","23","yes","1024"
"87.5","87.5","404.5738250000868","404.5738250000868","black","psycho","psycho","psycho","0","incongruent","uniform","1","undefined","1","h","23","0","0","0","23","0","23","0","23","0","0","0","23","23","23","23","Sat Sep 26 13:36:59 2020","1500","The main experiment item","yes","CS-FlankerTask2.1.osexp","C:/Users/Colton/OneDrive/Desktop","no","mono","no","18","no","white","no","yes","768","psycho","23","23","C:/Users/Colton/OneDrive/Desktop/CS-subject-3.csv","psycho","Lentiform Loewenfeld","3.3.3","0","h","NA","h","NA","NA","h","451.2771000023931","NA","12169943.6362","NA","NA","451.2771000023931","2","psycho","1024","2","48000","-16","experiment","SSHSS","3","odd","12225216.874900002","12181467.8389","NA","NA","12222798.210099999","11488.783899998452","NA","NA","12226524.095099999","11519.751099998757","NA","NA","12226632.547199998","12227086.669599997","12226514.901999999","12226632.049699998","Flanker Task 2.1","21","9709.771800002083","24","yes","1024"
"88","88","406.29731600008904","406.29731600008904","black","psycho","psycho","psycho","0","incongruent","uniform","1","undefined","1","s","24","0","0","0","24","0","24","0","24","0","0","0","24","24","24","24","Sat Sep 26 13:36:59 2020","1500","The main experiment item","yes","CS-FlankerTask2.1.osexp","C:/Users/Colton/OneDrive/Desktop","no","mono","no","18","no","white","no","yes","768","psycho","24","24","C:/Users/Colton/OneDrive/Desktop/CS-subject-3.csv","psycho","Lentiform Loewenfeld","3.3.3","0","s","NA","h","NA","NA","s","447.66110000014305","NA","12169943.6362","NA","NA","447.66110000014305","2","psycho","1024","2","48000","-16","experiment","HHSHH","3","odd","12227184.894899998","12181467.8389","NA","NA","12222798.210099999","11488.783899998452","NA","NA","12228486.095600002","11519.751099998757","NA","NA","12228595.143099999","12229045.933499997","12228477.057500001","12228594.576","Flanker Task 2.1","22","10157.432900002226","25","yes","1024"
"88.46153846153847","88.46153846153847","403.4227846155946","403.4227846155946","black","psycho","psycho","psycho","0","congruent","uniform","1","undefined","1","h","25","0","0","0","25","0","25","0","25","0","0","0","25","25","25","25","Sat Sep 26 13:36:59 2020","1500","The main experiment item","yes","CS-FlankerTask2.1.osexp","C:/Users/Colton/OneDrive/Desktop","no","mono","no","18","no","white","no","yes","768","psycho","25","25","C:/Users/Colton/OneDrive/Desktop/CS-subject-3.csv","psycho","Lentiform Loewenfeld","3.3.3","0","h","NA","h","NA","NA","h","331.55950000323355","NA","12169943.6362","NA","NA","331.55950000323355","2","psycho","1024","2","48000","-16","experiment","HHHHH","3","odd","12229117.973599998","12181467.8389","NA","NA","12222798.210099999","11488.783899998452","NA","NA","12230422.5416","11519.751099998757","NA","NA","12230530.864599997","12230865.433999998","12230412.998199997","12230530.3212","Flanker Task 2.1","23","10488.99240000546","26","yes","1024"
"88.88888888888889","88.88888888888889","402.44497777797557","402.44497777797557","black","psycho","psycho","psycho","0","congruent","uniform","1","undefined","1","s","26","0","0","0","26","0","26","0","26","0","0","0","26","26","26","26","Sat Sep 26 13:36:59 2020","1500","The main experiment item","yes","CS-FlankerTask2.1.osexp","C:/Users/Colton/OneDrive/Desktop","no","mono","no","18","no","white","no","yes","768","psycho","26","26","C:/Users/Colton/OneDrive/Desktop/CS-subject-3.csv","psycho","Lentiform Loewenfeld","3.3.3","0","s","NA","h","NA","NA","s","377.0219999998808","NA","12169943.6362","NA","NA","377.0219999998808","2","psycho","1024","2","48000","-16","experiment","SSSSS","3","odd","12230903.974000001","12181467.8389","NA","NA","12222798.210099999","11488.783899998452","NA","NA","12232194.2165","11519.751099998757","NA","NA","12232302.4792","12232682.581599997","12232184.097599998","12232301.984900001","Flanker Task 2.1","24","10866.01440000534","27","yes","1024"
"89.28571428571429","89.28571428571429","402.0533464287541","402.0533464287541","black","psycho","psycho","psycho","0","congruent","uniform","1","undefined","1","s","27","0","0","0","27","0","27","0","27","0","0","0","27","27","27","27","Sat Sep 26 13:36:59 2020","1500","The main experiment item","yes","CS-FlankerTask2.1.osexp","C:/Users/Colton/OneDrive/Desktop","no","mono","no","18","no","white","no","yes","768","psycho","27","27","C:/Users/Colton/OneDrive/Desktop/CS-subject-3.csv","psycho","Lentiform Loewenfeld","3.3.3","0","s","NA","h","NA","NA","s","391.4792999997735","NA","12169943.6362","NA","NA","391.4792999997735","2","psycho","1024","2","48000","-16","experiment","SSSSS","3","odd","12232749.622499999","12181467.8389","NA","NA","12222798.210099999","11488.783899998452","NA","NA","12234059.5951","11519.751099998757","NA","NA","12234167.974299999","12234562.8407","12234050.5771","12234167.505499998","Flanker Task 2.1","25","11257.493700005114","28","yes","1024"
"86.20689655172414","86.20689655172414","401.1127000002126","401.1127000002126","black","psycho","psycho","psycho","0","incongruent","uniform","0","undefined","0","s","28","0","0","0","28","0","28","0","28","0","0","0","28","28","28","28","Sat Sep 26 13:36:59 2020","1500","The main experiment item","yes","CS-FlankerTask2.1.osexp","C:/Users/Colton/OneDrive/Desktop","no","mono","no","18","no","white","no","yes","768","psycho","28","28","C:/Users/Colton/OneDrive/Desktop/CS-subject-3.csv","psycho","Lentiform Loewenfeld","3.3.3","0","h","NA","h","NA","NA","h","374.774600001052","NA","12169943.6362","NA","NA","374.774600001052","2","psycho","1024","2","48000","-16","experiment","HHSHH","3","odd","12234636.570700001","12181467.8389","NA","NA","12222798.210099999","11488.783899998452","NA","NA","12235936.1656","11519.751099998757","NA","NA","12236044.268599998","12236422.5697","12235927.433599997","12236043.845699998","Flanker Task 2.1","25","11632.268300006166","29","yes","1024"
"86.66666666666667","86.66666666666667","405.57987000010905","405.57987000010905","black","psycho","psycho","psycho","0","incongruent","uniform","1","undefined","1","s","29","0","0","0","29","0","29","0","29","0","0","0","29","29","29","29","Sat Sep 26 13:36:59 2020","1500","The main experiment item","yes","CS-FlankerTask2.1.osexp","C:/Users/Colton/OneDrive/Desktop","no","mono","no","18","no","white","no","yes","768","psycho","29","29","C:/Users/Colton/OneDrive/Desktop/CS-subject-3.csv","psycho","Lentiform Loewenfeld","3.3.3","0","s","NA","h","NA","NA","s","535.1277999971062","NA","12169943.6362","NA","NA","535.1277999971062","2","psycho","1024","2","48000","-16","experiment","HHSHH","3","odd","12237014.920599999","12181467.8389","NA","NA","12236495.101799998","11488.783899998452","NA","NA","12238340.4032","11519.751099998757","NA","NA","12238450.7839","12238988.859900001","12238329.573700001","12238450.326399997","Flanker Task 2.1","26","12167.396100003272","30","yes","1024"
"87.09677419354838","87.09677419354838","405.8514193548791","405.8514193548791","black","psycho","psycho","psycho","0","congruent","uniform","1","undefined","1","h","30","0","0","0","30","0","30","0","30","0","0","0","30","30","30","30","Sat Sep 26 13:36:59 2020","1500","The main experiment item","yes","CS-FlankerTask2.1.osexp","C:/Users/Colton/OneDrive/Desktop","no","mono","no","18","no","white","no","yes","768","psycho","30","30","C:/Users/Colton/OneDrive/Desktop/CS-subject-3.csv","psycho","Lentiform Loewenfeld","3.3.3","0","h","NA","h","NA","NA","h","413.9978999979794","NA","12169943.6362","NA","NA","413.9978999979794","2","psycho","1024","2","48000","-16","experiment","HHHHH","3","odd","12239072.0621","12181467.8389","NA","NA","12236495.101799998","11488.783899998452","NA","NA","12240378.990099998","11519.751099998757","NA","NA","12240489.834","12240906.913999999","12240368.6507","12240489.319599997","Flanker Task 2.1","27","12581.394000001252","31","yes","1024"
"87.5","87.5","406.7532968749874","406.7532968749874","black","psycho","psycho","psycho","0","incongruent","uniform","1","undefined","1","s","31","0","0","0","31","0","31","0","31","0","0","0","31","31","31","31","Sat Sep 26 13:36:59 2020","1500","The main experiment item","yes","CS-FlankerTask2.1.osexp","C:/Users/Colton/OneDrive/Desktop","no","mono","no","18","no","white","no","yes","768","psycho","31","31","C:/Users/Colton/OneDrive/Desktop/CS-subject-3.csv","psycho","Lentiform Loewenfeld","3.3.3","0","s","NA","h","NA","NA","s","434.71149999834597","NA","12169943.6362","NA","NA","434.71149999834597","2","psycho","1024","2","48000","-16","experiment","HHSHH","3","odd","12240971.6711","12181467.8389","NA","NA","12236495.101799998","11488.783899998452","NA","NA","12242273.2278","11519.751099998757","NA","NA","12242381.1016","12242819.3085","12242263.8024","12242380.6727","Flanker Task 2.1","28","13016.105499999598","32","yes","1024"
"87.87878787878788","87.87878787878788","405.2114787879541","405.2114787879541","black","psycho","psycho","psycho","0","congruent","uniform","1","undefined","1","s","32","0","0","0","32","0","32","0","32","0","0","0","32","32","32","32","Sat Sep 26 13:36:59 2020","1500","The main experiment item","yes","CS-FlankerTask2.1.osexp","C:/Users/Colton/OneDrive/Desktop","no","mono","no","18","no","white","no","yes","768","psycho","32","32","C:/Users/Colton/OneDrive/Desktop/CS-subject-3.csv","psycho","Lentiform Loewenfeld","3.3.3","0","s","NA","h","NA","NA","s","355.87330000288785","NA","12169943.6362","NA","NA","355.87330000288785","2","psycho","1024","2","48000","-16","experiment","SSSSS","3","odd","12242871.5731","12181467.8389","NA","NA","12236495.101799998","11488.783899998452","NA","NA","12244177.0845","11519.751099998757","NA","NA","12244285.371899998","12244644.7927","12244167.655499998","12244284.888700001","Flanker Task 2.1","29","13371.978800002486","33","yes","1024"
"88.23529411764706","88.23529411764706","405.8897647059468","405.8897647059468","black","psycho","psycho","psycho","0","incongruent","uniform","1","undefined","1","h","33","0","0","0","33","0","33","0","33","0","0","0","33","33","33","33","Sat Sep 26 13:36:59 2020","1500","The main experiment item","yes","CS-FlankerTask2.1.osexp","C:/Users/Colton/OneDrive/Desktop","no","mono","no","18","no","white","no","yes","768","psycho","33","33","C:/Users/Colton/OneDrive/Desktop/CS-subject-3.csv","psycho","Lentiform Loewenfeld","3.3.3","0","h","NA","h","NA","NA","h","428.27319999970496","NA","12169943.6362","NA","NA","428.27319999970496","2","psycho","1024","2","48000","-16","experiment","SSHSS","3","odd","12244715.7094","12181467.8389","NA","NA","12236495.101799998","11488.783899998452","NA","NA","12246016.9841","11519.751099998757","NA","NA","12246125.631099999","12246557.027999999","12246008.0684","12246125.184599997","Flanker Task 2.1","30","13800.25200000219","34","yes","1024"
"88.57142857142857","88.57142857142857","404.0319028572845","404.0319028572845","black","psycho","psycho","psycho","0","congruent","uniform","1","undefined","1","h","34","0","0","0","34","0","34","0","34","0","0","0","34","34","34","34","Sat Sep 26 13:36:59 2020","1500","The main experiment item","yes","CS-FlankerTask2.1.osexp","C:/Users/Colton/OneDrive/Desktop","no","mono","no","18","no","white","no","yes","768","psycho","34","34","C:/Users/Colton/OneDrive/Desktop/CS-subject-3.csv","psycho","Lentiform Loewenfeld","3.3.3","0","h","NA","h","NA","NA","h","340.86460000276566","NA","12169943.6362","NA","NA","340.86460000276566","2","psycho","1024","2","48000","-16","experiment","HHHHH","3","odd","12246591.8433","12181467.8389","NA","NA","12236495.101799998","11488.783899998452","NA","NA","12247895.8871","11519.751099998757","NA","NA","12248004.695799999","12248349.0271","12247886.9222","12248004.177799998","Flanker Task 2.1","31","14141.116600004956","35","yes","1024"
"88.88888888888889","88.88888888888889","403.0269972223064","403.0269972223064","black","psycho","psycho","psycho","0","incongruent","uniform","1","undefined","1","s","35","0","0","0","35","0","35","0","35","0","0","0","35","35","35","35","Sat Sep 26 13:36:59 2020","1500","The main experiment item","yes","CS-FlankerTask2.1.osexp","C:/Users/Colton/OneDrive/Desktop","no","mono","no","18","no","white","no","yes","768","psycho","35","35","C:/Users/Colton/OneDrive/Desktop/CS-subject-3.csv","psycho","Lentiform Loewenfeld","3.3.3","0","s","NA","h","NA","NA","s","367.85529999807477","NA","12169943.6362","NA","NA","367.85529999807477","2","psycho","1024","2","48000","-16","experiment","HHSHH","3","odd","12248382.208700001","12181467.8389","NA","NA","12236495.101799998","11488.783899998452","NA","NA","12249677.717999998","11519.751099998757","NA","NA","12249786.750200002","12250158.252999999","12249668.8308","12249786.2776","Flanker Task 2.1","32","14508.97190000303","36","yes","1024"
"89.1891891891892","89.1891891891892","402.80090540546826","402.80090540546826","black","psycho","psycho","psycho","0","incongruent","uniform","1","undefined","1","h","36","0","0","0","36","0","36","0","36","0","0","0","36","36","36","36","Sat Sep 26 13:36:59 2020","1500","The main experiment item","yes","CS-FlankerTask2.1.osexp","C:/Users/Colton/OneDrive/Desktop","no","mono","no","18","no","white","no","yes","768","psycho","36","36","C:/Users/Colton/OneDrive/Desktop/CS-subject-3.csv","psycho","Lentiform Loewenfeld","3.3.3","0","h","NA","h","NA","NA","h","394.6615999992937","NA","12169943.6362","NA","NA","394.6615999992937","2","psycho","1024","2","48000","-16","experiment","SSHSS","3","odd","12250227.248399999","12181467.8389","NA","NA","12236495.101799998","11488.783899998452","NA","NA","12251534.183199998","11519.751099998757","NA","NA","12251643.562","12252041.6368","12251525.327399999","12251643.017800001","Flanker Task 2.1","33","14903.633500002325","37","yes","1024"
"89.47368421052632","89.47368421052632","401.68380263163465","401.68380263163465","black","psycho","psycho","psycho","0","congruent","uniform","1","undefined","1","s","37","0","0","0","37","0","37","0","37","0","0","0","37","37","37","37","Sat Sep 26 13:36:59 2020","1500","The main experiment item","yes","CS-FlankerTask2.1.osexp","C:/Users/Colton/OneDrive/Desktop","no","mono","no","18","no","white","no","yes","768","psycho","37","37","C:/Users/Colton/OneDrive/Desktop/CS-subject-3.csv","psycho","Lentiform Loewenfeld","3.3.3","0","s","NA","h","NA","NA","s","360.3509999997914","NA","12169943.6362","NA","NA","360.3509999997914","2","psycho","1024","2","48000","-16","experiment","SSSSS","3","odd","12252105.596099999","12181467.8389","NA","NA","12236495.101799998","11488.783899998452","NA","NA","12253410.0166","11519.751099998757","NA","NA","12253519.0773","12253883.9185","12253401.1483","12253518.603500001","Flanker Task 2.1","34","15263.984500002116","38","yes","1024"
"89.74358974358974","89.74358974358974","400.16921282053374","400.16921282053374","black","psycho","psycho","psycho","0","congruent","uniform","1","undefined","1","s","38","0","0","0","38","0","38","0","38","0","0","0","38","38","38","38","Sat Sep 26 13:36:59 2020","1500","The main experiment item","yes","CS-FlankerTask2.1.osexp","C:/Users/Colton/OneDrive/Desktop","no","mono","no","18","no","white","no","yes","768","psycho","38","38","C:/Users/Colton/OneDrive/Desktop/CS-subject-3.csv","psycho","Lentiform Loewenfeld","3.3.3","0","s","NA","h","NA","NA","s","342.6147999987006","NA","12169943.6362","NA","NA","342.6147999987006","2","psycho","1024","2","48000","-16","experiment","SSSSS","3","odd","12253971.114799999","12181467.8389","NA","NA","12236495.101799998","11488.783899998452","NA","NA","12255241.115699999","11519.751099998757","NA","NA","12255349.1219","12255695.915599998","12255232.4955","12255348.692299997","Flanker Task 2.1","35","15606.599300000817","39","yes","1024"
"90","90","400.37582250004635","400.37582250004635","black","psycho","psycho","psycho","0","incongruent","uniform","1","undefined","1","h","39","0","0","0","39","0","39","0","39","0","0","0","39","39","39","39","Sat Sep 26 13:36:59 2020","1500","The main experiment item","yes","CS-FlankerTask2.1.osexp","C:/Users/Colton/OneDrive/Desktop","no","mono","no","18","no","white","no","yes","768","psycho","39","39","C:/Users/Colton/OneDrive/Desktop/CS-subject-3.csv","psycho","Lentiform Loewenfeld","3.3.3","0","h","NA","h","NA","NA","h","408.4336000010371","NA","12169943.6362","NA","NA","408.4336000010371","2","psycho","1024","2","48000","-16","experiment","SSHSS","3","odd","12255739.678599998","12181467.8389","NA","NA","12236495.101799998","11488.783899998452","NA","NA","12257041.2894","11519.751099998757","NA","NA","12257150.813299999","12257562.632299999","12257032.3305","12257150.373799998","Flanker Task 2.1","36","16015.032900001854","40","yes","1024"
"90.2439024390244","90.2439024390244","399.7700024390275","399.7700024390275","black","psycho","psycho","psycho","0","congruent","uniform","1","undefined","1","h","40","0","0","0","40","0","40","0","40","0","0","0","40","40","40","40","Sat Sep 26 13:36:59 2020","1500","The main experiment item","yes","CS-FlankerTask2.1.osexp","C:/Users/Colton/OneDrive/Desktop","no","mono","no","18","no","white","no","yes","768","psycho","40","40","C:/Users/Colton/OneDrive/Desktop/CS-subject-3.csv","psycho","Lentiform Loewenfeld","3.3.3","0","h","NA","h","NA","NA","h","375.53719999827445","NA","12169943.6362","NA","NA","375.53719999827445","2","psycho","1024","2","48000","-16","experiment","HHHHH","3","odd","12257616.026299998","12181467.8389","NA","NA","12236495.101799998","11488.783899998452","NA","NA","12258916.064199999","11519.751099998757","NA","NA","12259024.3363","12259403.398599999","12258906.9202","12259023.9063","Flanker Task 2.1","37","16390.570100000128","41","yes","1024"
"90.47619047619048","90.47619047619048","402.8483309524045","402.8483309524045","black","psycho","psycho","psycho","0","incongruent","uniform","1","undefined","1","h","41","0","0","0","41","0","41","0","41","0","0","0","41","41","41","41","Sat Sep 26 13:36:59 2020","1500","The main experiment item","yes","CS-FlankerTask2.1.osexp","C:/Users/Colton/OneDrive/Desktop","no","mono","no","18","no","white","no","yes","768","psycho","41","41","C:/Users/Colton/OneDrive/Desktop/CS-subject-3.csv","psycho","Lentiform Loewenfeld","3.3.3","0","h","NA","h","NA","NA","h","529.0598000008613","NA","12169943.6362","NA","NA","529.0598000008613","2","psycho","1024","2","48000","-16","experiment","SSHSS","3","odd","12259473.4364","12181467.8389","NA","NA","12236495.101799998","11488.783899998452","NA","NA","12260777.598599998","11519.751099998757","NA","NA","12260885.833899999","12261418.716699999","12260768.4152","12260885.3413","Flanker Task 2.1","38","16919.62990000099","42","yes","1024"
"90.69767441860465","90.69767441860465","402.31696744193863","402.31696744193863","black","psycho","psycho","psycho","0","congruent","uniform","1","undefined","1","s","42","0","0","0","42","0","42","0","42","0","0","0","42","42","42","42","Sat Sep 26 13:36:59 2020","1500","The main experiment item","yes","CS-FlankerTask2.1.osexp","C:/Users/Colton/OneDrive/Desktop","no","mono","no","18","no","white","no","yes","768","psycho","42","42","C:/Users/Colton/OneDrive/Desktop/CS-subject-3.csv","psycho","Lentiform Loewenfeld","3.3.3","0","s","NA","h","NA","NA","s","379.99970000237226","NA","12169943.6362","NA","NA","379.99970000237226","2","psycho","1024","2","48000","-16","experiment","SSSSS","3","odd","12261482.403399998","12181467.8389","NA","NA","12236495.101799998","11488.783899998452","NA","NA","12262780.916","11519.751099998757","NA","NA","12262889.130299998","12263273.2345","12262771.0163","12262888.683400001","Flanker Task 2.1","39","17299.62960000336","43","yes","1024"
"90.9090909090909","90.9090909090909","401.9502886364406","401.9502886364406","black","psycho","psycho","psycho","0","incongruent","uniform","1","undefined","1","h","43","0","0","0","43","0","43","0","43","0","0","0","43","43","43","43","Sat Sep 26 13:36:59 2020","1500","The main experiment item","yes","CS-FlankerTask2.1.osexp","C:/Users/Colton/OneDrive/Desktop","no","mono","no","18","no","white","no","yes","768","psycho","43","43","C:/Users/Colton/OneDrive/Desktop/CS-subject-3.csv","psycho","Lentiform Loewenfeld","3.3.3","0","h","NA","h","NA","NA","h","386.18310000002384","NA","12169943.6362","NA","NA","386.18310000002384","2","psycho","1024","2","48000","-16","experiment","SSHSS","3","odd","12263316.440899998","12181467.8389","NA","NA","12236495.101799998","11488.783899998452","NA","NA","12264628.0745","11519.751099998757","NA","NA","12264736.0486","12265125.807100002","12264618.049500002","12264735.6468","Flanker Task 2.1","40","17685.812700003386","44","yes","1024"
"91.11111111111111","91.11111111111111","399.82803555561435","399.82803555561435","black","psycho","psycho","psycho","0","congruent","uniform","1","undefined","1","h","44","0","0","0","44","0","44","0","44","0","0","0","44","44","44","44","Sat Sep 26 13:36:59 2020","1500","The main experiment item","yes","CS-FlankerTask2.1.osexp","C:/Users/Colton/OneDrive/Desktop","no","mono","no","18","no","white","no","yes","768","psycho","44","44","C:/Users/Colton/OneDrive/Desktop/CS-subject-3.csv","psycho","Lentiform Loewenfeld","3.3.3","0","h","NA","h","NA","NA","h","306.4488999992609","NA","12169943.6362","NA","NA","306.4488999992609","2","psycho","1024","2","48000","-16","experiment","HHHHH","3","odd","12265193.824399998","12181467.8389","NA","NA","12236495.101799998","11488.783899998452","NA","NA","12266506.305799998","11519.751099998757","NA","NA","12266615.6075","12266925.838299997","12266497.206799999","12266615.052999998","Flanker Task 2.1","41","17992.261600002646","45","yes","1024"
"89.1304347826087","89.1304347826087","399.9714086956709","399.9714086956709","black","psycho","psycho","psycho","0","incongruent","uniform","0","undefined","0","h","45","0","0","0","45","0","45","0","45","0","0","0","45","45","45","45","Sat Sep 26 13:36:59 2020","1500","The main experiment item","yes","CS-FlankerTask2.1.osexp","C:/Users/Colton/OneDrive/Desktop","no","mono","no","18","no","white","no","yes","768","psycho","45","45","C:/Users/Colton/OneDrive/Desktop/CS-subject-3.csv","psycho","Lentiform Loewenfeld","3.3.3","0","s","NA","h","NA","NA","s","406.42319999821484","NA","12169943.6362","NA","NA","406.42319999821484","2","psycho","1024","2","48000","-16","experiment","SSHSS","3","odd","12266996.861100001","12181467.8389","NA","NA","12236495.101799998","11488.783899998452","NA","NA","12268313.026299998","11519.751099998757","NA","NA","12268421.4833","12268831.621599998","12268302.827","12268421.008499999","Flanker Task 2.1","41","18398.68480000086","46","yes","1024"
"89.36170212765957","89.36170212765957","400.3265808510812","400.3265808510812","black","psycho","psycho","psycho","0","congruent","uniform","1","undefined","1","s","46","0","0","0","46","0","46","0","46","0","0","0","46","46","46","46","Sat Sep 26 13:36:59 2020","1500","The main experiment item","yes","CS-FlankerTask2.1.osexp","C:/Users/Colton/OneDrive/Desktop","no","mono","no","18","no","white","no","yes","768","psycho","46","46","C:/Users/Colton/OneDrive/Desktop/CS-subject-3.csv","psycho","Lentiform Loewenfeld","3.3.3","0","s","NA","h","NA","NA","s","416.6644999999553","NA","12169943.6362","NA","NA","416.6644999999553","2","psycho","1024","2","48000","-16","experiment","SSSSS","3","odd","12269383.2997","12181467.8389","NA","NA","12268875.0769","11488.783899998452","NA","NA","12270687.6441","11519.751099998757","NA","NA","12270796.5253","12271216.8805","12270678.960999997","12270795.8797","Flanker Task 2.1","42","18815.349300000817","47","yes","1024"
"89.58333333333333","89.58333333333333","399.70672500001575","399.70672500001575","black","psycho","psycho","psycho","0","congruent","uniform","1","undefined","1","h","47","0","0","0","47","0","47","0","47","0","0","0","47","47","47","47","Sat Sep 26 13:36:59 2020","1500","The main experiment item","yes","CS-FlankerTask2.1.osexp","C:/Users/Colton/OneDrive/Desktop","no","mono","no","18","no","white","no","yes","768","psycho","47","47","C:/Users/Colton/OneDrive/Desktop/CS-subject-3.csv","psycho","Lentiform Loewenfeld","3.3.3","0","h","NA","h","NA","NA","h","370.5734999999404","NA","12169943.6362","NA","NA","370.5734999999404","2","psycho","1024","2","48000","-16","experiment","HHHHH","3","odd","12271283.2563","12181467.8389","NA","NA","12268875.0769","11488.783899998452","NA","NA","12272578.1277","11519.751099998757","NA","NA","12272687.011399997","12273061.867199998","12272569.1424","12272686.469","Flanker Task 2.1","43","19185.922800000757","48","yes","1024"
"89.79591836734694","89.79591836734694","398.46449387753955","398.46449387753955","black","psycho","psycho","psycho","0","congruent","uniform","1","undefined","1","h","48","0","0","0","48","0","48","0","48","0","0","0","48","48","48","48","Sat Sep 26 13:36:59 2020","1500","The main experiment item","yes","CS-FlankerTask2.1.osexp","C:/Users/Colton/OneDrive/Desktop","no","mono","no","18","no","white","no","yes","768","psycho","48","48","C:/Users/Colton/OneDrive/Desktop/CS-subject-3.csv","psycho","Lentiform Loewenfeld","3.3.3","0","h","NA","h","NA","NA","h","338.83739999867976","NA","12169943.6362","NA","NA","338.83739999867976","2","psycho","1024","2","48000","-16","experiment","HHHHH","3","odd","12273131.5893","12181467.8389","NA","NA","12268875.0769","11488.783899998452","NA","NA","12274436.6257","11519.751099998757","NA","NA","12274544.256000001","12274887.214599999","12274427.104899999","12274543.8102","Flanker Task 2.1","44","19524.760199999437","49","yes","1024"
"90","90","396.80172199994325","396.80172199994325","black","psycho","psycho","psycho","0","congruent","uniform","1","undefined","1","h","49","0","0","0","49","0","49","0","49","0","0","0","49","49","49","49","Sat Sep 26 13:36:59 2020","1500","The main experiment item","yes","CS-FlankerTask2.1.osexp","C:/Users/Colton/OneDrive/Desktop","no","mono","no","18","no","white","no","yes","768","psycho","49","49","C:/Users/Colton/OneDrive/Desktop/CS-subject-3.csv","psycho","Lentiform Loewenfeld","3.3.3","0","h","NA","h","NA","NA","h","315.3258999977261","NA","12169943.6362","NA","NA","315.3258999977261","2","psycho","1024","2","48000","-16","experiment","HHHHH","3","odd","12274977.0388","12181467.8389","NA","NA","12268875.0769","11488.783899998452","NA","NA","12276285.433999998","11519.751099998757","NA","NA","12276395.0652","12276714.609399999","12276276.1364","12276394.599799998","Flanker Task 2.1","45","19840.086099997163","50","yes","1024"
"90.19607843137256","90.19607843137256","398.2468490195917","398.2468490195917","black","psycho","psycho","psycho","0","incongruent","uniform","1","undefined","1","s","50","0","0","0","50","0","50","0","50","0","0","0","50","50","50","50","Sat Sep 26 13:36:59 2020","1500","The main experiment item","yes","CS-FlankerTask2.1.osexp","C:/Users/Colton/OneDrive/Desktop","no","mono","no","18","no","white","no","yes","768","psycho","50","50","C:/Users/Colton/OneDrive/Desktop/CS-subject-3.csv","psycho","Lentiform Loewenfeld","3.3.3","0","s","NA","h","NA","NA","s","470.50320000201464","NA","12169943.6362","NA","NA","470.50320000201464","2","psycho","1024","2","48000","-16","experiment","HHSHH","3","odd","12276783.5448","12181467.8389","NA","NA","12268875.0769","11488.783899998452","NA","NA","12278078.231399998","11519.751099998757","NA","NA","12278188.4358","12278663.677299999","12278069.5721","12278187.925399998","Flanker Task 2.1","46","20310.589299999177","51","yes","1024"
"88.46153846153847","88.46153846153847","398.3448942307598","398.3448942307598","black","psycho","psycho","psycho","0","incongruent","uniform","0","undefined","0","h","51","0","0","0","51","0","51","0","51","0","0","0","51","51","51","51","Sat Sep 26 13:36:59 2020","1500","The main experiment item","yes","CS-FlankerTask2.1.osexp","C:/Users/Colton/OneDrive/Desktop","no","mono","no","18","no","white","no","yes","768","psycho","51","51","C:/Users/Colton/OneDrive/Desktop/CS-subject-3.csv","psycho","Lentiform Loewenfeld","3.3.3","0","s","NA","h","NA","NA","s","403.3452000003308","NA","12169943.6362","NA","NA","403.3452000003308","2","psycho","1024","2","48000","-16","experiment","SSHSS","3","odd","12278728.564699998","12181467.8389","NA","NA","12268875.0769","11488.783899998452","NA","NA","12280028.279800002","11519.751099998757","NA","NA","12280136.133699998","12280543.285","12280018.388","12280135.6241","Flanker Task 2.1","46","20713.93449999951","52","yes","1024"
"88.67924528301887","88.67924528301887","397.4806452829672","397.4806452829672","black","psycho","psycho","psycho","0","congruent","uniform","1","undefined","1","s","52","0","0","0","52","0","52","0","52","0","0","0","52","52","52","52","Sat Sep 26 13:36:59 2020","1500","The main experiment item","yes","CS-FlankerTask2.1.osexp","C:/Users/Colton/OneDrive/Desktop","no","mono","no","18","no","white","no","yes","768","psycho","52","52","C:/Users/Colton/OneDrive/Desktop/CS-subject-3.csv","psycho","Lentiform Loewenfeld","3.3.3","0","s","NA","h","NA","NA","s","352.5396999977529","NA","12169943.6362","NA","NA","352.5396999977529","2","psycho","1024","2","48000","-16","experiment","SSSSS","3","odd","12281123.9503","12181467.8389","NA","NA","12280613.8288","11488.783899998452","NA","NA","12282431.0802","11519.751099998757","NA","NA","12282540.294300001","12282896.4685","12282421.850799998","12282539.8282","Flanker Task 2.1","47","21066.47419999726","53","yes","1024"
"87.03703703703704","87.03703703703704","396.71892962960044","396.71892962960044","black","psycho","psycho","psycho","0","incongruent","uniform","0","undefined","0","s","53","0","0","0","53","0","53","0","53","0","0","0","53","53","53","53","Sat Sep 26 13:36:59 2020","1500","The main experiment item","yes","CS-FlankerTask2.1.osexp","C:/Users/Colton/OneDrive/Desktop","no","mono","no","18","no","white","no","yes","768","psycho","53","53","C:/Users/Colton/OneDrive/Desktop/CS-subject-3.csv","psycho","Lentiform Loewenfeld","3.3.3","0","h","NA","h","NA","NA","h","356.3480000011623","NA","12169943.6362","NA","NA","356.3480000011623","2","psycho","1024","2","48000","-16","experiment","HHSHH","3","odd","12282961.833199998","12181467.8389","NA","NA","12280613.8288","11488.783899998452","NA","NA","12284273.331100002","11519.751099998757","NA","NA","12284382.092299998","12284742.312499998","12284263.729399998","12284381.6396","Flanker Task 2.1","47","21422.822199998423","54","yes","1024"
"87.27272727272727","87.27272727272727","396.24657999998465","396.24657999998465","black","psycho","psycho","psycho","0","congruent","uniform","1","undefined","1","h","54","0","0","0","54","0","54","0","54","0","0","0","54","54","54","54","Sat Sep 26 13:36:59 2020","1500","The main experiment item","yes","CS-FlankerTask2.1.osexp","C:/Users/Colton/OneDrive/Desktop","no","mono","no","18","no","white","no","yes","768","psycho","54","54","C:/Users/Colton/OneDrive/Desktop/CS-subject-3.csv","psycho","Lentiform Loewenfeld","3.3.3","0","h","NA","h","NA","NA","h","370.73970000073314","NA","12169943.6362","NA","NA","370.73970000073314","2","psycho","1024","2","48000","-16","experiment","HHHHH","3","odd","12285304.8648","12181467.8389","NA","NA","12284784.589200001","11488.783899998452","NA","NA","12286614.375499997","11519.751099998757","NA","NA","12286723.041000001","12287097.721899997","12286604.3918","12286722.443599999","Flanker Task 2.1","48","21793.561899999157","55","yes","1024"
"87.5","87.5","398.1195625000234","398.1195625000234","black","psycho","psycho","psycho","0","incongruent","uniform","1","undefined","1","s","55","0","0","0","55","0","55","0","55","0","0","0","55","55","55","55","Sat Sep 26 13:36:59 2020","1500","The main experiment item","yes","CS-FlankerTask2.1.osexp","C:/Users/Colton/OneDrive/Desktop","no","mono","no","18","no","white","no","yes","768","psycho","55","55","C:/Users/Colton/OneDrive/Desktop/CS-subject-3.csv","psycho","Lentiform Loewenfeld","3.3.3","0","s","NA","h","NA","NA","s","501.1336000021547","NA","12169943.6362","NA","NA","501.1336000021547","2","psycho","1024","2","48000","-16","experiment","HHSHH","3","odd","12287174.164600002","12181467.8389","NA","NA","12284784.589200001","11488.783899998452","NA","NA","12288481.2763","11519.751099998757","NA","NA","12288590.465099998","12289096.3204","12288471.795999998","12288589.8954","Flanker Task 2.1","49","22294.69550000131","56","yes","1024"
"87.71929824561404","87.71929824561404","398.13715614032066","398.13715614032066","black","psycho","psycho","psycho","0","incongruent","uniform","1","undefined","1","s","56","0","0","0","56","0","56","0","56","0","0","0","56","56","56","56","Sat Sep 26 13:36:59 2020","1500","The main experiment item","yes","CS-FlankerTask2.1.osexp","C:/Users/Colton/OneDrive/Desktop","no","mono","no","18","no","white","no","yes","768","psycho","56","56","C:/Users/Colton/OneDrive/Desktop/CS-subject-3.csv","psycho","Lentiform Loewenfeld","3.3.3","0","s","NA","h","NA","NA","s","399.1223999969661","NA","12169943.6362","NA","NA","399.1223999969661","2","psycho","1024","2","48000","-16","experiment","HHSHH","3","odd","12289138.6556","12181467.8389","NA","NA","12284784.589200001","11488.783899998452","NA","NA","12290432.242299998","11519.751099998757","NA","NA","12290540.734800002","12290944.049400002","12290422.0767","12290540.257599998","Flanker Task 2.1","50","22693.817899998277","57","yes","1024"
"87.93103448275862","87.93103448275862","397.27945689654683","397.27945689654683","black","psycho","psycho","psycho","0","congruent","uniform","1","undefined","1","h","57","0","0","0","57","0","57","0","57","0","0","0","57","57","57","57","Sat Sep 26 13:36:59 2020","1500","The main experiment item","yes","CS-FlankerTask2.1.osexp","C:/Users/Colton/OneDrive/Desktop","no","mono","no","18","no","white","no","yes","768","psycho","57","57","C:/Users/Colton/OneDrive/Desktop/CS-subject-3.csv","psycho","Lentiform Loewenfeld","3.3.3","0","h","NA","h","NA","NA","h","348.39060000143945","NA","12169943.6362","NA","NA","348.39060000143945","2","psycho","1024","2","48000","-16","experiment","HHHHH","3","odd","12291008.1829","12181467.8389","NA","NA","12284784.589200001","11488.783899998452","NA","NA","12292303.4992","11519.751099998757","NA","NA","12292411.848","12292764.516299998","12292294.7253","12292411.391900001","Flanker Task 2.1","51","23042.208499999717","58","yes","1024"
"88.13559322033899","88.13559322033899","395.2800084745543","395.2800084745543","black","psycho","psycho","psycho","0","congruent","uniform","1","undefined","1","s","58","0","0","0","58","0","58","0","58","0","0","0","58","58","58","58","Sat Sep 26 13:36:59 2020","1500","The main experiment item","yes","CS-FlankerTask2.1.osexp","C:/Users/Colton/OneDrive/Desktop","no","mono","no","18","no","white","no","yes","768","psycho","58","58","C:/Users/Colton/OneDrive/Desktop/CS-subject-3.csv","psycho","Lentiform Loewenfeld","3.3.3","0","s","NA","h","NA","NA","s","279.3119999989867","NA","12169943.6362","NA","NA","279.3119999989867","2","psycho","1024","2","48000","-16","experiment","SSSSS","3","odd","12292828.584700001","12181467.8389","NA","NA","12284784.589200001","11488.783899998452","NA","NA","12294123.1381","11519.751099998757","NA","NA","12294231.1089","12294515.023799999","12294113.4327","12294230.6686","Flanker Task 2.1","52","23321.520499998704","59","yes","1024"
"88.33333333333333","88.33333333333333","394.9709933333099","394.9709933333099","black","psycho","psycho","psycho","0","congruent","uniform","1","undefined","1","s","59","0","0","0","59","0","59","0","59","0","0","0","59","59","59","59","Sat Sep 26 13:36:59 2020","1500","The main experiment item","yes","CS-FlankerTask2.1.osexp","C:/Users/Colton/OneDrive/Desktop","no","mono","no","18","no","white","no","yes","768","psycho","59","59","C:/Users/Colton/OneDrive/Desktop/CS-subject-3.csv","psycho","Lentiform Loewenfeld","3.3.3","0","s","NA","h","NA","NA","s","376.73909999988973","NA","12169943.6362","NA","NA","376.73909999988973","2","psycho","1024","2","48000","-16","experiment","SSSSS","3","odd","12294576.213299999","12181467.8389","NA","NA","12284784.589200001","11488.783899998452","NA","NA","12295885.376399998","11519.751099998757","NA","NA","12295994.516700001","12296375.0301","12295876.6905","12295994.058100002","Flanker Task 2.1","53","23698.259599998593","60","yes","1024"
"86.88524590163935","86.88524590163935","395.07132622944647","395.07132622944647","black","psycho","psycho","psycho","0","incongruent","uniform","0","undefined","0","s","60","0","0","0","60","0","60","0","60","0","0","0","60","60","60","60","Sat Sep 26 13:36:59 2020","1500","The main experiment item","yes","CS-FlankerTask2.1.osexp","C:/Users/Colton/OneDrive/Desktop","no","mono","no","18","no","white","no","yes","768","psycho","60","60","C:/Users/Colton/OneDrive/Desktop/CS-subject-3.csv","psycho","Lentiform Loewenfeld","3.3.3","0","h","NA","h","NA","NA","h","401.09129999764264","NA","12169943.6362","NA","NA","401.09129999764264","2","psycho","1024","2","48000","-16","experiment","HHSHH","3","odd","12296479.861799998","12181467.8389","NA","NA","12284784.589200001","11488.783899998452","NA","NA","12297787.394399999","11519.751099998757","NA","NA","12297896.6444","12298301.7022","12297778.0839","12297896.122899998","Flanker Task 2.1","53","24099.350899996236","61","yes","1024"
"87.09677419354838","87.09677419354838","393.9475096773897","393.9475096773897","black","psycho","psycho","psycho","0","congruent","uniform","1","undefined","1","h","61","0","0","0","61","0","61","0","61","0","0","0","61","61","61","61","Sat Sep 26 13:36:59 2020","1500","The main experiment item","yes","CS-FlankerTask2.1.osexp","C:/Users/Colton/OneDrive/Desktop","no","mono","no","18","no","white","no","yes","768","psycho","61","61","C:/Users/Colton/OneDrive/Desktop/CS-subject-3.csv","psycho","Lentiform Loewenfeld","3.3.3","0","h","NA","h","NA","NA","h","325.39470000192523","NA","12169943.6362","NA","NA","325.39470000192523","2","psycho","1024","2","48000","-16","experiment","HHHHH","3","odd","12298897.2813","12181467.8389","NA","NA","12298376.001099998","11488.783899998452","NA","NA","12300206.2067","11519.751099998757","NA","NA","12300314.203999998","12300643.9893","12300196.3683","12300313.728999998","Flanker Task 2.1","54","24424.74559999816","62","yes","1024"
"87.3015873015873","87.3015873015873","396.6014269841096","396.6014269841096","black","psycho","psycho","psycho","0","incongruent","uniform","1","undefined","1","h","62","0","0","0","62","0","62","0","62","0","0","0","62","62","62","62","Sat Sep 26 13:36:59 2020","1500","The main experiment item","yes","CS-FlankerTask2.1.osexp","C:/Users/Colton/OneDrive/Desktop","no","mono","no","18","no","white","no","yes","768","psycho","62","62","C:/Users/Colton/OneDrive/Desktop/CS-subject-3.csv","psycho","Lentiform Loewenfeld","3.3.3","0","h","NA","h","NA","NA","h","561.1443000007421","NA","12169943.6362","NA","NA","561.1443000007421","2","psycho","1024","2","48000","-16","experiment","SSHSS","3","odd","12300709.304199997","12181467.8389","NA","NA","12298376.001099998","11488.783899998452","NA","NA","12302009.1196","11519.751099998757","NA","NA","12302118.029099999","12302683.831999999","12302000.114399998","12302117.602300001","Flanker Task 2.1","55","24985.889899998903","63","yes","1024"
"87.5","87.5","398.0049484374467","398.0049484374467","black","psycho","psycho","psycho","0","incongruent","uniform","1","undefined","1","h","63","0","0","0","63","0","63","0","63","0","0","0","63","63","63","63","Sat Sep 26 13:36:59 2020","1500","The main experiment item","yes","CS-FlankerTask2.1.osexp","C:/Users/Colton/OneDrive/Desktop","no","mono","no","18","no","white","no","yes","768","psycho","63","63","C:/Users/Colton/OneDrive/Desktop/CS-subject-3.csv","psycho","Lentiform Loewenfeld","3.3.3","0","h","NA","h","NA","NA","h","486.42679999768734","NA","12169943.6362","NA","NA","486.42679999768734","2","psycho","1024","2","48000","-16","experiment","SSHSS","3","odd","12302782.310999999","12181467.8389","NA","NA","12298376.001099998","11488.783899998452","NA","NA","12304090.124599999","11519.751099998757","NA","NA","12304198.689000001","12304689.093099998","12304081.451399997","12304198.155499998","Flanker Task 2.1","56","25472.31669999659","64","yes","1024"
"87.6923076923077","87.6923076923077","396.8645953845806","396.8645953845806","black","psycho","psycho","psycho","0","congruent","uniform","1","undefined","1","s","64","0","0","0","64","0","64","0","64","0","0","0","64","64","64","64","Sat Sep 26 13:36:59 2020","1500","The main experiment item","yes","CS-FlankerTask2.1.osexp","C:/Users/Colton/OneDrive/Desktop","no","mono","no","18","no","white","no","yes","768","psycho","64","64","C:/Users/Colton/OneDrive/Desktop/CS-subject-3.csv","psycho","Lentiform Loewenfeld","3.3.3","0","s","NA","h","NA","NA","s","323.8820000011474","NA","12169943.6362","NA","NA","323.8820000011474","2","psycho","1024","2","48000","-16","experiment","SSSSS","3","odd","12304727.195","12181467.8389","NA","NA","12298376.001099998","11488.783899998452","NA","NA","12306042.401399998","11519.751099998757","NA","NA","12306150.2721","12306478.140999999","12306031.461399999","12306149.784400001","Flanker Task 2.1","57","25796.198699997738","65","yes","1024"
"87.87878787878788","87.87878787878788","396.7821257575556","396.7821257575556","black","psycho","psycho","psycho","0","congruent","uniform","1","undefined","1","h","65","0","0","0","65","0","65","0","65","0","0","0","65","65","65","65","Sat Sep 26 13:36:59 2020","1500","The main experiment item","yes","CS-FlankerTask2.1.osexp","C:/Users/Colton/OneDrive/Desktop","no","mono","no","18","no","white","no","yes","768","psycho","65","65","C:/Users/Colton/OneDrive/Desktop/CS-subject-3.csv","psycho","Lentiform Loewenfeld","3.3.3","0","h","NA","h","NA","NA","h","391.4216000009328","NA","12169943.6362","NA","NA","391.4216000009328","2","psycho","1024","2","48000","-16","experiment","HHHHH","3","odd","12306539.0266","12181467.8389","NA","NA","12298376.001099998","11488.783899998452","NA","NA","12307852.706099998","11519.751099998757","NA","NA","12307960.985999998","12308356.5557","12307842.8255","12307960.478","Flanker Task 2.1","58","26187.62029999867","66","yes","1024"
"88.05970149253731","88.05970149253731","396.1135179104367","396.1135179104367","black","psycho","psycho","psycho","0","incongruent","uniform","1","undefined","1","s","66","0","0","0","66","0","66","0","66","0","0","0","66","66","66","66","Sat Sep 26 13:36:59 2020","1500","The main experiment item","yes","CS-FlankerTask2.1.osexp","C:/Users/Colton/OneDrive/Desktop","no","mono","no","18","no","white","no","yes","768","psycho","66","66","C:/Users/Colton/OneDrive/Desktop/CS-subject-3.csv","psycho","Lentiform Loewenfeld","3.3.3","0","s","NA","h","NA","NA","s","351.9854000005871","NA","12169943.6362","NA","NA","351.9854000005871","2","psycho","1024","2","48000","-16","experiment","HHSHH","3","odd","12308394.772799999","12181467.8389","NA","NA","12298376.001099998","11488.783899998452","NA","NA","12309696.9215","11519.751099998757","NA","NA","12309805.7127","12310162.354799999","12309687.4489","12309805.2445","Flanker Task 2.1","59","26539.605699999258","67","yes","1024"
"88.23529411764706","88.23529411764706","393.73919558820916","393.73919558820916","black","psycho","psycho","psycho","0","incongruent","uniform","1","undefined","1","h","67","0","0","0","67","0","67","0","67","0","0","0","67","67","67","67","Sat Sep 26 13:36:59 2020","1500","The main experiment item","yes","CS-FlankerTask2.1.osexp","C:/Users/Colton/OneDrive/Desktop","no","mono","no","18","no","white","no","yes","768","psycho","67","67","C:/Users/Colton/OneDrive/Desktop/CS-subject-3.csv","psycho","Lentiform Loewenfeld","3.3.3","0","h","NA","h","NA","NA","h","234.65959999896586","NA","12169943.6362","NA","NA","234.65959999896586","2","psycho","1024","2","48000","-16","experiment","SSHSS","3","odd","12310230.104899999","12181467.8389","NA","NA","12298376.001099998","11488.783899998452","NA","NA","12311537.1467","11519.751099998757","NA","NA","12311645.521499999","12311884.648899999","12311527.5305","12311645.0855","Flanker Task 2.1","60","26774.265299998224","68","yes","1024"
"88.40579710144928","88.40579710144928","394.87021594200337","394.87021594200337","black","psycho","psycho","psycho","0","incongruent","uniform","1","undefined","1","s","68","0","0","0","68","0","68","0","68","0","0","0","68","68","68","68","Sat Sep 26 13:36:59 2020","1500","The main experiment item","yes","CS-FlankerTask2.1.osexp","C:/Users/Colton/OneDrive/Desktop","no","mono","no","18","no","white","no","yes","768","psycho","68","68","C:/Users/Colton/OneDrive/Desktop/CS-subject-3.csv","psycho","Lentiform Loewenfeld","3.3.3","0","s","NA","h","NA","NA","s","471.77960000000894","NA","12169943.6362","NA","NA","471.77960000000894","2","psycho","1024","2","48000","-16","experiment","HHSHH","3","odd","12311972.3572","12181467.8389","NA","NA","12298376.001099998","11488.783899998452","NA","NA","12313280.372299999","11519.751099998757","NA","NA","12313389.038099999","12313865.547699999","12313270.5532","12313388.548999999","Flanker Task 2.1","61","27246.044899998233","69","yes","1024"
"88.57142857142857","88.57142857142857","393.9054585714159","393.9054585714159","black","psycho","psycho","psycho","0","congruent","uniform","1","undefined","1","s","69","0","0","0","69","0","69","0","69","0","0","0","69","69","69","69","Sat Sep 26 13:36:59 2020","1500","The main experiment item","yes","CS-FlankerTask2.1.osexp","C:/Users/Colton/OneDrive/Desktop","no","mono","no","18","no","white","no","yes","768","psycho","69","69","C:/Users/Colton/OneDrive/Desktop/CS-subject-3.csv","psycho","Lentiform Loewenfeld","3.3.3","0","s","NA","h","NA","NA","s","327.33720000088215","NA","12169943.6362","NA","NA","327.33720000088215","2","psycho","1024","2","48000","-16","experiment","SSSSS","3","odd","12313905.995900001","12181467.8389","NA","NA","12298376.001099998","11488.783899998452","NA","NA","12315212.439899998","11519.751099998757","NA","NA","12315321.1265","12315652.9716","12315202.957999999","12315320.614","Flanker Task 2.1","62","27573.382099999115","70","yes","1024"
"88.73239436619718","88.73239436619718","392.78139154927834","392.78139154927834","black","psycho","psycho","psycho","0","incongruent","uniform","1","undefined","1","s","70","0","0","0","70","0","70","0","70","0","0","0","70","70","70","70","Sat Sep 26 13:36:59 2020","1500","The main experiment item","yes","CS-FlankerTask2.1.osexp","C:/Users/Colton/OneDrive/Desktop","no","mono","no","18","no","white","no","yes","768","psycho","70","70","C:/Users/Colton/OneDrive/Desktop/CS-subject-3.csv","psycho","Lentiform Loewenfeld","3.3.3","0","s","NA","h","NA","NA","s","314.09669999964535","NA","12169943.6362","NA","NA","314.09669999964535","2","psycho","1024","2","48000","-16","experiment","HHSHH","3","odd","12315716.608399998","12181467.8389","NA","NA","12298376.001099998","11488.783899998452","NA","NA","12317034.4544","11519.751099998757","NA","NA","12317143.0267","12317463.210099999","12317023.476899998","12317142.545399997","Flanker Task 2.1","63","27887.47879999876","71","yes","1024"
"87.5","87.5","391.6246194444183","391.6246194444183","black","psycho","psycho","psycho","0","incongruent","uniform","0","undefined","0","h","71","0","0","0","71","0","71","0","71","0","0","0","71","71","71","71","Sat Sep 26 13:36:59 2020","1500","The main experiment item","yes","CS-FlankerTask2.1.osexp","C:/Users/Colton/OneDrive/Desktop","no","mono","no","18","no","white","no","yes","768","psycho","71","71","C:/Users/Colton/OneDrive/Desktop/CS-subject-3.csv","psycho","Lentiform Loewenfeld","3.3.3","0","s","NA","h","NA","NA","s","309.49379999935627","NA","12169943.6362","NA","NA","309.49379999935627","2","psycho","1024","2","48000","-16","experiment","SSHSS","3","odd","12317528.0667","12181467.8389","NA","NA","12298376.001099998","11488.783899998452","NA","NA","12318835.797600001","11519.751099998757","NA","NA","12318945.4223","12319259.559099998","12318826.867199998","12318944.904","Flanker Task 2.1","63","28196.972599998116","72","yes","1024"
"87.67123287671232","87.67123287671232","392.4260232876476","392.4260232876476","black","psycho","psycho","psycho","0","congruent","uniform","1","undefined","1","h","72","0","0","0","72","0","72","0","72","0","0","0","72","72","72","72","Sat Sep 26 13:36:59 2020","1500","The main experiment item","yes","CS-FlankerTask2.1.osexp","C:/Users/Colton/OneDrive/Desktop","no","mono","no","18","no","white","no","yes","768","psycho","72","72","C:/Users/Colton/OneDrive/Desktop/CS-subject-3.csv","psycho","Lentiform Loewenfeld","3.3.3","0","h","NA","h","NA","NA","h","450.12710000015795","NA","12169943.6362","NA","NA","450.12710000015795","2","psycho","1024","2","48000","-16","experiment","HHHHH","3","odd","12319815.6733","12181467.8389","NA","NA","12319294.363699999","11488.783899998452","NA","NA","12321127.0415","11519.751099998757","NA","NA","12321235.5125","12321690.6347","12321116.5952","12321235.027099999","Flanker Task 2.1","64","28647.099699998274","73","yes","1024"
"87.83783783783784","87.83783783783784","392.9359405405215","392.9359405405215","black","psycho","psycho","psycho","0","congruent","uniform","1","undefined","1","s","73","0","0","0","73","0","73","0","73","0","0","0","73","73","73","73","Sat Sep 26 13:36:59 2020","1500","The main experiment item","yes","CS-FlankerTask2.1.osexp","C:/Users/Colton/OneDrive/Desktop","no","mono","no","18","no","white","no","yes","768","psycho","73","73","C:/Users/Colton/OneDrive/Desktop/CS-subject-3.csv","psycho","Lentiform Loewenfeld","3.3.3","0","s","NA","h","NA","NA","s","430.1599000003189","NA","12169943.6362","NA","NA","430.1599000003189","2","psycho","1024","2","48000","-16","experiment","SSSSS","3","odd","12321775.0763","12181467.8389","NA","NA","12319294.363699999","11488.783899998452","NA","NA","12323083.1741","11519.751099998757","NA","NA","12323191.338699998","12323626.438399998","12323073.2947","12323190.887099998","Flanker Task 2.1","65","29077.259599998593","74","yes","1024"
"88","88","391.7941279999912","391.7941279999912","black","psycho","psycho","psycho","0","congruent","uniform","1","undefined","1","s","74","0","0","0","74","0","74","0","74","0","0","0","74","74","74","74","Sat Sep 26 13:36:59 2020","1500","The main experiment item","yes","CS-FlankerTask2.1.osexp","C:/Users/Colton/OneDrive/Desktop","no","mono","no","18","no","white","no","yes","768","psycho","74","74","C:/Users/Colton/OneDrive/Desktop/CS-subject-3.csv","psycho","Lentiform Loewenfeld","3.3.3","0","s","NA","h","NA","NA","s","307.30000000074506","NA","12169943.6362","NA","NA","307.30000000074506","2","psycho","1024","2","48000","-16","experiment","SSSSS","3","odd","12323694.980199998","12181467.8389","NA","NA","12319294.363699999","11488.783899998452","NA","NA","12324990.538800001","11519.751099998757","NA","NA","12325098.7819","12325411.132199999","12324981.4247","12325098.3074","Flanker Task 2.1","66","29384.55959999934","75","yes","1024"
"86.84210526315789","86.84210526315789","391.2193631578825","391.2193631578825","black","psycho","psycho","psycho","0","incongruent","uniform","0","undefined","0","h","75","0","0","0","75","0","75","0","75","0","0","0","75","75","75","75","Sat Sep 26 13:36:59 2020","1500","The main experiment item","yes","CS-FlankerTask2.1.osexp","C:/Users/Colton/OneDrive/Desktop","no","mono","no","18","no","white","no","yes","768","psycho","75","75","C:/Users/Colton/OneDrive/Desktop/CS-subject-3.csv","psycho","Lentiform Loewenfeld","3.3.3","0","s","NA","h","NA","NA","s","348.1119999997318","NA","12169943.6362","NA","NA","348.1119999997318","2","psycho","1024","2","48000","-16","experiment","SSHSS","3","odd","12325474.442799998","12181467.8389","NA","NA","12319294.363699999","11488.783899998452","NA","NA","12326776.1523","11519.751099998757","NA","NA","12326885.3729","12327238.225000001","12326767.075299999","12326884.8846","Flanker Task 2.1","66","29732.67159999907","76","yes","1024"
"87.01298701298701","87.01298701298701","391.6813623376626","391.6813623376626","black","psycho","psycho","psycho","0","incongruent","uniform","1","undefined","1","s","76","0","0","0","76","0","76","0","76","0","0","0","76","76","76","76","Sat Sep 26 13:36:59 2020","1500","The main experiment item","yes","CS-FlankerTask2.1.osexp","C:/Users/Colton/OneDrive/Desktop","no","mono","no","18","no","white","no","yes","768","psycho","76","76","C:/Users/Colton/OneDrive/Desktop/CS-subject-3.csv","psycho","Lentiform Loewenfeld","3.3.3","0","s","NA","h","NA","NA","s","426.7933000009507","NA","12169943.6362","NA","NA","426.7933000009507","2","psycho","1024","2","48000","-16","experiment","HHSHH","3","odd","12327795.895299997","12181467.8389","NA","NA","12327283.1072","11488.783899998452","NA","NA","12329095.496599998","11519.751099998757","NA","NA","12329204.3843","12329635.7385","12329086.373499999","12329203.929899998","Flanker Task 2.1","67","30159.46490000002","77","yes","1024"
"87.17948717948718","87.17948717948718","392.8807487179262","392.8807487179262","black","psycho","psycho","psycho","0","congruent","uniform","1","undefined","1","s","77","0","0","0","77","0","77","0","77","0","0","0","77","77","77","77","Sat Sep 26 13:36:59 2020","1500","The main experiment item","yes","CS-FlankerTask2.1.osexp","C:/Users/Colton/OneDrive/Desktop","no","mono","no","18","no","white","no","yes","768","psycho","77","77","C:/Users/Colton/OneDrive/Desktop/CS-subject-3.csv","psycho","Lentiform Loewenfeld","3.3.3","0","s","NA","h","NA","NA","s","485.23349999822676","NA","12169943.6362","NA","NA","485.23349999822676","2","psycho","1024","2","48000","-16","experiment","SSSSS","3","odd","12329706.671699997","12181467.8389","NA","NA","12327283.1072","11488.783899998452","NA","NA","12330987.2761","11519.751099998757","NA","NA","12331095.7636","12331585.8596","12330978.7831","12331095.295799999","Flanker Task 2.1","68","30644.698399998248","78","yes","1024"
"87.34177215189874","87.34177215189874","391.8336430379673","391.8336430379673","black","psycho","psycho","psycho","0","congruent","uniform","1","undefined","1","s","78","0","0","0","78","0","78","0","78","0","0","0","78","78","78","78","Sat Sep 26 13:36:59 2020","1500","The main experiment item","yes","CS-FlankerTask2.1.osexp","C:/Users/Colton/OneDrive/Desktop","no","mono","no","18","no","white","no","yes","768","psycho","78","78","C:/Users/Colton/OneDrive/Desktop/CS-subject-3.csv","psycho","Lentiform Loewenfeld","3.3.3","0","s","NA","h","NA","NA","s","310.15940000116825","NA","12169943.6362","NA","NA","310.15940000116825","2","psycho","1024","2","48000","-16","experiment","SSSSS","3","odd","12331681.026499998","12181467.8389","NA","NA","12327283.1072","11488.783899998452","NA","NA","12332985.4371","11519.751099998757","NA","NA","12333093.034099998","12333407.7534","12332976.603299998","12333092.6129","Flanker Task 2.1","69","30954.857799999416","79","yes","1024"
"87.5","87.5","391.10406874998006","391.10406874998006","black","psycho","psycho","psycho","0","congruent","uniform","1","undefined","1","s","79","0","0","0","79","0","79","0","79","0","0","0","79","79","79","79","Sat Sep 26 13:36:59 2020","1500","The main experiment item","yes","CS-FlankerTask2.1.osexp","C:/Users/Colton/OneDrive/Desktop","no","mono","no","18","no","white","no","yes","768","psycho","79","79","C:/Users/Colton/OneDrive/Desktop/CS-subject-3.csv","psycho","Lentiform Loewenfeld","3.3.3","0","s","NA","h","NA","NA","s","333.4676999989897","NA","12169943.6362","NA","NA","333.4676999989897","2","psycho","1024","2","48000","-16","experiment","SSSSS","3","odd","12333471.6754","12181467.8389","NA","NA","12327283.1072","11488.783899998452","NA","NA","12334771.780499998","11519.751099998757","NA","NA","12334880.058999998","12335218.518099999","12334761.3495","12334879.6334","Flanker Task 2.1","70","31288.325499998406","80","yes","1024"
"87.65432098765432","87.65432098765432","391.3583061727983","391.3583061727983","black","psycho","psycho","psycho","0","congruent","uniform","1","undefined","1","h","80","0","0","0","80","0","80","0","80","0","0","0","80","80","80","80","Sat Sep 26 13:36:59 2020","600","The main experiment item","yes","CS-FlankerTask2.1.osexp","C:/Users/Colton/OneDrive/Desktop","no","mono","no","18","no","white","no","yes","768","psycho","0","79","C:/Users/Colton/OneDrive/Desktop/CS-subject-3.csv","psycho","Lentiform Loewenfeld","3.3.3","0","h","NA","h","h","NA","h","411.6972999982536","NA","12169943.6362","2430.2209000010043","NA","411.6972999982536","2","psycho","1024","2","48000","-16","experiment","HHHHH","3","odd","12335284.3704","12181467.8389","12338898.745099999","NA","12327283.1072","11488.783899998452","NA","NA","12339080.1695","11519.751099998757","12336463.717899999","NA","12339189.0627","12339605.658","12339068.8434","12339188.248999998","Flanker Task 2.1","71","31700.02279999666","81","yes","1024"
"87.8048780487805","87.8048780487805","390.2257170731247","390.2257170731247","black","psycho","psycho","psycho","0","congruent","uniform","1","undefined","1","h","81","0","0","0","81","0","81","0","81","0","0","0","81","81","81","81","Sat Sep 26 13:36:59 2020","600","The main experiment item","yes","CS-FlankerTask2.1.osexp","C:/Users/Colton/OneDrive/Desktop","no","mono","no","18","no","white","no","yes","768","psycho","1","79","C:/Users/Colton/OneDrive/Desktop/CS-subject-3.csv","psycho","Lentiform Loewenfeld","3.3.3","0","h","NA","h","h","NA","h","298.48599999956787","NA","12169943.6362","2430.2209000010043","NA","298.48599999956787","2","psycho","1024","2","48000","-16","experiment","HHHHH","3","odd","12339638.979299998","12181467.8389","12338898.745099999","NA","12327283.1072","11488.783899998452","NA","NA","12340944.963999998","11519.751099998757","12336463.717899999","NA","12341053.274699999","12341356.7072","12340933.375199998","12341052.799599998","Flanker Task 2.1","72","31998.508799996227","82","yes","1024"
"87.95180722891567","87.95180722891567","390.89438192766295","390.89438192766295","black","psycho","psycho","psycho","0","incongruent","uniform","1","undefined","1","s","82","0","0","0","82","0","82","0","82","0","0","0","82","82","82","82","Sat Sep 26 13:36:59 2020","600","The main experiment item","yes","CS-FlankerTask2.1.osexp","C:/Users/Colton/OneDrive/Desktop","no","mono","no","18","no","white","no","yes","768","psycho","2","79","C:/Users/Colton/OneDrive/Desktop/CS-subject-3.csv","psycho","Lentiform Loewenfeld","3.3.3","0","s","NA","h","h","NA","s","445.72489999979734","NA","12169943.6362","2430.2209000010043","NA","445.72489999979734","2","psycho","1024","2","48000","-16","experiment","HHSHH","3","odd","12341420.294200001","12181467.8389","12338898.745099999","NA","12327283.1072","11488.783899998452","NA","NA","12342723.554100001","11519.751099998757","12336463.717899999","NA","12342832.608199999","12343282.9115","12342713.583199998","12342832.154299999","Flanker Task 2.1","73","32444.233699996024","83","yes","1024"
"88.0952380952381","88.0952380952381","389.6803059523171","389.6803059523171","black","psycho","psycho","psycho","0","congruent","uniform","1","undefined","1","s","83","0","0","0","83","0","83","0","83","0","0","0","83","83","83","83","Sat Sep 26 13:36:59 2020","600","The main experiment item","yes","CS-FlankerTask2.1.osexp","C:/Users/Colton/OneDrive/Desktop","no","mono","no","18","no","white","no","yes","768","psycho","3","79","C:/Users/Colton/OneDrive/Desktop/CS-subject-3.csv","psycho","Lentiform Loewenfeld","3.3.3","0","s","NA","h","h","NA","s","288.9119999986142","NA","12169943.6362","2430.2209000010043","NA","288.9119999986142","2","psycho","1024","2","48000","-16","experiment","SSSSS","3","odd","12343350.716500001","12181467.8389","12338898.745099999","NA","12327283.1072","11488.783899998452","NA","NA","12344662.2183","11519.751099998757","12336463.717899999","NA","12344772.521200001","12345066.593600001","12344653.1945","12344771.992800001","Flanker Task 2.1","74","32733.14569999464","84","yes","1024"
"87.05882352941177","87.05882352941177","389.0560141175547","389.0560141175547","black","psycho","psycho","psycho","0","incongruent","uniform","0","undefined","0","h","84","0","0","0","84","0","84","0","84","0","0","0","84","84","84","84","Sat Sep 26 13:36:59 2020","600","The main experiment item","yes","CS-FlankerTask2.1.osexp","C:/Users/Colton/OneDrive/Desktop","no","mono","no","18","no","white","no","yes","768","psycho","4","79","C:/Users/Colton/OneDrive/Desktop/CS-subject-3.csv","psycho","Lentiform Loewenfeld","3.3.3","0","s","NA","h","h","NA","s","336.6154999975115","NA","12169943.6362","2430.2209000010043","NA","336.6154999975115","2","psycho","1024","2","48000","-16","experiment","SSHSS","3","odd","12345106.7826","12181467.8389","12338898.745099999","NA","12327283.1072","11488.783899998452","NA","NA","12346403.566099998","11519.751099998757","12336463.717899999","NA","12346512.4704","12346853.7326","12346394.662399998","12346512.018999998","Flanker Task 2.1","74","33069.76119999215","85","yes","1024"
"87.20930232558139","87.20930232558139","387.95485348828396","387.95485348828396","black","psycho","psycho","psycho","0","congruent","uniform","1","undefined","1","h","85","0","0","0","85","0","85","0","85","0","0","0","85","85","85","85","Sat Sep 26 13:36:59 2020","600","The main experiment item","yes","CS-FlankerTask2.1.osexp","C:/Users/Colton/OneDrive/Desktop","no","mono","no","18","no","white","no","yes","768","psycho","5","79","C:/Users/Colton/OneDrive/Desktop/CS-subject-3.csv","psycho","Lentiform Loewenfeld","3.3.3","0","h","NA","h","h","NA","h","294.3562000002712","NA","12169943.6362","2430.2209000010043","NA","294.3562000002712","2","psycho","1024","2","48000","-16","experiment","HHHHH","3","odd","12347435.149099998","12181467.8389","12338898.745099999","NA","12346917.071699997","11488.783899998452","NA","NA","12348763.0646","11519.751099998757","12336463.717899999","NA","12348871.143299999","12349170.481599998","12348751.885900002","12348870.654499998","Flanker Task 2.1","75","33364.11739999242","86","yes","1024"
"87.35632183908046","87.35632183908046","387.8574206895227","387.8574206895227","black","psycho","psycho","psycho","0","incongruent","uniform","1","undefined","1","s","86","0","0","0","86","0","86","0","86","0","0","0","86","86","86","86","Sat Sep 26 13:36:59 2020","600","The main experiment item","yes","CS-FlankerTask2.1.osexp","C:/Users/Colton/OneDrive/Desktop","no","mono","no","18","no","white","no","yes","768","psycho","6","79","C:/Users/Colton/OneDrive/Desktop/CS-subject-3.csv","psycho","Lentiform Loewenfeld","3.3.3","0","s","NA","h","h","NA","s","379.4781999960542","NA","12169943.6362","2430.2209000010043","NA","379.4781999960542","2","psycho","1024","2","48000","-16","experiment","HHSHH","3","odd","12349206.385699999","12181467.8389","12338898.745099999","NA","12346917.071699997","11488.783899998452","NA","NA","12350475.577499997","11519.751099998757","12336463.717899999","NA","12350584.225300001","12350969.488899998","12350466.975799998","12350583.805899998","Flanker Task 2.1","76","33743.595599988475","87","yes","1024"
"87.5","87.5","388.40969886351377","388.40969886351377","black","psycho","psycho","psycho","0","incongruent","uniform","1","undefined","1","h","87","0","0","0","87","0","87","0","87","0","0","0","87","87","87","87","Sat Sep 26 13:36:59 2020","600","The main experiment item","yes","CS-FlankerTask2.1.osexp","C:/Users/Colton/OneDrive/Desktop","no","mono","no","18","no","white","no","yes","768","psycho","7","79","C:/Users/Colton/OneDrive/Desktop/CS-subject-3.csv","psycho","Lentiform Loewenfeld","3.3.3","0","h","NA","h","h","NA","h","436.4579000007361","NA","12169943.6362","2430.2209000010043","NA","436.4579000007361","2","psycho","1024","2","48000","-16","experiment","SSHSS","3","odd","12351028.303899998","12181467.8389","12338898.745099999","NA","12346917.071699997","11488.783899998452","NA","NA","12352349.334999999","11519.751099998757","12336463.717899999","NA","12352457.867","12352899.9477","12352339.023099998","12352457.383099997","Flanker Task 2.1","77","34180.05349998921","88","yes","1024"
"87.64044943820225","87.64044943820225","387.52408988752893","387.52408988752893","black","psycho","psycho","psycho","0","congruent","uniform","1","undefined","1","h","88","0","0","0","88","0","88","0","88","0","0","0","88","88","88","88","Sat Sep 26 13:36:59 2020","600","The main experiment item","yes","CS-FlankerTask2.1.osexp","C:/Users/Colton/OneDrive/Desktop","no","mono","no","18","no","white","no","yes","768","psycho","8","79","C:/Users/Colton/OneDrive/Desktop/CS-subject-3.csv","psycho","Lentiform Loewenfeld","3.3.3","0","h","NA","h","h","NA","h","309.59050000086427","NA","12169943.6362","2430.2209000010043","NA","309.59050000086427","2","psycho","1024","2","48000","-16","experiment","HHHHH","3","odd","12352940.767","12181467.8389","12338898.745099999","NA","12346917.071699997","11488.783899998452","NA","NA","12354239.7173","11519.751099998757","12336463.717899999","NA","12354347.696099998","12354662.413800001","12354230.392900001","12354347.2837","Flanker Task 2.1","78","34489.643999990076","89","yes","1024"
"87.77777777777777","87.77777777777777","387.06783777767174","387.06783777767174","black","psycho","psycho","psycho","0","congruent","uniform","1","undefined","1","s","89","0","0","0","89","0","89","0","89","0","0","0","89","89","89","89","Sat Sep 26 13:36:59 2020","600","The main experiment item","yes","CS-FlankerTask2.1.osexp","C:/Users/Colton/OneDrive/Desktop","no","mono","no","18","no","white","no","yes","768","psycho","9","79","C:/Users/Colton/OneDrive/Desktop/CS-subject-3.csv","psycho","Lentiform Loewenfeld","3.3.3","0","s","NA","h","h","NA","s","346.4614000003785","NA","12169943.6362","2430.2209000010043","NA","346.4614000003785","2","psycho","1024","2","48000","-16","experiment","SSSSS","3","odd","12354705.872399999","12181467.8389","12338898.745099999","NA","12346917.071699997","11488.783899998452","NA","NA","12356011.8963","11519.751099998757","12336463.717899999","NA","12356120.079699999","12356472.2142","12356002.3884","12356119.574599998","Flanker Task 2.1","79","34836.105399990454","90","yes","1024"
"87.91208791208791","87.91208791208791","385.8581065933251","385.8581065933251","black","psycho","psycho","psycho","0","incongruent","uniform","1","undefined","1","s","90","0","0","0","90","0","90","0","90","0","0","0","90","90","90","90","Sat Sep 26 13:36:59 2020","600","The main experiment item","yes","CS-FlankerTask2.1.osexp","C:/Users/Colton/OneDrive/Desktop","no","mono","no","18","no","white","no","yes","768","psycho","10","79","C:/Users/Colton/OneDrive/Desktop/CS-subject-3.csv","psycho","Lentiform Loewenfeld","3.3.3","0","s","NA","h","h","NA","s","276.9823000021279","NA","12169943.6362","2430.2209000010043","NA","276.9823000021279","2","psycho","1024","2","48000","-16","experiment","HHSHH","3","odd","12356542.8183","12181467.8389","12338898.745099999","NA","12346917.071699997","11488.783899998452","NA","NA","12357850.8028","11519.751099998757","12336463.717899999","NA","12357959.299499998","12358241.156699998","12357840.430699999","12357958.8437","Flanker Task 2.1","80","35113.08769999258","91","yes","1024"
"88.04347826086956","88.04347826086956","385.24177499992123","385.24177499992123","black","psycho","psycho","psycho","0","congruent","uniform","1","undefined","1","h","91","0","0","0","91","0","91","0","91","0","0","0","91","91","91","91","Sat Sep 26 13:36:59 2020","600","The main experiment item","yes","CS-FlankerTask2.1.osexp","C:/Users/Colton/OneDrive/Desktop","no","mono","no","18","no","white","no","yes","768","psycho","11","79","C:/Users/Colton/OneDrive/Desktop/CS-subject-3.csv","psycho","Lentiform Loewenfeld","3.3.3","0","h","NA","h","h","NA","h","329.15560000017285","NA","12169943.6362","2430.2209000010043","NA","329.15560000017285","2","psycho","1024","2","48000","-16","experiment","HHHHH","3","odd","12358308.1447","12181467.8389","12338898.745099999","NA","12346917.071699997","11488.783899998452","NA","NA","12359609.131199999","11519.751099998757","12336463.717899999","NA","12359717.142499998","12360050.987499999","12359599.7082","12359716.684799997","Flanker Task 2.1","81","35442.243299992755","92","yes","1024"
"88.17204301075269","88.17204301075269","384.3263333332675","384.3263333332675","black","psycho","psycho","psycho","0","congruent","uniform","1","undefined","1","h","92","0","0","0","92","0","92","0","92","0","0","0","92","92","92","92","Sat Sep 26 13:36:59 2020","600","The main experiment item","yes","CS-FlankerTask2.1.osexp","C:/Users/Colton/OneDrive/Desktop","no","mono","no","18","no","white","no","yes","768","psycho","12","79","C:/Users/Colton/OneDrive/Desktop/CS-subject-3.csv","psycho","Lentiform Loewenfeld","3.3.3","0","h","NA","h","h","NA","h","300.10570000112057","NA","12169943.6362","2430.2209000010043","NA","300.10570000112057","2","psycho","1024","2","48000","-16","experiment","HHHHH","3","odd","12360083.801599998","12181467.8389","12338898.745099999","NA","12346917.071699997","11488.783899998452","NA","NA","12361386.199299999","11519.751099998757","12336463.717899999","NA","12361495.1759","12361800.9032","12361375.983800001","12361494.694500001","Flanker Task 2.1","82","35742.348999993876","93","yes","1024"
"88.29787234042553","88.29787234042553","385.02679361696255","385.02679361696255","black","psycho","psycho","psycho","0","incongruent","uniform","1","undefined","1","s","93","0","0","0","93","0","93","0","93","0","0","0","93","93","93","93","Sat Sep 26 13:36:59 2020","600","The main experiment item","yes","CS-FlankerTask2.1.osexp","C:/Users/Colton/OneDrive/Desktop","no","mono","no","18","no","white","no","yes","768","psycho","13","79","C:/Users/Colton/OneDrive/Desktop/CS-subject-3.csv","psycho","Lentiform Loewenfeld","3.3.3","0","s","NA","h","h","NA","s","450.169600000605","NA","12169943.6362","2430.2209000010043","NA","450.169600000605","2","psycho","1024","2","48000","-16","experiment","HHSHH","3","odd","12361873.989199998","12181467.8389","12338898.745099999","NA","12346917.071699997","11488.783899998452","NA","NA","12363176.144999998","11519.751099998757","12336463.717899999","NA","12363285.1486","12363740.6333","12363166.200799998","12363284.5974","Flanker Task 2.1","83","36192.51859999448","94","yes","1024"
"88.42105263157895","88.42105263157895","385.69826210523513","385.69826210523513","black","psycho","psycho","psycho","0","congruent","uniform","1","undefined","1","s","94","0","0","0","94","0","94","0","94","0","0","0","94","94","94","94","Sat Sep 26 13:36:59 2020","600","The main experiment item","yes","CS-FlankerTask2.1.osexp","C:/Users/Colton/OneDrive/Desktop","no","mono","no","18","no","white","no","yes","768","psycho","14","79","C:/Users/Colton/OneDrive/Desktop/CS-subject-3.csv","psycho","Lentiform Loewenfeld","3.3.3","0","s","NA","h","h","NA","s","448.81630000285804","NA","12169943.6362","2430.2209000010043","NA","448.81630000285804","2","psycho","1024","2","48000","-16","experiment","SSSSS","3","odd","12363807.2283","12181467.8389","12338898.745099999","NA","12346917.071699997","11488.783899998452","NA","NA","12365116.1593","11519.751099998757","12336463.717899999","NA","12365224.396599999","12365678.3345","12365106.7534","12365223.896899998","Flanker Task 2.1","84","36641.33489999734","95","yes","1024"
"87.5","87.5","385.0687927082957","385.0687927082957","black","psycho","psycho","psycho","0","incongruent","uniform","0","undefined","0","h","95","0","0","0","95","0","95","0","95","0","0","0","95","95","95","95","Sat Sep 26 13:36:59 2020","600","The main experiment item","yes","CS-FlankerTask2.1.osexp","C:/Users/Colton/OneDrive/Desktop","no","mono","no","18","no","white","no","yes","768","psycho","15","79","C:/Users/Colton/OneDrive/Desktop/CS-subject-3.csv","psycho","Lentiform Loewenfeld","3.3.3","0","s","NA","h","h","NA","s","325.2691999990493","NA","12169943.6362","2430.2209000010043","NA","325.2691999990493","2","psycho","1024","2","48000","-16","experiment","SSHSS","3","odd","12365764.076299999","12181467.8389","12338898.745099999","NA","12346917.071699997","11488.783899998452","NA","NA","12367057.161099998","11519.751099998757","12336463.717899999","NA","12367165.343","12367496.4822","12367048.4406","12367164.8986","Flanker Task 2.1","84","36966.60409999639","96","yes","1024"
"86.5979381443299","86.5979381443299","384.27461546384876","384.27461546384876","black","psycho","psycho","psycho","0","incongruent","uniform","0","undefined","0","s","96","0","0","0","96","0","96","0","96","0","0","0","96","96","96","96","Sat Sep 26 13:36:59 2020","600","The main experiment item","yes","CS-FlankerTask2.1.osexp","C:/Users/Colton/OneDrive/Desktop","no","mono","no","18","no","white","no","yes","768","psycho","16","79","C:/Users/Colton/OneDrive/Desktop/CS-subject-3.csv","psycho","Lentiform Loewenfeld","3.3.3","0","h","NA","h","h","NA","h","308.0335999969393","NA","12169943.6362","2430.2209000010043","NA","308.0335999969393","2","psycho","1024","2","48000","-16","experiment","HHSHH","3","odd","12368103.625799999","12181467.8389","12338898.745099999","NA","12367582.5488","11488.783899998452","NA","NA","12369405.973199999","11519.751099998757","12336463.717899999","NA","12369514.1124","12369827.456999999","12369396.781399999","12369513.677299997","Flanker Task 2.1","84","37274.63769999333","97","yes","1024"
"86.73469387755102","86.73469387755102","384.38059285708835","384.38059285708835","black","psycho","psycho","psycho","0","incongruent","uniform","1","undefined","1","s","97","0","0","0","97","0","97","0","97","0","0","0","97","97","97","97","Sat Sep 26 13:36:59 2020","600","The main experiment item","yes","CS-FlankerTask2.1.osexp","C:/Users/Colton/OneDrive/Desktop","no","mono","no","18","no","white","no","yes","768","psycho","17","79","C:/Users/Colton/OneDrive/Desktop/CS-subject-3.csv","psycho","Lentiform Loewenfeld","3.3.3","0","s","NA","h","h","NA","s","394.66040000133216","NA","12169943.6362","2430.2209000010043","NA","394.66040000133216","2","psycho","1024","2","48000","-16","experiment","HHSHH","3","odd","12370377.999599997","12181467.8389","12338898.745099999","NA","12369864.388899997","11488.783899998452","NA","NA","12371681.1031","11519.751099998757","12336463.717899999","NA","12371789.762599997","12372189.827499999","12371670.9395","12371789.111999998","Flanker Task 2.1","85","37669.29809999466","98","yes","1024"
"86.86868686868686","86.86868686868686","384.67974747469026","384.67974747469026","black","psycho","psycho","psycho","0","congruent","uniform","1","undefined","1","h","98","0","0","0","98","0","98","0","98","0","0","0","98","98","98","98","Sat Sep 26 13:36:59 2020","600","The main experiment item","yes","CS-FlankerTask2.1.osexp","C:/Users/Colton/OneDrive/Desktop","no","mono","no","18","no","white","no","yes","768","psycho","18","79","C:/Users/Colton/OneDrive/Desktop/CS-subject-3.csv","psycho","Lentiform Loewenfeld","3.3.3","0","h","NA","h","h","NA","h","413.99689999967813","NA","12169943.6362","2430.2209000010043","NA","413.99689999967813","2","psycho","1024","2","48000","-16","experiment","HHHHH","3","odd","12372275.784699999","12181467.8389","12338898.745099999","NA","12369864.388899997","11488.783899998452","NA","NA","12373580.3988","11519.751099998757","12336463.717899999","NA","12373688.6095","12374108.282599999","12373571.421699999","12373688.1407","Flanker Task 2.1","86","38083.29499999434","99","yes","1024"
