"acc","accuracy","average_response_time","avg_rt","background","canvas_backend","clock_backend","color_backend","compensation","condition","coordinates","correct","correct_Instructions1","correct_keyboard_response","correct_response","count_ISI","count_Instructions1","count_block1","count_block2","count_block3","count_errorFeedback","count_experiment","count_faster","count_finish","count_instructions2","count_instructions3","count_keyboard_response","count_logger","count_new_sketchpad","count_sequence","count_stimulus","datetime","deadline","description","disable_garbage_collection","experiment_file","experiment_path","font_bold","font_family","font_italic","font_size","font_underline","foreground","form_clicks","fullscreen","height","keyboard_backend","live_row","live_row_block1","logfile","mouse_backend","opensesame_codename","opensesame_version","repeat_cycle","response","response_Instructions1","response_finish","response_instructions2","response_instructions3","response_keyboard_response","response_time","response_time_Instructions1","response_time_finish","response_time_instructions2","response_time_instructions3","response_time_keyboard_response","round_decimals","sampler_backend","sound_buf_size","sound_channels","sound_freq","sound_sample_size","start","stimulus","subject_nr","subject_parity","time_ISI","time_Instructions1","time_block1","time_block2","time_block3","time_errorFeedback","time_experiment","time_faster","time_finish","time_instructions2","time_instructions3","time_keyboard_response","time_logger","time_new_sketchpad","time_sequence","time_stimulus","title","total_correct","total_response_time","total_responses","uniform_coordinates","width"
"100","100","473","473","black","legacy","legacy","legacy","0","congruent","uniform","1","undefined","1","s","0","0","0","0","0","0","0","0","0","0","0","0","0","0","0","0","Mon Sep 21 13:32:25 2020","1500","The main experiment item","yes","FlankerTask.osexp","/Applications/OpenSesame.app/Contents/Resources/share/opensesame_resources","no","mono","no","18","no","white","no","yes","768","legacy","0","0","/Applications/OpenSesame.app/Contents/Resources/share/opensesame_resources/th-subject-4.csv","legacy","Lentiform Loewenfeld","3.3.3","0","s","s","NA","NA","NA","s","473","46191","NA","NA","NA","473","2","legacy","1024","2","48000","-16","experiment","SSSSS","4","even","NA","27202","73478","NA","NA","NA","27159","NA","NA","NA","NA","73746","74221","73630","73611","73746","Flanker Task","1","473","1","yes","1024"
"100","100","470","470","black","legacy","legacy","legacy","0","congruent","uniform","1","undefined","1","s","1","0","0","0","0","1","0","1","0","0","0","1","1","1","1","1","Mon Sep 21 13:32:25 2020","1500","The main experiment item","yes","FlankerTask.osexp","/Applications/OpenSesame.app/Contents/Resources/share/opensesame_resources","no","mono","no","18","no","white","no","yes","768","legacy","1","1","/Applications/OpenSesame.app/Contents/Resources/share/opensesame_resources/th-subject-4.csv","legacy","Lentiform Loewenfeld","3.3.3","0","s","s","NA","NA","NA","s","467","46191","NA","NA","NA","467","2","legacy","1024","2","48000","-16","experiment","SSSSS","4","even","74251","27202","73478","NA","NA","NA","27159","NA","NA","NA","NA","75625","76094","75511","75493","75624","Flanker Task","2","940","2","yes","1024"
"66.66666666666667","66.66666666666667","454.6666666666667","454.6666666666667","black","legacy","legacy","legacy","0","incongruent","uniform","0","undefined","0","h","2","0","0","0","0","2","0","2","0","0","0","2","2","2","2","2","Mon Sep 21 13:32:25 2020","1500","The main experiment item","yes","FlankerTask.osexp","/Applications/OpenSesame.app/Contents/Resources/share/opensesame_resources","no","mono","no","18","no","white","no","yes","768","legacy","2","2","/Applications/OpenSesame.app/Contents/Resources/share/opensesame_resources/th-subject-4.csv","legacy","Lentiform Loewenfeld","3.3.3","0","s","s","NA","NA","NA","s","424","46191","NA","NA","NA","424","2","legacy","1024","2","48000","-16","experiment","SSHSS","4","even","76108","27202","73478","NA","NA","NA","27159","NA","NA","NA","NA","77299","77725","77187","77174","77299","Flanker Task","2","1364","3","yes","1024"
"75","75","470.5","470.5","black","legacy","legacy","legacy","0","congruent","uniform","1","undefined","1","s","3","0","0","0","0","3","0","3","0","0","0","3","3","3","3","3","Mon Sep 21 13:32:25 2020","1500","The main experiment item","yes","FlankerTask.osexp","/Applications/OpenSesame.app/Contents/Resources/share/opensesame_resources","no","mono","no","18","no","white","no","yes","768","legacy","3","3","/Applications/OpenSesame.app/Contents/Resources/share/opensesame_resources/th-subject-4.csv","legacy","Lentiform Loewenfeld","3.3.3","0","s","s","NA","NA","NA","s","518","46191","NA","NA","NA","518","2","legacy","1024","2","48000","-16","experiment","SSSSS","4","even","78253","27202","73478","NA","NA","77741","27159","NA","NA","NA","NA","79446","79966","79333","79319","79446","Flanker Task","3","1882","4","yes","1024"
"80","80","457.8","457.8","black","legacy","legacy","legacy","0","incongruent","uniform","1","undefined","1","h","4","0","0","0","0","4","0","4","0","0","0","4","4","4","4","4","Mon Sep 21 13:32:25 2020","1500","The main experiment item","yes","FlankerTask.osexp","/Applications/OpenSesame.app/Contents/Resources/share/opensesame_resources","no","mono","no","18","no","white","no","yes","768","legacy","4","4","/Applications/OpenSesame.app/Contents/Resources/share/opensesame_resources/th-subject-4.csv","legacy","Lentiform Loewenfeld","3.3.3","0","h","s","NA","NA","NA","h","407","46191","NA","NA","NA","407","2","legacy","1024","2","48000","-16","experiment","SSHSS","4","even","79988","27202","73478","NA","NA","77741","27159","NA","NA","NA","NA","81180","81588","81068","81056","81180","Flanker Task","4","2289","5","yes","1024"
"83.33333333333333","83.33333333333333","474.5","474.5","black","legacy","legacy","legacy","0","incongruent","uniform","1","undefined","1","h","5","0","0","0","0","5","0","5","0","0","0","5","5","5","5","5","Mon Sep 21 13:32:25 2020","1500","The main experiment item","yes","FlankerTask.osexp","/Applications/OpenSesame.app/Contents/Resources/share/opensesame_resources","no","mono","no","18","no","white","no","yes","768","legacy","5","5","/Applications/OpenSesame.app/Contents/Resources/share/opensesame_resources/th-subject-4.csv","legacy","Lentiform Loewenfeld","3.3.3","0","h","s","NA","NA","NA","h","558","46191","NA","NA","NA","558","2","legacy","1024","2","48000","-16","experiment","SSHSS","4","even","81609","27202","73478","NA","NA","77741","27159","NA","NA","NA","NA","82840","83400","82714","82695","82839","Flanker Task","5","2847","6","yes","1024"
"85.71428571428571","85.71428571428571","485.42857142857144","485.42857142857144","black","legacy","legacy","legacy","0","incongruent","uniform","1","undefined","1","s","6","0","0","0","0","6","0","6","0","0","0","6","6","6","6","6","Mon Sep 21 13:32:25 2020","1500","The main experiment item","yes","FlankerTask.osexp","/Applications/OpenSesame.app/Contents/Resources/share/opensesame_resources","no","mono","no","18","no","white","no","yes","768","legacy","6","6","/Applications/OpenSesame.app/Contents/Resources/share/opensesame_resources/th-subject-4.csv","legacy","Lentiform Loewenfeld","3.3.3","0","s","s","NA","NA","NA","s","551","46191","NA","NA","NA","551","2","legacy","1024","2","48000","-16","experiment","HHSHH","4","even","83431","27202","73478","NA","NA","77741","27159","NA","NA","NA","NA","84676","85229","84553","84533","84676","Flanker Task","6","3398","7","yes","1024"
"87.5","87.5","491.5","491.5","black","legacy","legacy","legacy","0","congruent","uniform","1","undefined","1","h","7","0","0","0","0","7","0","7","0","0","0","7","7","7","7","7","Mon Sep 21 13:32:25 2020","1500","The main experiment item","yes","FlankerTask.osexp","/Applications/OpenSesame.app/Contents/Resources/share/opensesame_resources","no","mono","no","18","no","white","no","yes","768","legacy","7","7","/Applications/OpenSesame.app/Contents/Resources/share/opensesame_resources/th-subject-4.csv","legacy","Lentiform Loewenfeld","3.3.3","0","h","s","NA","NA","NA","h","534","46191","NA","NA","NA","534","2","legacy","1024","2","48000","-16","experiment","HHHHH","4","even","85244","27202","73478","NA","NA","77741","27159","NA","NA","NA","NA","86446","86981","86330","86316","86446","Flanker Task","7","3932","8","yes","1024"
"88.88888888888889","88.88888888888889","499.22222222222223","499.22222222222223","black","legacy","legacy","legacy","0","incongruent","uniform","1","undefined","1","h","8","0","0","0","0","8","0","8","0","0","0","8","8","8","8","8","Mon Sep 21 13:32:25 2020","1500","The main experiment item","yes","FlankerTask.osexp","/Applications/OpenSesame.app/Contents/Resources/share/opensesame_resources","no","mono","no","18","no","white","no","yes","768","legacy","8","8","/Applications/OpenSesame.app/Contents/Resources/share/opensesame_resources/th-subject-4.csv","legacy","Lentiform Loewenfeld","3.3.3","0","h","s","NA","NA","NA","h","561","46191","NA","NA","NA","561","2","legacy","1024","2","48000","-16","experiment","SSHSS","4","even","87002","27202","73478","NA","NA","77741","27159","NA","NA","NA","NA","88212","88776","88099","88082","88212","Flanker Task","8","4493","9","yes","1024"
"90","90","492.8","492.8","black","legacy","legacy","legacy","0","incongruent","uniform","1","undefined","1","h","9","0","0","0","0","9","0","9","0","0","0","9","9","9","9","9","Mon Sep 21 13:32:25 2020","1500","The main experiment item","yes","FlankerTask.osexp","/Applications/OpenSesame.app/Contents/Resources/share/opensesame_resources","no","mono","no","18","no","white","no","yes","768","legacy","9","9","/Applications/OpenSesame.app/Contents/Resources/share/opensesame_resources/th-subject-4.csv","legacy","Lentiform Loewenfeld","3.3.3","0","h","s","NA","NA","NA","h","435","46191","NA","NA","NA","435","2","legacy","1024","2","48000","-16","experiment","SSHSS","4","even","88794","27202","73478","NA","NA","77741","27159","NA","NA","NA","NA","90000","90437","89876","89863","89999","Flanker Task","9","4928","10","yes","1024"
"90.9090909090909","90.9090909090909","492.09090909090907","492.09090909090907","black","legacy","legacy","legacy","0","incongruent","uniform","1","undefined","1","h","10","0","0","0","0","10","0","10","0","0","0","10","10","10","10","10","Mon Sep 21 13:32:25 2020","1500","The main experiment item","yes","FlankerTask.osexp","/Applications/OpenSesame.app/Contents/Resources/share/opensesame_resources","no","mono","no","18","no","white","no","yes","768","legacy","10","10","/Applications/OpenSesame.app/Contents/Resources/share/opensesame_resources/th-subject-4.csv","legacy","Lentiform Loewenfeld","3.3.3","0","h","s","NA","NA","NA","h","485","46191","NA","NA","NA","485","2","legacy","1024","2","48000","-16","experiment","SSHSS","4","even","90467","27202","73478","NA","NA","77741","27159","NA","NA","NA","NA","91686","92173","91569","91549","91686","Flanker Task","10","5413","11","yes","1024"
"91.66666666666667","91.66666666666667","483.75","483.75","black","legacy","legacy","legacy","0","incongruent","uniform","1","undefined","1","h","11","0","0","0","0","11","0","11","0","0","0","11","11","11","11","11","Mon Sep 21 13:32:25 2020","1500","The main experiment item","yes","FlankerTask.osexp","/Applications/OpenSesame.app/Contents/Resources/share/opensesame_resources","no","mono","no","18","no","white","no","yes","768","legacy","11","11","/Applications/OpenSesame.app/Contents/Resources/share/opensesame_resources/th-subject-4.csv","legacy","Lentiform Loewenfeld","3.3.3","0","h","s","NA","NA","NA","h","392","46191","NA","NA","NA","392","2","legacy","1024","2","48000","-16","experiment","SSHSS","4","even","92199","27202","73478","NA","NA","77741","27159","NA","NA","NA","NA","93395","93789","93282","93266","93395","Flanker Task","11","5805","12","yes","1024"
"92.3076923076923","92.3076923076923","477.7692307692308","477.7692307692308","black","legacy","legacy","legacy","0","incongruent","uniform","1","undefined","1","h","12","0","0","0","0","12","0","12","0","0","0","12","12","12","12","12","Mon Sep 21 13:32:25 2020","1500","The main experiment item","yes","FlankerTask.osexp","/Applications/OpenSesame.app/Contents/Resources/share/opensesame_resources","no","mono","no","18","no","white","no","yes","768","legacy","12","12","/Applications/OpenSesame.app/Contents/Resources/share/opensesame_resources/th-subject-4.csv","legacy","Lentiform Loewenfeld","3.3.3","0","h","s","NA","NA","NA","h","406","46191","NA","NA","NA","406","2","legacy","1024","2","48000","-16","experiment","SSHSS","4","even","93808","27202","73478","NA","NA","77741","27159","NA","NA","NA","NA","95029","95436","94912","94893","95029","Flanker Task","12","6211","13","yes","1024"
"92.85714285714286","92.85714285714286","481.35714285714283","481.35714285714283","black","legacy","legacy","legacy","0","congruent","uniform","1","undefined","1","s","13","0","0","0","0","13","0","13","0","0","0","13","13","13","13","13","Mon Sep 21 13:32:25 2020","1500","The main experiment item","yes","FlankerTask.osexp","/Applications/OpenSesame.app/Contents/Resources/share/opensesame_resources","no","mono","no","18","no","white","no","yes","768","legacy","13","13","/Applications/OpenSesame.app/Contents/Resources/share/opensesame_resources/th-subject-4.csv","legacy","Lentiform Loewenfeld","3.3.3","0","s","s","NA","NA","NA","s","528","46191","NA","NA","NA","528","2","legacy","1024","2","48000","-16","experiment","SSSSS","4","even","95465","27202","73478","NA","NA","77741","27159","NA","NA","NA","NA","96667","97196","96555","96542","96667","Flanker Task","13","6739","14","yes","1024"
"93.33333333333333","93.33333333333333","478.73333333333335","478.73333333333335","black","legacy","legacy","legacy","0","congruent","uniform","1","undefined","1","s","14","0","0","0","0","14","0","14","0","0","0","14","14","14","14","14","Mon Sep 21 13:32:25 2020","1500","The main experiment item","yes","FlankerTask.osexp","/Applications/OpenSesame.app/Contents/Resources/share/opensesame_resources","no","mono","no","18","no","white","no","yes","768","legacy","14","14","/Applications/OpenSesame.app/Contents/Resources/share/opensesame_resources/th-subject-4.csv","legacy","Lentiform Loewenfeld","3.3.3","0","s","s","NA","NA","NA","s","442","46191","NA","NA","NA","442","2","legacy","1024","2","48000","-16","experiment","SSSSS","4","even","97218","27202","73478","NA","NA","77741","27159","NA","NA","NA","NA","98409","98852","98297","98284","98409","Flanker Task","14","7181","15","yes","1024"
"93.75","93.75","480.3125","480.3125","black","legacy","legacy","legacy","0","incongruent","uniform","1","undefined","1","s","15","0","0","0","0","15","0","15","0","0","0","15","15","15","15","15","Mon Sep 21 13:32:25 2020","1500","The main experiment item","yes","FlankerTask.osexp","/Applications/OpenSesame.app/Contents/Resources/share/opensesame_resources","no","mono","no","18","no","white","no","yes","768","legacy","15","15","/Applications/OpenSesame.app/Contents/Resources/share/opensesame_resources/th-subject-4.csv","legacy","Lentiform Loewenfeld","3.3.3","0","s","s","NA","NA","NA","s","504","46191","NA","NA","NA","504","2","legacy","1024","2","48000","-16","experiment","HHSHH","4","even","98868","27202","73478","NA","NA","77741","27159","NA","NA","NA","NA","100066","100572","99954","99937","100066","Flanker Task","15","7685","16","yes","1024"
"94.11764705882354","94.11764705882354","486.3529411764706","486.3529411764706","black","legacy","legacy","legacy","0","incongruent","uniform","1","undefined","1","s","16","0","0","0","0","16","0","16","0","0","0","16","16","16","16","16","Mon Sep 21 13:32:25 2020","1500","The main experiment item","yes","FlankerTask.osexp","/Applications/OpenSesame.app/Contents/Resources/share/opensesame_resources","no","mono","no","18","no","white","no","yes","768","legacy","16","16","/Applications/OpenSesame.app/Contents/Resources/share/opensesame_resources/th-subject-4.csv","legacy","Lentiform Loewenfeld","3.3.3","0","s","s","NA","NA","NA","s","583","46191","NA","NA","NA","583","2","legacy","1024","2","48000","-16","experiment","HHSHH","4","even","100598","27202","73478","NA","NA","77741","27159","NA","NA","NA","NA","101795","102380","101682","101665","101795","Flanker Task","16","8268","17","yes","1024"
"94.44444444444444","94.44444444444444","485.1666666666667","485.1666666666667","black","legacy","legacy","legacy","0","congruent","uniform","1","undefined","1","h","17","0","0","0","0","17","0","17","0","0","0","17","17","17","17","17","Mon Sep 21 13:32:25 2020","1500","The main experiment item","yes","FlankerTask.osexp","/Applications/OpenSesame.app/Contents/Resources/share/opensesame_resources","no","mono","no","18","no","white","no","yes","768","legacy","17","17","/Applications/OpenSesame.app/Contents/Resources/share/opensesame_resources/th-subject-4.csv","legacy","Lentiform Loewenfeld","3.3.3","0","h","s","NA","NA","NA","h","465","46191","NA","NA","NA","465","2","legacy","1024","2","48000","-16","experiment","HHHHH","4","even","102406","27202","73478","NA","NA","77741","27159","NA","NA","NA","NA","103610","104077","103491","103473","103610","Flanker Task","17","8733","18","yes","1024"
"94.73684210526316","94.73684210526316","482.3157894736842","482.3157894736842","black","legacy","legacy","legacy","0","congruent","uniform","1","undefined","1","s","18","0","0","0","0","18","0","18","0","0","0","18","18","18","18","18","Mon Sep 21 13:32:25 2020","1500","The main experiment item","yes","FlankerTask.osexp","/Applications/OpenSesame.app/Contents/Resources/share/opensesame_resources","no","mono","no","18","no","white","no","yes","768","legacy","18","18","/Applications/OpenSesame.app/Contents/Resources/share/opensesame_resources/th-subject-4.csv","legacy","Lentiform Loewenfeld","3.3.3","0","s","s","NA","NA","NA","s","431","46191","NA","NA","NA","431","2","legacy","1024","2","48000","-16","experiment","SSSSS","4","even","104097","27202","73478","NA","NA","77741","27159","NA","NA","NA","NA","105291","105724","105177","105164","105291","Flanker Task","18","9164","19","yes","1024"
"95","95","487.5","487.5","black","legacy","legacy","legacy","0","incongruent","uniform","1","undefined","1","s","19","0","0","0","0","19","0","19","0","0","0","19","19","19","19","19","Mon Sep 21 13:32:25 2020","1500","The main experiment item","yes","FlankerTask.osexp","/Applications/OpenSesame.app/Contents/Resources/share/opensesame_resources","no","mono","no","18","no","white","no","yes","768","legacy","19","19","/Applications/OpenSesame.app/Contents/Resources/share/opensesame_resources/th-subject-4.csv","legacy","Lentiform Loewenfeld","3.3.3","0","s","s","NA","NA","NA","s","586","46191","NA","NA","NA","586","2","legacy","1024","2","48000","-16","experiment","HHSHH","4","even","105750","27202","73478","NA","NA","77741","27159","NA","NA","NA","NA","106960","107548","106846","106832","106960","Flanker Task","19","9750","20","yes","1024"
"95.23809523809524","95.23809523809524","485.57142857142856","485.57142857142856","black","legacy","legacy","legacy","0","congruent","uniform","1","undefined","1","s","20","0","0","0","0","20","0","20","0","0","0","20","20","20","20","20","Mon Sep 21 13:32:25 2020","1500","The main experiment item","yes","FlankerTask.osexp","/Applications/OpenSesame.app/Contents/Resources/share/opensesame_resources","no","mono","no","18","no","white","no","yes","768","legacy","20","20","/Applications/OpenSesame.app/Contents/Resources/share/opensesame_resources/th-subject-4.csv","legacy","Lentiform Loewenfeld","3.3.3","0","s","s","NA","NA","NA","s","447","46191","NA","NA","NA","447","2","legacy","1024","2","48000","-16","experiment","SSSSS","4","even","107583","27202","73478","NA","NA","77741","27159","NA","NA","NA","NA","108787","109236","108670","108657","108787","Flanker Task","20","10197","21","yes","1024"
"95.45454545454545","95.45454545454545","485.90909090909093","485.90909090909093","black","legacy","legacy","legacy","0","congruent","uniform","1","undefined","1","s","21","0","0","0","0","21","0","21","0","0","0","21","21","21","21","21","Mon Sep 21 13:32:25 2020","1500","The main experiment item","yes","FlankerTask.osexp","/Applications/OpenSesame.app/Contents/Resources/share/opensesame_resources","no","mono","no","18","no","white","no","yes","768","legacy","21","21","/Applications/OpenSesame.app/Contents/Resources/share/opensesame_resources/th-subject-4.csv","legacy","Lentiform Loewenfeld","3.3.3","0","s","s","NA","NA","NA","s","493","46191","NA","NA","NA","493","2","legacy","1024","2","48000","-16","experiment","SSSSS","4","even","109261","27202","73478","NA","NA","77741","27159","NA","NA","NA","NA","110471","110968","110357","110338","110470","Flanker Task","21","10690","22","yes","1024"
"95.65217391304348","95.65217391304348","489.6521739130435","489.6521739130435","black","legacy","legacy","legacy","0","incongruent","uniform","1","undefined","1","s","22","0","0","0","0","22","0","22","0","0","0","22","22","22","22","22","Mon Sep 21 13:32:25 2020","1500","The main experiment item","yes","FlankerTask.osexp","/Applications/OpenSesame.app/Contents/Resources/share/opensesame_resources","no","mono","no","18","no","white","no","yes","768","legacy","22","22","/Applications/OpenSesame.app/Contents/Resources/share/opensesame_resources/th-subject-4.csv","legacy","Lentiform Loewenfeld","3.3.3","0","s","s","NA","NA","NA","s","572","46191","NA","NA","NA","572","2","legacy","1024","2","48000","-16","experiment","HHSHH","4","even","110995","27202","73478","NA","NA","77741","27159","NA","NA","NA","NA","112198","112773","112082","112068","112198","Flanker Task","22","11262","23","yes","1024"
"95.83333333333333","95.83333333333333","487.8333333333333","487.8333333333333","black","legacy","legacy","legacy","0","congruent","uniform","1","undefined","1","s","23","0","0","0","0","23","0","23","0","0","0","23","23","23","23","23","Mon Sep 21 13:32:25 2020","1500","The main experiment item","yes","FlankerTask.osexp","/Applications/OpenSesame.app/Contents/Resources/share/opensesame_resources","no","mono","no","18","no","white","no","yes","768","legacy","23","23","/Applications/OpenSesame.app/Contents/Resources/share/opensesame_resources/th-subject-4.csv","legacy","Lentiform Loewenfeld","3.3.3","0","s","s","NA","NA","NA","s","446","46191","NA","NA","NA","446","2","legacy","1024","2","48000","-16","experiment","SSSSS","4","even","112792","27202","73478","NA","NA","77741","27159","NA","NA","NA","NA","113999","114448","113881","113863","113998","Flanker Task","23","11708","24","yes","1024"
"96","96","490.12","490.12","black","legacy","legacy","legacy","0","congruent","uniform","1","undefined","1","h","24","0","0","0","0","24","0","24","0","0","0","24","24","24","24","24","Mon Sep 21 13:32:25 2020","1500","The main experiment item","yes","FlankerTask.osexp","/Applications/OpenSesame.app/Contents/Resources/share/opensesame_resources","no","mono","no","18","no","white","no","yes","768","legacy","24","24","/Applications/OpenSesame.app/Contents/Resources/share/opensesame_resources/th-subject-4.csv","legacy","Lentiform Loewenfeld","3.3.3","0","h","s","NA","NA","NA","h","545","46191","NA","NA","NA","545","2","legacy","1024","2","48000","-16","experiment","HHHHH","4","even","114465","27202","73478","NA","NA","77741","27159","NA","NA","NA","NA","115673","116220","115555","115541","115673","Flanker Task","24","12253","25","yes","1024"
"96.15384615384616","96.15384615384616","489.38461538461536","489.38461538461536","black","legacy","legacy","legacy","0","incongruent","uniform","1","undefined","1","s","25","0","0","0","0","25","0","25","0","0","0","25","25","25","25","25","Mon Sep 21 13:32:25 2020","1500","The main experiment item","yes","FlankerTask.osexp","/Applications/OpenSesame.app/Contents/Resources/share/opensesame_resources","no","mono","no","18","no","white","no","yes","768","legacy","25","25","/Applications/OpenSesame.app/Contents/Resources/share/opensesame_resources/th-subject-4.csv","legacy","Lentiform Loewenfeld","3.3.3","0","s","s","NA","NA","NA","s","471","46191","NA","NA","NA","471","2","legacy","1024","2","48000","-16","experiment","HHSHH","4","even","116234","27202","73478","NA","NA","77741","27159","NA","NA","NA","NA","117427","117900","117314","117301","117427","Flanker Task","25","12724","26","yes","1024"
"96.29629629629629","96.29629629629629","490.77777777777777","490.77777777777777","black","legacy","legacy","legacy","0","congruent","uniform","1","undefined","1","h","26","0","0","0","0","26","0","26","0","0","0","26","26","26","26","26","Mon Sep 21 13:32:25 2020","1500","The main experiment item","yes","FlankerTask.osexp","/Applications/OpenSesame.app/Contents/Resources/share/opensesame_resources","no","mono","no","18","no","white","no","yes","768","legacy","26","26","/Applications/OpenSesame.app/Contents/Resources/share/opensesame_resources/th-subject-4.csv","legacy","Lentiform Loewenfeld","3.3.3","0","h","s","NA","NA","NA","h","527","46191","NA","NA","NA","527","2","legacy","1024","2","48000","-16","experiment","HHHHH","4","even","117919","27202","73478","NA","NA","77741","27159","NA","NA","NA","NA","119115","119644","119003","118987","119115","Flanker Task","26","13251","27","yes","1024"
"92.85714285714286","92.85714285714286","489.7142857142857","489.7142857142857","black","legacy","legacy","legacy","0","incongruent","uniform","0","undefined","0","h","27","0","0","0","0","27","0","27","0","0","0","27","27","27","27","27","Mon Sep 21 13:32:25 2020","1500","The main experiment item","yes","FlankerTask.osexp","/Applications/OpenSesame.app/Contents/Resources/share/opensesame_resources","no","mono","no","18","no","white","no","yes","768","legacy","27","27","/Applications/OpenSesame.app/Contents/Resources/share/opensesame_resources/th-subject-4.csv","legacy","Lentiform Loewenfeld","3.3.3","0","s","s","NA","NA","NA","s","461","46191","NA","NA","NA","461","2","legacy","1024","2","48000","-16","experiment","SSHSS","4","even","119660","27202","73478","NA","NA","77741","27159","NA","NA","NA","NA","120853","121316","120740","120726","120852","Flanker Task","26","13712","28","yes","1024"
"93.10344827586206","93.10344827586206","488.55172413793105","488.55172413793105","black","legacy","legacy","legacy","0","congruent","uniform","1","undefined","1","h","28","0","0","0","0","28","0","28","0","0","0","28","28","28","28","28","Mon Sep 21 13:32:25 2020","1500","The main experiment item","yes","FlankerTask.osexp","/Applications/OpenSesame.app/Contents/Resources/share/opensesame_resources","no","mono","no","18","no","white","no","yes","768","legacy","28","28","/Applications/OpenSesame.app/Contents/Resources/share/opensesame_resources/th-subject-4.csv","legacy","Lentiform Loewenfeld","3.3.3","0","h","s","NA","NA","NA","h","456","46191","NA","NA","NA","456","2","legacy","1024","2","48000","-16","experiment","HHHHH","4","even","121844","27202","73478","NA","NA","121330","27159","NA","NA","NA","NA","123042","123500","122929","122913","123042","Flanker Task","27","14168","29","yes","1024"
"93.33333333333333","93.33333333333333","490.8333333333333","490.8333333333333","black","legacy","legacy","legacy","0","congruent","uniform","1","undefined","1","h","29","0","0","0","0","29","0","29","0","0","0","29","29","29","29","29","Mon Sep 21 13:32:25 2020","1500","The main experiment item","yes","FlankerTask.osexp","/Applications/OpenSesame.app/Contents/Resources/share/opensesame_resources","no","mono","no","18","no","white","no","yes","768","legacy","29","29","/Applications/OpenSesame.app/Contents/Resources/share/opensesame_resources/th-subject-4.csv","legacy","Lentiform Loewenfeld","3.3.3","0","h","s","NA","NA","NA","h","557","46191","NA","NA","NA","557","2","legacy","1024","2","48000","-16","experiment","HHHHH","4","even","123520","27202","73478","NA","NA","121330","27159","NA","NA","NA","NA","124717","125276","124604","124588","124716","Flanker Task","28","14725","30","yes","1024"
"93.54838709677419","93.54838709677419","495.80645161290323","495.80645161290323","black","legacy","legacy","legacy","0","incongruent","uniform","1","undefined","1","s","30","0","0","0","0","30","0","30","0","0","0","30","30","30","30","30","Mon Sep 21 13:32:25 2020","1500","The main experiment item","yes","FlankerTask.osexp","/Applications/OpenSesame.app/Contents/Resources/share/opensesame_resources","no","mono","no","18","no","white","no","yes","768","legacy","30","30","/Applications/OpenSesame.app/Contents/Resources/share/opensesame_resources/th-subject-4.csv","legacy","Lentiform Loewenfeld","3.3.3","0","s","s","NA","NA","NA","s","645","46191","NA","NA","NA","645","2","legacy","1024","2","48000","-16","experiment","HHSHH","4","even","125293","27202","73478","NA","NA","121330","27159","NA","NA","NA","NA","126493","127140","126377","126363","126493","Flanker Task","29","15370","31","yes","1024"
"90.625","90.625","499.21875","499.21875","black","legacy","legacy","legacy","0","congruent","uniform","0","undefined","0","s","31","0","0","0","0","31","0","31","0","0","0","31","31","31","31","31","Mon Sep 21 13:32:25 2020","1500","The main experiment item","yes","FlankerTask.osexp","/Applications/OpenSesame.app/Contents/Resources/share/opensesame_resources","no","mono","no","18","no","white","no","yes","768","legacy","31","31","/Applications/OpenSesame.app/Contents/Resources/share/opensesame_resources/th-subject-4.csv","legacy","Lentiform Loewenfeld","3.3.3","0","h","s","NA","NA","NA","h","605","46191","NA","NA","NA","605","2","legacy","1024","2","48000","-16","experiment","SSSSS","4","even","127154","27202","73478","NA","NA","121330","27159","NA","NA","NA","NA","128350","128957","128233","128220","128349","Flanker Task","29","15975","32","yes","1024"
"90.9090909090909","90.9090909090909","506.93939393939394","506.93939393939394","black","legacy","legacy","legacy","0","incongruent","uniform","1","undefined","1","s","32","0","0","0","0","32","0","32","0","0","0","32","32","32","32","32","Mon Sep 21 13:32:25 2020","1500","The main experiment item","yes","FlankerTask.osexp","/Applications/OpenSesame.app/Contents/Resources/share/opensesame_resources","no","mono","no","18","no","white","no","yes","768","legacy","32","32","/Applications/OpenSesame.app/Contents/Resources/share/opensesame_resources/th-subject-4.csv","legacy","Lentiform Loewenfeld","3.3.3","0","s","s","NA","NA","NA","s","754","46191","NA","NA","NA","754","2","legacy","1024","2","48000","-16","experiment","HHSHH","4","even","129492","27202","73478","NA","NA","128975","27159","NA","NA","NA","NA","130720","131476","130606","130589","130720","Flanker Task","30","16729","33","yes","1024"
"91.17647058823529","91.17647058823529","507.2647058823529","507.2647058823529","black","legacy","legacy","legacy","0","incongruent","uniform","1","undefined","1","s","33","0","0","0","0","33","0","33","0","0","0","33","33","33","33","33","Mon Sep 21 13:32:25 2020","1500","The main experiment item","yes","FlankerTask.osexp","/Applications/OpenSesame.app/Contents/Resources/share/opensesame_resources","no","mono","no","18","no","white","no","yes","768","legacy","33","33","/Applications/OpenSesame.app/Contents/Resources/share/opensesame_resources/th-subject-4.csv","legacy","Lentiform Loewenfeld","3.3.3","0","s","s","NA","NA","NA","s","518","46191","NA","NA","NA","518","2","legacy","1024","2","48000","-16","experiment","HHSHH","4","even","131493","27202","73478","NA","NA","128975","27159","NA","NA","NA","NA","132692","133212","132580","132562","132692","Flanker Task","31","17247","34","yes","1024"
"91.42857142857143","91.42857142857143","507.85714285714283","507.85714285714283","black","legacy","legacy","legacy","0","congruent","uniform","1","undefined","1","h","34","0","0","0","0","34","0","34","0","0","0","34","34","34","34","34","Mon Sep 21 13:32:25 2020","1500","The main experiment item","yes","FlankerTask.osexp","/Applications/OpenSesame.app/Contents/Resources/share/opensesame_resources","no","mono","no","18","no","white","no","yes","768","legacy","34","34","/Applications/OpenSesame.app/Contents/Resources/share/opensesame_resources/th-subject-4.csv","legacy","Lentiform Loewenfeld","3.3.3","0","h","s","NA","NA","NA","h","528","46191","NA","NA","NA","528","2","legacy","1024","2","48000","-16","experiment","HHHHH","4","even","133228","27202","73478","NA","NA","128975","27159","NA","NA","NA","NA","134435","134965","134317","134300","134435","Flanker Task","32","17775","35","yes","1024"
"91.66666666666667","91.66666666666667","506.5","506.5","black","legacy","legacy","legacy","0","congruent","uniform","1","undefined","1","s","35","0","0","0","0","35","0","35","0","0","0","35","35","35","35","35","Mon Sep 21 13:32:25 2020","1500","The main experiment item","yes","FlankerTask.osexp","/Applications/OpenSesame.app/Contents/Resources/share/opensesame_resources","no","mono","no","18","no","white","no","yes","768","legacy","35","35","/Applications/OpenSesame.app/Contents/Resources/share/opensesame_resources/th-subject-4.csv","legacy","Lentiform Loewenfeld","3.3.3","0","s","s","NA","NA","NA","s","459","46191","NA","NA","NA","459","2","legacy","1024","2","48000","-16","experiment","SSSSS","4","even","134993","27202","73478","NA","NA","128975","27159","NA","NA","NA","NA","136209","136670","136091","136070","136209","Flanker Task","33","18234","36","yes","1024"
"91.89189189189189","91.89189189189189","510.6756756756757","510.6756756756757","black","legacy","legacy","legacy","0","congruent","uniform","1","undefined","1","h","36","0","0","0","0","36","0","36","0","0","0","36","36","36","36","36","Mon Sep 21 13:32:25 2020","1500","The main experiment item","yes","FlankerTask.osexp","/Applications/OpenSesame.app/Contents/Resources/share/opensesame_resources","no","mono","no","18","no","white","no","yes","768","legacy","36","36","/Applications/OpenSesame.app/Contents/Resources/share/opensesame_resources/th-subject-4.csv","legacy","Lentiform Loewenfeld","3.3.3","0","h","s","NA","NA","NA","h","661","46191","NA","NA","NA","661","2","legacy","1024","2","48000","-16","experiment","HHHHH","4","even","136711","27202","73478","NA","NA","128975","27159","NA","NA","NA","NA","137917","138580","137805","137793","137917","Flanker Task","34","18895","37","yes","1024"
"92.10526315789474","92.10526315789474","512.8684210526316","512.8684210526316","black","legacy","legacy","legacy","0","congruent","uniform","1","undefined","1","h","37","0","0","0","0","37","0","37","0","0","0","37","37","37","37","37","Mon Sep 21 13:32:25 2020","1500","The main experiment item","yes","FlankerTask.osexp","/Applications/OpenSesame.app/Contents/Resources/share/opensesame_resources","no","mono","no","18","no","white","no","yes","768","legacy","37","37","/Applications/OpenSesame.app/Contents/Resources/share/opensesame_resources/th-subject-4.csv","legacy","Lentiform Loewenfeld","3.3.3","0","h","s","NA","NA","NA","h","594","46191","NA","NA","NA","594","2","legacy","1024","2","48000","-16","experiment","HHHHH","4","even","138594","27202","73478","NA","NA","128975","27159","NA","NA","NA","NA","139792","140388","139676","139663","139792","Flanker Task","35","19489","38","yes","1024"
"92.3076923076923","92.3076923076923","512.4102564102565","512.4102564102565","black","legacy","legacy","legacy","0","congruent","uniform","1","undefined","1","h","38","0","0","0","0","38","0","38","0","0","0","38","38","38","38","38","Mon Sep 21 13:32:25 2020","1500","The main experiment item","yes","FlankerTask.osexp","/Applications/OpenSesame.app/Contents/Resources/share/opensesame_resources","no","mono","no","18","no","white","no","yes","768","legacy","38","38","/Applications/OpenSesame.app/Contents/Resources/share/opensesame_resources/th-subject-4.csv","legacy","Lentiform Loewenfeld","3.3.3","0","h","s","NA","NA","NA","h","495","46191","NA","NA","NA","495","2","legacy","1024","2","48000","-16","experiment","HHHHH","4","even","140410","27202","73478","NA","NA","128975","27159","NA","NA","NA","NA","141675","142171","141555","141536","141674","Flanker Task","36","19984","39","yes","1024"
"92.5","92.5","511.175","511.175","black","legacy","legacy","legacy","0","congruent","uniform","1","undefined","1","h","39","0","0","0","0","39","0","39","0","0","0","39","39","39","39","39","Mon Sep 21 13:32:25 2020","1500","The main experiment item","yes","FlankerTask.osexp","/Applications/OpenSesame.app/Contents/Resources/share/opensesame_resources","no","mono","no","18","no","white","no","yes","768","legacy","39","39","/Applications/OpenSesame.app/Contents/Resources/share/opensesame_resources/th-subject-4.csv","legacy","Lentiform Loewenfeld","3.3.3","0","h","s","NA","NA","NA","h","463","46191","NA","NA","NA","463","2","legacy","1024","2","48000","-16","experiment","HHHHH","4","even","142195","27202","73478","NA","NA","128975","27159","NA","NA","NA","NA","143411","143875","143292","143279","143411","Flanker Task","37","20447","40","yes","1024"
"92.6829268292683","92.6829268292683","514","514","black","legacy","legacy","legacy","0","congruent","uniform","1","undefined","1","s","40","0","0","0","0","40","0","40","0","0","0","40","40","40","40","40","Mon Sep 21 13:32:25 2020","1500","The main experiment item","yes","FlankerTask.osexp","/Applications/OpenSesame.app/Contents/Resources/share/opensesame_resources","no","mono","no","18","no","white","no","yes","768","legacy","40","40","/Applications/OpenSesame.app/Contents/Resources/share/opensesame_resources/th-subject-4.csv","legacy","Lentiform Loewenfeld","3.3.3","0","s","s","NA","NA","NA","s","627","46191","NA","NA","NA","627","2","legacy","1024","2","48000","-16","experiment","SSSSS","4","even","143889","27202","73478","NA","NA","128975","27159","NA","NA","NA","NA","145087","145716","144974","144961","145087","Flanker Task","38","21074","41","yes","1024"
"92.85714285714286","92.85714285714286","516","516","black","legacy","legacy","legacy","0","incongruent","uniform","1","undefined","1","h","41","0","0","0","0","41","0","41","0","0","0","41","41","41","41","41","Mon Sep 21 13:32:25 2020","1500","The main experiment item","yes","FlankerTask.osexp","/Applications/OpenSesame.app/Contents/Resources/share/opensesame_resources","no","mono","no","18","no","white","no","yes","768","legacy","41","41","/Applications/OpenSesame.app/Contents/Resources/share/opensesame_resources/th-subject-4.csv","legacy","Lentiform Loewenfeld","3.3.3","0","h","s","NA","NA","NA","h","598","46191","NA","NA","NA","598","2","legacy","1024","2","48000","-16","experiment","SSHSS","4","even","145735","27202","73478","NA","NA","128975","27159","NA","NA","NA","NA","146956","147555","146843","146826","146956","Flanker Task","39","21672","42","yes","1024"
"93.02325581395348","93.02325581395348","524.9069767441861","524.9069767441861","black","legacy","legacy","legacy","0","congruent","uniform","1","undefined","1","h","42","0","0","0","0","42","0","42","0","0","0","42","42","42","42","42","Mon Sep 21 13:32:25 2020","1500","The main experiment item","yes","FlankerTask.osexp","/Applications/OpenSesame.app/Contents/Resources/share/opensesame_resources","no","mono","no","18","no","white","no","yes","768","legacy","42","42","/Applications/OpenSesame.app/Contents/Resources/share/opensesame_resources/th-subject-4.csv","legacy","Lentiform Loewenfeld","3.3.3","0","h","s","NA","NA","NA","h","899","46191","NA","NA","NA","899","2","legacy","1024","2","48000","-16","experiment","HHHHH","4","even","147577","27202","73478","NA","NA","128975","27159","NA","NA","NA","NA","148790","149691","148669","148652","148789","Flanker Task","40","22571","43","yes","1024"
"93.18181818181819","93.18181818181819","524.8863636363636","524.8863636363636","black","legacy","legacy","legacy","0","incongruent","uniform","1","undefined","1","s","43","0","0","0","0","43","0","43","0","0","0","43","43","43","43","43","Mon Sep 21 13:32:25 2020","1500","The main experiment item","yes","FlankerTask.osexp","/Applications/OpenSesame.app/Contents/Resources/share/opensesame_resources","no","mono","no","18","no","white","no","yes","768","legacy","43","43","/Applications/OpenSesame.app/Contents/Resources/share/opensesame_resources/th-subject-4.csv","legacy","Lentiform Loewenfeld","3.3.3","0","s","s","NA","NA","NA","s","524","46191","NA","NA","NA","524","2","legacy","1024","2","48000","-16","experiment","HHSHH","4","even","149707","27202","73478","NA","NA","128975","27159","NA","NA","NA","NA","150927","151454","150810","150795","150927","Flanker Task","41","23095","44","yes","1024"
"93.33333333333333","93.33333333333333","524.8","524.8","black","legacy","legacy","legacy","0","congruent","uniform","1","undefined","1","s","44","0","0","0","0","44","0","44","0","0","0","44","44","44","44","44","Mon Sep 21 13:32:25 2020","1500","The main experiment item","yes","FlankerTask.osexp","/Applications/OpenSesame.app/Contents/Resources/share/opensesame_resources","no","mono","no","18","no","white","no","yes","768","legacy","44","44","/Applications/OpenSesame.app/Contents/Resources/share/opensesame_resources/th-subject-4.csv","legacy","Lentiform Loewenfeld","3.3.3","0","s","s","NA","NA","NA","s","521","46191","NA","NA","NA","521","2","legacy","1024","2","48000","-16","experiment","SSSSS","4","even","151472","27202","73478","NA","NA","128975","27159","NA","NA","NA","NA","152762","153285","152644","152623","152762","Flanker Task","42","23616","45","yes","1024"
"93.47826086956522","93.47826086956522","529.0217391304348","529.0217391304348","black","legacy","legacy","legacy","0","congruent","uniform","1","undefined","1","s","45","0","0","0","0","45","0","45","0","0","0","45","45","45","45","45","Mon Sep 21 13:32:25 2020","1500","The main experiment item","yes","FlankerTask.osexp","/Applications/OpenSesame.app/Contents/Resources/share/opensesame_resources","no","mono","no","18","no","white","no","yes","768","legacy","45","45","/Applications/OpenSesame.app/Contents/Resources/share/opensesame_resources/th-subject-4.csv","legacy","Lentiform Loewenfeld","3.3.3","0","s","s","NA","NA","NA","s","719","46191","NA","NA","NA","719","2","legacy","1024","2","48000","-16","experiment","SSSSS","4","even","153311","27202","73478","NA","NA","128975","27159","NA","NA","NA","NA","154642","155363","154528","154509","154642","Flanker Task","43","24335","46","yes","1024"
"93.61702127659575","93.61702127659575","528.936170212766","528.936170212766","black","legacy","legacy","legacy","0","incongruent","uniform","1","undefined","1","h","46","0","0","0","0","46","0","46","0","0","0","46","46","46","46","46","Mon Sep 21 13:32:25 2020","1500","The main experiment item","yes","FlankerTask.osexp","/Applications/OpenSesame.app/Contents/Resources/share/opensesame_resources","no","mono","no","18","no","white","no","yes","768","legacy","46","46","/Applications/OpenSesame.app/Contents/Resources/share/opensesame_resources/th-subject-4.csv","legacy","Lentiform Loewenfeld","3.3.3","0","h","s","NA","NA","NA","h","525","46191","NA","NA","NA","525","2","legacy","1024","2","48000","-16","experiment","SSHSS","4","even","155377","27202","73478","NA","NA","128975","27159","NA","NA","NA","NA","156613","157142","156490","156467","156613","Flanker Task","44","24860","47","yes","1024"
"91.66666666666667","91.66666666666667","536.375","536.375","black","legacy","legacy","legacy","0","incongruent","uniform","0","undefined","0","h","47","0","0","0","0","47","0","47","0","0","0","47","47","47","47","47","Mon Sep 21 13:32:25 2020","1500","The main experiment item","yes","FlankerTask.osexp","/Applications/OpenSesame.app/Contents/Resources/share/opensesame_resources","no","mono","no","18","no","white","no","yes","768","legacy","47","47","/Applications/OpenSesame.app/Contents/Resources/share/opensesame_resources/th-subject-4.csv","legacy","Lentiform Loewenfeld","3.3.3","0","s","s","NA","NA","NA","s","886","46191","NA","NA","NA","886","2","legacy","1024","2","48000","-16","experiment","SSHSS","4","even","157166","27202","73478","NA","NA","128975","27159","NA","NA","NA","NA","158383","159272","158266","158248","158383","Flanker Task","44","25746","48","yes","1024"
"91.83673469387755","91.83673469387755","537.8367346938776","537.8367346938776","black","legacy","legacy","legacy","0","incongruent","uniform","1","undefined","1","h","48","0","0","0","0","48","0","48","0","0","0","48","48","48","48","48","Mon Sep 21 13:32:25 2020","1500","The main experiment item","yes","FlankerTask.osexp","/Applications/OpenSesame.app/Contents/Resources/share/opensesame_resources","no","mono","no","18","no","white","no","yes","768","legacy","48","48","/Applications/OpenSesame.app/Contents/Resources/share/opensesame_resources/th-subject-4.csv","legacy","Lentiform Loewenfeld","3.3.3","0","h","s","NA","NA","NA","h","608","46191","NA","NA","NA","608","2","legacy","1024","2","48000","-16","experiment","SSHSS","4","even","159811","27202","73478","NA","NA","159289","27159","NA","NA","NA","NA","161516","162131","161277","161249","161515","Flanker Task","45","26354","49","yes","1024"
"92","92","541.54","541.54","black","legacy","legacy","legacy","0","incongruent","uniform","1","undefined","1","h","49","0","0","0","0","49","0","49","0","0","0","49","49","49","49","49","Mon Sep 21 13:32:25 2020","1500","The main experiment item","yes","FlankerTask.osexp","/Applications/OpenSesame.app/Contents/Resources/share/opensesame_resources","no","mono","no","18","no","white","no","yes","768","legacy","49","49","/Applications/OpenSesame.app/Contents/Resources/share/opensesame_resources/th-subject-4.csv","legacy","Lentiform Loewenfeld","3.3.3","0","h","s","NA","NA","NA","h","723","46191","NA","NA","NA","723","2","legacy","1024","2","48000","-16","experiment","SSHSS","4","even","162146","27202","73478","NA","NA","159289","27159","NA","NA","NA","NA","163586","164317","163465","163440","163585","Flanker Task","46","27077","50","yes","1024"
"92.15686274509804","92.15686274509804","541.8039215686274","541.8039215686274","black","legacy","legacy","legacy","0","incongruent","uniform","1","undefined","1","s","50","0","0","0","0","50","0","50","0","0","0","50","50","50","50","50","Mon Sep 21 13:32:25 2020","1500","The main experiment item","yes","FlankerTask.osexp","/Applications/OpenSesame.app/Contents/Resources/share/opensesame_resources","no","mono","no","18","no","white","no","yes","768","legacy","50","50","/Applications/OpenSesame.app/Contents/Resources/share/opensesame_resources/th-subject-4.csv","legacy","Lentiform Loewenfeld","3.3.3","0","s","s","NA","NA","NA","s","555","46191","NA","NA","NA","555","2","legacy","1024","2","48000","-16","experiment","HHSHH","4","even","164396","27202","73478","NA","NA","159289","27159","NA","NA","NA","NA","165622","166180","165507","165493","165622","Flanker Task","47","27632","51","yes","1024"
"92.3076923076923","92.3076923076923","541.3653846153846","541.3653846153846","black","legacy","legacy","legacy","0","congruent","uniform","1","undefined","1","s","51","0","0","0","0","51","0","51","0","0","0","51","51","51","51","51","Mon Sep 21 13:32:25 2020","1500","The main experiment item","yes","FlankerTask.osexp","/Applications/OpenSesame.app/Contents/Resources/share/opensesame_resources","no","mono","no","18","no","white","no","yes","768","legacy","51","51","/Applications/OpenSesame.app/Contents/Resources/share/opensesame_resources/th-subject-4.csv","legacy","Lentiform Loewenfeld","3.3.3","0","s","s","NA","NA","NA","s","519","46191","NA","NA","NA","519","2","legacy","1024","2","48000","-16","experiment","SSSSS","4","even","166194","27202","73478","NA","NA","159289","27159","NA","NA","NA","NA","167386","167907","167274","167262","167386","Flanker Task","48","28151","52","yes","1024"
"92.45283018867924","92.45283018867924","540.5094339622641","540.5094339622641","black","legacy","legacy","legacy","0","incongruent","uniform","1","undefined","1","h","52","0","0","0","0","52","0","52","0","0","0","52","52","52","52","52","Mon Sep 21 13:32:25 2020","1500","The main experiment item","yes","FlankerTask.osexp","/Applications/OpenSesame.app/Contents/Resources/share/opensesame_resources","no","mono","no","18","no","white","no","yes","768","legacy","52","52","/Applications/OpenSesame.app/Contents/Resources/share/opensesame_resources/th-subject-4.csv","legacy","Lentiform Loewenfeld","3.3.3","0","h","s","NA","NA","NA","h","496","46191","NA","NA","NA","496","2","legacy","1024","2","48000","-16","experiment","SSHSS","4","even","167921","27202","73478","NA","NA","159289","27159","NA","NA","NA","NA","169113","169612","169000","168987","169113","Flanker Task","49","28647","53","yes","1024"
"92.5925925925926","92.5925925925926","544.1851851851852","544.1851851851852","black","legacy","legacy","legacy","0","congruent","uniform","1","undefined","1","s","53","0","0","0","0","53","0","53","0","0","0","53","53","53","53","53","Mon Sep 21 13:32:25 2020","1500","The main experiment item","yes","FlankerTask.osexp","/Applications/OpenSesame.app/Contents/Resources/share/opensesame_resources","no","mono","no","18","no","white","no","yes","768","legacy","53","53","/Applications/OpenSesame.app/Contents/Resources/share/opensesame_resources/th-subject-4.csv","legacy","Lentiform Loewenfeld","3.3.3","0","s","s","NA","NA","NA","s","739","46191","NA","NA","NA","739","2","legacy","1024","2","48000","-16","experiment","SSSSS","4","even","169634","27202","73478","NA","NA","159289","27159","NA","NA","NA","NA","170846","171587","170733","170719","170846","Flanker Task","50","29386","54","yes","1024"
"92.72727272727273","92.72727272727273","542.3818181818182","542.3818181818182","black","legacy","legacy","legacy","0","incongruent","uniform","1","undefined","1","h","54","0","0","0","0","54","0","54","0","0","0","54","54","54","54","54","Mon Sep 21 13:32:25 2020","1500","The main experiment item","yes","FlankerTask.osexp","/Applications/OpenSesame.app/Contents/Resources/share/opensesame_resources","no","mono","no","18","no","white","no","yes","768","legacy","54","54","/Applications/OpenSesame.app/Contents/Resources/share/opensesame_resources/th-subject-4.csv","legacy","Lentiform Loewenfeld","3.3.3","0","h","s","NA","NA","NA","h","445","46191","NA","NA","NA","445","2","legacy","1024","2","48000","-16","experiment","SSHSS","4","even","171602","27202","73478","NA","NA","159289","27159","NA","NA","NA","NA","172810","173258","172693","172676","172810","Flanker Task","51","29831","55","yes","1024"
"92.85714285714286","92.85714285714286","542.875","542.875","black","legacy","legacy","legacy","0","incongruent","uniform","1","undefined","1","s","55","0","0","0","0","55","0","55","0","0","0","55","55","55","55","55","Mon Sep 21 13:32:25 2020","1500","The main experiment item","yes","FlankerTask.osexp","/Applications/OpenSesame.app/Contents/Resources/share/opensesame_resources","no","mono","no","18","no","white","no","yes","768","legacy","55","55","/Applications/OpenSesame.app/Contents/Resources/share/opensesame_resources/th-subject-4.csv","legacy","Lentiform Loewenfeld","3.3.3","0","s","s","NA","NA","NA","s","570","46191","NA","NA","NA","570","2","legacy","1024","2","48000","-16","experiment","HHSHH","4","even","173283","27202","73478","NA","NA","159289","27159","NA","NA","NA","NA","174495","175069","174379","174365","174495","Flanker Task","52","30401","56","yes","1024"
"92.98245614035088","92.98245614035088","544.3859649122807","544.3859649122807","black","legacy","legacy","legacy","0","congruent","uniform","1","undefined","1","h","56","0","0","0","0","56","0","56","0","0","0","56","56","56","56","56","Mon Sep 21 13:32:25 2020","1500","The main experiment item","yes","FlankerTask.osexp","/Applications/OpenSesame.app/Contents/Resources/share/opensesame_resources","no","mono","no","18","no","white","no","yes","768","legacy","56","56","/Applications/OpenSesame.app/Contents/Resources/share/opensesame_resources/th-subject-4.csv","legacy","Lentiform Loewenfeld","3.3.3","0","h","s","NA","NA","NA","h","629","46191","NA","NA","NA","629","2","legacy","1024","2","48000","-16","experiment","HHHHH","4","even","175084","27202","73478","NA","NA","159289","27159","NA","NA","NA","NA","176292","176923","176180","176165","176292","Flanker Task","53","31030","57","yes","1024"
"93.10344827586206","93.10344827586206","546.4827586206897","546.4827586206897","black","legacy","legacy","legacy","0","congruent","uniform","1","undefined","1","h","57","0","0","0","0","57","0","57","0","0","0","57","57","57","57","57","Mon Sep 21 13:32:25 2020","1500","The main experiment item","yes","FlankerTask.osexp","/Applications/OpenSesame.app/Contents/Resources/share/opensesame_resources","no","mono","no","18","no","white","no","yes","768","legacy","57","57","/Applications/OpenSesame.app/Contents/Resources/share/opensesame_resources/th-subject-4.csv","legacy","Lentiform Loewenfeld","3.3.3","0","h","s","NA","NA","NA","h","666","46191","NA","NA","NA","666","2","legacy","1024","2","48000","-16","experiment","HHHHH","4","even","176936","27202","73478","NA","NA","159289","27159","NA","NA","NA","NA","178127","178795","178015","178002","178127","Flanker Task","54","31696","58","yes","1024"
"93.22033898305085","93.22033898305085","546.1355932203389","546.1355932203389","black","legacy","legacy","legacy","0","incongruent","uniform","1","undefined","1","s","58","0","0","0","0","58","0","58","0","0","0","58","58","58","58","58","Mon Sep 21 13:32:25 2020","1500","The main experiment item","yes","FlankerTask.osexp","/Applications/OpenSesame.app/Contents/Resources/share/opensesame_resources","no","mono","no","18","no","white","no","yes","768","legacy","58","58","/Applications/OpenSesame.app/Contents/Resources/share/opensesame_resources/th-subject-4.csv","legacy","Lentiform Loewenfeld","3.3.3","0","s","s","NA","NA","NA","s","526","46191","NA","NA","NA","526","2","legacy","1024","2","48000","-16","experiment","HHSHH","4","even","178809","27202","73478","NA","NA","159289","27159","NA","NA","NA","NA","180028","180558","179913","179898","180028","Flanker Task","55","32222","59","yes","1024"
"93.33333333333333","93.33333333333333","546.3833333333333","546.3833333333333","black","legacy","legacy","legacy","0","congruent","uniform","1","undefined","1","h","59","0","0","0","0","59","0","59","0","0","0","59","59","59","59","59","Mon Sep 21 13:32:25 2020","1500","The main experiment item","yes","FlankerTask.osexp","/Applications/OpenSesame.app/Contents/Resources/share/opensesame_resources","no","mono","no","18","no","white","no","yes","768","legacy","59","59","/Applications/OpenSesame.app/Contents/Resources/share/opensesame_resources/th-subject-4.csv","legacy","Lentiform Loewenfeld","3.3.3","0","h","s","NA","NA","NA","h","561","46191","NA","NA","NA","561","2","legacy","1024","2","48000","-16","experiment","HHHHH","4","even","180596","27202","73478","NA","NA","159289","27159","NA","NA","NA","NA","181808","182372","181687","181668","181808","Flanker Task","56","32783","60","yes","1024"
"93.44262295081967","93.44262295081967","547.8196721311475","547.8196721311475","black","legacy","legacy","legacy","0","congruent","uniform","1","undefined","1","h","60","0","0","0","0","60","0","60","0","0","0","60","60","60","60","60","Mon Sep 21 13:32:25 2020","1500","The main experiment item","yes","FlankerTask.osexp","/Applications/OpenSesame.app/Contents/Resources/share/opensesame_resources","no","mono","no","18","no","white","no","yes","768","legacy","60","60","/Applications/OpenSesame.app/Contents/Resources/share/opensesame_resources/th-subject-4.csv","legacy","Lentiform Loewenfeld","3.3.3","0","h","s","NA","NA","NA","h","634","46191","NA","NA","NA","634","2","legacy","1024","2","48000","-16","experiment","HHHHH","4","even","182390","27202","73478","NA","NA","159289","27159","NA","NA","NA","NA","183607","184243","183491","183472","183607","Flanker Task","57","33417","61","yes","1024"
"93.54838709677419","93.54838709677419","546.6774193548387","546.6774193548387","black","legacy","legacy","legacy","0","congruent","uniform","1","undefined","1","s","61","0","0","0","0","61","0","61","0","0","0","61","61","61","61","61","Mon Sep 21 13:32:25 2020","1500","The main experiment item","yes","FlankerTask.osexp","/Applications/OpenSesame.app/Contents/Resources/share/opensesame_resources","no","mono","no","18","no","white","no","yes","768","legacy","61","61","/Applications/OpenSesame.app/Contents/Resources/share/opensesame_resources/th-subject-4.csv","legacy","Lentiform Loewenfeld","3.3.3","0","s","s","NA","NA","NA","s","477","46191","NA","NA","NA","477","2","legacy","1024","2","48000","-16","experiment","SSSSS","4","even","184279","27202","73478","NA","NA","159289","27159","NA","NA","NA","NA","185485","185966","185372","185357","185485","Flanker Task","58","33894","62","yes","1024"
"93.65079365079364","93.65079365079364","545.4285714285714","545.4285714285714","black","legacy","legacy","legacy","0","congruent","uniform","1","undefined","1","s","62","0","0","0","0","62","0","62","0","0","0","62","62","62","62","62","Mon Sep 21 13:32:25 2020","1500","The main experiment item","yes","FlankerTask.osexp","/Applications/OpenSesame.app/Contents/Resources/share/opensesame_resources","no","mono","no","18","no","white","no","yes","768","legacy","62","62","/Applications/OpenSesame.app/Contents/Resources/share/opensesame_resources/th-subject-4.csv","legacy","Lentiform Loewenfeld","3.3.3","0","s","s","NA","NA","NA","s","468","46191","NA","NA","NA","468","2","legacy","1024","2","48000","-16","experiment","SSSSS","4","even","185981","27202","73478","NA","NA","159289","27159","NA","NA","NA","NA","187173","187643","187060","187047","187173","Flanker Task","59","34362","63","yes","1024"
"92.1875","92.1875","544.828125","544.828125","black","legacy","legacy","legacy","0","incongruent","uniform","0","undefined","0","s","63","0","0","0","0","63","0","63","0","0","0","63","63","63","63","63","Mon Sep 21 13:32:25 2020","1500","The main experiment item","yes","FlankerTask.osexp","/Applications/OpenSesame.app/Contents/Resources/share/opensesame_resources","no","mono","no","18","no","white","no","yes","768","legacy","63","63","/Applications/OpenSesame.app/Contents/Resources/share/opensesame_resources/th-subject-4.csv","legacy","Lentiform Loewenfeld","3.3.3","0","h","s","NA","NA","NA","h","507","46191","NA","NA","NA","507","2","legacy","1024","2","48000","-16","experiment","HHSHH","4","even","187667","27202","73478","NA","NA","159289","27159","NA","NA","NA","NA","188878","189387","188764","188746","188877","Flanker Task","59","34869","64","yes","1024"
"92.3076923076923","92.3076923076923","543.2615384615384","543.2615384615384","black","legacy","legacy","legacy","0","congruent","uniform","1","undefined","1","h","64","0","0","0","0","64","0","64","0","0","0","64","64","64","64","64","Mon Sep 21 13:32:25 2020","1500","The main experiment item","yes","FlankerTask.osexp","/Applications/OpenSesame.app/Contents/Resources/share/opensesame_resources","no","mono","no","18","no","white","no","yes","768","legacy","64","64","/Applications/OpenSesame.app/Contents/Resources/share/opensesame_resources/th-subject-4.csv","legacy","Lentiform Loewenfeld","3.3.3","0","h","s","NA","NA","NA","h","443","46191","NA","NA","NA","443","2","legacy","1024","2","48000","-16","experiment","HHHHH","4","even","189917","27202","73478","NA","NA","189400","27159","NA","NA","NA","NA","191133","191579","191019","191004","191133","Flanker Task","60","35312","65","yes","1024"
"92.42424242424242","92.42424242424242","542.0757575757576","542.0757575757576","black","legacy","legacy","legacy","0","congruent","uniform","1","undefined","1","h","65","0","0","0","0","65","0","65","0","0","0","65","65","65","65","65","Mon Sep 21 13:32:25 2020","1500","The main experiment item","yes","FlankerTask.osexp","/Applications/OpenSesame.app/Contents/Resources/share/opensesame_resources","no","mono","no","18","no","white","no","yes","768","legacy","65","65","/Applications/OpenSesame.app/Contents/Resources/share/opensesame_resources/th-subject-4.csv","legacy","Lentiform Loewenfeld","3.3.3","0","h","s","NA","NA","NA","h","465","46191","NA","NA","NA","465","2","legacy","1024","2","48000","-16","experiment","HHHHH","4","even","191601","27202","73478","NA","NA","189400","27159","NA","NA","NA","NA","192808","193275","192690","192672","192808","Flanker Task","61","35777","66","yes","1024"
"92.53731343283582","92.53731343283582","540.820895522388","540.820895522388","black","legacy","legacy","legacy","0","incongruent","uniform","1","undefined","1","h","66","0","0","0","0","66","0","66","0","0","0","66","66","66","66","66","Mon Sep 21 13:32:25 2020","1500","The main experiment item","yes","FlankerTask.osexp","/Applications/OpenSesame.app/Contents/Resources/share/opensesame_resources","no","mono","no","18","no","white","no","yes","768","legacy","66","66","/Applications/OpenSesame.app/Contents/Resources/share/opensesame_resources/th-subject-4.csv","legacy","Lentiform Loewenfeld","3.3.3","0","h","s","NA","NA","NA","h","458","46191","NA","NA","NA","458","2","legacy","1024","2","48000","-16","experiment","SSHSS","4","even","193290","27202","73478","NA","NA","189400","27159","NA","NA","NA","NA","194486","194946","194370","194358","194486","Flanker Task","62","36235","67","yes","1024"
"92.6470588235294","92.6470588235294","539.5","539.5","black","legacy","legacy","legacy","0","congruent","uniform","1","undefined","1","h","67","0","0","0","0","67","0","67","0","0","0","67","67","67","67","67","Mon Sep 21 13:32:25 2020","1500","The main experiment item","yes","FlankerTask.osexp","/Applications/OpenSesame.app/Contents/Resources/share/opensesame_resources","no","mono","no","18","no","white","no","yes","768","legacy","67","67","/Applications/OpenSesame.app/Contents/Resources/share/opensesame_resources/th-subject-4.csv","legacy","Lentiform Loewenfeld","3.3.3","0","h","s","NA","NA","NA","h","451","46191","NA","NA","NA","451","2","legacy","1024","2","48000","-16","experiment","HHHHH","4","even","194969","27202","73478","NA","NA","189400","27159","NA","NA","NA","NA","196165","196618","196052","196039","196165","Flanker Task","63","36686","68","yes","1024"
"92.7536231884058","92.7536231884058","544.2753623188406","544.2753623188406","black","legacy","legacy","legacy","0","incongruent","uniform","1","undefined","1","h","68","0","0","0","0","68","0","68","0","0","0","68","68","68","68","68","Mon Sep 21 13:32:25 2020","1500","The main experiment item","yes","FlankerTask.osexp","/Applications/OpenSesame.app/Contents/Resources/share/opensesame_resources","no","mono","no","18","no","white","no","yes","768","legacy","68","68","/Applications/OpenSesame.app/Contents/Resources/share/opensesame_resources/th-subject-4.csv","legacy","Lentiform Loewenfeld","3.3.3","0","h","s","NA","NA","NA","h","869","46191","NA","NA","NA","869","2","legacy","1024","2","48000","-16","experiment","SSHSS","4","even","196634","27202","73478","NA","NA","189400","27159","NA","NA","NA","NA","197865","198737","197747","197728","197865","Flanker Task","64","37555","69","yes","1024"
"92.85714285714286","92.85714285714286","545.2571428571429","545.2571428571429","black","legacy","legacy","legacy","0","incongruent","uniform","1","undefined","1","s","69","0","0","0","0","69","0","69","0","0","0","69","69","69","69","69","Mon Sep 21 13:32:25 2020","1500","The main experiment item","yes","FlankerTask.osexp","/Applications/OpenSesame.app/Contents/Resources/share/opensesame_resources","no","mono","no","18","no","white","no","yes","768","legacy","69","69","/Applications/OpenSesame.app/Contents/Resources/share/opensesame_resources/th-subject-4.csv","legacy","Lentiform Loewenfeld","3.3.3","0","s","s","NA","NA","NA","s","613","46191","NA","NA","NA","613","2","legacy","1024","2","48000","-16","experiment","HHSHH","4","even","198763","27202","73478","NA","NA","189400","27159","NA","NA","NA","NA","199964","200579","199852","199836","199964","Flanker Task","65","38168","70","yes","1024"
"92.95774647887323","92.95774647887323","547.6197183098592","547.6197183098592","black","legacy","legacy","legacy","0","incongruent","uniform","1","undefined","1","h","70","0","0","0","0","70","0","70","0","0","0","70","70","70","70","70","Mon Sep 21 13:32:25 2020","1500","The main experiment item","yes","FlankerTask.osexp","/Applications/OpenSesame.app/Contents/Resources/share/opensesame_resources","no","mono","no","18","no","white","no","yes","768","legacy","70","70","/Applications/OpenSesame.app/Contents/Resources/share/opensesame_resources/th-subject-4.csv","legacy","Lentiform Loewenfeld","3.3.3","0","h","s","NA","NA","NA","h","713","46191","NA","NA","NA","713","2","legacy","1024","2","48000","-16","experiment","SSHSS","4","even","200593","27202","73478","NA","NA","189400","27159","NA","NA","NA","NA","201792","202508","201679","201658","201792","Flanker Task","66","38881","71","yes","1024"
"93.05555555555556","93.05555555555556","547.75","547.75","black","legacy","legacy","legacy","0","congruent","uniform","1","undefined","1","s","71","0","0","0","0","71","0","71","0","0","0","71","71","71","71","71","Mon Sep 21 13:32:25 2020","1500","The main experiment item","yes","FlankerTask.osexp","/Applications/OpenSesame.app/Contents/Resources/share/opensesame_resources","no","mono","no","18","no","white","no","yes","768","legacy","71","71","/Applications/OpenSesame.app/Contents/Resources/share/opensesame_resources/th-subject-4.csv","legacy","Lentiform Loewenfeld","3.3.3","0","s","s","NA","NA","NA","s","557","46191","NA","NA","NA","557","2","legacy","1024","2","48000","-16","experiment","SSSSS","4","even","202527","27202","73478","NA","NA","189400","27159","NA","NA","NA","NA","203723","204282","203609","203597","203723","Flanker Task","67","39438","72","yes","1024"
"93.15068493150685","93.15068493150685","547.9041095890411","547.9041095890411","black","legacy","legacy","legacy","0","incongruent","uniform","1","undefined","1","s","72","0","0","0","0","72","0","72","0","0","0","72","72","72","72","72","Mon Sep 21 13:32:25 2020","1500","The main experiment item","yes","FlankerTask.osexp","/Applications/OpenSesame.app/Contents/Resources/share/opensesame_resources","no","mono","no","18","no","white","no","yes","768","legacy","72","72","/Applications/OpenSesame.app/Contents/Resources/share/opensesame_resources/th-subject-4.csv","legacy","Lentiform Loewenfeld","3.3.3","0","s","s","NA","NA","NA","s","559","46191","NA","NA","NA","559","2","legacy","1024","2","48000","-16","experiment","HHSHH","4","even","204297","27202","73478","NA","NA","189400","27159","NA","NA","NA","NA","205505","206066","205391","205372","205505","Flanker Task","68","39997","73","yes","1024"
"93.24324324324324","93.24324324324324","547.4054054054054","547.4054054054054","black","legacy","legacy","legacy","0","incongruent","uniform","1","undefined","1","h","73","0","0","0","0","73","0","73","0","0","0","73","73","73","73","73","Mon Sep 21 13:32:25 2020","1500","The main experiment item","yes","FlankerTask.osexp","/Applications/OpenSesame.app/Contents/Resources/share/opensesame_resources","no","mono","no","18","no","white","no","yes","768","legacy","73","73","/Applications/OpenSesame.app/Contents/Resources/share/opensesame_resources/th-subject-4.csv","legacy","Lentiform Loewenfeld","3.3.3","0","h","s","NA","NA","NA","h","511","46191","NA","NA","NA","511","2","legacy","1024","2","48000","-16","experiment","SSHSS","4","even","206092","27202","73478","NA","NA","189400","27159","NA","NA","NA","NA","207289","207803","207173","207158","207289","Flanker Task","69","40508","74","yes","1024"
"93.33333333333333","93.33333333333333","548.1466666666666","548.1466666666666","black","legacy","legacy","legacy","0","incongruent","uniform","1","undefined","1","s","74","0","0","0","0","74","0","74","0","0","0","74","74","74","74","74","Mon Sep 21 13:32:25 2020","1500","The main experiment item","yes","FlankerTask.osexp","/Applications/OpenSesame.app/Contents/Resources/share/opensesame_resources","no","mono","no","18","no","white","no","yes","768","legacy","74","74","/Applications/OpenSesame.app/Contents/Resources/share/opensesame_resources/th-subject-4.csv","legacy","Lentiform Loewenfeld","3.3.3","0","s","s","NA","NA","NA","s","603","46191","NA","NA","NA","603","2","legacy","1024","2","48000","-16","experiment","HHSHH","4","even","207825","27202","73478","NA","NA","189400","27159","NA","NA","NA","NA","209021","209626","208908","208895","209021","Flanker Task","70","41111","75","yes","1024"
"93.42105263157895","93.42105263157895","546.671052631579","546.671052631579","black","legacy","legacy","legacy","0","congruent","uniform","1","undefined","1","s","75","0","0","0","0","75","0","75","0","0","0","75","75","75","75","75","Mon Sep 21 13:32:25 2020","1500","The main experiment item","yes","FlankerTask.osexp","/Applications/OpenSesame.app/Contents/Resources/share/opensesame_resources","no","mono","no","18","no","white","no","yes","768","legacy","75","75","/Applications/OpenSesame.app/Contents/Resources/share/opensesame_resources/th-subject-4.csv","legacy","Lentiform Loewenfeld","3.3.3","0","s","s","NA","NA","NA","s","436","46191","NA","NA","NA","436","2","legacy","1024","2","48000","-16","experiment","SSSSS","4","even","209640","27202","73478","NA","NA","189400","27159","NA","NA","NA","NA","210836","211274","210723","210706","210836","Flanker Task","71","41547","76","yes","1024"
"93.50649350649351","93.50649350649351","549.8051948051948","549.8051948051948","black","legacy","legacy","legacy","0","incongruent","uniform","1","undefined","1","s","76","0","0","0","0","76","0","76","0","0","0","76","76","76","76","76","Mon Sep 21 13:32:25 2020","1500","The main experiment item","yes","FlankerTask.osexp","/Applications/OpenSesame.app/Contents/Resources/share/opensesame_resources","no","mono","no","18","no","white","no","yes","768","legacy","76","76","/Applications/OpenSesame.app/Contents/Resources/share/opensesame_resources/th-subject-4.csv","legacy","Lentiform Loewenfeld","3.3.3","0","s","s","NA","NA","NA","s","788","46191","NA","NA","NA","788","2","legacy","1024","2","48000","-16","experiment","HHSHH","4","even","211298","27202","73478","NA","NA","189400","27159","NA","NA","NA","NA","212500","213290","212385","212368","212500","Flanker Task","72","42335","77","yes","1024"
"93.58974358974359","93.58974358974359","551.4230769230769","551.4230769230769","black","legacy","legacy","legacy","0","congruent","uniform","1","undefined","1","h","77","0","0","0","0","77","0","77","0","0","0","77","77","77","77","77","Mon Sep 21 13:32:25 2020","1500","The main experiment item","yes","FlankerTask.osexp","/Applications/OpenSesame.app/Contents/Resources/share/opensesame_resources","no","mono","no","18","no","white","no","yes","768","legacy","77","77","/Applications/OpenSesame.app/Contents/Resources/share/opensesame_resources/th-subject-4.csv","legacy","Lentiform Loewenfeld","3.3.3","0","h","s","NA","NA","NA","h","676","46191","NA","NA","NA","676","2","legacy","1024","2","48000","-16","experiment","HHHHH","4","even","213317","27202","73478","NA","NA","189400","27159","NA","NA","NA","NA","214508","215187","214395","214383","214507","Flanker Task","73","43011","78","yes","1024"
"93.67088607594937","93.67088607594937","550.4683544303797","550.4683544303797","black","legacy","legacy","legacy","0","incongruent","uniform","1","undefined","1","s","78","0","0","0","0","78","0","78","0","0","0","78","78","78","78","78","Mon Sep 21 13:32:25 2020","1500","The main experiment item","yes","FlankerTask.osexp","/Applications/OpenSesame.app/Contents/Resources/share/opensesame_resources","no","mono","no","18","no","white","no","yes","768","legacy","78","78","/Applications/OpenSesame.app/Contents/Resources/share/opensesame_resources/th-subject-4.csv","legacy","Lentiform Loewenfeld","3.3.3","0","s","s","NA","NA","NA","s","476","46191","NA","NA","NA","476","2","legacy","1024","2","48000","-16","experiment","HHSHH","4","even","215201","27202","73478","NA","NA","189400","27159","NA","NA","NA","NA","216396","216874","216284","216271","216396","Flanker Task","74","43487","79","yes","1024"
"93.75","93.75","553.8625","553.8625","black","legacy","legacy","legacy","0","incongruent","uniform","1","undefined","1","s","79","0","0","0","0","79","0","79","0","0","0","79","79","79","79","79","Mon Sep 21 13:32:25 2020","1500","The main experiment item","yes","FlankerTask.osexp","/Applications/OpenSesame.app/Contents/Resources/share/opensesame_resources","no","mono","no","18","no","white","no","yes","768","legacy","79","79","/Applications/OpenSesame.app/Contents/Resources/share/opensesame_resources/th-subject-4.csv","legacy","Lentiform Loewenfeld","3.3.3","0","s","s","NA","NA","NA","s","822","46191","NA","NA","NA","822","2","legacy","1024","2","48000","-16","experiment","HHSHH","4","even","216896","27202","73478","NA","NA","189400","27159","NA","NA","NA","NA","218090","218914","217977","217963","218090","Flanker Task","75","44309","80","yes","1024"
"93.82716049382717","93.82716049382717","552.679012345679","552.679012345679","black","legacy","legacy","legacy","0","incongruent","uniform","1","undefined","1","s","80","0","0","0","0","80","0","80","0","0","0","80","80","80","80","80","Mon Sep 21 13:32:25 2020","600","The main experiment item","yes","FlankerTask.osexp","/Applications/OpenSesame.app/Contents/Resources/share/opensesame_resources","no","mono","no","18","no","white","no","yes","768","legacy","0","79","/Applications/OpenSesame.app/Contents/Resources/share/opensesame_resources/th-subject-4.csv","legacy","Lentiform Loewenfeld","3.3.3","0","s","s","NA","s","NA","s","458","46191","NA","11410","NA","458","2","legacy","1024","2","48000","-16","experiment","HHSHH","4","even","218933","27202","73478","231397","NA","189400","27159","NA","NA","219980","NA","231601","232061","231489","231472","231601","Flanker Task","76","44767","81","yes","1024"
"93.90243902439025","93.90243902439025","551.6341463414634","551.6341463414634","black","legacy","legacy","legacy","0","incongruent","uniform","1","undefined","1","h","81","0","0","0","0","81","0","81","0","0","0","81","81","81","81","81","Mon Sep 21 13:32:25 2020","600","The main experiment item","yes","FlankerTask.osexp","/Applications/OpenSesame.app/Contents/Resources/share/opensesame_resources","no","mono","no","18","no","white","no","yes","768","legacy","1","79","/Applications/OpenSesame.app/Contents/Resources/share/opensesame_resources/th-subject-4.csv","legacy","Lentiform Loewenfeld","3.3.3","0","h","s","NA","s","NA","h","467","46191","NA","11410","NA","467","2","legacy","1024","2","48000","-16","experiment","SSHSS","4","even","232076","27202","73478","231397","NA","189400","27159","NA","NA","219980","NA","233279","233749","233165","233152","233279","Flanker Task","77","45234","82","yes","1024"
"93.97590361445783","93.97590361445783","551.156626506024","551.156626506024","black","legacy","legacy","legacy","0","incongruent","uniform","1","undefined","1","h","82","0","0","0","0","82","0","82","0","0","0","82","82","82","82","82","Mon Sep 21 13:32:25 2020","600","The main experiment item","yes","FlankerTask.osexp","/Applications/OpenSesame.app/Contents/Resources/share/opensesame_resources","no","mono","no","18","no","white","no","yes","768","legacy","2","79","/Applications/OpenSesame.app/Contents/Resources/share/opensesame_resources/th-subject-4.csv","legacy","Lentiform Loewenfeld","3.3.3","0","h","s","NA","s","NA","h","512","46191","NA","11410","NA","512","2","legacy","1024","2","48000","-16","experiment","SSHSS","4","even","233767","27202","73478","231397","NA","189400","27159","NA","NA","219980","NA","234995","235509","234882","234867","234995","Flanker Task","78","45746","83","yes","1024"
"94.04761904761905","94.04761904761905","549.6428571428571","549.6428571428571","black","legacy","legacy","legacy","0","congruent","uniform","1","undefined","1","h","83","0","0","0","0","83","0","83","0","0","0","83","83","83","83","83","Mon Sep 21 13:32:25 2020","600","The main experiment item","yes","FlankerTask.osexp","/Applications/OpenSesame.app/Contents/Resources/share/opensesame_resources","no","mono","no","18","no","white","no","yes","768","legacy","3","79","/Applications/OpenSesame.app/Contents/Resources/share/opensesame_resources/th-subject-4.csv","legacy","Lentiform Loewenfeld","3.3.3","0","h","s","NA","s","NA","h","424","46191","NA","11410","NA","424","2","legacy","1024","2","48000","-16","experiment","HHHHH","4","even","235524","27202","73478","231397","NA","189400","27159","NA","NA","219980","NA","236715","237141","236603","236590","236715","Flanker Task","79","46170","84","yes","1024"
"94.11764705882354","94.11764705882354","548.0941176470589","548.0941176470589","black","legacy","legacy","legacy","0","congruent","uniform","1","undefined","1","h","84","0","0","0","0","84","0","84","0","0","0","84","84","84","84","84","Mon Sep 21 13:32:25 2020","600","The main experiment item","yes","FlankerTask.osexp","/Applications/OpenSesame.app/Contents/Resources/share/opensesame_resources","no","mono","no","18","no","white","no","yes","768","legacy","4","79","/Applications/OpenSesame.app/Contents/Resources/share/opensesame_resources/th-subject-4.csv","legacy","Lentiform Loewenfeld","3.3.3","0","h","s","NA","s","NA","h","418","46191","NA","11410","NA","418","2","legacy","1024","2","48000","-16","experiment","HHHHH","4","even","237163","27202","73478","231397","NA","189400","27159","NA","NA","219980","NA","238353","238774","238241","238229","238353","Flanker Task","80","46588","85","yes","1024"
"94.18604651162791","94.18604651162791","546.953488372093","546.953488372093","black","legacy","legacy","legacy","0","congruent","uniform","1","undefined","1","h","85","0","0","0","0","85","0","85","0","0","0","85","85","85","85","85","Mon Sep 21 13:32:25 2020","600","The main experiment item","yes","FlankerTask.osexp","/Applications/OpenSesame.app/Contents/Resources/share/opensesame_resources","no","mono","no","18","no","white","no","yes","768","legacy","5","79","/Applications/OpenSesame.app/Contents/Resources/share/opensesame_resources/th-subject-4.csv","legacy","Lentiform Loewenfeld","3.3.3","0","h","s","NA","s","NA","h","450","46191","NA","11410","NA","450","2","legacy","1024","2","48000","-16","experiment","HHHHH","4","even","238792","27202","73478","231397","NA","189400","27159","NA","NA","219980","NA","239985","240437","239872","239858","239985","Flanker Task","81","47038","86","yes","1024"
"94.25287356321839","94.25287356321839","545.0919540229885","545.0919540229885","black","legacy","legacy","legacy","0","incongruent","uniform","1","undefined","1","h","86","0","0","0","0","86","0","86","0","0","0","86","86","86","86","86","Mon Sep 21 13:32:25 2020","600","The main experiment item","yes","FlankerTask.osexp","/Applications/OpenSesame.app/Contents/Resources/share/opensesame_resources","no","mono","no","18","no","white","no","yes","768","legacy","6","79","/Applications/OpenSesame.app/Contents/Resources/share/opensesame_resources/th-subject-4.csv","legacy","Lentiform Loewenfeld","3.3.3","0","h","s","NA","s","NA","h","385","46191","NA","11410","NA","385","2","legacy","1024","2","48000","-16","experiment","SSHSS","4","even","240459","27202","73478","231397","NA","189400","27159","NA","NA","219980","NA","241658","242045","241545","241531","241657","Flanker Task","82","47423","87","yes","1024"
"94.31818181818181","94.31818181818181","544.6931818181819","544.6931818181819","black","legacy","legacy","legacy","0","incongruent","uniform","1","undefined","1","s","87","0","0","0","0","87","0","87","0","0","0","87","87","87","87","87","Mon Sep 21 13:32:25 2020","600","The main experiment item","yes","FlankerTask.osexp","/Applications/OpenSesame.app/Contents/Resources/share/opensesame_resources","no","mono","no","18","no","white","no","yes","768","legacy","7","79","/Applications/OpenSesame.app/Contents/Resources/share/opensesame_resources/th-subject-4.csv","legacy","Lentiform Loewenfeld","3.3.3","0","s","s","NA","s","NA","s","510","46191","NA","11410","NA","510","2","legacy","1024","2","48000","-16","experiment","HHSHH","4","even","242070","27202","73478","231397","NA","189400","27159","NA","NA","219980","NA","243285","243797","243170","243150","243285","Flanker Task","83","47933","88","yes","1024"
"94.38202247191012","94.38202247191012","543.4606741573034","543.4606741573034","black","legacy","legacy","legacy","0","congruent","uniform","1","undefined","1","h","88","0","0","0","0","88","0","88","0","0","0","88","88","88","88","88","Mon Sep 21 13:32:25 2020","600","The main experiment item","yes","FlankerTask.osexp","/Applications/OpenSesame.app/Contents/Resources/share/opensesame_resources","no","mono","no","18","no","white","no","yes","768","legacy","8","79","/Applications/OpenSesame.app/Contents/Resources/share/opensesame_resources/th-subject-4.csv","legacy","Lentiform Loewenfeld","3.3.3","0","h","s","NA","s","NA","h","435","46191","NA","11410","NA","435","2","legacy","1024","2","48000","-16","experiment","HHHHH","4","even","243812","27202","73478","231397","NA","189400","27159","NA","NA","219980","NA","245016","245453","244901","244882","245015","Flanker Task","84","48368","89","yes","1024"
"94.44444444444444","94.44444444444444","542.5333333333333","542.5333333333333","black","legacy","legacy","legacy","0","incongruent","uniform","1","undefined","1","s","89","0","0","0","0","89","0","89","0","0","0","89","89","89","89","89","Mon Sep 21 13:32:25 2020","600","The main experiment item","yes","FlankerTask.osexp","/Applications/OpenSesame.app/Contents/Resources/share/opensesame_resources","no","mono","no","18","no","white","no","yes","768","legacy","9","79","/Applications/OpenSesame.app/Contents/Resources/share/opensesame_resources/th-subject-4.csv","legacy","Lentiform Loewenfeld","3.3.3","0","s","s","NA","s","NA","s","460","46191","NA","11410","NA","460","2","legacy","1024","2","48000","-16","experiment","HHSHH","4","even","245475","27202","73478","231397","NA","189400","27159","NA","NA","219980","NA","246671","247133","246557","246545","246670","Flanker Task","85","48828","90","yes","1024"
"93.4065934065934","93.4065934065934","542.1758241758242","542.1758241758242","black","legacy","legacy","legacy","0","incongruent","uniform","0","undefined","0","h","90","0","0","0","0","90","0","90","0","0","0","90","90","90","90","90","Mon Sep 21 13:32:25 2020","600","The main experiment item","yes","FlankerTask.osexp","/Applications/OpenSesame.app/Contents/Resources/share/opensesame_resources","no","mono","no","18","no","white","no","yes","768","legacy","10","79","/Applications/OpenSesame.app/Contents/Resources/share/opensesame_resources/th-subject-4.csv","legacy","Lentiform Loewenfeld","3.3.3","0","s","s","NA","s","NA","s","510","46191","NA","11410","NA","510","2","legacy","1024","2","48000","-16","experiment","SSHSS","4","even","247154","27202","73478","231397","NA","189400","27159","NA","NA","219980","NA","248349","248861","248236","248221","248349","Flanker Task","85","49338","91","yes","1024"
"93.47826086956522","93.47826086956522","542.1521739130435","542.1521739130435","black","legacy","legacy","legacy","0","incongruent","uniform","1","undefined","1","s","91","0","0","0","0","91","0","91","0","0","0","91","91","91","91","91","Mon Sep 21 13:32:25 2020","600","The main experiment item","yes","FlankerTask.osexp","/Applications/OpenSesame.app/Contents/Resources/share/opensesame_resources","no","mono","no","18","no","white","no","yes","768","legacy","11","79","/Applications/OpenSesame.app/Contents/Resources/share/opensesame_resources/th-subject-4.csv","legacy","Lentiform Loewenfeld","3.3.3","0","s","s","NA","s","NA","s","540","46191","NA","11410","NA","540","2","legacy","1024","2","48000","-16","experiment","HHSHH","4","even","249393","27202","73478","231397","NA","248881","27159","NA","NA","219980","NA","250607","251149","250494","250475","250606","Flanker Task","86","49878","92","yes","1024"
"93.54838709677419","93.54838709677419","541.5806451612904","541.5806451612904","black","legacy","legacy","legacy","0","congruent","uniform","1","undefined","1","s","92","0","0","0","0","92","0","92","0","0","0","92","92","92","92","92","Mon Sep 21 13:32:25 2020","600","The main experiment item","yes","FlankerTask.osexp","/Applications/OpenSesame.app/Contents/Resources/share/opensesame_resources","no","mono","no","18","no","white","no","yes","768","legacy","12","79","/Applications/OpenSesame.app/Contents/Resources/share/opensesame_resources/th-subject-4.csv","legacy","Lentiform Loewenfeld","3.3.3","0","s","s","NA","s","NA","s","489","46191","NA","11410","NA","489","2","legacy","1024","2","48000","-16","experiment","SSSSS","4","even","251164","27202","73478","231397","NA","248881","27159","NA","NA","219980","NA","252353","252845","252241","252229","252353","Flanker Task","87","50367","93","yes","1024"
"93.61702127659575","93.61702127659575","540","540","black","legacy","legacy","legacy","0","congruent","uniform","1","undefined","1","s","93","0","0","0","0","93","0","93","0","0","0","93","93","93","93","93","Mon Sep 21 13:32:25 2020","600","The main experiment item","yes","FlankerTask.osexp","/Applications/OpenSesame.app/Contents/Resources/share/opensesame_resources","no","mono","no","18","no","white","no","yes","768","legacy","13","79","/Applications/OpenSesame.app/Contents/Resources/share/opensesame_resources/th-subject-4.csv","legacy","Lentiform Loewenfeld","3.3.3","0","s","s","NA","s","NA","s","393","46191","NA","11410","NA","393","2","legacy","1024","2","48000","-16","experiment","SSSSS","4","even","252858","27202","73478","231397","NA","248881","27159","NA","NA","219980","NA","254049","254445","253937","253923","254049","Flanker Task","88","50760","94","yes","1024"
"93.6842105263158","93.6842105263158","539.7684210526315","539.7684210526315","black","legacy","legacy","legacy","0","incongruent","uniform","1","undefined","1","s","94","0","0","0","0","94","0","94","0","0","0","94","94","94","94","94","Mon Sep 21 13:32:25 2020","600","The main experiment item","yes","FlankerTask.osexp","/Applications/OpenSesame.app/Contents/Resources/share/opensesame_resources","no","mono","no","18","no","white","no","yes","768","legacy","14","79","/Applications/OpenSesame.app/Contents/Resources/share/opensesame_resources/th-subject-4.csv","legacy","Lentiform Loewenfeld","3.3.3","0","s","s","NA","s","NA","s","518","46191","NA","11410","NA","518","2","legacy","1024","2","48000","-16","experiment","HHSHH","4","even","254464","27202","73478","231397","NA","248881","27159","NA","NA","219980","NA","255660","256181","255548","255531","255660","Flanker Task","89","51278","95","yes","1024"
"93.75","93.75","538.53125","538.53125","black","legacy","legacy","legacy","0","congruent","uniform","1","undefined","1","s","95","0","0","0","0","95","0","95","0","0","0","95","95","95","95","95","Mon Sep 21 13:32:25 2020","600","The main experiment item","yes","FlankerTask.osexp","/Applications/OpenSesame.app/Contents/Resources/share/opensesame_resources","no","mono","no","18","no","white","no","yes","768","legacy","15","79","/Applications/OpenSesame.app/Contents/Resources/share/opensesame_resources/th-subject-4.csv","legacy","Lentiform Loewenfeld","3.3.3","0","s","s","NA","s","NA","s","421","46191","NA","11410","NA","421","2","legacy","1024","2","48000","-16","experiment","SSSSS","4","even","256207","27202","73478","231397","NA","248881","27159","NA","NA","219980","NA","257399","257824","257287","257273","257399","Flanker Task","90","51699","96","yes","1024"
"93.81443298969072","93.81443298969072","537.1649484536083","537.1649484536083","black","legacy","legacy","legacy","0","congruent","uniform","1","undefined","1","s","96","0","0","0","0","96","0","96","0","0","0","96","96","96","96","96","Mon Sep 21 13:32:25 2020","600","The main experiment item","yes","FlankerTask.osexp","/Applications/OpenSesame.app/Contents/Resources/share/opensesame_resources","no","mono","no","18","no","white","no","yes","768","legacy","16","79","/Applications/OpenSesame.app/Contents/Resources/share/opensesame_resources/th-subject-4.csv","legacy","Lentiform Loewenfeld","3.3.3","0","s","s","NA","s","NA","s","406","46191","NA","11410","NA","406","2","legacy","1024","2","48000","-16","experiment","SSSSS","4","even","257843","27202","73478","231397","NA","248881","27159","NA","NA","219980","NA","259036","259444","258921","258908","259036","Flanker Task","91","52105","97","yes","1024"
"93.87755102040816","93.87755102040816","536.3877551020408","536.3877551020408","black","legacy","legacy","legacy","0","congruent","uniform","1","undefined","1","s","97","0","0","0","0","97","0","97","0","0","0","97","97","97","97","97","Mon Sep 21 13:32:25 2020","600","The main experiment item","yes","FlankerTask.osexp","/Applications/OpenSesame.app/Contents/Resources/share/opensesame_resources","no","mono","no","18","no","white","no","yes","768","legacy","17","79","/Applications/OpenSesame.app/Contents/Resources/share/opensesame_resources/th-subject-4.csv","legacy","Lentiform Loewenfeld","3.3.3","0","s","s","NA","s","NA","s","461","46191","NA","11410","NA","461","2","legacy","1024","2","48000","-16","experiment","SSSSS","4","even","259467","27202","73478","231397","NA","248881","27159","NA","NA","219980","NA","260661","261125","260548","260536","260661","Flanker Task","92","52566","98","yes","1024"
"93.93939393939394","93.93939393939394","536.0808080808081","536.0808080808081","black","legacy","legacy","legacy","0","incongruent","uniform","1","undefined","1","h","98","0","0","0","0","98","0","98","0","0","0","98","98","98","98","98","Mon Sep 21 13:32:25 2020","600","The main experiment item","yes","FlankerTask.osexp","/Applications/OpenSesame.app/Contents/Resources/share/opensesame_resources","no","mono","no","18","no","white","no","yes","768","legacy","18","79","/Applications/OpenSesame.app/Contents/Resources/share/opensesame_resources/th-subject-4.csv","legacy","Lentiform Loewenfeld","3.3.3","0","h","s","NA","s","NA","h","506","46191","NA","11410","NA","506","2","legacy","1024","2","48000","-16","experiment","SSHSS","4","even","261148","27202","73478","231397","NA","248881","27159","NA","NA","219980","NA","262344","262853","262230","262215","262344","Flanker Task","93","53072","99","yes","1024"
"94","94","535.16","535.16","black","legacy","legacy","legacy","0","congruent","uniform","1","undefined","1","s","99","0","0","0","0","99","0","99","0","0","0","99","99","99","99","99","Mon Sep 21 13:32:25 2020","600","The main experiment item","yes","FlankerTask.osexp","/Applications/OpenSesame.app/Contents/Resources/share/opensesame_resources","no","mono","no","18","no","white","no","yes","768","legacy","19","79","/Applications/OpenSesame.app/Contents/Resources/share/opensesame_resources/th-subject-4.csv","legacy","Lentiform Loewenfeld","3.3.3","0","s","s","NA","s","NA","s","444","46191","NA","11410","NA","444","2","legacy","1024","2","48000","-16","experiment","SSSSS","4","even","262873","27202","73478","231397","NA","248881","27159","NA","NA","219980","NA","264070","264518","263957","263939","264070","Flanker Task","94","53516","100","yes","1024"
"94.05940594059406","94.05940594059406","534.3267326732673","534.3267326732673","black","legacy","legacy","legacy","0","congruent","uniform","1","undefined","1","s","100","0","0","0","0","100","0","100","0","0","0","100","100","100","100","100","Mon Sep 21 13:32:25 2020","600","The main experiment item","yes","FlankerTask.osexp","/Applications/OpenSesame.app/Contents/Resources/share/opensesame_resources","no","mono","no","18","no","white","no","yes","768","legacy","20","79","/Applications/OpenSesame.app/Contents/Resources/share/opensesame_resources/th-subject-4.csv","legacy","Lentiform Loewenfeld","3.3.3","0","s","s","NA","s","NA","s","451","46191","NA","11410","NA","451","2","legacy","1024","2","48000","-16","experiment","SSSSS","4","even","264536","27202","73478","231397","NA","248881","27159","NA","NA","219980","NA","265727","266180","265615","265602","265727","Flanker Task","95","53967","101","yes","1024"
"94.11764705882354","94.11764705882354","534.1862745098039","534.1862745098039","black","legacy","legacy","legacy","0","congruent","uniform","1","undefined","1","h","101","0","0","0","0","101","0","101","0","0","0","101","101","101","101","101","Mon Sep 21 13:32:25 2020","600","The main experiment item","yes","FlankerTask.osexp","/Applications/OpenSesame.app/Contents/Resources/share/opensesame_resources","no","mono","no","18","no","white","no","yes","768","legacy","21","79","/Applications/OpenSesame.app/Contents/Resources/share/opensesame_resources/th-subject-4.csv","legacy","Lentiform Loewenfeld","3.3.3","0","h","s","NA","s","NA","h","520","46191","NA","11410","NA","520","2","legacy","1024","2","48000","-16","experiment","HHHHH","4","even","266200","27202","73478","231397","NA","248881","27159","NA","NA","219980","NA","267394","267916","267281","267268","267393","Flanker Task","96","54487","102","yes","1024"
"94.1747572815534","94.1747572815534","533.7087378640776","533.7087378640776","black","legacy","legacy","legacy","0","congruent","uniform","1","undefined","1","h","102","0","0","0","0","102","0","102","0","0","0","102","102","102","102","102","Mon Sep 21 13:32:25 2020","600","The main experiment item","yes","FlankerTask.osexp","/Applications/OpenSesame.app/Contents/Resources/share/opensesame_resources","no","mono","no","18","no","white","no","yes","768","legacy","22","79","/Applications/OpenSesame.app/Contents/Resources/share/opensesame_resources/th-subject-4.csv","legacy","Lentiform Loewenfeld","3.3.3","0","h","s","NA","s","NA","h","485","46191","NA","11410","NA","485","2","legacy","1024","2","48000","-16","experiment","HHHHH","4","even","267940","27202","73478","231397","NA","248881","27159","NA","NA","219980","NA","269133","269620","269020","269008","269133","Flanker Task","97","54972","103","yes","1024"
"94.23076923076923","94.23076923076923","533.6826923076923","533.6826923076923","black","legacy","legacy","legacy","0","incongruent","uniform","1","undefined","1","s","103","0","0","0","0","103","0","103","0","0","0","103","103","103","103","103","Mon Sep 21 13:32:25 2020","600","The main experiment item","yes","FlankerTask.osexp","/Applications/OpenSesame.app/Contents/Resources/share/opensesame_resources","no","mono","no","18","no","white","no","yes","768","legacy","23","79","/Applications/OpenSesame.app/Contents/Resources/share/opensesame_resources/th-subject-4.csv","legacy","Lentiform Loewenfeld","3.3.3","0","s","s","NA","s","NA","s","531","46191","NA","11410","NA","531","2","legacy","1024","2","48000","-16","experiment","HHSHH","4","even","269643","27202","73478","231397","NA","248881","27159","NA","NA","219980","NA","270839","271372","270723","270709","270839","Flanker Task","98","55503","104","yes","1024"
"94.28571428571429","94.28571428571429","532.7714285714286","532.7714285714286","black","legacy","legacy","legacy","0","congruent","uniform","1","undefined","1","h","104","0","0","0","0","104","0","104","0","0","0","104","104","104","104","104","Mon Sep 21 13:32:25 2020","600","The main experiment item","yes","FlankerTask.osexp","/Applications/OpenSesame.app/Contents/Resources/share/opensesame_resources","no","mono","no","18","no","white","no","yes","768","legacy","24","79","/Applications/OpenSesame.app/Contents/Resources/share/opensesame_resources/th-subject-4.csv","legacy","Lentiform Loewenfeld","3.3.3","0","h","s","NA","s","NA","h","438","46191","NA","11410","NA","438","2","legacy","1024","2","48000","-16","experiment","HHHHH","4","even","271395","27202","73478","231397","NA","248881","27159","NA","NA","219980","NA","272604","273044","272486","272469","272604","Flanker Task","99","55941","105","yes","1024"
"94.33962264150944","94.33962264150944","532.6603773584906","532.6603773584906","black","legacy","legacy","legacy","0","incongruent","uniform","1","undefined","1","h","105","0","0","0","0","105","0","105","0","0","0","105","105","105","105","105","Mon Sep 21 13:32:25 2020","600","The main experiment item","yes","FlankerTask.osexp","/Applications/OpenSesame.app/Contents/Resources/share/opensesame_resources","no","mono","no","18","no","white","no","yes","768","legacy","25","79","/Applications/OpenSesame.app/Contents/Resources/share/opensesame_resources/th-subject-4.csv","legacy","Lentiform Loewenfeld","3.3.3","0","h","s","NA","s","NA","h","521","46191","NA","11410","NA","521","2","legacy","1024","2","48000","-16","experiment","SSHSS","4","even","273071","27202","73478","231397","NA","248881","27159","NA","NA","219980","NA","274273","274797","274161","274144","274273","Flanker Task","100","56462","106","yes","1024"
"94.39252336448598","94.39252336448598","532.3084112149533","532.3084112149533","black","legacy","legacy","legacy","0","incongruent","uniform","1","undefined","1","s","106","0","0","0","0","106","0","106","0","0","0","106","106","106","106","106","Mon Sep 21 13:32:25 2020","600","The main experiment item","yes","FlankerTask.osexp","/Applications/OpenSesame.app/Contents/Resources/share/opensesame_resources","no","mono","no","18","no","white","no","yes","768","legacy","26","79","/Applications/OpenSesame.app/Contents/Resources/share/opensesame_resources/th-subject-4.csv","legacy","Lentiform Loewenfeld","3.3.3","0","s","s","NA","s","NA","s","495","46191","NA","11410","NA","495","2","legacy","1024","2","48000","-16","experiment","HHSHH","4","even","274821","27202","73478","231397","NA","248881","27159","NA","NA","219980","NA","276011","276508","275899","275887","276011","Flanker Task","101","56957","107","yes","1024"
"94.44444444444444","94.44444444444444","532.0648148148148","532.0648148148148","black","legacy","legacy","legacy","0","incongruent","uniform","1","undefined","1","h","107","0","0","0","0","107","0","107","0","0","0","107","107","107","107","107","Mon Sep 21 13:32:25 2020","600","The main experiment item","yes","FlankerTask.osexp","/Applications/OpenSesame.app/Contents/Resources/share/opensesame_resources","no","mono","no","18","no","white","no","yes","768","legacy","27","79","/Applications/OpenSesame.app/Contents/Resources/share/opensesame_resources/th-subject-4.csv","legacy","Lentiform Loewenfeld","3.3.3","0","h","s","NA","s","NA","h","506","46191","NA","11410","NA","506","2","legacy","1024","2","48000","-16","experiment","SSHSS","4","even","276530","27202","73478","231397","NA","248881","27159","NA","NA","219980","NA","277720","278228","277608","277595","277720","Flanker Task","102","57463","108","yes","1024"
"94.4954128440367","94.4954128440367","531.0091743119266","531.0091743119266","black","legacy","legacy","legacy","0","congruent","uniform","1","undefined","1","h","108","0","0","0","0","108","0","108","0","0","0","108","108","108","108","108","Mon Sep 21 13:32:25 2020","600","The main experiment item","yes","FlankerTask.osexp","/Applications/OpenSesame.app/Contents/Resources/share/opensesame_resources","no","mono","no","18","no","white","no","yes","768","legacy","28","79","/Applications/OpenSesame.app/Contents/Resources/share/opensesame_resources/th-subject-4.csv","legacy","Lentiform Loewenfeld","3.3.3","0","h","s","NA","s","NA","h","417","46191","NA","11410","NA","417","2","legacy","1024","2","48000","-16","experiment","HHHHH","4","even","278255","27202","73478","231397","NA","248881","27159","NA","NA","219980","NA","279449","279868","279334","279321","279448","Flanker Task","103","57880","109","yes","1024"
