condition,acc,accuracy,average_response_time,avg_rt,background,canvas_backend,clock_backend,color_backend,compensation,coordinates,correct,correct_instructions1,correct_keyboard_response,correct_response,count_Instructions2,count_block1,count_block2,count_block3,count_errorfeedback,count_experiment,count_faster,count_finish,count_fixation,count_instructions1,count_instructions3,count_isi,count_keyboard_response,count_logger,count_sequence,count_stimulus,datetime,deadline,description,disable_garbage_collection,experiment_file,experiment_path,font_bold,font_family,font_italic,font_size,font_underline,foreground,form_clicks,fullscreen,height,keyboard_backend,live_row,live_row_block1,logfile,mouse_backend,opensesame_codename,opensesame_version,repeat_cycle,response,response_Instructions2,response_finish,response_instructions1,response_instructions3,response_keyboard_response,response_time,response_time_Instructions2,response_time_finish,response_time_instructions1,response_time_instructions3,response_time_keyboard_response,round_decimals,sampler_backend,sound_buf_size,sound_channels,sound_freq,sound_sample_size,start,stimulus,subject_nr,subject_parity,time_Instructions2,time_block1,time_block2,time_block3,time_errorfeedback,time_experiment,time_faster,time_finish,time_fixation,time_instructions1,time_instructions3,time_isi,time_keyboard_response,time_logger,time_sequence,time_stimulus,title,total_correct,total_response_time,total_responses,uniform_coordinates,width
incongruent,0,0,791.543027,791.543027,black,psycho,psycho,psycho,0,uniform,0,undefined,0,s,0,0,0,0,0,0,0,0,0,0,0,0,0,0,0,0,Mon Sep 21 13:48:25 2020,1500,The main experiment item,yes,FlankerTask.osexp,/Users/tforestmoore/Desktop,no,mono,no,18,no,white,no,yes,768,psycho,0,0,/Users/tforestmoore/Desktop/tm-subject-2.csv,psycho,Lentiform Loewenfeld,3.3.3,0,h,NA,NA,s,NA,h,791.543027,NA,NA,705.306739,NA,791.543027,2,psycho,1024,2,48000,-16,experiment,HHSHH,2,even,NA,5575.226101,NA,NA,NA,4791.558732,NA,NA,5691.475356,4841.560828,NA,NA,5807.907181,6601.339317,5665.00212,5807.580734,Flanker Task,0,791.543027,1,yes,1024
congruent,50,50,587.92418,587.92418,black,psycho,psycho,psycho,0,uniform,1,undefined,1,h,0,0,0,0,1,0,1,0,1,0,0,1,1,1,1,1,Mon Sep 21 13:48:25 2020,1500,The main experiment item,yes,FlankerTask.osexp,/Users/tforestmoore/Desktop,no,mono,no,18,no,white,no,yes,768,psycho,1,1,/Users/tforestmoore/Desktop/tm-subject-2.csv,psycho,Lentiform Loewenfeld,3.3.3,0,h,NA,NA,s,NA,h,384.305333,NA,NA,705.306739,NA,384.305333,2,psycho,1024,2,48000,-16,experiment,HHHHH,2,even,NA,5575.226101,NA,NA,6628.342658,4791.558732,NA,NA,8259.544146,4841.560828,NA,7142.838105,8377.313169,8767.331233,8242.202906,8376.225103,Flanker Task,1,1175.84836,2,yes,1024
incongruent,66.66666667,66.66666667,540.8498633,540.8498633,black,psycho,psycho,psycho,0,uniform,1,undefined,1,s,0,0,0,0,2,0,2,0,2,0,0,2,2,2,2,2,Mon Sep 21 13:48:25 2020,1500,The main experiment item,yes,FlankerTask.osexp,/Users/tforestmoore/Desktop,no,mono,no,18,no,white,no,yes,768,psycho,2,2,/Users/tforestmoore/Desktop/tm-subject-2.csv,psycho,Lentiform Loewenfeld,3.3.3,0,s,NA,NA,s,NA,s,446.70123,NA,NA,705.306739,NA,446.70123,2,psycho,1024,2,48000,-16,experiment,HHSHH,2,even,NA,5575.226101,NA,NA,6628.342658,4791.558732,NA,NA,9892.864422,4841.560828,NA,8776.032898,10010.69939,10459.22915,9881.883558,10009.55819,Flanker Task,2,1622.54959,3,yes,1024
incongruent,75,75,496.9031865,496.9031865,black,psycho,psycho,psycho,0,uniform,1,undefined,1,h,0,0,0,0,3,0,3,0,3,0,0,3,3,3,3,3,Mon Sep 21 13:48:25 2020,1500,The main experiment item,yes,FlankerTask.osexp,/Users/tforestmoore/Desktop,no,mono,no,18,no,white,no,yes,768,psycho,3,3,/Users/tforestmoore/Desktop/tm-subject-2.csv,psycho,Lentiform Loewenfeld,3.3.3,0,h,NA,NA,s,NA,h,365.063156,NA,NA,705.306739,NA,365.063156,2,psycho,1024,2,48000,-16,experiment,SSHSS,2,even,NA,5575.226101,NA,NA,6628.342658,4791.558732,NA,NA,11592.7947,4841.560828,NA,10476.08007,11710.82427,12077.6959,11582.79988,11709.63127,Flanker Task,3,1987.612746,4,yes,1024
congruent,80,80,484.7036172,484.7036172,black,psycho,psycho,psycho,0,uniform,1,undefined,1,h,0,0,0,0,4,0,4,0,4,0,0,4,4,4,4,4,Mon Sep 21 13:48:25 2020,1500,The main experiment item,yes,FlankerTask.osexp,/Users/tforestmoore/Desktop,no,mono,no,18,no,white,no,yes,768,psycho,4,4,/Users/tforestmoore/Desktop/tm-subject-2.csv,psycho,Lentiform Loewenfeld,3.3.3,0,h,NA,NA,s,NA,h,435.90534,NA,NA,705.306739,NA,435.90534,2,psycho,1024,2,48000,-16,experiment,HHHHH,2,even,NA,5575.226101,NA,NA,6628.342658,4791.558732,NA,NA,13209.74976,4841.560828,NA,12092.87813,13327.25641,13765.19088,13198.66766,13326.15822,Flanker Task,4,2423.518086,5,yes,1024
congruent,83.33333333,83.33333333,492.6818613,492.6818613,black,psycho,psycho,psycho,0,uniform,1,undefined,1,s,0,0,0,0,5,0,5,0,5,0,0,5,5,5,5,5,Mon Sep 21 13:48:25 2020,1500,The main experiment item,yes,FlankerTask.osexp,/Users/tforestmoore/Desktop,no,mono,no,18,no,white,no,yes,768,psycho,5,5,/Users/tforestmoore/Desktop/tm-subject-2.csv,psycho,Lentiform Loewenfeld,3.3.3,0,s,NA,NA,s,NA,s,532.573082,NA,NA,705.306739,NA,532.573082,2,psycho,1024,2,48000,-16,experiment,SSSSS,2,even,NA,5575.226101,NA,NA,6628.342658,4791.558732,NA,NA,14892.78042,4841.560828,NA,13776.0887,15010.63596,15545.12477,14881.57819,15009.48223,Flanker Task,5,2956.091168,6,yes,1024
congruent,85.71428571,85.71428571,503.7335157,503.7335157,black,psycho,psycho,psycho,0,uniform,1,undefined,1,h,0,0,0,0,6,0,6,0,6,0,0,6,6,6,6,6,Mon Sep 21 13:48:25 2020,1500,The main experiment item,yes,FlankerTask.osexp,/Users/tforestmoore/Desktop,no,mono,no,18,no,white,no,yes,768,psycho,6,6,/Users/tforestmoore/Desktop/tm-subject-2.csv,psycho,Lentiform Loewenfeld,3.3.3,0,h,NA,NA,s,NA,h,570.043442,NA,NA,705.306739,NA,570.043442,2,psycho,1024,2,48000,-16,experiment,HHHHH,2,even,NA,5575.226101,NA,NA,6628.342658,4791.558732,NA,NA,16709.43589,4841.560828,NA,15559.47921,16827.24778,17399.33277,16691.93092,16826.21964,Flanker Task,6,3526.13461,7,yes,1024
congruent,87.5,87.5,538.5809065,538.5809065,black,psycho,psycho,psycho,0,uniform,1,undefined,1,h,0,0,0,0,7,0,7,0,7,0,0,7,7,7,7,7,Mon Sep 21 13:48:25 2020,1500,The main experiment item,yes,FlankerTask.osexp,/Users/tforestmoore/Desktop,no,mono,no,18,no,white,no,yes,768,psycho,7,7,/Users/tforestmoore/Desktop/tm-subject-2.csv,psycho,Lentiform Loewenfeld,3.3.3,0,h,NA,NA,s,NA,h,782.512642,NA,NA,705.306739,NA,782.512642,2,psycho,1024,2,48000,-16,experiment,HHHHH,2,even,NA,5575.226101,NA,NA,6628.342658,4791.558732,NA,NA,18526.08027,4841.560828,NA,17409.27402,18642.67033,19427.32165,18513.10433,18642.28491,Flanker Task,7,4308.647252,8,yes,1024
congruent,88.88888889,88.88888889,519.8301268,519.8301268,black,psycho,psycho,psycho,0,uniform,1,undefined,1,s,0,0,0,0,8,0,8,0,8,0,0,8,8,8,8,8,Mon Sep 21 13:48:25 2020,1500,The main experiment item,yes,FlankerTask.osexp,/Users/tforestmoore/Desktop,no,mono,no,18,no,white,no,yes,768,psycho,8,8,/Users/tforestmoore/Desktop/tm-subject-2.csv,psycho,Lentiform Loewenfeld,3.3.3,0,s,NA,NA,s,NA,s,369.823889,NA,NA,705.306739,NA,369.823889,2,psycho,1024,2,48000,-16,experiment,SSSSS,2,even,NA,5575.226101,NA,NA,6628.342658,4791.558732,NA,NA,20559.34665,4841.560828,NA,19442.71417,20677.169,21048.89273,20547.2343,20676.00142,Flanker Task,8,4678.471141,9,yes,1024
congruent,90,90,508.5695455,508.5695455,black,psycho,psycho,psycho,0,uniform,1,undefined,1,s,0,0,0,0,9,0,9,0,9,0,0,9,9,9,9,9,Mon Sep 21 13:48:25 2020,1500,The main experiment item,yes,FlankerTask.osexp,/Users/tforestmoore/Desktop,no,mono,no,18,no,white,no,yes,768,psycho,9,9,/Users/tforestmoore/Desktop/tm-subject-2.csv,psycho,Lentiform Loewenfeld,3.3.3,0,s,NA,NA,s,NA,s,407.224314,NA,NA,705.306739,NA,407.224314,2,psycho,1024,2,48000,-16,experiment,SSSSS,2,even,NA,5575.226101,NA,NA,6628.342658,4791.558732,NA,NA,22176.12554,4841.560828,NA,21059.54018,22293.86804,22703.02757,22165.28774,22292.73602,Flanker Task,9,5085.695455,10,yes,1024
congruent,90.90909091,90.90909091,498.6454773,498.6454773,black,psycho,psycho,psycho,0,uniform,1,undefined,1,s,0,0,0,0,10,0,10,0,10,0,0,10,10,10,10,10,Mon Sep 21 13:48:25 2020,1500,The main experiment item,yes,FlankerTask.osexp,/Users/tforestmoore/Desktop,no,mono,no,18,no,white,no,yes,768,psycho,10,10,/Users/tforestmoore/Desktop/tm-subject-2.csv,psycho,Lentiform Loewenfeld,3.3.3,0,s,NA,NA,s,NA,s,399.404795,NA,NA,705.306739,NA,399.404795,2,psycho,1024,2,48000,-16,experiment,SSSSS,2,even,NA,5575.226101,NA,NA,6628.342658,4791.558732,NA,NA,23842.64622,4841.560828,NA,22726.58778,23960.51321,24362.38215,23833.28034,23959.39102,Flanker Task,10,5485.10025,11,yes,1024
congruent,91.66666667,91.66666667,495.4335898,495.4335898,black,psycho,psycho,psycho,0,uniform,1,undefined,1,h,0,0,0,0,11,0,11,0,11,0,0,11,11,11,11,11,Mon Sep 21 13:48:25 2020,1500,The main experiment item,yes,FlankerTask.osexp,/Users/tforestmoore/Desktop,no,mono,no,18,no,white,no,yes,768,psycho,11,11,/Users/tforestmoore/Desktop/tm-subject-2.csv,psycho,Lentiform Loewenfeld,3.3.3,0,h,NA,NA,s,NA,h,460.102828,NA,NA,705.306739,NA,460.102828,2,psycho,1024,2,48000,-16,experiment,HHHHH,2,even,NA,5575.226101,NA,NA,6628.342658,4791.558732,NA,NA,25476.0793,4841.560828,NA,24375.74333,25593.87532,26056.08115,25465.92064,25592.77194,Flanker Task,11,5945.203078,12,yes,1024
congruent,92.30769231,92.30769231,495.2141155,495.2141155,black,psycho,psycho,psycho,0,uniform,1,undefined,1,h,0,0,0,0,12,0,12,0,12,0,0,12,12,12,12,12,Mon Sep 21 13:48:25 2020,1500,The main experiment item,yes,FlankerTask.osexp,/Users/tforestmoore/Desktop,no,mono,no,18,no,white,no,yes,768,psycho,12,12,/Users/tforestmoore/Desktop/tm-subject-2.csv,psycho,Lentiform Loewenfeld,3.3.3,0,h,NA,NA,s,NA,h,492.580423,NA,NA,705.306739,NA,492.580423,2,psycho,1024,2,48000,-16,experiment,HHHHH,2,even,NA,5575.226101,NA,NA,6628.342658,4791.558732,NA,NA,27192.62973,4841.560828,NA,26076.11142,27310.44617,27804.9938,27183.15236,27309.34152,Flanker Task,12,6437.783501,13,yes,1024
incongruent,92.85714286,92.85714286,492.2370146,492.2370146,black,psycho,psycho,psycho,0,uniform,1,undefined,1,h,0,0,0,0,13,0,13,0,13,0,0,13,13,13,13,13,Mon Sep 21 13:48:25 2020,1500,The main experiment item,yes,FlankerTask.osexp,/Users/tforestmoore/Desktop,no,mono,no,18,no,white,no,yes,768,psycho,13,13,/Users/tforestmoore/Desktop/tm-subject-2.csv,psycho,Lentiform Loewenfeld,3.3.3,0,h,NA,NA,s,NA,h,453.534704,NA,NA,705.306739,NA,453.534704,2,psycho,1024,2,48000,-16,experiment,SSHSS,2,even,NA,5575.226101,NA,NA,6628.342658,4791.558732,NA,NA,28942.71037,4841.560828,NA,27826.85933,29060.39328,29515.95475,28931.13068,29059.2978,Flanker Task,13,6891.318205,14,yes,1024
incongruent,93.33333333,93.33333333,487.5070299,487.5070299,black,psycho,psycho,psycho,0,uniform,1,undefined,1,h,0,0,0,0,14,0,14,0,14,0,0,14,14,14,14,14,Mon Sep 21 13:48:25 2020,1500,The main experiment item,yes,FlankerTask.osexp,/Users/tforestmoore/Desktop,no,mono,no,18,no,white,no,yes,768,psycho,14,14,/Users/tforestmoore/Desktop/tm-subject-2.csv,psycho,Lentiform Loewenfeld,3.3.3,0,h,NA,NA,s,NA,h,421.287244,NA,NA,705.306739,NA,421.287244,2,psycho,1024,2,48000,-16,experiment,SSHSS,2,even,NA,5575.226101,NA,NA,6628.342658,4791.558732,NA,NA,30642.61315,4841.560828,NA,29526.24207,30759.71345,31183.14252,30632.04336,30759.03402,Flanker Task,14,7312.605449,15,yes,1024
incongruent,93.75,93.75,489.3668866,489.3668866,black,psycho,psycho,psycho,0,uniform,1,undefined,1,s,0,0,0,0,15,0,15,0,15,0,0,15,15,15,15,15,Mon Sep 21 13:48:25 2020,1500,The main experiment item,yes,FlankerTask.osexp,/Users/tforestmoore/Desktop,no,mono,no,18,no,white,no,yes,768,psycho,15,15,/Users/tforestmoore/Desktop/tm-subject-2.csv,psycho,Lentiform Loewenfeld,3.3.3,0,s,NA,NA,s,NA,s,517.264737,NA,NA,705.306739,NA,517.264737,2,psycho,1024,2,48000,-16,experiment,HHSHH,2,even,NA,5575.226101,NA,NA,6628.342658,4791.558732,NA,NA,32309.22759,4841.560828,NA,31192.52215,32427.64388,32947.39514,32297.48859,32426.45504,Flanker Task,15,7829.870186,16,yes,1024
congruent,94.11764706,94.11764706,494.3398596,494.3398596,black,psycho,psycho,psycho,0,uniform,1,undefined,1,s,0,0,0,0,16,0,16,0,16,0,0,16,16,16,16,16,Mon Sep 21 13:48:25 2020,1500,The main experiment item,yes,FlankerTask.osexp,/Users/tforestmoore/Desktop,no,mono,no,18,no,white,no,yes,768,psycho,16,16,/Users/tforestmoore/Desktop/tm-subject-2.csv,psycho,Lentiform Loewenfeld,3.3.3,0,s,NA,NA,s,NA,s,573.907428,NA,NA,705.306739,NA,573.907428,2,psycho,1024,2,48000,-16,experiment,SSSSS,2,even,NA,5575.226101,NA,NA,6628.342658,4791.558732,NA,NA,34075.94819,4841.560828,NA,32959.07388,34192.89237,34768.81257,34064.40277,34192.22354,Flanker Task,16,8403.777614,17,yes,1024
incongruent,94.44444444,94.44444444,495.0712519,495.0712519,black,psycho,psycho,psycho,0,uniform,1,undefined,1,s,0,0,0,0,17,0,17,0,17,0,0,17,17,17,17,17,Mon Sep 21 13:48:25 2020,1500,The main experiment item,yes,FlankerTask.osexp,/Users/tforestmoore/Desktop,no,mono,no,18,no,white,no,yes,768,psycho,17,17,/Users/tforestmoore/Desktop/tm-subject-2.csv,psycho,Lentiform Loewenfeld,3.3.3,0,s,NA,NA,s,NA,s,507.504921,NA,NA,705.306739,NA,507.504921,2,psycho,1024,2,48000,-16,experiment,HHSHH,2,even,NA,5575.226101,NA,NA,6628.342658,4791.558732,NA,NA,35910.19675,4841.560828,NA,34792.65803,36026.54417,36536.82531,35897.76643,36025.96779,Flanker Task,17,8911.282535,18,yes,1024
congruent,94.73684211,94.73684211,523.5998813,523.5998813,black,psycho,psycho,psycho,0,uniform,1,undefined,1,s,0,0,0,0,18,0,18,0,18,0,0,18,18,18,18,18,Mon Sep 21 13:48:25 2020,1500,The main experiment item,yes,FlankerTask.osexp,/Users/tforestmoore/Desktop,no,mono,no,18,no,white,no,yes,768,psycho,18,18,/Users/tforestmoore/Desktop/tm-subject-2.csv,psycho,Lentiform Loewenfeld,3.3.3,0,s,NA,NA,s,NA,s,1037.11521,NA,NA,705.306739,NA,1037.11521,2,psycho,1024,2,48000,-16,experiment,SSSSS,2,even,NA,5575.226101,NA,NA,6628.342658,4791.558732,NA,NA,37675.90679,4841.560828,NA,36558.91446,37793.55352,38832.74578,37664.16671,37792.42737,Flanker Task,18,9948.397745,19,yes,1024
congruent,95,95,525.740499,525.740499,black,psycho,psycho,psycho,0,uniform,1,undefined,1,h,0,0,0,0,19,0,19,0,19,0,0,19,19,19,19,19,Mon Sep 21 13:48:25 2020,1500,The main experiment item,yes,FlankerTask.osexp,/Users/tforestmoore/Desktop,no,mono,no,18,no,white,no,yes,768,psycho,19,19,/Users/tforestmoore/Desktop/tm-subject-2.csv,psycho,Lentiform Loewenfeld,3.3.3,0,h,NA,NA,s,NA,h,566.412236,NA,NA,705.306739,NA,566.412236,2,psycho,1024,2,48000,-16,experiment,HHHHH,2,even,NA,5575.226101,NA,NA,6628.342658,4791.558732,NA,NA,39942.1789,4841.560828,NA,38842.29392,40060.24537,40628.51672,39934.1367,40059.11129,Flanker Task,19,10514.80998,20,yes,1024
incongruent,95.23809524,95.23809524,526.748593,526.748593,black,psycho,psycho,psycho,0,uniform,1,undefined,1,h,0,0,0,0,20,0,20,0,20,0,0,20,20,20,20,20,Mon Sep 21 13:48:25 2020,1500,The main experiment item,yes,FlankerTask.osexp,/Users/tforestmoore/Desktop,no,mono,no,18,no,white,no,yes,768,psycho,20,20,/Users/tforestmoore/Desktop/tm-subject-2.csv,psycho,Lentiform Loewenfeld,3.3.3,0,h,NA,NA,s,NA,h,546.910471,NA,NA,705.306739,NA,546.910471,2,psycho,1024,2,48000,-16,experiment,SSHSS,2,even,NA,5575.226101,NA,NA,6628.342658,4791.558732,NA,NA,41759.18809,4841.560828,NA,40642.56481,41876.63246,42425.70858,41748.46512,41875.5919,Flanker Task,20,11061.72045,21,yes,1024
incongruent,95.45454545,95.45454545,530.7859047,530.7859047,black,psycho,psycho,psycho,0,uniform,1,undefined,1,s,0,0,0,0,21,0,21,0,21,0,0,21,21,21,21,21,Mon Sep 21 13:48:25 2020,1500,The main experiment item,yes,FlankerTask.osexp,/Users/tforestmoore/Desktop,no,mono,no,18,no,white,no,yes,768,psycho,21,21,/Users/tforestmoore/Desktop/tm-subject-2.csv,psycho,Lentiform Loewenfeld,3.3.3,0,s,NA,NA,s,NA,s,615.569451,NA,NA,705.306739,NA,615.569451,2,psycho,1024,2,48000,-16,experiment,HHSHH,2,even,NA,5575.226101,NA,NA,6628.342658,4791.558732,NA,NA,43575.84012,4841.560828,NA,42442.29865,43693.47365,44312.07407,43567.70766,43692.6205,Flanker Task,21,11677.2899,22,yes,1024
congruent,95.65217391,95.65217391,524.1460639,524.1460639,black,psycho,psycho,psycho,0,uniform,1,undefined,1,h,0,0,0,0,22,0,22,0,22,0,0,22,22,22,22,22,Mon Sep 21 13:48:25 2020,1500,The main experiment item,yes,FlankerTask.osexp,/Users/tforestmoore/Desktop,no,mono,no,18,no,white,no,yes,768,psycho,22,22,/Users/tforestmoore/Desktop/tm-subject-2.csv,psycho,Lentiform Loewenfeld,3.3.3,0,h,NA,NA,s,NA,h,378.069567,NA,NA,705.306739,NA,378.069567,2,psycho,1024,2,48000,-16,experiment,HHHHH,2,even,NA,5575.226101,NA,NA,6628.342658,4791.558732,NA,NA,45442.47555,4841.560828,NA,44325.65844,45560.44668,45940.4955,45434.74474,45559.21846,Flanker Task,22,12055.35947,23,yes,1024
incongruent,95.83333333,95.83333333,523.3824619,523.3824619,black,psycho,psycho,psycho,0,uniform,1,undefined,1,s,0,0,0,0,23,0,23,0,23,0,0,23,23,23,23,23,Mon Sep 21 13:48:25 2020,1500,The main experiment item,yes,FlankerTask.osexp,/Users/tforestmoore/Desktop,no,mono,no,18,no,white,no,yes,768,psycho,23,23,/Users/tforestmoore/Desktop/tm-subject-2.csv,psycho,Lentiform Loewenfeld,3.3.3,0,s,NA,NA,s,NA,s,505.819616,NA,NA,705.306739,NA,505.819616,2,psycho,1024,2,48000,-16,experiment,HHSHH,2,even,NA,5575.226101,NA,NA,6628.342658,4791.558732,NA,NA,47093.55117,4841.560828,NA,45959.03455,47209.74871,47717.67647,47072.33618,47209.16484,Flanker Task,23,12561.17909,24,yes,1024
congruent,96,96,529.2822198,529.2822198,black,psycho,psycho,psycho,0,uniform,1,undefined,1,s,0,0,0,0,24,0,24,0,24,0,0,24,24,24,24,24,Mon Sep 21 13:48:25 2020,1500,The main experiment item,yes,FlankerTask.osexp,/Users/tforestmoore/Desktop,no,mono,no,18,no,white,no,yes,768,psycho,24,24,/Users/tforestmoore/Desktop/tm-subject-2.csv,psycho,Lentiform Loewenfeld,3.3.3,0,s,NA,NA,s,NA,s,670.876409,NA,NA,705.306739,NA,670.876409,2,psycho,1024,2,48000,-16,experiment,SSSSS,2,even,NA,5575.226101,NA,NA,6628.342658,4791.558732,NA,NA,48842.1943,4841.560828,NA,47726.02897,48959.54151,49632.87998,48832.73684,48958.86816,Flanker Task,24,13232.05549,25,yes,1024
congruent,96.15384615,96.15384615,523.0329443,523.0329443,black,psycho,psycho,psycho,0,uniform,1,undefined,1,h,0,0,0,0,25,0,25,0,25,0,0,25,25,25,25,25,Mon Sep 21 13:48:25 2020,1500,The main experiment item,yes,FlankerTask.osexp,/Users/tforestmoore/Desktop,no,mono,no,18,no,white,no,yes,768,psycho,25,25,/Users/tforestmoore/Desktop/tm-subject-2.csv,psycho,Lentiform Loewenfeld,3.3.3,0,h,NA,NA,s,NA,h,366.801057,NA,NA,705.306739,NA,366.801057,2,psycho,1024,2,48000,-16,experiment,HHHHH,2,even,NA,5575.226101,NA,NA,6628.342658,4791.558732,NA,NA,50759.14131,4841.560828,NA,49642.28949,50876.79762,51245.56451,50747.59134,50875.70853,Flanker Task,25,13598.85655,26,yes,1024
incongruent,96.2962963,96.2962963,519.8156154,519.8156154,black,psycho,psycho,psycho,0,uniform,1,undefined,1,h,0,0,0,0,26,0,26,0,26,0,0,26,26,26,26,26,Mon Sep 21 13:48:25 2020,1500,The main experiment item,yes,FlankerTask.osexp,/Users/tforestmoore/Desktop,no,mono,no,18,no,white,no,yes,768,psycho,26,26,/Users/tforestmoore/Desktop/tm-subject-2.csv,psycho,Lentiform Loewenfeld,3.3.3,0,h,NA,NA,s,NA,h,436.165063,NA,NA,705.306739,NA,436.165063,2,psycho,1024,2,48000,-16,experiment,SSHSS,2,even,NA,5575.226101,NA,NA,6628.342658,4791.558732,NA,NA,52375.48671,4841.560828,NA,51259.08668,52493.16342,52931.62047,52364.2003,52492.4962,Flanker Task,26,14035.02161,27,yes,1024
incongruent,96.42857143,96.42857143,516.4853566,516.4853566,black,psycho,psycho,psycho,0,uniform,1,undefined,1,h,0,0,0,0,27,0,27,0,27,0,0,27,27,27,27,27,Mon Sep 21 13:48:25 2020,1500,The main experiment item,yes,FlankerTask.osexp,/Users/tforestmoore/Desktop,no,mono,no,18,no,white,no,yes,768,psycho,27,27,/Users/tforestmoore/Desktop/tm-subject-2.csv,psycho,Lentiform Loewenfeld,3.3.3,0,h,NA,NA,s,NA,h,426.568369,NA,NA,705.306739,NA,426.568369,2,psycho,1024,2,48000,-16,experiment,SSHSS,2,even,NA,5575.226101,NA,NA,6628.342658,4791.558732,NA,NA,54059.16916,4841.560828,NA,52942.17419,54176.7342,54605.83258,54048.91838,54175.66752,Flanker Task,27,14461.58998,28,yes,1024
congruent,96.55172414,96.55172414,510.6862349,510.6862349,black,psycho,psycho,psycho,0,uniform,1,undefined,1,h,0,0,0,0,28,0,28,0,28,0,0,28,28,28,28,28,Mon Sep 21 13:48:25 2020,1500,The main experiment item,yes,FlankerTask.osexp,/Users/tforestmoore/Desktop,no,mono,no,18,no,white,no,yes,768,psycho,28,28,/Users/tforestmoore/Desktop/tm-subject-2.csv,psycho,Lentiform Loewenfeld,3.3.3,0,h,NA,NA,s,NA,h,348.310828,NA,NA,705.306739,NA,348.310828,2,psycho,1024,2,48000,-16,experiment,HHHHH,2,even,NA,5575.226101,NA,NA,6628.342658,4791.558732,NA,NA,55742.30242,4841.560828,NA,54625.33889,55860.0056,56210.27639,55731.8637,55858.88173,Flanker Task,28,14809.90081,29,yes,1024
congruent,96.66666667,96.66666667,505.5032479,505.5032479,black,psycho,psycho,psycho,0,uniform,1,undefined,1,s,0,0,0,0,29,0,29,0,29,0,0,29,29,29,29,29,Mon Sep 21 13:48:25 2020,1500,The main experiment item,yes,FlankerTask.osexp,/Users/tforestmoore/Desktop,no,mono,no,18,no,white,no,yes,768,psycho,29,29,/Users/tforestmoore/Desktop/tm-subject-2.csv,psycho,Lentiform Loewenfeld,3.3.3,0,s,NA,NA,s,NA,s,355.196625,NA,NA,705.306739,NA,355.196625,2,psycho,1024,2,48000,-16,experiment,SSSSS,2,even,NA,5575.226101,NA,NA,6628.342658,4791.558732,NA,NA,57342.07721,4841.560828,NA,56225.68651,57460.14409,57817.22793,57332.69953,57459.04822,Flanker Task,29,15165.09744,30,yes,1024
congruent,96.77419355,96.77419355,503.9962269,503.9962269,black,psycho,psycho,psycho,0,uniform,1,undefined,1,s,0,0,0,0,30,0,30,0,30,0,0,30,30,30,30,30,Mon Sep 21 13:48:25 2020,1500,The main experiment item,yes,FlankerTask.osexp,/Users/tforestmoore/Desktop,no,mono,no,18,no,white,no,yes,768,psycho,30,30,/Users/tforestmoore/Desktop/tm-subject-2.csv,psycho,Lentiform Loewenfeld,3.3.3,0,s,NA,NA,s,NA,s,458.785596,NA,NA,705.306739,NA,458.785596,2,psycho,1024,2,48000,-16,experiment,SSSSS,2,even,NA,5575.226101,NA,NA,6628.342658,4791.558732,NA,NA,58975.32354,4841.560828,NA,57825.83102,59093.49735,59554.2472,58958.31782,59092.42432,Flanker Task,30,15623.88303,31,yes,1024
congruent,96.875,96.875,500.130436,500.130436,black,psycho,psycho,psycho,0,uniform,1,undefined,1,s,0,0,0,0,31,0,31,0,31,0,0,31,31,31,31,31,Mon Sep 21 13:48:25 2020,1500,The main experiment item,yes,FlankerTask.osexp,/Users/tforestmoore/Desktop,no,mono,no,18,no,white,no,yes,768,psycho,31,31,/Users/tforestmoore/Desktop/tm-subject-2.csv,psycho,Lentiform Loewenfeld,3.3.3,0,s,NA,NA,s,NA,s,380.290918,NA,NA,705.306739,NA,380.290918,2,psycho,1024,2,48000,-16,experiment,SSSSS,2,even,NA,5575.226101,NA,NA,6628.342658,4791.558732,NA,NA,60692.27929,4841.560828,NA,59575.61219,60810.00201,61192.34871,60680.57475,60808.90778,Flanker Task,31,16004.17395,32,yes,1024
congruent,96.96969697,96.96969697,497.1307876,497.1307876,black,psycho,psycho,psycho,0,uniform,1,undefined,1,s,0,0,0,0,32,0,32,0,32,0,0,32,32,32,32,32,Mon Sep 21 13:48:25 2020,1500,The main experiment item,yes,FlankerTask.osexp,/Users/tforestmoore/Desktop,no,mono,no,18,no,white,no,yes,768,psycho,32,32,/Users/tforestmoore/Desktop/tm-subject-2.csv,psycho,Lentiform Loewenfeld,3.3.3,0,s,NA,NA,s,NA,s,401.14204,NA,NA,705.306739,NA,401.14204,2,psycho,1024,2,48000,-16,experiment,SSSSS,2,even,NA,5575.226101,NA,NA,6628.342658,4791.558732,NA,NA,62325.53778,4841.560828,NA,61208.93562,62443.05886,62846.3699,62314.09977,62442.23902,Flanker Task,32,16405.31599,33,yes,1024
incongruent,97.05882353,97.05882353,498.0096212,498.0096212,black,psycho,psycho,psycho,0,uniform,1,undefined,1,s,0,0,0,0,33,0,33,0,33,0,0,33,33,33,33,33,Mon Sep 21 13:48:25 2020,1500,The main experiment item,yes,FlankerTask.osexp,/Users/tforestmoore/Desktop,no,mono,no,18,no,white,no,yes,768,psycho,33,33,/Users/tforestmoore/Desktop/tm-subject-2.csv,psycho,Lentiform Loewenfeld,3.3.3,0,s,NA,NA,s,NA,s,527.011131,NA,NA,705.306739,NA,527.011131,2,psycho,1024,2,48000,-16,experiment,HHSHH,2,even,NA,5575.226101,NA,NA,6628.342658,4791.558732,NA,NA,63975.56306,4841.560828,NA,62858.62664,64093.31287,64623.00078,63964.24746,64092.1216,Flanker Task,33,16932.32712,34,yes,1024
incongruent,97.14285714,97.14285714,497.8256252,497.8256252,black,psycho,psycho,psycho,0,uniform,1,undefined,1,h,0,0,0,0,34,0,34,0,34,0,0,34,34,34,34,34,Mon Sep 21 13:48:25 2020,1500,The main experiment item,yes,FlankerTask.osexp,/Users/tforestmoore/Desktop,no,mono,no,18,no,white,no,yes,768,psycho,34,34,/Users/tforestmoore/Desktop/tm-subject-2.csv,psycho,Lentiform Loewenfeld,3.3.3,0,h,NA,NA,s,NA,h,491.569759,NA,NA,705.306739,NA,491.569759,2,psycho,1024,2,48000,-16,experiment,SSHSS,2,even,NA,5575.226101,NA,NA,6628.342658,4791.558732,NA,NA,65758.77877,4841.560828,NA,64641.82489,65876.6059,66370.13421,65747.99515,65875.2932,Flanker Task,34,17423.89688,35,yes,1024
congruent,97.22222222,97.22222222,504.6216245,504.6216245,black,psycho,psycho,psycho,0,uniform,1,undefined,1,s,0,0,0,0,35,0,35,0,35,0,0,35,35,35,35,35,Mon Sep 21 13:48:25 2020,1500,The main experiment item,yes,FlankerTask.osexp,/Users/tforestmoore/Desktop,no,mono,no,18,no,white,no,yes,768,psycho,35,35,/Users/tforestmoore/Desktop/tm-subject-2.csv,psycho,Lentiform Loewenfeld,3.3.3,0,s,NA,NA,s,NA,s,742.481602,NA,NA,705.306739,NA,742.481602,2,psycho,1024,2,48000,-16,experiment,SSSSS,2,even,NA,5575.226101,NA,NA,6628.342658,4791.558732,NA,NA,67508.81059,4841.560828,NA,66392.10159,67626.44341,68371.82694,67498.39506,67625.37489,Flanker Task,35,18166.37848,36,yes,1024
incongruent,97.2972973,97.2972973,504.5113332,504.5113332,black,psycho,psycho,psycho,0,uniform,1,undefined,1,h,0,0,0,0,36,0,36,0,36,0,0,36,36,36,36,36,Mon Sep 21 13:48:25 2020,1500,The main experiment item,yes,FlankerTask.osexp,/Users/tforestmoore/Desktop,no,mono,no,18,no,white,no,yes,768,psycho,36,36,/Users/tforestmoore/Desktop/tm-subject-2.csv,psycho,Lentiform Loewenfeld,3.3.3,0,h,NA,NA,s,NA,h,500.540847,NA,NA,705.306739,NA,500.540847,2,psycho,1024,2,48000,-16,experiment,SSHSS,2,even,NA,5575.226101,NA,NA,6628.342658,4791.558732,NA,NA,69508.65952,4841.560828,NA,68391.91122,69626.54484,70129.13923,69499.18747,69625.39707,Flanker Task,36,18666.91933,37,yes,1024
congruent,97.36842105,97.36842105,501.7271756,501.7271756,black,psycho,psycho,psycho,0,uniform,1,undefined,1,h,0,0,0,0,37,0,37,0,37,0,0,37,37,37,37,37,Mon Sep 21 13:48:25 2020,1500,The main experiment item,yes,FlankerTask.osexp,/Users/tforestmoore/Desktop,no,mono,no,18,no,white,no,yes,768,psycho,37,37,/Users/tforestmoore/Desktop/tm-subject-2.csv,psycho,Lentiform Loewenfeld,3.3.3,0,h,NA,NA,s,NA,h,398.713342,NA,NA,705.306739,NA,398.713342,2,psycho,1024,2,48000,-16,experiment,HHHHH,2,even,NA,5575.226101,NA,NA,6628.342658,4791.558732,NA,NA,71275.36986,4841.560828,NA,70142.02944,71393.39162,71794.13604,71253.2895,71391.94637,Flanker Task,37,19065.63267,38,yes,1024
incongruent,97.43589744,97.43589744,501.7003138,501.7003138,black,psycho,psycho,psycho,0,uniform,1,undefined,1,h,0,0,0,0,38,0,38,0,38,0,0,38,38,38,38,38,Mon Sep 21 13:48:25 2020,1500,The main experiment item,yes,FlankerTask.osexp,/Users/tforestmoore/Desktop,no,mono,no,18,no,white,no,yes,768,psycho,38,38,/Users/tforestmoore/Desktop/tm-subject-2.csv,psycho,Lentiform Loewenfeld,3.3.3,0,h,NA,NA,s,NA,h,500.679568,NA,NA,705.306739,NA,500.679568,2,psycho,1024,2,48000,-16,experiment,SSHSS,2,even,NA,5575.226101,NA,NA,6628.342658,4791.558732,NA,NA,72925.65539,4841.560828,NA,71808.68386,73043.14258,73545.84737,72914.73121,73042.03949,Flanker Task,38,19566.31224,39,yes,1024
congruent,97.5,97.5,502.0985465,502.0985465,black,psycho,psycho,psycho,0,uniform,1,undefined,1,s,0,0,0,0,39,0,39,0,39,0,0,39,39,39,39,39,Mon Sep 21 13:48:25 2020,1500,The main experiment item,yes,FlankerTask.osexp,/Users/tforestmoore/Desktop,no,mono,no,18,no,white,no,yes,768,psycho,39,39,/Users/tforestmoore/Desktop/tm-subject-2.csv,psycho,Lentiform Loewenfeld,3.3.3,0,s,NA,NA,s,NA,s,517.629622,NA,NA,705.306739,NA,517.629622,2,psycho,1024,2,48000,-16,experiment,SSSSS,2,even,NA,5575.226101,NA,NA,6628.342658,4791.558732,NA,NA,74708.33485,4841.560828,NA,73558.82176,74826.47531,75346.20755,74690.13591,74825.43046,Flanker Task,39,20083.94186,40,yes,1024
congruent,97.56097561,97.56097561,499.786973,499.786973,black,psycho,psycho,psycho,0,uniform,1,undefined,1,h,0,0,0,0,40,0,40,0,40,0,0,40,40,40,40,40,Mon Sep 21 13:48:25 2020,1500,The main experiment item,yes,FlankerTask.osexp,/Users/tforestmoore/Desktop,no,mono,no,18,no,white,no,yes,768,psycho,40,40,/Users/tforestmoore/Desktop/tm-subject-2.csv,psycho,Lentiform Loewenfeld,3.3.3,0,h,NA,NA,s,NA,h,407.324032,NA,NA,705.306739,NA,407.324032,2,psycho,1024,2,48000,-16,experiment,HHHHH,2,even,NA,5575.226101,NA,NA,6628.342658,4791.558732,NA,NA,76475.32798,4841.560828,NA,75358.63134,76592.70488,77002.25617,76464.76916,76591.89432,Flanker Task,40,20491.26589,41,yes,1024
incongruent,97.61904762,97.61904762,504.0156919,504.0156919,black,psycho,psycho,psycho,0,uniform,1,undefined,1,h,0,0,0,0,41,0,41,0,41,0,0,41,41,41,41,41,Mon Sep 21 13:48:25 2020,1500,The main experiment item,yes,FlankerTask.osexp,/Users/tforestmoore/Desktop,no,mono,no,18,no,white,no,yes,768,psycho,41,41,/Users/tforestmoore/Desktop/tm-subject-2.csv,psycho,Lentiform Loewenfeld,3.3.3,0,h,NA,NA,s,NA,h,677.393165,NA,NA,705.306739,NA,677.393165,2,psycho,1024,2,48000,-16,experiment,SSHSS,2,even,NA,5575.226101,NA,NA,6628.342658,4791.558732,NA,NA,78141.82125,4841.560828,NA,77025.29239,78259.69928,78939.69815,78132.06997,78258.57982,Flanker Task,41,21168.65906,42,yes,1024
incongruent,97.6744186,97.6744186,502.8607664,502.8607664,black,psycho,psycho,psycho,0,uniform,1,undefined,1,s,0,0,0,0,42,0,42,0,42,0,0,42,42,42,42,42,Mon Sep 21 13:48:25 2020,1500,The main experiment item,yes,FlankerTask.osexp,/Users/tforestmoore/Desktop,no,mono,no,18,no,white,no,yes,768,psycho,42,42,/Users/tforestmoore/Desktop/tm-subject-2.csv,psycho,Lentiform Loewenfeld,3.3.3,0,s,NA,NA,s,NA,s,454.353898,NA,NA,705.306739,NA,454.353898,2,psycho,1024,2,48000,-16,experiment,HHSHH,2,even,NA,5575.226101,NA,NA,6628.342658,4791.558732,NA,NA,80075.24736,4841.560828,NA,78958.28554,80192.33586,80648.71483,80064.89086,80191.67379,Flanker Task,42,21623.01296,43,yes,1024
congruent,97.72727273,97.72727273,506.0632716,506.0632716,black,psycho,psycho,psycho,0,uniform,1,undefined,1,h,0,0,0,0,43,0,43,0,43,0,0,43,43,43,43,43,Mon Sep 21 13:48:25 2020,1500,The main experiment item,yes,FlankerTask.osexp,/Users/tforestmoore/Desktop,no,mono,no,18,no,white,no,yes,768,psycho,43,43,/Users/tforestmoore/Desktop/tm-subject-2.csv,psycho,Lentiform Loewenfeld,3.3.3,0,h,NA,NA,s,NA,h,643.770995,NA,NA,705.306739,NA,643.770995,2,psycho,1024,2,48000,-16,experiment,HHHHH,2,even,NA,5575.226101,NA,NA,6628.342658,4791.558732,NA,NA,81775.271,4841.560828,NA,80658.4499,81893.00219,82539.52166,81763.40738,81891.90609,Flanker Task,43,22266.78395,44,yes,1024
congruent,97.77777778,97.77777778,507.2110984,507.2110984,black,psycho,psycho,psycho,0,uniform,1,undefined,1,h,0,0,0,0,44,0,44,0,44,0,0,44,44,44,44,44,Mon Sep 21 13:48:25 2020,1500,The main experiment item,yes,FlankerTask.osexp,/Users/tforestmoore/Desktop,no,mono,no,18,no,white,no,yes,768,psycho,44,44,/Users/tforestmoore/Desktop/tm-subject-2.csv,psycho,Lentiform Loewenfeld,3.3.3,0,h,NA,NA,s,NA,h,557.715476,NA,NA,705.306739,NA,557.715476,2,psycho,1024,2,48000,-16,experiment,HHHHH,2,even,NA,5575.226101,NA,NA,6628.342658,4791.558732,NA,NA,83675.1804,4841.560828,NA,82558.50402,83792.8188,84352.49347,83664.56222,83791.77508,Flanker Task,44,22824.49943,45,yes,1024
incongruent,97.82608696,97.82608696,506.4211809,506.4211809,black,psycho,psycho,psycho,0,uniform,1,undefined,1,h,0,0,0,0,45,0,45,0,45,0,0,45,45,45,45,45,Mon Sep 21 13:48:25 2020,1500,The main experiment item,yes,FlankerTask.osexp,/Users/tforestmoore/Desktop,no,mono,no,18,no,white,no,yes,768,psycho,45,45,/Users/tforestmoore/Desktop/tm-subject-2.csv,psycho,Lentiform Loewenfeld,3.3.3,0,h,NA,NA,s,NA,h,470.874894,NA,NA,705.306739,NA,470.874894,2,psycho,1024,2,48000,-16,experiment,SSHSS,2,even,NA,5575.226101,NA,NA,6628.342658,4791.558732,NA,NA,85491.86065,4841.560828,NA,84375.2053,85609.61461,86082.61212,85482.46558,85608.53559,Flanker Task,45,23295.37432,46,yes,1024
incongruent,97.87234043,97.87234043,504.0661498,504.0661498,black,psycho,psycho,psycho,0,uniform,1,undefined,1,s,0,0,0,0,46,0,46,0,46,0,0,46,46,46,46,46,Mon Sep 21 13:48:25 2020,1500,The main experiment item,yes,FlankerTask.osexp,/Users/tforestmoore/Desktop,no,mono,no,18,no,white,no,yes,768,psycho,46,46,/Users/tforestmoore/Desktop/tm-subject-2.csv,psycho,Lentiform Loewenfeld,3.3.3,0,s,NA,NA,s,NA,s,395.734719,NA,NA,705.306739,NA,395.734719,2,psycho,1024,2,48000,-16,experiment,HHSHH,2,even,NA,5575.226101,NA,NA,6628.342658,4791.558732,NA,NA,87208.56948,4841.560828,NA,86091.84119,87325.93188,87723.8121,87197.71953,87325.16854,Flanker Task,46,23691.10904,47,yes,1024
incongruent,97.91666667,97.91666667,502.9398448,502.9398448,black,psycho,psycho,psycho,0,uniform,1,undefined,1,h,0,0,0,0,47,0,47,0,47,0,0,47,47,47,47,47,Mon Sep 21 13:48:25 2020,1500,The main experiment item,yes,FlankerTask.osexp,/Users/tforestmoore/Desktop,no,mono,no,18,no,white,no,yes,768,psycho,47,47,/Users/tforestmoore/Desktop/tm-subject-2.csv,psycho,Lentiform Loewenfeld,3.3.3,0,h,NA,NA,s,NA,h,450.003509,NA,NA,705.306739,NA,450.003509,2,psycho,1024,2,48000,-16,experiment,SSHSS,2,even,NA,5575.226101,NA,NA,6628.342658,4791.558732,NA,NA,88891.5507,4841.560828,NA,87742.91168,89009.57974,89461.61773,88874.72449,89008.45134,Flanker Task,47,24141.11255,48,yes,1024
incongruent,97.95918367,97.95918367,507.9210493,507.9210493,black,psycho,psycho,psycho,0,uniform,1,undefined,1,h,0,0,0,0,48,0,48,0,48,0,0,48,48,48,48,48,Mon Sep 21 13:48:25 2020,1500,The main experiment item,yes,FlankerTask.osexp,/Users/tforestmoore/Desktop,no,mono,no,18,no,white,no,yes,768,psycho,48,48,/Users/tforestmoore/Desktop/tm-subject-2.csv,psycho,Lentiform Loewenfeld,3.3.3,0,h,NA,NA,s,NA,h,747.018866,NA,NA,705.306739,NA,747.018866,2,psycho,1024,2,48000,-16,experiment,SSHSS,2,even,NA,5575.226101,NA,NA,6628.342658,4791.558732,NA,NA,90591.77781,4841.560828,NA,89475.20303,90709.4761,91458.80262,90580.52528,90708.38124,Flanker Task,48,24888.13142,49,yes,1024
congruent,98,98,512.8497281,512.8497281,black,psycho,psycho,psycho,0,uniform,1,undefined,1,s,0,0,0,0,49,0,49,0,49,0,0,49,49,49,49,49,Mon Sep 21 13:48:25 2020,1500,The main experiment item,yes,FlankerTask.osexp,/Users/tforestmoore/Desktop,no,mono,no,18,no,white,no,yes,768,psycho,49,49,/Users/tforestmoore/Desktop/tm-subject-2.csv,psycho,Lentiform Loewenfeld,3.3.3,0,s,NA,NA,s,NA,s,754.354991,NA,NA,705.306739,NA,754.354991,2,psycho,1024,2,48000,-16,experiment,SSSSS,2,even,NA,5575.226101,NA,NA,6628.342658,4791.558732,NA,NA,92592.26567,4841.560828,NA,91475.1776,92709.11684,93465.47115,92584.04057,92708.53269,Flanker Task,49,25642.48641,50,yes,1024
congruent,98.03921569,98.03921569,514.8266088,514.8266088,black,psycho,psycho,psycho,0,uniform,1,undefined,1,s,0,0,0,0,50,0,50,0,50,0,0,50,50,50,50,50,Mon Sep 21 13:48:25 2020,1500,The main experiment item,yes,FlankerTask.osexp,/Users/tforestmoore/Desktop,no,mono,no,18,no,white,no,yes,768,psycho,50,50,/Users/tforestmoore/Desktop/tm-subject-2.csv,psycho,Lentiform Loewenfeld,3.3.3,0,s,NA,NA,s,NA,s,613.670644,NA,NA,705.306739,NA,613.670644,2,psycho,1024,2,48000,-16,experiment,SSSSS,2,even,NA,5575.226101,NA,NA,6628.342658,4791.558732,NA,NA,94641.63637,4841.560828,NA,93475.36241,94759.72324,95375.57918,94620.03753,94758.56105,Flanker Task,50,26256.15705,51,yes,1024
congruent,98.07692308,98.07692308,513.8306513,513.8306513,black,psycho,psycho,psycho,0,uniform,1,undefined,1,h,0,0,0,0,51,0,51,0,51,0,0,51,51,51,51,51,Mon Sep 21 13:48:25 2020,1500,The main experiment item,yes,FlankerTask.osexp,/Users/tforestmoore/Desktop,no,mono,no,18,no,white,no,yes,768,psycho,51,51,/Users/tforestmoore/Desktop/tm-subject-2.csv,psycho,Lentiform Loewenfeld,3.3.3,0,h,NA,NA,s,NA,h,463.036818,NA,NA,705.306739,NA,463.036818,2,psycho,1024,2,48000,-16,experiment,HHHHH,2,even,NA,5575.226101,NA,NA,6628.342658,4791.558732,NA,NA,96508.42067,4841.560828,NA,95391.84276,96625.16083,97090.65688,96497.05313,96624.71718,Flanker Task,51,26719.19387,52,yes,1024
incongruent,98.11320755,98.11320755,517.2307197,517.2307197,black,psycho,psycho,psycho,0,uniform,1,undefined,1,s,0,0,0,0,52,0,52,0,52,0,0,52,52,52,52,52,Mon Sep 21 13:48:25 2020,1500,The main experiment item,yes,FlankerTask.osexp,/Users/tforestmoore/Desktop,no,mono,no,18,no,white,no,yes,768,psycho,52,52,/Users/tforestmoore/Desktop/tm-subject-2.csv,psycho,Lentiform Loewenfeld,3.3.3,0,s,NA,NA,s,NA,s,694.034274,NA,NA,705.306739,NA,694.034274,2,psycho,1024,2,48000,-16,experiment,HHSHH,2,even,NA,5575.226101,NA,NA,6628.342658,4791.558732,NA,NA,98225.20098,4841.560828,NA,97108.45576,98342.41561,99038.53051,98215.13483,98341.65757,Flanker Task,52,27413.22814,53,yes,1024
congruent,98.14814815,98.14814815,519.9988008,519.9988008,black,psycho,psycho,psycho,0,uniform,1,undefined,1,h,0,0,0,0,53,0,53,0,53,0,0,53,53,53,53,53,Mon Sep 21 13:48:25 2020,1500,The main experiment item,yes,FlankerTask.osexp,/Users/tforestmoore/Desktop,no,mono,no,18,no,white,no,yes,768,psycho,53,53,/Users/tforestmoore/Desktop/tm-subject-2.csv,psycho,Lentiform Loewenfeld,3.3.3,0,h,NA,NA,s,NA,h,666.707098,NA,NA,705.306739,NA,666.707098,2,psycho,1024,2,48000,-16,experiment,HHHHH,2,even,NA,5575.226101,NA,NA,6628.342658,4791.558732,NA,NA,100175.001,4841.560828,NA,99058.33495,100292.7463,100962.2395,100163.8933,100291.614,Flanker Task,53,28079.93524,54,yes,1024
incongruent,98.18181818,98.18181818,526.6402697,526.6402697,black,psycho,psycho,psycho,0,uniform,1,undefined,1,h,0,0,0,0,54,0,54,0,54,0,0,54,54,54,54,54,Mon Sep 21 13:48:25 2020,1500,The main experiment item,yes,FlankerTask.osexp,/Users/tforestmoore/Desktop,no,mono,no,18,no,white,no,yes,768,psycho,54,54,/Users/tforestmoore/Desktop/tm-subject-2.csv,psycho,Lentiform Loewenfeld,3.3.3,0,h,NA,NA,s,NA,h,885.279593,NA,NA,705.306739,NA,885.279593,2,psycho,1024,2,48000,-16,experiment,SSHSS,2,even,NA,5575.226101,NA,NA,6628.342658,4791.558732,NA,NA,102091.7893,4841.560828,NA,100974.6086,102208.9034,103096.5662,102080.3747,102208.1485,Flanker Task,54,28965.21483,55,yes,1024
incongruent,98.21428571,98.21428571,527.5250814,527.5250814,black,psycho,psycho,psycho,0,uniform,1,undefined,1,h,0,0,0,0,55,0,55,0,55,0,0,55,55,55,55,55,Mon Sep 21 13:48:25 2020,1500,The main experiment item,yes,FlankerTask.osexp,/Users/tforestmoore/Desktop,no,mono,no,18,no,white,no,yes,768,psycho,55,55,/Users/tforestmoore/Desktop/tm-subject-2.csv,psycho,Lentiform Loewenfeld,3.3.3,0,h,NA,NA,s,NA,h,576.189725,NA,NA,705.306739,NA,576.189725,2,psycho,1024,2,48000,-16,experiment,SSHSS,2,even,NA,5575.226101,NA,NA,6628.342658,4791.558732,NA,NA,104225.0182,4841.560828,NA,103108.9181,104342.3126,104920.6109,104213.8607,104341.6193,Flanker Task,55,29541.40456,56,yes,1024
congruent,98.24561404,98.24561404,524.1013922,524.1013922,black,psycho,psycho,psycho,0,uniform,1,undefined,1,h,0,0,0,0,56,0,56,0,56,0,0,56,56,56,56,56,Mon Sep 21 13:48:25 2020,1500,The main experiment item,yes,FlankerTask.osexp,/Users/tforestmoore/Desktop,no,mono,no,18,no,white,no,yes,768,psycho,56,56,/Users/tforestmoore/Desktop/tm-subject-2.csv,psycho,Lentiform Loewenfeld,3.3.3,0,h,NA,NA,s,NA,h,332.374796,NA,NA,705.306739,NA,332.374796,2,psycho,1024,2,48000,-16,experiment,HHHHH,2,even,NA,5575.226101,NA,NA,6628.342658,4791.558732,NA,NA,106058.1918,4841.560828,NA,104941.6535,106175.9748,106511.094,106050.5361,106174.911,Flanker Task,56,29873.77935,57,yes,1024
incongruent,98.27586207,98.27586207,525.6590304,525.6590304,black,psycho,psycho,psycho,0,uniform,1,undefined,1,s,0,0,0,0,57,0,57,0,57,0,0,57,57,57,57,57,Mon Sep 21 13:48:25 2020,1500,The main experiment item,yes,FlankerTask.osexp,/Users/tforestmoore/Desktop,no,mono,no,18,no,white,no,yes,768,psycho,57,57,/Users/tforestmoore/Desktop/tm-subject-2.csv,psycho,Lentiform Loewenfeld,3.3.3,0,s,NA,NA,s,NA,s,614.444411,NA,NA,705.306739,NA,614.444411,2,psycho,1024,2,48000,-16,experiment,HHSHH,2,even,NA,5575.226101,NA,NA,6628.342658,4791.558732,NA,NA,107624.9098,4841.560828,NA,106524.6473,107742.6802,108359.3929,107615.0821,107741.557,Flanker Task,57,30488.22377,58,yes,1024
congruent,98.30508475,98.30508475,527.8489425,527.8489425,black,psycho,psycho,psycho,0,uniform,1,undefined,1,s,0,0,0,0,58,0,58,0,58,0,0,58,58,58,58,58,Mon Sep 21 13:48:25 2020,1500,The main experiment item,yes,FlankerTask.osexp,/Users/tforestmoore/Desktop,no,mono,no,18,no,white,no,yes,768,psycho,58,58,/Users/tforestmoore/Desktop/tm-subject-2.csv,psycho,Lentiform Loewenfeld,3.3.3,0,s,NA,NA,s,NA,s,654.863839,NA,NA,705.306739,NA,654.863839,2,psycho,1024,2,48000,-16,experiment,SSSSS,2,even,NA,5575.226101,NA,NA,6628.342658,4791.558732,NA,NA,109491.5939,4841.560828,NA,108374.9184,109609.145,110266.1462,109481.2937,109608.0843,Flanker Task,58,31143.0876,59,yes,1024
incongruent,96.66666667,96.66666667,525.4284445,525.4284445,black,psycho,psycho,psycho,0,uniform,0,undefined,0,h,0,0,0,0,59,0,59,0,59,0,0,59,59,59,59,59,Mon Sep 21 13:48:25 2020,1500,The main experiment item,yes,FlankerTask.osexp,/Users/tforestmoore/Desktop,no,mono,no,18,no,white,no,yes,768,psycho,59,59,/Users/tforestmoore/Desktop/tm-subject-2.csv,psycho,Lentiform Loewenfeld,3.3.3,0,s,NA,NA,s,NA,s,382.619064,NA,NA,705.306739,NA,382.619064,2,psycho,1024,2,48000,-16,experiment,SSHSS,2,even,NA,5575.226101,NA,NA,6628.342658,4791.558732,NA,NA,111391.6449,4841.560828,NA,110274.9201,111509.3284,111893.9589,111381.4521,111508.2592,Flanker Task,58,31525.70667,60,yes,1024
congruent,96.72131148,96.72131148,527.8116465,527.8116465,black,psycho,psycho,psycho,0,uniform,1,undefined,1,s,0,0,0,0,60,0,60,0,60,0,0,60,60,60,60,60,Mon Sep 21 13:48:25 2020,1500,The main experiment item,yes,FlankerTask.osexp,/Users/tforestmoore/Desktop,no,mono,no,18,no,white,no,yes,768,psycho,60,60,/Users/tforestmoore/Desktop/tm-subject-2.csv,psycho,Lentiform Loewenfeld,3.3.3,0,s,NA,NA,s,NA,s,670.803765,NA,NA,705.306739,NA,670.803765,2,psycho,1024,2,48000,-16,experiment,SSSSS,2,even,NA,5575.226101,NA,NA,111908.1678,4791.558732,NA,NA,113541.4419,4841.560828,NA,112425.1767,113659.251,114332.9488,113531.9424,113658.1743,Flanker Task,59,32196.51043,61,yes,1024
incongruent,95.16129032,95.16129032,526.8738331,526.8738331,black,psycho,psycho,psycho,0,uniform,0,undefined,0,h,0,0,0,0,61,0,61,0,61,0,0,61,61,61,61,61,Mon Sep 21 13:48:25 2020,1500,The main experiment item,yes,FlankerTask.osexp,/Users/tforestmoore/Desktop,no,mono,no,18,no,white,no,yes,768,psycho,61,61,/Users/tforestmoore/Desktop/tm-subject-2.csv,psycho,Lentiform Loewenfeld,3.3.3,0,s,NA,NA,s,NA,s,469.667216,NA,NA,705.306739,NA,469.667216,2,psycho,1024,2,48000,-16,experiment,SSHSS,2,even,NA,5575.226101,NA,NA,111908.1678,4791.558732,NA,NA,115458.022,4841.560828,NA,114341.2849,115576.1481,116047.9452,115449.1742,115574.7979,Flanker Task,59,32666.17765,62,yes,1024
incongruent,95.23809524,95.23809524,526.5360452,526.5360452,black,psycho,psycho,psycho,0,uniform,1,undefined,1,s,0,0,0,0,62,0,62,0,62,0,0,62,62,62,62,62,Mon Sep 21 13:48:25 2020,1500,The main experiment item,yes,FlankerTask.osexp,/Users/tforestmoore/Desktop,no,mono,no,18,no,white,no,yes,768,psycho,62,62,/Users/tforestmoore/Desktop/tm-subject-2.csv,psycho,Lentiform Loewenfeld,3.3.3,0,s,NA,NA,s,NA,s,505.5932,NA,NA,705.306739,NA,505.5932,2,psycho,1024,2,48000,-16,experiment,HHSHH,2,even,NA,5575.226101,NA,NA,116058.175,4791.558732,NA,NA,117691.4611,4841.560828,NA,116574.3675,117809.1865,118316.8668,117681.4624,117808.1368,Flanker Task,60,33171.77085,63,yes,1024
congruent,95.3125,95.3125,534.6482374,534.6482374,black,psycho,psycho,psycho,0,uniform,1,undefined,1,s,0,0,0,0,63,0,63,0,63,0,0,63,63,63,63,63,Mon Sep 21 13:48:25 2020,1500,The main experiment item,yes,FlankerTask.osexp,/Users/tforestmoore/Desktop,no,mono,no,18,no,white,no,yes,768,psycho,63,63,/Users/tforestmoore/Desktop/tm-subject-2.csv,psycho,Lentiform Loewenfeld,3.3.3,0,s,NA,NA,s,NA,s,1045.716343,NA,NA,705.306739,NA,1045.716343,2,psycho,1024,2,48000,-16,experiment,SSSSS,2,even,NA,5575.226101,NA,NA,116058.175,4791.558732,NA,NA,119441.3018,4841.560828,NA,118325.045,119559.2871,120607.7051,119432.0653,119558.2037,Flanker Task,61,34217.48719,64,yes,1024
congruent,93.84615385,93.84615385,532.2932526,532.2932526,black,psycho,psycho,psycho,0,uniform,0,undefined,0,h,0,0,0,0,64,0,64,0,64,0,0,64,64,64,64,64,Mon Sep 21 13:48:25 2020,1500,The main experiment item,yes,FlankerTask.osexp,/Users/tforestmoore/Desktop,no,mono,no,18,no,white,no,yes,768,psycho,64,64,/Users/tforestmoore/Desktop/tm-subject-2.csv,psycho,Lentiform Loewenfeld,3.3.3,0,s,NA,NA,s,NA,s,381.574225,NA,NA,705.306739,NA,381.574225,2,psycho,1024,2,48000,-16,experiment,HHHHH,2,even,NA,5575.226101,NA,NA,116058.175,4791.558732,NA,NA,121741.5306,4841.560828,NA,120624.553,121859.2971,122243.0145,121730.4034,121858.1028,Flanker Task,61,34599.06142,65,yes,1024
incongruent,93.93939394,93.93939394,532.0729027,532.0729027,black,psycho,psycho,psycho,0,uniform,1,undefined,1,s,0,0,0,0,65,0,65,0,65,0,0,65,65,65,65,65,Mon Sep 21 13:48:25 2020,1500,The main experiment item,yes,FlankerTask.osexp,/Users/tforestmoore/Desktop,no,mono,no,18,no,white,no,yes,768,psycho,65,65,/Users/tforestmoore/Desktop/tm-subject-2.csv,psycho,Lentiform Loewenfeld,3.3.3,0,s,NA,NA,s,NA,s,517.750158,NA,NA,705.306739,NA,517.750158,2,psycho,1024,2,48000,-16,experiment,HHSHH,2,even,NA,5575.226101,NA,NA,122258.004,4791.558732,NA,NA,123891.3235,4841.560828,NA,122774.7504,124009.0554,124528.9711,123880.7739,124007.8564,Flanker Task,62,35116.81158,66,yes,1024
incongruent,94.02985075,94.02985075,532.2826094,532.2826094,black,psycho,psycho,psycho,0,uniform,1,undefined,1,s,0,0,0,0,66,0,66,0,66,0,0,66,66,66,66,66,Mon Sep 21 13:48:25 2020,1500,The main experiment item,yes,FlankerTask.osexp,/Users/tforestmoore/Desktop,no,mono,no,18,no,white,no,yes,768,psycho,66,66,/Users/tforestmoore/Desktop/tm-subject-2.csv,psycho,Lentiform Loewenfeld,3.3.3,0,s,NA,NA,s,NA,s,546.123255,NA,NA,705.306739,NA,546.123255,2,psycho,1024,2,48000,-16,experiment,HHSHH,2,even,NA,5575.226101,NA,NA,122258.004,4791.558732,NA,NA,125657.8859,4841.560828,NA,124541.3264,125775.7073,126324.6942,125648.1483,125774.6485,Flanker Task,63,35662.93483,67,yes,1024
incongruent,94.11764706,94.11764706,532.8079187,532.8079187,black,psycho,psycho,psycho,0,uniform,1,undefined,1,s,0,0,0,0,67,0,67,0,67,0,0,67,67,67,67,67,Mon Sep 21 13:48:25 2020,1500,The main experiment item,yes,FlankerTask.osexp,/Users/tforestmoore/Desktop,no,mono,no,18,no,white,no,yes,768,psycho,67,67,/Users/tforestmoore/Desktop/tm-subject-2.csv,psycho,Lentiform Loewenfeld,3.3.3,0,s,NA,NA,s,NA,s,568.003639,NA,NA,705.306739,NA,568.003639,2,psycho,1024,2,48000,-16,experiment,HHSHH,2,even,NA,5575.226101,NA,NA,122258.004,4791.558732,NA,NA,127458.0306,4841.560828,NA,126340.9357,127575.7605,128145.9496,127447.6781,127574.708,Flanker Task,64,36230.93847,68,yes,1024
incongruent,94.20289855,94.20289855,538.8967772,538.8967772,black,psycho,psycho,psycho,0,uniform,1,undefined,1,h,0,0,0,0,68,0,68,0,68,0,0,68,68,68,68,68,Mon Sep 21 13:48:25 2020,1500,The main experiment item,yes,FlankerTask.osexp,/Users/tforestmoore/Desktop,no,mono,no,18,no,white,no,yes,768,psycho,68,68,/Users/tforestmoore/Desktop/tm-subject-2.csv,psycho,Lentiform Loewenfeld,3.3.3,0,h,NA,NA,s,NA,h,952.939157,NA,NA,705.306739,NA,952.939157,2,psycho,1024,2,48000,-16,experiment,SSHSS,2,even,NA,5575.226101,NA,NA,122258.004,4791.558732,NA,NA,129274.5599,4841.560828,NA,128158.0133,129392.6437,130347.7766,129264.9304,129391.3128,Flanker Task,65,37183.87763,69,yes,1024
incongruent,94.28571429,94.28571429,538.0990592,538.0990592,black,psycho,psycho,psycho,0,uniform,1,undefined,1,s,0,0,0,0,69,0,69,0,69,0,0,69,69,69,69,69,Mon Sep 21 13:48:25 2020,1500,The main experiment item,yes,FlankerTask.osexp,/Users/tforestmoore/Desktop,no,mono,no,18,no,white,no,yes,768,psycho,69,69,/Users/tforestmoore/Desktop/tm-subject-2.csv,psycho,Lentiform Loewenfeld,3.3.3,0,s,NA,NA,s,NA,s,483.056516,NA,NA,705.306739,NA,483.056516,2,psycho,1024,2,48000,-16,experiment,HHSHH,2,even,NA,5575.226101,NA,NA,122258.004,4791.558732,NA,NA,131474.6694,4841.560828,NA,130358.3058,131592.4461,132077.7356,131463.6207,131591.3518,Flanker Task,66,37666.93414,70,yes,1024
congruent,94.36619718,94.36619718,545.0295039,545.0295039,black,psycho,psycho,psycho,0,uniform,1,undefined,1,s,0,0,0,0,70,0,70,0,70,0,0,70,70,70,70,70,Mon Sep 21 13:48:25 2020,1500,The main experiment item,yes,FlankerTask.osexp,/Users/tforestmoore/Desktop,no,mono,no,18,no,white,no,yes,768,psycho,70,70,/Users/tforestmoore/Desktop/tm-subject-2.csv,psycho,Lentiform Loewenfeld,3.3.3,0,s,NA,NA,s,NA,s,1030.160632,NA,NA,705.306739,NA,1030.160632,2,psycho,1024,2,48000,-16,experiment,SSSSS,2,even,NA,5575.226101,NA,NA,122258.004,4791.558732,NA,NA,133208.3244,4841.560828,NA,132091.223,133325.079,134357.4623,133198.0043,133324.5049,Flanker Task,67,38697.09477,71,yes,1024
congruent,94.44444444,94.44444444,545.255101,545.255101,black,psycho,psycho,psycho,0,uniform,1,undefined,1,h,0,0,0,0,71,0,71,0,71,0,0,71,71,71,71,71,Mon Sep 21 13:48:25 2020,1500,The main experiment item,yes,FlankerTask.osexp,/Users/tforestmoore/Desktop,no,mono,no,18,no,white,no,yes,768,psycho,71,71,/Users/tforestmoore/Desktop/tm-subject-2.csv,psycho,Lentiform Loewenfeld,3.3.3,0,h,NA,NA,s,NA,h,561.272497,NA,NA,705.306739,NA,561.272497,2,psycho,1024,2,48000,-16,experiment,HHHHH,2,even,NA,5575.226101,NA,NA,122258.004,4791.558732,NA,NA,135491.4614,4841.560828,NA,134374.5463,135609.1192,136172.5425,135481.0237,135607.9675,Flanker Task,68,39258.36727,72,yes,1024
incongruent,94.52054795,94.52054795,546.3874991,546.3874991,black,psycho,psycho,psycho,0,uniform,1,undefined,1,h,0,0,0,0,72,0,72,0,72,0,0,72,72,72,72,72,Mon Sep 21 13:48:25 2020,1500,The main experiment item,yes,FlankerTask.osexp,/Users/tforestmoore/Desktop,no,mono,no,18,no,white,no,yes,768,psycho,72,72,/Users/tforestmoore/Desktop/tm-subject-2.csv,psycho,Lentiform Loewenfeld,3.3.3,0,h,NA,NA,s,NA,h,627.920165,NA,NA,705.306739,NA,627.920165,2,psycho,1024,2,48000,-16,experiment,SSHSS,2,even,NA,5575.226101,NA,NA,122258.004,4791.558732,NA,NA,137307.5487,4841.560828,NA,136191.2586,137425.5365,138055.5388,137297.8063,137424.4806,Flanker Task,69,39886.28744,73,yes,1024
congruent,94.59459459,94.59459459,544.4313384,544.4313384,black,psycho,psycho,psycho,0,uniform,1,undefined,1,h,0,0,0,0,73,0,73,0,73,0,0,73,73,73,73,73,Mon Sep 21 13:48:25 2020,1500,The main experiment item,yes,FlankerTask.osexp,/Users/tforestmoore/Desktop,no,mono,no,18,no,white,no,yes,768,psycho,73,73,/Users/tforestmoore/Desktop/tm-subject-2.csv,psycho,Lentiform Loewenfeld,3.3.3,0,h,NA,NA,s,NA,h,401.631603,NA,NA,705.306739,NA,401.631603,2,psycho,1024,2,48000,-16,experiment,HHHHH,2,even,NA,5575.226101,NA,NA,122258.004,4791.558732,NA,NA,139191.0992,4841.560828,NA,138074.467,139308.8602,139712.8799,139182.1621,139307.7951,Flanker Task,70,40287.91904,74,yes,1024
incongruent,94.66666667,94.66666667,544.1399692,544.1399692,black,psycho,psycho,psycho,0,uniform,1,undefined,1,s,0,0,0,0,74,0,74,0,74,0,0,74,74,74,74,74,Mon Sep 21 13:48:25 2020,1500,The main experiment item,yes,FlankerTask.osexp,/Users/tforestmoore/Desktop,no,mono,no,18,no,white,no,yes,768,psycho,74,74,/Users/tforestmoore/Desktop/tm-subject-2.csv,psycho,Lentiform Loewenfeld,3.3.3,0,s,NA,NA,s,NA,s,522.578651,NA,NA,705.306739,NA,522.578651,2,psycho,1024,2,48000,-16,experiment,HHSHH,2,even,NA,5575.226101,NA,NA,122258.004,4791.558732,NA,NA,140841.0683,4841.560828,NA,139724.2031,140958.8828,141483.7372,140831.4961,140958.0403,Flanker Task,71,40810.49769,75,yes,1024
incongruent,94.73684211,94.73684211,543.5658248,543.5658248,black,psycho,psycho,psycho,0,uniform,1,undefined,1,s,0,0,0,0,75,0,75,0,75,0,0,75,75,75,75,75,Mon Sep 21 13:48:25 2020,1500,The main experiment item,yes,FlankerTask.osexp,/Users/tforestmoore/Desktop,no,mono,no,18,no,white,no,yes,768,psycho,75,75,/Users/tforestmoore/Desktop/tm-subject-2.csv,psycho,Lentiform Loewenfeld,3.3.3,0,s,NA,NA,s,NA,s,500.504992,NA,NA,705.306739,NA,500.504992,2,psycho,1024,2,48000,-16,experiment,HHSHH,2,even,NA,5575.226101,NA,NA,122258.004,4791.558732,NA,NA,142641.1848,4841.560828,NA,141491.9062,142758.8399,143261.6579,142624.3585,142757.7625,Flanker Task,72,41311.00268,76,yes,1024
incongruent,94.80519481,94.80519481,543.8129472,543.8129472,black,psycho,psycho,psycho,0,uniform,1,undefined,1,s,0,0,0,0,76,0,76,0,76,0,0,76,76,76,76,76,Mon Sep 21 13:48:25 2020,1500,The main experiment item,yes,FlankerTask.osexp,/Users/tforestmoore/Desktop,no,mono,no,18,no,white,no,yes,768,psycho,76,76,/Users/tforestmoore/Desktop/tm-subject-2.csv,psycho,Lentiform Loewenfeld,3.3.3,0,s,NA,NA,s,NA,s,562.594249,NA,NA,705.306739,NA,562.594249,2,psycho,1024,2,48000,-16,experiment,HHSHH,2,even,NA,5575.226101,NA,NA,122258.004,4791.558732,NA,NA,144391.0083,4841.560828,NA,143274.6313,144508.8959,145073.7564,144380.841,144507.8022,Flanker Task,73,41873.59693,77,yes,1024
incongruent,94.87179487,94.87179487,544.3488992,544.3488992,black,psycho,psycho,psycho,0,uniform,1,undefined,1,h,0,0,0,0,77,0,77,0,77,0,0,77,77,77,77,77,Mon Sep 21 13:48:25 2020,1500,The main experiment item,yes,FlankerTask.osexp,/Users/tforestmoore/Desktop,no,mono,no,18,no,white,no,yes,768,psycho,77,77,/Users/tforestmoore/Desktop/tm-subject-2.csv,psycho,Lentiform Loewenfeld,3.3.3,0,h,NA,NA,s,NA,h,585.617206,NA,NA,705.306739,NA,585.617206,2,psycho,1024,2,48000,-16,experiment,SSHSS,2,even,NA,5575.226101,NA,NA,122258.004,4791.558732,NA,NA,146207.5257,4841.560828,NA,145090.9874,146325.584,146914.15,146196.1501,146324.3874,Flanker Task,74,42459.21414,78,yes,1024
congruent,94.93670886,94.93670886,545.4833599,545.4833599,black,psycho,psycho,psycho,0,uniform,1,undefined,1,s,0,0,0,0,78,0,78,0,78,0,0,78,78,78,78,78,Mon Sep 21 13:48:25 2020,1500,The main experiment item,yes,FlankerTask.osexp,/Users/tforestmoore/Desktop,no,mono,no,18,no,white,no,yes,768,psycho,78,78,/Users/tforestmoore/Desktop/tm-subject-2.csv,psycho,Lentiform Loewenfeld,3.3.3,0,s,NA,NA,s,NA,s,633.971292,NA,NA,705.306739,NA,633.971292,2,psycho,1024,2,48000,-16,experiment,SSSSS,2,even,NA,5575.226101,NA,NA,122258.004,4791.558732,NA,NA,148041.5216,4841.560828,NA,146924.072,148158.1959,148794.2451,148030.0759,148157.6125,Flanker Task,75,43093.18543,79,yes,1024
incongruent,95,95,546.5873053,546.5873053,black,psycho,psycho,psycho,0,uniform,1,undefined,1,s,0,0,0,0,79,0,79,0,79,0,0,79,79,79,79,79,Mon Sep 21 13:48:25 2020,1500,The main experiment item,yes,FlankerTask.osexp,/Users/tforestmoore/Desktop,no,mono,no,18,no,white,no,yes,768,psycho,79,79,/Users/tforestmoore/Desktop/tm-subject-2.csv,psycho,Lentiform Loewenfeld,3.3.3,0,s,NA,NA,s,NA,s,633.798993,NA,NA,705.306739,NA,633.798993,2,psycho,1024,2,48000,-16,experiment,HHSHH,2,even,NA,5575.226101,NA,NA,122258.004,4791.558732,NA,NA,149924.2432,4841.560828,NA,148807.667,150042.1902,150678.5364,149914.4157,150041.0755,Flanker Task,76,43726.98442,80,yes,1024
congruent,95.0617284,95.0617284,551.3680522,551.3680522,black,psycho,psycho,psycho,0,uniform,1,undefined,1,s,0,0,0,0,80,0,80,0,80,0,0,80,80,80,80,80,Mon Sep 21 13:48:25 2020,600,The main experiment item,yes,FlankerTask.osexp,/Users/tforestmoore/Desktop,no,mono,no,18,no,white,no,yes,768,psycho,0,79,/Users/tforestmoore/Desktop/tm-subject-2.csv,psycho,Lentiform Loewenfeld,3.3.3,0,s,h,NA,s,NA,s,933.827809,1355.251781,NA,705.306739,NA,933.827809,2,psycho,1024,2,48000,-16,experiment,SSSSS,2,even,151757.8981,5575.226101,153115.5554,NA,122258.004,4791.558732,NA,NA,153191.5112,4841.560828,NA,150690.9576,153308.1764,154244.1646,153171.38,153307.5966,Flanker Task,77,44660.81223,81,yes,1024
congruent,93.90243902,93.90243902,549.921706,549.921706,black,psycho,psycho,psycho,0,uniform,0,undefined,0,h,0,0,0,0,81,0,81,0,81,0,0,81,81,81,81,81,Mon Sep 21 13:48:25 2020,600,The main experiment item,yes,FlankerTask.osexp,/Users/tforestmoore/Desktop,no,mono,no,18,no,white,no,yes,768,psycho,1,79,/Users/tforestmoore/Desktop/tm-subject-2.csv,psycho,Lentiform Loewenfeld,3.3.3,0,s,h,NA,s,NA,s,432.767658,1355.251781,NA,705.306739,NA,432.767658,2,psycho,1024,2,48000,-16,experiment,HHHHH,2,even,151757.8981,5575.226101,153115.5554,NA,122258.004,4791.558732,154257.7557,NA,155891.9062,4841.560828,NA,154774.0725,156008.2178,156443.4944,155881.0796,156007.6372,Flanker Task,77,45093.57989,82,yes,1024
congruent,93.97590361,93.97590361,548.2515453,548.2515453,black,psycho,psycho,psycho,0,uniform,1,undefined,1,s,0,0,0,0,82,0,82,0,82,0,0,82,82,82,82,82,Mon Sep 21 13:48:25 2020,600,The main experiment item,yes,FlankerTask.osexp,/Users/tforestmoore/Desktop,no,mono,no,18,no,white,no,yes,768,psycho,2,79,/Users/tforestmoore/Desktop/tm-subject-2.csv,psycho,Lentiform Loewenfeld,3.3.3,0,s,h,NA,s,NA,s,411.29837,1355.251781,NA,705.306739,NA,411.29837,2,psycho,1024,2,48000,-16,experiment,SSSSS,2,even,151757.8981,5575.226101,153115.5554,NA,156457.6536,4791.558732,154257.7557,NA,158090.8957,4841.560828,NA,156973.9266,158208.5893,158622.028,158080.5638,158207.5249,Flanker Task,78,45504.87826,83,yes,1024
incongruent,94.04761905,94.04761905,546.3302586,546.3302586,black,psycho,psycho,psycho,0,uniform,1,undefined,1,h,0,0,0,0,83,0,83,0,83,0,0,83,83,83,83,83,Mon Sep 21 13:48:25 2020,600,The main experiment item,yes,FlankerTask.osexp,/Users/tforestmoore/Desktop,no,mono,no,18,no,white,no,yes,768,psycho,3,79,/Users/tforestmoore/Desktop/tm-subject-2.csv,psycho,Lentiform Loewenfeld,3.3.3,0,h,h,NA,s,NA,h,386.863464,1355.251781,NA,705.306739,NA,386.863464,2,psycho,1024,2,48000,-16,experiment,SSHSS,2,even,151757.8981,5575.226101,153115.5554,NA,156457.6536,4791.558732,154257.7557,NA,159757.4822,4841.560828,NA,158640.8667,159875.1245,160264.7194,159737.6963,159874.1118,Flanker Task,79,45891.74172,84,yes,1024
congruent,94.11764706,94.11764706,545.6219886,545.6219886,black,psycho,psycho,psycho,0,uniform,1,undefined,1,s,0,0,0,0,84,0,84,0,84,0,0,84,84,84,84,84,Mon Sep 21 13:48:25 2020,600,The main experiment item,yes,FlankerTask.osexp,/Users/tforestmoore/Desktop,no,mono,no,18,no,white,no,yes,768,psycho,4,79,/Users/tforestmoore/Desktop/tm-subject-2.csv,psycho,Lentiform Loewenfeld,3.3.3,0,s,h,NA,s,NA,s,486.127311,1355.251781,NA,705.306739,NA,486.127311,2,psycho,1024,2,48000,-16,experiment,SSSSS,2,even,151757.8981,5575.226101,153115.5554,NA,156457.6536,4791.558732,154257.7557,NA,161374.178,4841.560828,NA,160274.0063,161491.8106,161980.2544,161364.7253,161490.7488,Flanker Task,80,46377.86903,85,yes,1024
incongruent,93.02325581,93.02325581,544.1359758,544.1359758,black,psycho,psycho,psycho,0,uniform,0,undefined,0,s,0,0,0,0,85,0,85,0,85,0,0,85,85,85,85,85,Mon Sep 21 13:48:25 2020,600,The main experiment item,yes,FlankerTask.osexp,/Users/tforestmoore/Desktop,no,mono,no,18,no,white,no,yes,768,psycho,5,79,/Users/tforestmoore/Desktop/tm-subject-2.csv,psycho,Lentiform Loewenfeld,3.3.3,0,h,h,NA,s,NA,h,417.824885,1355.251781,NA,705.306739,NA,417.824885,2,psycho,1024,2,48000,-16,experiment,HHSHH,2,even,151757.8981,5575.226101,153115.5554,NA,156457.6536,4791.558732,154257.7557,NA,163091.3448,4841.560828,NA,161990.7992,163207.9818,163627.9454,163082.2618,163207.4007,Flanker Task,80,46795.69392,86,yes,1024
incongruent,93.10344828,93.10344828,545.6807048,545.6807048,black,psycho,psycho,psycho,0,uniform,1,undefined,1,s,0,0,0,0,86,0,86,0,86,0,0,86,86,86,86,86,Mon Sep 21 13:48:25 2020,600,The main experiment item,yes,FlankerTask.osexp,/Users/tforestmoore/Desktop,no,mono,no,18,no,white,no,yes,768,psycho,6,79,/Users/tforestmoore/Desktop/tm-subject-2.csv,psycho,Lentiform Loewenfeld,3.3.3,0,s,h,NA,s,NA,s,678.527401,1355.251781,NA,705.306739,NA,678.527401,2,psycho,1024,2,48000,-16,experiment,HHSHH,2,even,151757.8981,5575.226101,153115.5554,NA,163640.589,4791.558732,154257.7557,NA,165257.314,4841.560828,NA,164157.2238,165375.1689,166056.2581,165247.9933,165374.098,Flanker Task,81,47474.22132,87,yes,1024
congruent,93.18181818,93.18181818,544.8701871,544.8701871,black,psycho,psycho,psycho,0,uniform,1,undefined,1,h,0,0,0,0,87,0,87,0,87,0,0,87,87,87,87,87,Mon Sep 21 13:48:25 2020,600,The main experiment item,yes,FlankerTask.osexp,/Users/tforestmoore/Desktop,no,mono,no,18,no,white,no,yes,768,psycho,7,79,/Users/tforestmoore/Desktop/tm-subject-2.csv,psycho,Lentiform Loewenfeld,3.3.3,0,h,h,NA,s,NA,h,474.355143,1355.251781,NA,705.306739,NA,474.355143,2,psycho,1024,2,48000,-16,experiment,HHHHH,2,even,151757.8981,5575.226101,153115.5554,NA,163640.589,4791.558732,166074.2353,NA,167707.6094,4841.560828,NA,166590.3673,167825.2101,168301.7996,167697.4552,167824.1161,Flanker Task,82,47948.57646,88,yes,1024
incongruent,93.25842697,93.25842697,544.7037677,544.7037677,black,psycho,psycho,psycho,0,uniform,1,undefined,1,h,0,0,0,0,88,0,88,0,88,0,0,88,88,88,88,88,Mon Sep 21 13:48:25 2020,600,The main experiment item,yes,FlankerTask.osexp,/Users/tforestmoore/Desktop,no,mono,no,18,no,white,no,yes,768,psycho,8,79,/Users/tforestmoore/Desktop/tm-subject-2.csv,psycho,Lentiform Loewenfeld,3.3.3,0,h,h,NA,s,NA,h,530.058861,1355.251781,NA,705.306739,NA,530.058861,2,psycho,1024,2,48000,-16,experiment,SSHSS,2,even,151757.8981,5575.226101,153115.5554,NA,163640.589,4791.558732,166074.2353,NA,169440.735,4841.560828,NA,168324.1514,169558.4336,170090.8426,169430.9478,169557.2986,Flanker Task,83,48478.63532,89,yes,1024
congruent,93.33333333,93.33333333,544.5257004,544.5257004,black,psycho,psycho,psycho,0,uniform,1,undefined,1,s,0,0,0,0,89,0,89,0,89,0,0,89,89,89,89,89,Mon Sep 21 13:48:25 2020,600,The main experiment item,yes,FlankerTask.osexp,/Users/tforestmoore/Desktop,no,mono,no,18,no,white,no,yes,768,psycho,9,79,/Users/tforestmoore/Desktop/tm-subject-2.csv,psycho,Lentiform Loewenfeld,3.3.3,0,s,h,NA,s,NA,s,528.677708,1355.251781,NA,705.306739,NA,528.677708,2,psycho,1024,2,48000,-16,experiment,SSSSS,2,even,151757.8981,5575.226101,153115.5554,NA,163640.589,4791.558732,166074.2353,NA,171224.265,4841.560828,NA,170107.4366,171341.9309,171873.222,171214.4218,171340.799,Flanker Task,84,49007.31303,90,yes,1024
incongruent,93.40659341,93.40659341,545.458307,545.458307,black,psycho,psycho,psycho,0,uniform,1,undefined,1,s,0,0,0,0,90,0,90,0,90,0,0,90,90,90,90,90,Mon Sep 21 13:48:25 2020,600,The main experiment item,yes,FlankerTask.osexp,/Users/tforestmoore/Desktop,no,mono,no,18,no,white,no,yes,768,psycho,10,79,/Users/tforestmoore/Desktop/tm-subject-2.csv,psycho,Lentiform Loewenfeld,3.3.3,0,s,h,NA,s,NA,s,629.392906,1355.251781,NA,705.306739,NA,629.392906,2,psycho,1024,2,48000,-16,experiment,HHSHH,2,even,151757.8981,5575.226101,153115.5554,NA,163640.589,4791.558732,166074.2353,NA,173024.5594,4841.560828,NA,171890.7787,173141.2476,173772.8938,173016.9561,173140.6665,Flanker Task,85,49636.70594,91,yes,1024
incongruent,93.47826087,93.47826087,544.6933654,544.6933654,black,psycho,psycho,psycho,0,uniform,1,undefined,1,h,0,0,0,0,91,0,91,0,91,0,0,91,91,91,91,91,Mon Sep 21 13:48:25 2020,600,The main experiment item,yes,FlankerTask.osexp,/Users/tforestmoore/Desktop,no,mono,no,18,no,white,no,yes,768,psycho,11,79,/Users/tforestmoore/Desktop/tm-subject-2.csv,psycho,Lentiform Loewenfeld,3.3.3,0,h,h,NA,s,NA,h,475.083679,1355.251781,NA,705.306739,NA,475.083679,2,psycho,1024,2,48000,-16,experiment,SSHSS,2,even,151757.8981,5575.226101,153115.5554,NA,163640.589,4791.558732,173790.8035,NA,175440.7364,4841.560828,NA,174307.3952,175558.4072,176035.7747,175420.3994,175557.3701,Flanker Task,86,50111.78962,92,yes,1024
incongruent,93.5483871,93.5483871,544.6227906,544.6227906,black,psycho,psycho,psycho,0,uniform,1,undefined,1,h,0,0,0,0,92,0,92,0,92,0,0,92,92,92,92,92,Mon Sep 21 13:48:25 2020,600,The main experiment item,yes,FlankerTask.osexp,/Users/tforestmoore/Desktop,no,mono,no,18,no,white,no,yes,768,psycho,12,79,/Users/tforestmoore/Desktop/tm-subject-2.csv,psycho,Lentiform Loewenfeld,3.3.3,0,h,h,NA,s,NA,h,538.129909,1355.251781,NA,705.306739,NA,538.129909,2,psycho,1024,2,48000,-16,experiment,SSHSS,2,even,151757.8981,5575.226101,153115.5554,NA,163640.589,4791.558732,173790.8035,NA,177173.9306,4841.560828,NA,176057.3558,177291.4379,177831.7905,177163.6247,177290.3778,Flanker Task,87,50649.91953,93,yes,1024
incongruent,93.61702128,93.61702128,544.0698606,544.0698606,black,psycho,psycho,psycho,0,uniform,1,undefined,1,h,0,0,0,0,93,0,93,0,93,0,0,93,93,93,93,93,Mon Sep 21 13:48:25 2020,600,The main experiment item,yes,FlankerTask.osexp,/Users/tforestmoore/Desktop,no,mono,no,18,no,white,no,yes,768,psycho,13,79,/Users/tforestmoore/Desktop/tm-subject-2.csv,psycho,Lentiform Loewenfeld,3.3.3,0,h,h,NA,s,NA,h,492.647366,1355.251781,NA,705.306739,NA,492.647366,2,psycho,1024,2,48000,-16,experiment,SSHSS,2,even,151757.8981,5575.226101,153115.5554,NA,163640.589,4791.558732,173790.8035,NA,178957.2216,4841.560828,NA,177841.1102,179074.846,179569.7272,178946.7072,179073.7517,Flanker Task,88,51142.56689,94,yes,1024
congruent,93.68421053,93.68421053,543.0173545,543.0173545,black,psycho,psycho,psycho,0,uniform,1,undefined,1,h,0,0,0,0,94,0,94,0,94,0,0,94,94,94,94,94,Mon Sep 21 13:48:25 2020,600,The main experiment item,yes,FlankerTask.osexp,/Users/tforestmoore/Desktop,no,mono,no,18,no,white,no,yes,768,psycho,14,79,/Users/tforestmoore/Desktop/tm-subject-2.csv,psycho,Lentiform Loewenfeld,3.3.3,0,h,h,NA,s,NA,h,444.081785,1355.251781,NA,705.306739,NA,444.081785,2,psycho,1024,2,48000,-16,experiment,HHHHH,2,even,151757.8981,5575.226101,153115.5554,NA,163640.589,4791.558732,173790.8035,NA,180740.3388,4841.560828,NA,179590.5707,180858.3794,181304.8188,180723.2103,180857.2123,Flanker Task,89,51586.64868,95,yes,1024
congruent,93.75,93.75,548.2755446,548.2755446,black,psycho,psycho,psycho,0,uniform,1,undefined,1,h,0,0,0,0,95,0,95,0,95,0,0,95,95,95,95,95,Mon Sep 21 13:48:25 2020,600,The main experiment item,yes,FlankerTask.osexp,/Users/tforestmoore/Desktop,no,mono,no,18,no,white,no,yes,768,psycho,15,79,/Users/tforestmoore/Desktop/tm-subject-2.csv,psycho,Lentiform Loewenfeld,3.3.3,0,h,h,NA,s,NA,h,1047.803604,1355.251781,NA,705.306739,NA,1047.803604,2,psycho,1024,2,48000,-16,experiment,HHHHH,2,even,151757.8981,5575.226101,153115.5554,NA,163640.589,4791.558732,173790.8035,NA,182441.2455,4841.560828,NA,181323.864,182557.6456,183607.6156,182430.0826,182557.2253,Flanker Task,90,52634.45228,96,yes,1024
incongruent,93.81443299,93.81443299,546.761736,546.761736,black,psycho,psycho,psycho,0,uniform,1,undefined,1,h,0,0,0,0,96,0,96,0,96,0,0,96,96,96,96,96,Mon Sep 21 13:48:25 2020,600,The main experiment item,yes,FlankerTask.osexp,/Users/tforestmoore/Desktop,no,mono,no,18,no,white,no,yes,768,psycho,16,79,/Users/tforestmoore/Desktop/tm-subject-2.csv,psycho,Lentiform Loewenfeld,3.3.3,0,h,h,NA,s,NA,h,401.436112,1355.251781,NA,705.306739,NA,401.436112,2,psycho,1024,2,48000,-16,experiment,SSHSS,2,even,151757.8981,5575.226101,153115.5554,NA,163640.589,4791.558732,183623.9041,NA,185257.2704,4841.560828,NA,184140.5961,185374.9289,185778.7982,185246.4273,185373.861,Flanker Task,91,53035.88839,97,yes,1024
congruent,93.87755102,93.87755102,544.993236,544.993236,black,psycho,psycho,psycho,0,uniform,1,undefined,1,s,0,0,0,0,97,0,97,0,97,0,0,97,97,97,97,97,Mon Sep 21 13:48:25 2020,600,The main experiment item,yes,FlankerTask.osexp,/Users/tforestmoore/Desktop,no,mono,no,18,no,white,no,yes,768,psycho,17,79,/Users/tforestmoore/Desktop/tm-subject-2.csv,psycho,Lentiform Loewenfeld,3.3.3,0,s,h,NA,s,NA,s,373.44873,1355.251781,NA,705.306739,NA,373.44873,2,psycho,1024,2,48000,-16,experiment,SSSSS,2,even,151757.8981,5575.226101,153115.5554,NA,163640.589,4791.558732,183623.9041,NA,186907.091,4841.560828,NA,185790.5284,187024.8291,187400.5381,186897.393,187024.051,Flanker Task,92,53409.33712,98,yes,1024
incongruent,93.93939394,93.93939394,543.9592585,543.9592585,black,psycho,psycho,psycho,0,uniform,1,undefined,1,s,0,0,0,0,98,0,98,0,98,0,0,98,98,98,98,98,Mon Sep 21 13:48:25 2020,600,The main experiment item,yes,FlankerTask.osexp,/Users/tforestmoore/Desktop,no,mono,no,18,no,white,no,yes,768,psycho,18,79,/Users/tforestmoore/Desktop/tm-subject-2.csv,psycho,Lentiform Loewenfeld,3.3.3,0,s,h,NA,s,NA,s,442.62947,1355.251781,NA,705.306739,NA,442.62947,2,psycho,1024,2,48000,-16,experiment,HHSHH,2,even,151757.8981,5575.226101,153115.5554,NA,163640.589,4791.558732,183623.9041,NA,188573.3822,4841.560828,NA,187423.9475,188691.6523,189136.8008,188558.1636,188690.5095,Flanker Task,93,53851.96659,99,yes,1024
congruent,94,94,543.7851357,543.7851357,black,psycho,psycho,psycho,0,uniform,1,undefined,1,h,0,0,0,0,99,0,99,0,99,0,0,99,99,99,99,99,Mon Sep 21 13:48:25 2020,600,The main experiment item,yes,FlankerTask.osexp,/Users/tforestmoore/Desktop,no,mono,no,18,no,white,no,yes,768,psycho,19,79,/Users/tforestmoore/Desktop/tm-subject-2.csv,psycho,Lentiform Loewenfeld,3.3.3,0,h,h,NA,s,NA,h,526.546981,1355.251781,NA,705.306739,NA,526.546981,2,psycho,1024,2,48000,-16,experiment,HHHHH,2,even,151757.8981,5575.226101,153115.5554,NA,163640.589,4791.558732,183623.9041,NA,190274.1639,4841.560828,NA,189157.185,190391.6463,190920.6918,190263.9053,190390.4275,Flanker Task,94,54378.51357,100,yes,1024
incongruent,94.05940594,94.05940594,546.50072,546.50072,black,psycho,psycho,psycho,0,uniform,1,undefined,1,s,0,0,0,0,100,0,100,0,100,0,0,100,100,100,100,100,Mon Sep 21 13:48:25 2020,600,The main experiment item,yes,FlankerTask.osexp,/Users/tforestmoore/Desktop,no,mono,no,18,no,white,no,yes,768,psycho,20,79,/Users/tforestmoore/Desktop/tm-subject-2.csv,psycho,Lentiform Loewenfeld,3.3.3,0,s,h,NA,s,NA,s,818.059145,1355.251781,NA,705.306739,NA,818.059145,2,psycho,1024,2,48000,-16,experiment,HHSHH,2,even,151757.8981,5575.226101,153115.5554,NA,163640.589,4791.558732,183623.9041,NA,192057.071,4841.560828,NA,190940.3907,192175.3862,192997.0308,192047.8773,192174.5942,Flanker Task,95,55196.57272,101,yes,1024
congruent,94.11764706,94.11764706,545.6145111,545.6145111,black,psycho,psycho,psycho,0,uniform,1,undefined,1,s,0,0,0,0,101,0,101,0,101,0,0,101,101,101,101,101,Mon Sep 21 13:48:25 2020,600,The main experiment item,yes,FlankerTask.osexp,/Users/tforestmoore/Desktop,no,mono,no,18,no,white,no,yes,768,psycho,21,79,/Users/tforestmoore/Desktop/tm-subject-2.csv,psycho,Lentiform Loewenfeld,3.3.3,0,s,h,NA,s,NA,s,456.107412,1355.251781,NA,705.306739,NA,456.107412,2,psycho,1024,2,48000,-16,experiment,SSSSS,2,even,151757.8981,5575.226101,153115.5554,NA,163640.589,4791.558732,193024.3198,NA,194658.313,4841.560828,NA,193540.0781,194774.3128,195233.3915,194646.5418,194773.8973,Flanker Task,96,55652.68013,102,yes,1024
incongruent,94.17475728,94.17475728,545.2497515,545.2497515,black,psycho,psycho,psycho,0,uniform,1,undefined,1,h,0,0,0,0,102,0,102,0,102,0,0,102,102,102,102,102,Mon Sep 21 13:48:25 2020,600,The main experiment item,yes,FlankerTask.osexp,/Users/tforestmoore/Desktop,no,mono,no,18,no,white,no,yes,768,psycho,22,79,/Users/tforestmoore/Desktop/tm-subject-2.csv,psycho,Lentiform Loewenfeld,3.3.3,0,h,h,NA,s,NA,h,508.044269,1355.251781,NA,705.306739,NA,508.044269,2,psycho,1024,2,48000,-16,experiment,SSHSS,2,even,151757.8981,5575.226101,153115.5554,NA,163640.589,4791.558732,193024.3198,NA,196406.8363,4841.560828,NA,195257.0942,196524.0831,197034.3661,196389.3538,196523.4287,Flanker Task,97,56160.7244,103,yes,1024
congruent,94.23076923,94.23076923,544.3215533,544.3215533,black,psycho,psycho,psycho,0,uniform,1,undefined,1,s,0,0,0,0,103,0,103,0,103,0,0,103,103,103,103,103,Mon Sep 21 13:48:25 2020,600,The main experiment item,yes,FlankerTask.osexp,/Users/tforestmoore/Desktop,no,mono,no,18,no,white,no,yes,768,psycho,23,79,/Users/tforestmoore/Desktop/tm-subject-2.csv,psycho,Lentiform Loewenfeld,3.3.3,0,s,h,NA,s,NA,s,448.717145,1355.251781,NA,705.306739,NA,448.717145,2,psycho,1024,2,48000,-16,experiment,SSSSS,2,even,151757.8981,5575.226101,153115.5554,NA,163640.589,4791.558732,193024.3198,NA,198173.7488,4841.560828,NA,197057.1347,198291.497,198742.72,198162.302,198290.3873,Flanker Task,98,56609.44155,104,yes,1024
incongruent,94.28571429,94.28571429,544.4882216,544.4882216,black,psycho,psycho,psycho,0,uniform,1,undefined,1,h,0,0,0,0,104,0,104,0,104,0,0,104,104,104,104,104,Mon Sep 21 13:48:25 2020,600,The main experiment item,yes,FlankerTask.osexp,/Users/tforestmoore/Desktop,no,mono,no,18,no,white,no,yes,768,psycho,24,79,/Users/tforestmoore/Desktop/tm-subject-2.csv,psycho,Lentiform Loewenfeld,3.3.3,0,h,h,NA,s,NA,h,561.821718,1355.251781,NA,705.306739,NA,561.821718,2,psycho,1024,2,48000,-16,experiment,SSHSS,2,even,151757.8981,5575.226101,153115.5554,NA,163640.589,4791.558732,193024.3198,NA,199874.0279,4841.560828,NA,198757.1998,199991.1956,200555.5099,199865.3441,199990.3741,Flanker Task,99,57171.26326,105,yes,1024
congruent,94.33962264,94.33962264,542.8603044,542.8603044,black,psycho,psycho,psycho,0,uniform,1,undefined,1,s,0,0,0,0,105,0,105,0,105,0,0,105,105,105,105,105,Mon Sep 21 13:48:25 2020,600,The main experiment item,yes,FlankerTask.osexp,/Users/tforestmoore/Desktop,no,mono,no,18,no,white,no,yes,768,psycho,25,79,/Users/tforestmoore/Desktop/tm-subject-2.csv,psycho,Lentiform Loewenfeld,3.3.3,0,s,h,NA,s,NA,s,371.929006,1355.251781,NA,705.306739,NA,371.929006,2,psycho,1024,2,48000,-16,experiment,SSSSS,2,even,151757.8981,5575.226101,153115.5554,NA,163640.589,4791.558732,193024.3198,NA,201690.3215,4841.560828,NA,200573.6797,201808.0227,202182.1316,201679.5511,201806.9175,Flanker Task,100,57543.19227,106,yes,1024
incongruent,94.39252336,94.39252336,544.0844031,544.0844031,black,psycho,psycho,psycho,0,uniform,1,undefined,1,s,0,0,0,0,106,0,106,0,106,0,0,106,106,106,106,106,Mon Sep 21 13:48:25 2020,600,The main experiment item,yes,FlankerTask.osexp,/Users/tforestmoore/Desktop,no,mono,no,18,no,white,no,yes,768,psycho,26,79,/Users/tforestmoore/Desktop/tm-subject-2.csv,psycho,Lentiform Loewenfeld,3.3.3,0,s,h,NA,s,NA,s,673.838864,1355.251781,NA,705.306739,NA,673.838864,2,psycho,1024,2,48000,-16,experiment,HHSHH,2,even,151757.8981,5575.226101,153115.5554,NA,163640.589,4791.558732,193024.3198,NA,203307.5334,4841.560828,NA,202190.6981,203424.0616,204100.278,203300.9059,203423.6453,Flanker Task,101,58217.03113,107,yes,1024
incongruent,94.44444444,94.44444444,543.8742809,543.8742809,black,psycho,psycho,psycho,0,uniform,1,undefined,1,h,0,0,0,0,107,0,107,0,107,0,0,107,107,107,107,107,Mon Sep 21 13:48:25 2020,600,The main experiment item,yes,FlankerTask.osexp,/Users/tforestmoore/Desktop,no,mono,no,18,no,white,no,yes,768,psycho,27,79,/Users/tforestmoore/Desktop/tm-subject-2.csv,psycho,Lentiform Loewenfeld,3.3.3,0,h,h,NA,s,NA,h,521.391201,1355.251781,NA,705.306739,NA,521.391201,2,psycho,1024,2,48000,-16,experiment,SSHSS,2,even,151757.8981,5575.226101,153115.5554,NA,163640.589,4791.558732,204123.6462,NA,205756.9818,4841.560828,NA,204640.3302,205874.5647,206399.261,205746.2653,205873.4003,Flanker Task,102,58738.42233,108,yes,1024
incongruent,94.49541284,94.49541284,543.5630071,543.5630071,black,psycho,psycho,psycho,0,uniform,1,undefined,1,h,0,0,0,0,108,0,108,0,108,0,0,108,108,108,108,108,Mon Sep 21 13:48:25 2020,600,The main experiment item,yes,FlankerTask.osexp,/Users/tforestmoore/Desktop,no,mono,no,18,no,white,no,yes,768,psycho,28,79,/Users/tforestmoore/Desktop/tm-subject-2.csv,psycho,Lentiform Loewenfeld,3.3.3,0,h,h,NA,s,NA,h,509.945435,1355.251781,NA,705.306739,NA,509.945435,2,psycho,1024,2,48000,-16,experiment,SSHSS,2,even,151757.8981,5575.226101,153115.5554,NA,163640.589,4791.558732,204123.6462,NA,207523.6694,4841.560828,NA,206407.3162,207642.7238,208155.0576,207514.3955,207641.6287,Flanker Task,103,59248.36777,109,yes,1024
congruent,94.54545455,94.54545455,543.6105634,543.6105634,black,psycho,psycho,psycho,0,uniform,1,undefined,1,s,0,0,0,0,109,0,109,0,109,0,0,109,109,109,109,109,Mon Sep 21 13:48:25 2020,600,The main experiment item,yes,FlankerTask.osexp,/Users/tforestmoore/Desktop,no,mono,no,18,no,white,no,yes,768,psycho,29,79,/Users/tforestmoore/Desktop/tm-subject-2.csv,psycho,Lentiform Loewenfeld,3.3.3,0,s,h,NA,s,NA,s,548.794209,1355.251781,NA,705.306739,NA,548.794209,2,psycho,1024,2,48000,-16,experiment,SSSSS,2,even,151757.8981,5575.226101,153115.5554,NA,163640.589,4791.558732,204123.6462,NA,209290.1638,4841.560828,NA,208173.5195,209407.8898,209959.0628,209279.798,209406.8321,Flanker Task,104,59797.16198,110,yes,1024
incongruent,93.69369369,93.69369369,545.7465525,545.7465525,black,psycho,psycho,psycho,0,uniform,0,undefined,0,h,0,0,0,0,110,0,110,0,110,0,0,110,110,110,110,110,Mon Sep 21 13:48:25 2020,600,The main experiment item,yes,FlankerTask.osexp,/Users/tforestmoore/Desktop,no,mono,no,18,no,white,no,yes,768,psycho,30,79,/Users/tforestmoore/Desktop/tm-subject-2.csv,psycho,Lentiform Loewenfeld,3.3.3,0,s,h,NA,s,NA,s,780.70535,1355.251781,NA,705.306739,NA,780.70535,2,psycho,1024,2,48000,-16,experiment,SSHSS,2,even,151757.8981,5575.226101,153115.5554,NA,163640.589,4791.558732,204123.6462,NA,211090.2761,4841.560828,NA,209973.444,211207.8883,211991.0213,211080.4436,211206.8087,Flanker Task,104,60577.86733,111,yes,1024
incongruent,93.75,93.75,545.3402487,545.3402487,black,psycho,psycho,psycho,0,uniform,1,undefined,1,s,0,0,0,0,111,0,111,0,111,0,0,111,111,111,111,111,Mon Sep 21 13:48:25 2020,600,The main experiment item,yes,FlankerTask.osexp,/Users/tforestmoore/Desktop,no,mono,no,18,no,white,no,yes,768,psycho,31,79,/Users/tforestmoore/Desktop/tm-subject-2.csv,psycho,Lentiform Loewenfeld,3.3.3,0,s,h,NA,s,NA,s,500.240529,1355.251781,NA,705.306739,NA,500.240529,2,psycho,1024,2,48000,-16,experiment,HHSHH,2,even,151757.8981,5575.226101,153115.5554,NA,212006.8472,4791.558732,212523.8979,NA,214157.1505,4841.560828,NA,213040.3053,214274.689,214778.009,214146.3892,214273.5583,Flanker Task,105,61078.10786,112,yes,1024
congruent,93.80530973,93.80530973,545.1829664,545.1829664,black,psycho,psycho,psycho,0,uniform,1,undefined,1,s,0,0,0,0,112,0,112,0,112,0,0,112,112,112,112,112,Mon Sep 21 13:48:25 2020,600,The main experiment item,yes,FlankerTask.osexp,/Users/tforestmoore/Desktop,no,mono,no,18,no,white,no,yes,768,psycho,32,79,/Users/tforestmoore/Desktop/tm-subject-2.csv,psycho,Lentiform Loewenfeld,3.3.3,0,s,h,NA,s,NA,s,527.56735,1355.251781,NA,705.306739,NA,527.56735,2,psycho,1024,2,48000,-16,experiment,SSSSS,2,even,151757.8981,5575.226101,153115.5554,NA,212006.8472,4791.558732,212523.8979,NA,215907.8043,4841.560828,NA,214789.893,216024.082,216554.1086,215892.3184,216023.5007,Flanker Task,106,61605.67521,113,yes,1024
congruent,93.85964912,93.85964912,544.6206682,544.6206682,black,psycho,psycho,psycho,0,uniform,1,undefined,1,h,0,0,0,0,113,0,113,0,113,0,0,113,113,113,113,113,Mon Sep 21 13:48:25 2020,600,The main experiment item,yes,FlankerTask.osexp,/Users/tforestmoore/Desktop,no,mono,no,18,no,white,no,yes,768,psycho,33,79,/Users/tforestmoore/Desktop/tm-subject-2.csv,psycho,Lentiform Loewenfeld,3.3.3,0,h,h,NA,s,NA,h,481.08097,1355.251781,NA,705.306739,NA,481.08097,2,psycho,1024,2,48000,-16,experiment,HHHHH,2,even,151757.8981,5575.226101,153115.5554,NA,212006.8472,4791.558732,212523.8979,NA,217690.4088,4841.560828,NA,216573.5735,217807.2712,218290.6113,217683.9568,217806.693,Flanker Task,107,62086.75618,114,yes,1024
congruent,93.91304348,93.91304348,543.4841139,543.4841139,black,psycho,psycho,psycho,0,uniform,1,undefined,1,h,0,0,0,0,114,0,114,0,114,0,0,114,114,114,114,114,Mon Sep 21 13:48:25 2020,600,The main experiment item,yes,FlankerTask.osexp,/Users/tforestmoore/Desktop,no,mono,no,18,no,white,no,yes,768,psycho,34,79,/Users/tforestmoore/Desktop/tm-subject-2.csv,psycho,Lentiform Loewenfeld,3.3.3,0,h,h,NA,s,NA,h,413.916916,1355.251781,NA,705.306739,NA,413.916916,2,psycho,1024,2,48000,-16,experiment,HHHHH,2,even,151757.8981,5575.226101,153115.5554,NA,212006.8472,4791.558732,212523.8979,NA,219423.3751,4841.560828,NA,218306.301,219539.9154,219956.2333,219411.7817,219539.6059,Flanker Task,108,62500.67309,115,yes,1024
incongruent,93.96551724,93.96551724,543.6128195,543.6128195,black,psycho,psycho,psycho,0,uniform,1,undefined,1,s,0,0,0,0,115,0,115,0,115,0,0,115,115,115,115,115,Mon Sep 21 13:48:25 2020,600,The main experiment item,yes,FlankerTask.osexp,/Users/tforestmoore/Desktop,no,mono,no,18,no,white,no,yes,768,psycho,35,79,/Users/tforestmoore/Desktop/tm-subject-2.csv,psycho,Lentiform Loewenfeld,3.3.3,0,s,h,NA,s,NA,s,558.413973,1355.251781,NA,705.306739,NA,558.413973,2,psycho,1024,2,48000,-16,experiment,HHSHH,2,even,151757.8981,5575.226101,153115.5554,NA,212006.8472,4791.558732,212523.8979,NA,221123.1972,4841.560828,NA,219972.8867,221240.3347,221801.1413,221106.9554,221239.7053,Flanker Task,109,63059.08707,116,yes,1024
incongruent,94.01709402,94.01709402,543.170316,543.170316,black,psycho,psycho,psycho,0,uniform,1,undefined,1,h,0,0,0,0,116,0,116,0,116,0,0,116,116,116,116,116,Mon Sep 21 13:48:25 2020,600,The main experiment item,yes,FlankerTask.osexp,/Users/tforestmoore/Desktop,no,mono,no,18,no,white,no,yes,768,psycho,36,79,/Users/tforestmoore/Desktop/tm-subject-2.csv,psycho,Lentiform Loewenfeld,3.3.3,0,h,h,NA,s,NA,h,491.839902,1355.251781,NA,705.306739,NA,491.839902,2,psycho,1024,2,48000,-16,experiment,SSHSS,2,even,151757.8981,5575.226101,153115.5554,NA,212006.8472,4791.558732,212523.8979,NA,222939.8619,4841.560828,NA,221823.3182,223057.7614,223551.9045,222931.3329,223056.65,Flanker Task,110,63550.92697,117,yes,1024
incongruent,94.06779661,94.06779661,544.9684592,544.9684592,black,psycho,psycho,psycho,0,uniform,1,undefined,1,s,0,0,0,0,117,0,117,0,117,0,0,117,117,117,117,117,Mon Sep 21 13:48:25 2020,600,The main experiment item,yes,FlankerTask.osexp,/Users/tforestmoore/Desktop,no,mono,no,18,no,white,no,yes,768,psycho,37,79,/Users/tforestmoore/Desktop/tm-subject-2.csv,psycho,Lentiform Loewenfeld,3.3.3,0,s,h,NA,s,NA,s,755.351213,1355.251781,NA,705.306739,NA,755.351213,2,psycho,1024,2,48000,-16,experiment,HHSHH,2,even,151757.8981,5575.226101,153115.5554,NA,212006.8472,4791.558732,212523.8979,NA,224723.2893,4841.560828,NA,223573.3156,224841.0015,225598.7973,224701.151,224839.9122,Flanker Task,111,64306.27818,118,yes,1024
congruent,93.27731092,93.27731092,544.6650619,544.6650619,black,psycho,psycho,psycho,0,uniform,0,undefined,0,s,0,0,0,0,118,0,118,0,118,0,0,118,118,118,118,118,Mon Sep 21 13:48:25 2020,600,The main experiment item,yes,FlankerTask.osexp,/Users/tforestmoore/Desktop,no,mono,no,18,no,white,no,yes,768,psycho,38,79,/Users/tforestmoore/Desktop/tm-subject-2.csv,psycho,Lentiform Loewenfeld,3.3.3,0,h,h,NA,s,NA,h,508.864181,1355.251781,NA,705.306739,NA,508.864181,2,psycho,1024,2,48000,-16,experiment,SSSSS,2,even,151757.8981,5575.226101,153115.5554,NA,212006.8472,4791.558732,225623.2954,NA,227256.538,4841.560828,NA,226140.0289,227374.572,227885.8356,227248.6611,227373.4523,Flanker Task,111,64815.14236,119,yes,1024
incongruent,93.33333333,93.33333333,544.1479306,544.1479306,black,psycho,psycho,psycho,0,uniform,1,undefined,1,s,0,0,0,0,119,0,119,0,119,0,0,119,119,119,119,119,Mon Sep 21 13:48:25 2020,600,The main experiment item,yes,FlankerTask.osexp,/Users/tforestmoore/Desktop,no,mono,no,18,no,white,no,yes,768,psycho,39,79,/Users/tforestmoore/Desktop/tm-subject-2.csv,psycho,Lentiform Loewenfeld,3.3.3,0,s,h,NA,s,NA,s,482.609305,1355.251781,NA,705.306739,NA,482.609305,2,psycho,1024,2,48000,-16,experiment,HHSHH,2,even,151757.8981,5575.226101,153115.5554,NA,227906.4836,4791.558732,225623.2954,NA,229556.6343,4841.560828,NA,228423.2719,229673.7112,230158.6147,229534.973,229673.1438,Flanker Task,112,65297.75167,120,yes,1024
congruent,93.38842975,93.38842975,544.5517911,544.5517911,black,psycho,psycho,psycho,0,uniform,1,undefined,1,h,0,0,0,0,120,0,120,0,120,0,0,120,120,120,120,120,Mon Sep 21 13:48:25 2020,600,The main experiment item,yes,FlankerTask.osexp,/Users/tforestmoore/Desktop,no,mono,no,18,no,white,no,yes,768,psycho,40,79,/Users/tforestmoore/Desktop/tm-subject-2.csv,psycho,Lentiform Loewenfeld,3.3.3,0,h,h,NA,s,NA,h,593.015052,1355.251781,NA,705.306739,NA,593.015052,2,psycho,1024,2,48000,-16,experiment,HHHHH,2,even,151757.8981,5575.226101,153115.5554,NA,227906.4836,4791.558732,225623.2954,NA,231290.0674,4841.560828,NA,230173.2122,231407.6966,232003.1558,231282.3565,231406.5347,Flanker Task,113,65890.76672,121,yes,1024
incongruent,93.44262295,93.44262295,545.2401776,545.2401776,black,psycho,psycho,psycho,0,uniform,1,undefined,1,s,0,0,0,0,121,0,121,0,121,0,0,121,121,121,121,121,Mon Sep 21 13:48:25 2020,600,The main experiment item,yes,FlankerTask.osexp,/Users/tforestmoore/Desktop,no,mono,no,18,no,white,no,yes,768,psycho,41,79,/Users/tforestmoore/Desktop/tm-subject-2.csv,psycho,Lentiform Loewenfeld,3.3.3,0,s,h,NA,s,NA,s,628.534943,1355.251781,NA,705.306739,NA,628.534943,2,psycho,1024,2,48000,-16,experiment,HHSHH,2,even,151757.8981,5575.226101,153115.5554,NA,227906.4836,4791.558732,225623.2954,NA,233173.7177,4841.560828,NA,232023.1906,233290.512,233921.5213,233156.0345,233289.9342,Flanker Task,114,66519.30166,122,yes,1024
incongruent,93.49593496,93.49593496,544.8686204,544.8686204,black,psycho,psycho,psycho,0,uniform,1,undefined,1,s,0,0,0,0,122,0,122,0,122,0,0,122,122,122,122,122,Mon Sep 21 13:48:25 2020,600,The main experiment item,yes,FlankerTask.osexp,/Users/tforestmoore/Desktop,no,mono,no,18,no,white,no,yes,768,psycho,42,79,/Users/tforestmoore/Desktop/tm-subject-2.csv,psycho,Lentiform Loewenfeld,3.3.3,0,s,h,NA,s,NA,s,499.538645,1355.251781,NA,705.306739,NA,499.538645,2,psycho,1024,2,48000,-16,experiment,HHSHH,2,even,151757.8981,5575.226101,153115.5554,NA,227906.4836,4791.558732,233939.9659,NA,235573.3206,4841.560828,NA,234456.3834,235690.963,236193.0089,235559.569,235689.8588,Flanker Task,115,67018.84031,123,yes,1024
incongruent,93.5483871,93.5483871,545.9192936,545.9192936,black,psycho,psycho,psycho,0,uniform,1,undefined,1,h,0,0,0,0,123,0,123,0,123,0,0,123,123,123,123,123,Mon Sep 21 13:48:25 2020,600,The main experiment item,yes,FlankerTask.osexp,/Users/tforestmoore/Desktop,no,mono,no,18,no,white,no,yes,768,psycho,43,79,/Users/tforestmoore/Desktop/tm-subject-2.csv,psycho,Lentiform Loewenfeld,3.3.3,0,h,h,NA,s,NA,h,675.152104,1355.251781,NA,705.306739,NA,675.152104,2,psycho,1024,2,48000,-16,experiment,SSHSS,2,even,151757.8981,5575.226101,153115.5554,NA,227906.4836,4791.558732,233939.9659,NA,237323.1935,4841.560828,NA,236206.6609,237440.8251,238118.2606,237312.1757,237439.7249,Flanker Task,116,67693.99241,124,yes,1024
incongruent,93.6,93.6,545.7593944,545.7593944,black,psycho,psycho,psycho,0,uniform,1,undefined,1,s,0,0,0,0,124,0,124,0,124,0,0,124,124,124,124,124,Mon Sep 21 13:48:25 2020,600,The main experiment item,yes,FlankerTask.osexp,/Users/tforestmoore/Desktop,no,mono,no,18,no,white,no,yes,768,psycho,44,79,/Users/tforestmoore/Desktop/tm-subject-2.csv,psycho,Lentiform Loewenfeld,3.3.3,0,s,h,NA,s,NA,s,525.93189,1355.251781,NA,705.306739,NA,525.93189,2,psycho,1024,2,48000,-16,experiment,HHSHH,2,even,151757.8981,5575.226101,153115.5554,NA,227906.4836,4791.558732,238139.7932,NA,239773.2019,4841.560828,NA,238656.0898,239891.1533,240419.4517,239764.2938,239889.7508,Flanker Task,117,68219.9243,125,yes,1024
congruent,93.65079365,93.65079365,545.4408094,545.4408094,black,psycho,psycho,psycho,0,uniform,1,undefined,1,h,0,0,0,0,125,0,125,0,125,0,0,125,125,125,125,125,Mon Sep 21 13:48:25 2020,600,The main experiment item,yes,FlankerTask.osexp,/Users/tforestmoore/Desktop,no,mono,no,18,no,white,no,yes,768,psycho,45,79,/Users/tforestmoore/Desktop/tm-subject-2.csv,psycho,Lentiform Loewenfeld,3.3.3,0,h,h,NA,s,NA,h,505.617679,1355.251781,NA,705.306739,NA,505.617679,2,psycho,1024,2,48000,-16,experiment,HHHHH,2,even,151757.8981,5575.226101,153115.5554,NA,227906.4836,4791.558732,238139.7932,NA,241556.286,4841.560828,NA,240439.783,241674.2258,242182.2619,241547.0385,241673.0387,Flanker Task,118,68725.54198,126,yes,1024
congruent,93.7007874,93.7007874,546.740891,546.740891,black,psycho,psycho,psycho,0,uniform,1,undefined,1,h,0,0,0,0,126,0,126,0,126,0,0,126,126,126,126,126,Mon Sep 21 13:48:25 2020,600,The main experiment item,yes,FlankerTask.osexp,/Users/tforestmoore/Desktop,no,mono,no,18,no,white,no,yes,768,psycho,46,79,/Users/tforestmoore/Desktop/tm-subject-2.csv,psycho,Lentiform Loewenfeld,3.3.3,0,h,h,NA,s,NA,h,710.551175,1355.251781,NA,705.306739,NA,710.551175,2,psycho,1024,2,48000,-16,experiment,HHHHH,2,even,151757.8981,5575.226101,153115.5554,NA,227906.4836,4791.558732,238139.7932,NA,243306.3059,4841.560828,NA,242190.0576,243424.2366,244137.556,243292.8181,243423.0946,Flanker Task,119,69436.09316,127,yes,1024
congruent,93.75,93.75,546.4773561,546.4773561,black,psycho,psycho,psycho,0,uniform,1,undefined,1,s,0,0,0,0,127,0,127,0,127,0,0,127,127,127,127,127,Mon Sep 21 13:48:25 2020,600,The main experiment item,yes,FlankerTask.osexp,/Users/tforestmoore/Desktop,no,mono,no,18,no,white,no,yes,768,psycho,47,79,/Users/tforestmoore/Desktop/tm-subject-2.csv,psycho,Lentiform Loewenfeld,3.3.3,0,s,h,NA,s,NA,s,513.008421,1355.251781,NA,705.306739,NA,513.008421,2,psycho,1024,2,48000,-16,experiment,SSSSS,2,even,151757.8981,5575.226101,153115.5554,NA,227906.4836,4791.558732,244156.4545,NA,245789.8108,4841.560828,NA,244673.1727,245907.6267,246423.9088,245780.2435,245906.4751,Flanker Task,120,69949.10158,128,yes,1024
congruent,93.79844961,93.79844961,546.3707219,546.3707219,black,psycho,psycho,psycho,0,uniform,1,undefined,1,h,0,0,0,0,128,0,128,0,128,0,0,128,128,128,128,128,Mon Sep 21 13:48:25 2020,600,The main experiment item,yes,FlankerTask.osexp,/Users/tforestmoore/Desktop,no,mono,no,18,no,white,no,yes,768,psycho,48,79,/Users/tforestmoore/Desktop/tm-subject-2.csv,psycho,Lentiform Loewenfeld,3.3.3,0,h,h,NA,s,NA,h,532.721551,1355.251781,NA,705.306739,NA,532.721551,2,psycho,1024,2,48000,-16,experiment,HHHHH,2,even,151757.8981,5575.226101,153115.5554,NA,227906.4836,4791.558732,244156.4545,NA,247556.6107,4841.560828,NA,246439.822,247674.1521,248209.2753,247549.2337,247673.1632,Flanker Task,121,70481.82313,129,yes,1024
congruent,93.84615385,93.84615385,545.9010512,545.9010512,black,psycho,psycho,psycho,0,uniform,1,undefined,1,s,0,0,0,0,129,0,129,0,129,0,0,129,129,129,129,129,Mon Sep 21 13:48:25 2020,600,The main experiment item,yes,FlankerTask.osexp,/Users/tforestmoore/Desktop,no,mono,no,18,no,white,no,yes,768,psycho,49,79,/Users/tforestmoore/Desktop/tm-subject-2.csv,psycho,Lentiform Loewenfeld,3.3.3,0,s,h,NA,s,NA,s,485.313523,1355.251781,NA,705.306739,NA,485.313523,2,psycho,1024,2,48000,-16,experiment,SSSSS,2,even,151757.8981,5575.226101,153115.5554,NA,227906.4836,4791.558732,244156.4545,NA,249339.5948,4841.560828,NA,248223.052,249457.6075,249945.4816,249330.2729,249456.7685,Flanker Task,122,70967.13665,130,yes,1024
incongruent,93.89312977,93.89312977,545.0383289,545.0383289,black,psycho,psycho,psycho,0,uniform,1,undefined,1,h,0,0,0,0,130,0,130,0,130,0,0,130,130,130,130,130,Mon Sep 21 13:48:25 2020,600,The main experiment item,yes,FlankerTask.osexp,/Users/tforestmoore/Desktop,no,mono,no,18,no,white,no,yes,768,psycho,50,79,/Users/tforestmoore/Desktop/tm-subject-2.csv,psycho,Lentiform Loewenfeld,3.3.3,0,h,h,NA,s,NA,h,432.884437,1355.251781,NA,705.306739,NA,432.884437,2,psycho,1024,2,48000,-16,experiment,SSHSS,2,even,151757.8981,5575.226101,153115.5554,NA,227906.4836,4791.558732,244156.4545,NA,251073.0108,4841.560828,NA,249956.7244,251190.9063,251626.473,251059.1066,251189.6759,Flanker Task,123,71400.02109,131,yes,1024
incongruent,93.18181818,93.18181818,544.1548439,544.1548439,black,psycho,psycho,psycho,0,uniform,0,undefined,0,s,0,0,0,0,131,0,131,0,131,0,0,131,131,131,131,131,Mon Sep 21 13:48:25 2020,600,The main experiment item,yes,FlankerTask.osexp,/Users/tforestmoore/Desktop,no,mono,no,18,no,white,no,yes,768,psycho,51,79,/Users/tforestmoore/Desktop/tm-subject-2.csv,psycho,Lentiform Loewenfeld,3.3.3,0,h,h,NA,s,NA,h,428.418308,1355.251781,NA,705.306739,NA,428.418308,2,psycho,1024,2,48000,-16,experiment,HHSHH,2,even,151757.8981,5575.226101,153115.5554,NA,227906.4836,4791.558732,244156.4545,NA,252773.0286,4841.560828,NA,251639.6813,252890.8647,253322.0074,252766.6082,252889.7076,Flanker Task,123,71828.4394,132,yes,1024
congruent,93.23308271,93.23308271,542.8508925,542.8508925,black,psycho,psycho,psycho,0,uniform,1,undefined,1,s,0,0,0,0,132,0,132,0,132,0,0,132,132,132,132,132,Mon Sep 21 13:48:25 2020,600,The main experiment item,yes,FlankerTask.osexp,/Users/tforestmoore/Desktop,no,mono,no,18,no,white,no,yes,768,psycho,52,79,/Users/tforestmoore/Desktop/tm-subject-2.csv,psycho,Lentiform Loewenfeld,3.3.3,0,s,h,NA,s,NA,s,370.729302,1355.251781,NA,705.306739,NA,370.729302,2,psycho,1024,2,48000,-16,experiment,SSSSS,2,even,151757.8981,5575.226101,153115.5554,NA,253339.4719,4791.558732,244156.4545,NA,255006.0741,4841.560828,NA,253856.293,255124.1673,255497.4078,254990.0008,255123.0746,Flanker Task,124,72199.1687,133,yes,1024
congruent,93.28358209,93.28358209,542.5007164,542.5007164,black,psycho,psycho,psycho,0,uniform,1,undefined,1,h,0,0,0,0,133,0,133,0,133,0,0,133,133,133,133,133,Mon Sep 21 13:48:25 2020,600,The main experiment item,yes,FlankerTask.osexp,/Users/tforestmoore/Desktop,no,mono,no,18,no,white,no,yes,768,psycho,53,79,/Users/tforestmoore/Desktop/tm-subject-2.csv,psycho,Lentiform Loewenfeld,3.3.3,0,h,h,NA,s,NA,h,495.927302,1355.251781,NA,705.306739,NA,495.927302,2,psycho,1024,2,48000,-16,experiment,HHHHH,2,even,151757.8981,5575.226101,153115.5554,NA,253339.4719,4791.558732,244156.4545,NA,256622.973,4841.560828,NA,255506.2113,256740.5228,257238.9368,256612.3662,256739.4544,Flanker Task,125,72695.096,134,yes,1024
congruent,93.33333333,93.33333333,541.5620786,541.5620786,black,psycho,psycho,psycho,0,uniform,1,undefined,1,s,0,0,0,0,134,0,134,0,134,0,0,134,134,134,134,134,Mon Sep 21 13:48:25 2020,600,The main experiment item,yes,FlankerTask.osexp,/Users/tforestmoore/Desktop,no,mono,no,18,no,white,no,yes,768,psycho,54,79,/Users/tforestmoore/Desktop/tm-subject-2.csv,psycho,Lentiform Loewenfeld,3.3.3,0,s,h,NA,s,NA,s,415.784606,1355.251781,NA,705.306739,NA,415.784606,2,psycho,1024,2,48000,-16,experiment,SSSSS,2,even,151757.8981,5575.226101,153115.5554,NA,253339.4719,4791.558732,244156.4545,NA,258389.3769,4841.560828,NA,257256.3048,258506.6879,258925.3749,258380.8493,258506.0075,Flanker Task,126,73110.88061,135,yes,1024
congruent,93.38235294,93.38235294,540.7999602,540.7999602,black,psycho,psycho,psycho,0,uniform,1,undefined,1,s,0,0,0,0,135,0,135,0,135,0,0,135,135,135,135,135,Mon Sep 21 13:48:25 2020,600,The main experiment item,yes,FlankerTask.osexp,/Users/tforestmoore/Desktop,no,mono,no,18,no,white,no,yes,768,psycho,55,79,/Users/tforestmoore/Desktop/tm-subject-2.csv,psycho,Lentiform Loewenfeld,3.3.3,0,s,h,NA,s,NA,s,437.913984,1355.251781,NA,705.306739,NA,437.913984,2,psycho,1024,2,48000,-16,experiment,SSSSS,2,even,151757.8981,5575.226101,153115.5554,NA,253339.4719,4791.558732,244156.4545,NA,260056.392,4841.560828,NA,258939.5365,260173.9602,260615.3144,260046.0486,260172.8001,Flanker Task,127,73548.79459,136,yes,1024
congruent,93.43065693,93.43065693,540.7061457,540.7061457,black,psycho,psycho,psycho,0,uniform,1,undefined,1,s,0,0,0,0,136,0,136,0,136,0,0,136,136,136,136,136,Mon Sep 21 13:48:25 2020,600,The main experiment item,yes,FlankerTask.osexp,/Users/tforestmoore/Desktop,no,mono,no,18,no,white,no,yes,768,psycho,56,79,/Users/tforestmoore/Desktop/tm-subject-2.csv,psycho,Lentiform Loewenfeld,3.3.3,0,s,h,NA,s,NA,s,527.947365,1355.251781,NA,705.306739,NA,527.947365,2,psycho,1024,2,48000,-16,experiment,SSSSS,2,even,151757.8981,5575.226101,153115.5554,NA,253339.4719,4791.558732,244156.4545,NA,261739.9526,4841.560828,NA,260622.8391,261856.6584,262386.9885,261731.0172,261856.0772,Flanker Task,128,74076.74195,137,yes,1024
incongruent,93.47826087,93.47826087,539.6611291,539.6611291,black,psycho,psycho,psycho,0,uniform,1,undefined,1,h,0,0,0,0,137,0,137,0,137,0,0,137,137,137,137,137,Mon Sep 21 13:48:25 2020,600,The main experiment item,yes,FlankerTask.osexp,/Users/tforestmoore/Desktop,no,mono,no,18,no,white,no,yes,768,psycho,57,79,/Users/tforestmoore/Desktop/tm-subject-2.csv,psycho,Lentiform Loewenfeld,3.3.3,0,h,h,NA,s,NA,h,396.493861,1355.251781,NA,705.306739,NA,396.493861,2,psycho,1024,2,48000,-16,experiment,SSHSS,2,even,151757.8981,5575.226101,153115.5554,NA,253339.4719,4791.558732,244156.4545,NA,263523.0947,4841.560828,NA,262406.6619,263639.8247,264038.8608,263512.7481,263639.247,Flanker Task,129,74473.23582,138,yes,1024
incongruent,93.52517986,93.52517986,539.0580353,539.0580353,black,psycho,psycho,psycho,0,uniform,1,undefined,1,s,0,0,0,0,138,0,138,0,138,0,0,138,138,138,138,138,Mon Sep 21 13:48:25 2020,600,The main experiment item,yes,FlankerTask.osexp,/Users/tforestmoore/Desktop,no,mono,no,18,no,white,no,yes,768,psycho,58,79,/Users/tforestmoore/Desktop/tm-subject-2.csv,psycho,Lentiform Loewenfeld,3.3.3,0,s,h,NA,s,NA,s,455.831086,1355.251781,NA,705.306739,NA,455.831086,2,psycho,1024,2,48000,-16,experiment,HHSHH,2,even,151757.8981,5575.226101,153115.5554,NA,253339.4719,4791.558732,244156.4545,NA,265172.2591,4841.560828,NA,264056.0668,265289.6051,265747.9245,265163.7868,265288.9836,Flanker Task,130,74929.0669,139,yes,1024
congruent,93.57142857,93.57142857,537.7205107,537.7205107,black,psycho,psycho,psycho,0,uniform,1,undefined,1,h,0,0,0,0,139,0,139,0,139,0,0,139,139,139,139,139,Mon Sep 21 13:48:25 2020,600,The main experiment item,yes,FlankerTask.osexp,/Users/tforestmoore/Desktop,no,mono,no,18,no,white,no,yes,768,psycho,59,79,/Users/tforestmoore/Desktop/tm-subject-2.csv,psycho,Lentiform Loewenfeld,3.3.3,0,h,h,NA,s,NA,h,351.8046,1355.251781,NA,705.306739,NA,351.8046,2,psycho,1024,2,48000,-16,experiment,HHHHH,2,even,151757.8981,5575.226101,153115.5554,NA,253339.4719,4791.558732,244156.4545,NA,266872.7672,4841.560828,NA,265755.799,266989.8765,267344.5141,266863.1509,266989.2179,Flanker Task,131,75280.8715,140,yes,1024
congruent,93.61702128,93.61702128,537.6744953,537.6744953,black,psycho,psycho,psycho,0,uniform,1,undefined,1,h,0,0,0,0,140,0,140,0,140,0,0,140,140,140,140,140,Mon Sep 21 13:48:25 2020,600,The main experiment item,yes,FlankerTask.osexp,/Users/tforestmoore/Desktop,no,mono,no,18,no,white,no,yes,768,psycho,60,79,/Users/tforestmoore/Desktop/tm-subject-2.csv,psycho,Lentiform Loewenfeld,3.3.3,0,h,h,NA,s,NA,h,531.232335,1355.251781,NA,705.306739,NA,531.232335,2,psycho,1024,2,48000,-16,experiment,HHHHH,2,even,151757.8981,5575.226101,153115.5554,NA,253339.4719,4791.558732,244156.4545,NA,268504.965,4841.560828,NA,267356.213,268623.1192,269157.1427,268488.3968,268622.4447,Flanker Task,132,75812.10384,141,yes,1024
incongruent,93.66197183,93.66197183,540.220565,540.220565,black,psycho,psycho,psycho,0,uniform,1,undefined,1,h,0,0,0,0,141,0,141,0,141,0,0,141,141,141,141,141,Mon Sep 21 13:48:25 2020,600,The main experiment item,yes,FlankerTask.osexp,/Users/tforestmoore/Desktop,no,mono,no,18,no,white,no,yes,768,psycho,61,79,/Users/tforestmoore/Desktop/tm-subject-2.csv,psycho,Lentiform Loewenfeld,3.3.3,0,h,h,NA,s,NA,h,899.216388,1355.251781,NA,705.306739,NA,899.216388,2,psycho,1024,2,48000,-16,experiment,SSHSS,2,even,151757.8981,5575.226101,153115.5554,NA,253339.4719,4791.558732,244156.4545,NA,270289.2815,4841.560828,NA,269172.7539,270407.2341,271309.1591,270279.4309,270406.1365,Flanker Task,133,76711.32022,142,yes,1024
congruent,93.70629371,93.70629371,539.3610366,539.3610366,black,psycho,psycho,psycho,0,uniform,1,undefined,1,s,0,0,0,0,142,0,142,0,142,0,0,142,142,142,142,142,Mon Sep 21 13:48:25 2020,600,The main experiment item,yes,FlankerTask.osexp,/Users/tforestmoore/Desktop,no,mono,no,18,no,white,no,yes,768,psycho,62,79,/Users/tforestmoore/Desktop/tm-subject-2.csv,psycho,Lentiform Loewenfeld,3.3.3,0,s,h,NA,s,NA,s,417.308015,1355.251781,NA,705.306739,NA,417.308015,2,psycho,1024,2,48000,-16,experiment,SSSSS,2,even,151757.8981,5575.226101,153115.5554,NA,253339.4719,4791.558732,271322.8505,NA,272989.43,4841.560828,NA,271839.321,273105.8819,273525.9083,272969.7715,273105.562,Flanker Task,134,77128.62824,143,yes,1024
