"acc","accuracy","average_response_time","avg_rt","background","canvas_backend","clock_backend","color_backend","compensation","condition","coordinates","correct","correct_Instructions1","correct_keyboard_response","correct_response","count_Block1","count_Block2","count_Block3","count_ErrorFeedback","count_Faster","count_Finished","count_Fixation","count_ISI","count_Instructions1","count_Instructions2","count_Instructions3","count_Sequence","count_experiment","count_keyboard_response","count_logger","count_stimulus","datetime","deadline","description","disable_garbage_collection","experiment_file","experiment_path","font_bold","font_family","font_italic","font_size","font_underline","foreground","form_clicks","fullscreen","height","keyboard_backend","live_row","live_row_Block1","logfile","mouse_backend","opensesame_codename","opensesame_version","repeat_cycle","response","response_Finished","response_Instructions1","response_Instructions2","response_Instructions3","response_keyboard_response","response_time","response_time_Finished","response_time_Instructions1","response_time_Instructions2","response_time_Instructions3","response_time_keyboard_response","round_decimals","sampler_backend","sound_buf_size","sound_channels","sound_freq","sound_sample_size","start","stimulus","subject_nr","subject_parity","time_Block1","time_Block2","time_Block3","time_ErrorFeedback","time_Faster","time_Finished","time_Fixation","time_ISI","time_Instructions1","time_Instructions2","time_Instructions3","time_Sequence","time_experiment","time_keyboard_response","time_logger","time_stimulus","title","total_correct","total_response_time","total_responses","uniform_coordinates","width"
"100","100","1435","1435","black","legacy","legacy","legacy","0","Congruent","uniform","1","undefined","1","h","0","0","0","0","0","0","0","0","0","0","0","0","0","0","0","0","09/27/20 07:35:32","1500","The main experiment item","yes","FlankerTask.osexp","C:/Users/solom/Desktop","no","mono","no","18","no","white","no","yes","768","legacy","0","0","C:/Users/solom/Desktop/MW-subject-4.csv","legacy","Lentiform Loewenfeld","3.3.3","0","h","NA","s","NA","NA","h","1435","NA","28324","NA","NA","1435","2","legacy","1024","2","48000","-16","experiment","HHHHH","4","even","33237","NA","NA","NA","NA","NA","33526","NA","4911","NA","NA","33522","4901","33632","35068","33631","Flanker Task","1","1435","1","yes","1024"
"100","100","1202","1202","black","legacy","legacy","legacy","0","Congruent","uniform","1","undefined","1","s","0","0","0","1","1","0","1","1","0","0","0","1","0","1","1","1","09/27/20 07:35:32","1500","The main experiment item","yes","FlankerTask.osexp","C:/Users/solom/Desktop","no","mono","no","18","no","white","no","yes","768","legacy","1","1","C:/Users/solom/Desktop/MW-subject-4.csv","legacy","Lentiform Loewenfeld","3.3.3","0","s","NA","s","NA","NA","s","969","NA","28324","NA","NA","969","2","legacy","1024","2","48000","-16","experiment","SSSSS","4","even","33237","NA","NA","NA","NA","NA","36311","35125","4911","NA","NA","36307","4901","36418","37388","36417","Flanker Task","2","2404","2","yes","1024"
"100","100","1232.33333333","1232.33333333","black","legacy","legacy","legacy","0","Incongruent","uniform","1","undefined","1","s","0","0","0","2","2","0","2","2","0","0","0","2","0","2","2","2","09/27/20 07:35:32","1500","The main experiment item","yes","FlankerTask.osexp","C:/Users/solom/Desktop","no","mono","no","18","no","white","no","yes","768","legacy","2","2","C:/Users/solom/Desktop/MW-subject-4.csv","legacy","Lentiform Loewenfeld","3.3.3","0","s","NA","s","NA","NA","s","1293","NA","28324","NA","NA","1293","2","legacy","1024","2","48000","-16","experiment","HHSHH","4","even","33237","NA","NA","NA","NA","NA","38596","37417","4911","NA","NA","38591","4901","38702","39996","38701","Flanker Task","3","3697","3","yes","1024"
"100","100","1181.25","1181.25","black","legacy","legacy","legacy","0","Incongruent","uniform","1","undefined","1","h","0","0","0","3","3","0","3","3","0","0","0","3","0","3","3","3","09/27/20 07:35:32","1500","The main experiment item","yes","FlankerTask.osexp","C:/Users/solom/Desktop","no","mono","no","18","no","white","no","yes","768","legacy","3","3","C:/Users/solom/Desktop/MW-subject-4.csv","legacy","Lentiform Loewenfeld","3.3.3","0","h","NA","s","NA","NA","h","1028","NA","28324","NA","NA","1028","2","legacy","1024","2","48000","-16","experiment","SSHSS","4","even","33237","NA","NA","NA","NA","NA","41213","40025","4911","NA","NA","41208","4901","41319","42348","41318","Flanker Task","4","4725","4","yes","1024"
"80","80","1245.2","1245.2","black","legacy","legacy","legacy","0","Incongruent","uniform","0","undefined","0","s","0","0","0","4","4","0","4","4","0","0","0","4","0","4","4","4","09/27/20 07:35:32","1500","The main experiment item","yes","FlankerTask.osexp","C:/Users/solom/Desktop","no","mono","no","18","no","white","no","yes","768","legacy","4","4","C:/Users/solom/Desktop/MW-subject-4.csv","legacy","Lentiform Loewenfeld","3.3.3","0","None","NA","s","NA","NA","None","1501","NA","28324","NA","NA","1501","2","legacy","1024","2","48000","-16","experiment","HHSHH","4","even","33237","NA","NA","NA","NA","NA","43559","42382","4911","NA","NA","43554","4901","43663","45164","43663","Flanker Task","4","6226","5","yes","1024"
"83.3333333333","83.3333333333","1155.66666667","1155.66666667","black","legacy","legacy","legacy","0","Congruent","uniform","1","undefined","1","h","0","0","0","5","5","0","5","5","0","0","0","5","0","5","5","5","09/27/20 07:35:32","1500","The main experiment item","yes","FlankerTask.osexp","C:/Users/solom/Desktop","no","mono","no","18","no","white","no","yes","768","legacy","5","5","C:/Users/solom/Desktop/MW-subject-4.csv","legacy","Lentiform Loewenfeld","3.3.3","0","h","NA","s","NA","NA","h","708","NA","28324","NA","NA","708","2","legacy","1024","2","48000","-16","experiment","HHHHH","4","even","33237","NA","NA","45195","45701","NA","47380","46204","4911","NA","NA","47376","4901","47487","48196","47486","Flanker Task","5","6934","6","yes","1024"
"85.7142857143","85.7142857143","1079.85714286","1079.85714286","black","legacy","legacy","legacy","0","Incongruent","uniform","1","undefined","1","h","0","0","0","6","6","0","6","6","0","0","0","6","0","6","6","6","09/27/20 07:35:32","1500","The main experiment item","yes","FlankerTask.osexp","C:/Users/solom/Desktop","no","mono","no","18","no","white","no","yes","768","legacy","6","6","C:/Users/solom/Desktop/MW-subject-4.csv","legacy","Lentiform Loewenfeld","3.3.3","0","h","NA","s","NA","NA","h","625","NA","28324","NA","NA","625","2","legacy","1024","2","48000","-16","experiment","SSHSS","4","even","33237","NA","NA","45195","45701","NA","49409","48236","4911","NA","NA","49404","4901","49514","50140","49513","Flanker Task","6","7559","7","yes","1024"
"87.5","87.5","1025.625","1025.625","black","legacy","legacy","legacy","0","Congruent","uniform","1","undefined","1","s","0","0","0","7","7","0","7","7","0","0","0","7","0","7","7","7","09/27/20 07:35:32","1500","The main experiment item","yes","FlankerTask.osexp","C:/Users/solom/Desktop","no","mono","no","18","no","white","no","yes","768","legacy","7","7","C:/Users/solom/Desktop/MW-subject-4.csv","legacy","Lentiform Loewenfeld","3.3.3","0","s","NA","s","NA","NA","s","646","NA","28324","NA","NA","646","2","legacy","1024","2","48000","-16","experiment","SSSSS","4","even","33237","NA","NA","45195","45701","NA","51356","50167","4911","NA","NA","51351","4901","51462","52109","51461","Flanker Task","7","8205","8","yes","1024"
"88.8888888889","88.8888888889","967.222222222","967.222222222","black","legacy","legacy","legacy","0","Congruent","uniform","1","undefined","1","s","0","0","0","8","8","0","8","8","0","0","0","8","0","8","8","8","09/27/20 07:35:32","1500","The main experiment item","yes","FlankerTask.osexp","C:/Users/solom/Desktop","no","mono","no","18","no","white","no","yes","768","legacy","8","8","C:/Users/solom/Desktop/MW-subject-4.csv","legacy","Lentiform Loewenfeld","3.3.3","0","s","NA","s","NA","NA","s","500","NA","28324","NA","NA","500","2","legacy","1024","2","48000","-16","experiment","SSSSS","4","even","33237","NA","NA","45195","45701","NA","53325","52152","4911","NA","NA","53320","4901","53431","53932","53430","Flanker Task","8","8705","9","yes","1024"
"90","90","932.1","932.1","black","legacy","legacy","legacy","0","Incongruent","uniform","1","undefined","1","h","0","0","0","9","9","0","9","9","0","0","0","9","0","9","9","9","09/27/20 07:35:32","1500","The main experiment item","yes","FlankerTask.osexp","C:/Users/solom/Desktop","no","mono","no","18","no","white","no","yes","768","legacy","9","9","C:/Users/solom/Desktop/MW-subject-4.csv","legacy","Lentiform Loewenfeld","3.3.3","0","h","NA","s","NA","NA","h","616","NA","28324","NA","NA","616","2","legacy","1024","2","48000","-16","experiment","SSHSS","4","even","33237","NA","NA","45195","45701","NA","55138","53960","4911","NA","NA","55133","4901","55243","55861","55243","Flanker Task","9","9321","10","yes","1024"
"90.9090909091","90.9090909091","907.818181818","907.818181818","black","legacy","legacy","legacy","0","Incongruent","uniform","1","undefined","1","s","0","0","0","10","10","0","10","10","0","0","0","10","0","10","10","10","09/27/20 07:35:32","1500","The main experiment item","yes","FlankerTask.osexp","C:/Users/solom/Desktop","no","mono","no","18","no","white","no","yes","768","legacy","10","10","C:/Users/solom/Desktop/MW-subject-4.csv","legacy","Lentiform Loewenfeld","3.3.3","0","s","NA","s","NA","NA","s","665","NA","28324","NA","NA","665","2","legacy","1024","2","48000","-16","experiment","HHSHH","4","even","33237","NA","NA","45195","45701","NA","57072","55894","4911","NA","NA","57067","4901","57178","57844","57177","Flanker Task","10","9986","11","yes","1024"
"91.6666666667","91.6666666667","889.333333333","889.333333333","black","legacy","legacy","legacy","0","Congruent","uniform","1","undefined","1","h","0","0","0","11","11","0","11","11","0","0","0","11","0","11","11","11","09/27/20 07:35:32","1500","The main experiment item","yes","FlankerTask.osexp","C:/Users/solom/Desktop","no","mono","no","18","no","white","no","yes","768","legacy","11","11","C:/Users/solom/Desktop/MW-subject-4.csv","legacy","Lentiform Loewenfeld","3.3.3","0","h","NA","s","NA","NA","h","686","NA","28324","NA","NA","686","2","legacy","1024","2","48000","-16","experiment","HHHHH","4","even","33237","NA","NA","45195","45701","NA","59045","57873","4911","NA","NA","59041","4901","59149","59837","59149","Flanker Task","11","10672","12","yes","1024"
"92.3076923077","92.3076923077","862.461538462","862.461538462","black","legacy","legacy","legacy","0","Congruent","uniform","1","undefined","1","s","0","0","0","12","12","0","12","12","0","0","0","12","0","12","12","12","09/27/20 07:35:32","1500","The main experiment item","yes","FlankerTask.osexp","C:/Users/solom/Desktop","no","mono","no","18","no","white","no","yes","768","legacy","12","12","C:/Users/solom/Desktop/MW-subject-4.csv","legacy","Lentiform Loewenfeld","3.3.3","0","s","NA","s","NA","NA","s","540","NA","28324","NA","NA","540","2","legacy","1024","2","48000","-16","experiment","SSSSS","4","even","33237","NA","NA","45195","45701","NA","61040","59865","4911","NA","NA","61035","4901","61143","61685","61143","Flanker Task","12","11212","13","yes","1024"
"92.8571428571","92.8571428571","837.785714286","837.785714286","black","legacy","legacy","legacy","0","Incongruent","uniform","1","undefined","1","h","0","0","0","13","13","0","13","13","0","0","0","13","0","13","13","13","09/27/20 07:35:32","1500","The main experiment item","yes","FlankerTask.osexp","C:/Users/solom/Desktop","no","mono","no","18","no","white","no","yes","768","legacy","13","13","C:/Users/solom/Desktop/MW-subject-4.csv","legacy","Lentiform Loewenfeld","3.3.3","0","h","NA","s","NA","NA","h","517","NA","28324","NA","NA","517","2","legacy","1024","2","48000","-16","experiment","SSHSS","4","even","33237","NA","NA","45195","45701","NA","62891","61716","4911","NA","NA","62887","4901","62998","63516","62998","Flanker Task","13","11729","14","yes","1024"
"93.3333333333","93.3333333333","833.866666667","833.866666667","black","legacy","legacy","legacy","0","Congruent","uniform","1","undefined","1","h","0","0","0","14","14","0","14","14","0","0","0","14","0","14","14","14","09/27/20 07:35:32","1500","The main experiment item","yes","FlankerTask.osexp","C:/Users/solom/Desktop","no","mono","no","18","no","white","no","yes","768","legacy","14","14","C:/Users/solom/Desktop/MW-subject-4.csv","legacy","Lentiform Loewenfeld","3.3.3","0","h","NA","s","NA","NA","h","779","NA","28324","NA","NA","779","2","legacy","1024","2","48000","-16","experiment","HHHHH","4","even","33237","NA","NA","45195","45701","NA","64725","63549","4911","NA","NA","64721","4901","64832","65613","64832","Flanker Task","14","12508","15","yes","1024"
"93.75","93.75","822.8125","822.8125","black","legacy","legacy","legacy","0","Incongruent","uniform","1","undefined","1","h","0","0","0","15","15","0","15","15","0","0","0","15","0","15","15","15","09/27/20 07:35:32","1500","The main experiment item","yes","FlankerTask.osexp","C:/Users/solom/Desktop","no","mono","no","18","no","white","no","yes","768","legacy","15","15","C:/Users/solom/Desktop/MW-subject-4.csv","legacy","Lentiform Loewenfeld","3.3.3","0","h","NA","s","NA","NA","h","657","NA","28324","NA","NA","657","2","legacy","1024","2","48000","-16","experiment","SSHSS","4","even","33237","NA","NA","45195","45701","NA","66825","65647","4911","NA","NA","66820","4901","66931","67589","66930","Flanker Task","15","13165","16","yes","1024"
"94.1176470588","94.1176470588","818.411764706","818.411764706","black","legacy","legacy","legacy","0","Incongruent","uniform","1","undefined","1","s","0","0","0","16","16","0","16","16","0","0","0","16","0","16","16","16","09/27/20 07:35:32","1500","The main experiment item","yes","FlankerTask.osexp","C:/Users/solom/Desktop","no","mono","no","18","no","white","no","yes","768","legacy","16","16","C:/Users/solom/Desktop/MW-subject-4.csv","legacy","Lentiform Loewenfeld","3.3.3","0","s","NA","s","NA","NA","s","748","NA","28324","NA","NA","748","2","legacy","1024","2","48000","-16","experiment","HHSHH","4","even","33237","NA","NA","45195","45701","NA","68798","67618","4911","NA","NA","68793","4901","68904","69653","68903","Flanker Task","16","13913","17","yes","1024"
"94.4444444444","94.4444444444","803.333333333","803.333333333","black","legacy","legacy","legacy","0","Congruent","uniform","1","undefined","1","s","0","0","0","17","17","0","17","17","0","0","0","17","0","17","17","17","09/27/20 07:35:32","1500","The main experiment item","yes","FlankerTask.osexp","C:/Users/solom/Desktop","no","mono","no","18","no","white","no","yes","768","legacy","17","17","C:/Users/solom/Desktop/MW-subject-4.csv","legacy","Lentiform Loewenfeld","3.3.3","0","s","NA","s","NA","NA","s","547","NA","28324","NA","NA","547","2","legacy","1024","2","48000","-16","experiment","SSSSS","4","even","33237","NA","NA","45195","45701","NA","70920","69747","4911","NA","NA","70915","4901","71025","71573","71024","Flanker Task","17","14460","18","yes","1024"
"94.7368421053","94.7368421053","789.842105263","789.842105263","black","legacy","legacy","legacy","0","Congruent","uniform","1","undefined","1","h","0","0","0","18","18","0","18","18","0","0","0","18","0","18","18","18","09/27/20 07:35:32","1500","The main experiment item","yes","FlankerTask.osexp","C:/Users/solom/Desktop","no","mono","no","18","no","white","no","yes","768","legacy","18","18","C:/Users/solom/Desktop/MW-subject-4.csv","legacy","Lentiform Loewenfeld","3.3.3","0","h","NA","s","NA","NA","h","547","NA","28324","NA","NA","547","2","legacy","1024","2","48000","-16","experiment","HHHHH","4","even","33237","NA","NA","45195","45701","NA","72782","71611","4911","NA","NA","72777","4901","72888","73437","72887","Flanker Task","18","15007","19","yes","1024"
"95","95","782.95","782.95","black","legacy","legacy","legacy","0","Congruent","uniform","1","undefined","1","s","0","0","0","19","19","0","19","19","0","0","0","19","0","19","19","19","09/27/20 07:35:32","1500","The main experiment item","yes","FlankerTask.osexp","C:/Users/solom/Desktop","no","mono","no","18","no","white","no","yes","768","legacy","19","19","C:/Users/solom/Desktop/MW-subject-4.csv","legacy","Lentiform Loewenfeld","3.3.3","0","s","NA","s","NA","NA","s","652","NA","28324","NA","NA","652","2","legacy","1024","2","48000","-16","experiment","SSSSS","4","even","33237","NA","NA","45195","45701","NA","74637","73462","4911","NA","NA","74633","4901","74743","75397","74743","Flanker Task","19","15659","20","yes","1024"
"95.2380952381","95.2380952381","773.380952381","773.380952381","black","legacy","legacy","legacy","0","Incongruent","uniform","1","undefined","1","s","0","0","0","20","20","0","20","20","0","0","0","20","0","20","20","20","09/27/20 07:35:32","1500","The main experiment item","yes","FlankerTask.osexp","C:/Users/solom/Desktop","no","mono","no","18","no","white","no","yes","768","legacy","20","20","C:/Users/solom/Desktop/MW-subject-4.csv","legacy","Lentiform Loewenfeld","3.3.3","0","s","NA","s","NA","NA","s","582","NA","28324","NA","NA","582","2","legacy","1024","2","48000","-16","experiment","HHSHH","4","even","33237","NA","NA","45195","45701","NA","76596","75418","4911","NA","NA","76591","4901","76702","77285","76702","Flanker Task","20","16241","21","yes","1024"
"95.4545454545","95.4545454545","769.5","769.5","black","legacy","legacy","legacy","0","Incongruent","uniform","1","undefined","1","s","0","0","0","21","21","0","21","21","0","0","0","21","0","21","21","21","09/27/20 07:35:32","1500","The main experiment item","yes","FlankerTask.osexp","C:/Users/solom/Desktop","no","mono","no","18","no","white","no","yes","768","legacy","21","21","C:/Users/solom/Desktop/MW-subject-4.csv","legacy","Lentiform Loewenfeld","3.3.3","0","s","NA","s","NA","NA","s","688","NA","28324","NA","NA","688","2","legacy","1024","2","48000","-16","experiment","HHSHH","4","even","33237","NA","NA","45195","45701","NA","78490","77313","4911","NA","NA","78485","4901","78595","79284","78595","Flanker Task","21","16929","22","yes","1024"
"95.652173913","95.652173913","759.47826087","759.47826087","black","legacy","legacy","legacy","0","Incongruent","uniform","1","undefined","1","s","0","0","0","22","22","0","22","22","0","0","0","22","0","22","22","22","09/27/20 07:35:32","1500","The main experiment item","yes","FlankerTask.osexp","C:/Users/solom/Desktop","no","mono","no","18","no","white","no","yes","768","legacy","22","22","C:/Users/solom/Desktop/MW-subject-4.csv","legacy","Lentiform Loewenfeld","3.3.3","0","s","NA","s","NA","NA","s","539","NA","28324","NA","NA","539","2","legacy","1024","2","48000","-16","experiment","HHSHH","4","even","33237","NA","NA","45195","45701","NA","80487","79313","4911","NA","NA","80482","4901","80593","81133","80592","Flanker Task","22","17468","23","yes","1024"
"95.8333333333","95.8333333333","752.791666667","752.791666667","black","legacy","legacy","legacy","0","Congruent","uniform","1","undefined","1","h","0","0","0","23","23","0","23","23","0","0","0","23","0","23","23","23","09/27/20 07:35:32","1500","The main experiment item","yes","FlankerTask.osexp","C:/Users/solom/Desktop","no","mono","no","18","no","white","no","yes","768","legacy","23","23","C:/Users/solom/Desktop/MW-subject-4.csv","legacy","Lentiform Loewenfeld","3.3.3","0","h","NA","s","NA","NA","h","599","NA","28324","NA","NA","599","2","legacy","1024","2","48000","-16","experiment","HHHHH","4","even","33237","NA","NA","45195","45701","NA","82339","81166","4911","NA","NA","82334","4901","82444","83045","82444","Flanker Task","23","18067","24","yes","1024"
"96","96","747.68","747.68","black","legacy","legacy","legacy","0","Incongruent","uniform","1","undefined","1","s","0","0","0","24","24","0","24","24","0","0","0","24","0","24","24","24","09/27/20 07:35:32","1500","The main experiment item","yes","FlankerTask.osexp","C:/Users/solom/Desktop","no","mono","no","18","no","white","no","yes","768","legacy","24","24","C:/Users/solom/Desktop/MW-subject-4.csv","legacy","Lentiform Loewenfeld","3.3.3","0","s","NA","s","NA","NA","s","625","NA","28324","NA","NA","625","2","legacy","1024","2","48000","-16","experiment","HHSHH","4","even","33237","NA","NA","45195","45701","NA","84250","83073","4911","NA","NA","84245","4901","84354","84981","84354","Flanker Task","24","18692","25","yes","1024"
"96.1538461538","96.1538461538","750.884615385","750.884615385","black","legacy","legacy","legacy","0","Incongruent","uniform","1","undefined","1","s","0","0","0","25","25","0","25","25","0","0","0","25","0","25","25","25","09/27/20 07:35:32","1500","The main experiment item","yes","FlankerTask.osexp","C:/Users/solom/Desktop","no","mono","no","18","no","white","no","yes","768","legacy","25","25","C:/Users/solom/Desktop/MW-subject-4.csv","legacy","Lentiform Loewenfeld","3.3.3","0","s","NA","s","NA","NA","s","831","NA","28324","NA","NA","831","2","legacy","1024","2","48000","-16","experiment","HHSHH","4","even","33237","NA","NA","45195","45701","NA","86210","85015","4911","NA","NA","86205","4901","86316","87149","86315","Flanker Task","25","19523","26","yes","1024"
"96.2962962963","96.2962962963","749.888888889","749.888888889","black","legacy","legacy","legacy","0","Congruent","uniform","1","undefined","1","h","0","0","0","26","26","0","26","26","0","0","0","26","0","26","26","26","09/27/20 07:35:32","1500","The main experiment item","yes","FlankerTask.osexp","C:/Users/solom/Desktop","no","mono","no","18","no","white","no","yes","768","legacy","26","26","C:/Users/solom/Desktop/MW-subject-4.csv","legacy","Lentiform Loewenfeld","3.3.3","0","h","NA","s","NA","NA","h","724","NA","28324","NA","NA","724","2","legacy","1024","2","48000","-16","experiment","HHHHH","4","even","33237","NA","NA","45195","45701","NA","88365","87190","4911","NA","NA","88360","4901","88471","89197","88470","Flanker Task","26","20247","27","yes","1024"
"96.4285714286","96.4285714286","738.571428571","738.571428571","black","legacy","legacy","legacy","0","Congruent","uniform","1","undefined","1","h","0","0","0","27","27","0","27","27","0","0","0","27","0","27","27","27","09/27/20 07:35:32","1500","The main experiment item","yes","FlankerTask.osexp","C:/Users/solom/Desktop","no","mono","no","18","no","white","no","yes","768","legacy","27","27","C:/Users/solom/Desktop/MW-subject-4.csv","legacy","Lentiform Loewenfeld","3.3.3","0","h","NA","s","NA","NA","h","433","NA","28324","NA","NA","433","2","legacy","1024","2","48000","-16","experiment","HHHHH","4","even","33237","NA","NA","45195","45701","NA","90399","89224","4911","NA","NA","90395","4901","90506","90940","90505","Flanker Task","27","20680","28","yes","1024"
"96.5517241379","96.5517241379","733.068965517","733.068965517","black","legacy","legacy","legacy","0","Incongruent","uniform","1","undefined","1","s","0","0","0","28","28","0","28","28","0","0","0","28","0","28","28","28","09/27/20 07:35:32","1500","The main experiment item","yes","FlankerTask.osexp","C:/Users/solom/Desktop","no","mono","no","18","no","white","no","yes","768","legacy","28","28","C:/Users/solom/Desktop/MW-subject-4.csv","legacy","Lentiform Loewenfeld","3.3.3","0","s","NA","s","NA","NA","s","579","NA","28324","NA","NA","579","2","legacy","1024","2","48000","-16","experiment","HHSHH","4","even","33237","NA","NA","45195","45701","NA","92142","90964","4911","NA","NA","92136","4901","92248","92829","92247","Flanker Task","28","21259","29","yes","1024"
"96.6666666667","96.6666666667","734.4","734.4","black","legacy","legacy","legacy","0","Congruent","uniform","1","undefined","1","h","0","0","0","29","29","0","29","29","0","0","0","29","0","29","29","29","09/27/20 07:35:32","1500","The main experiment item","yes","FlankerTask.osexp","C:/Users/solom/Desktop","no","mono","no","18","no","white","no","yes","768","legacy","29","29","C:/Users/solom/Desktop/MW-subject-4.csv","legacy","Lentiform Loewenfeld","3.3.3","0","h","NA","s","NA","NA","h","773","NA","28324","NA","NA","773","2","legacy","1024","2","48000","-16","experiment","HHHHH","4","even","33237","NA","NA","45195","45701","NA","94038","92859","4911","NA","NA","94033","4901","94142","94917","94142","Flanker Task","29","22032","30","yes","1024"
"96.7741935484","96.7741935484","726.387096774","726.387096774","black","legacy","legacy","legacy","0","Congruent","uniform","1","undefined","1","h","0","0","0","30","30","0","30","30","0","0","0","30","0","30","30","30","09/27/20 07:35:32","1500","The main experiment item","yes","FlankerTask.osexp","C:/Users/solom/Desktop","no","mono","no","18","no","white","no","yes","768","legacy","30","30","C:/Users/solom/Desktop/MW-subject-4.csv","legacy","Lentiform Loewenfeld","3.3.3","0","h","NA","s","NA","NA","h","486","NA","28324","NA","NA","486","2","legacy","1024","2","48000","-16","experiment","HHHHH","4","even","33237","NA","NA","45195","45701","NA","96122","94941","4911","NA","NA","96117","4901","96229","96717","96228","Flanker Task","30","22518","31","yes","1024"
"96.875","96.875","717.53125","717.53125","black","legacy","legacy","legacy","0","Congruent","uniform","1","undefined","1","h","0","0","0","31","31","0","31","31","0","0","0","31","0","31","31","31","09/27/20 07:35:32","1500","The main experiment item","yes","FlankerTask.osexp","C:/Users/solom/Desktop","no","mono","no","18","no","white","no","yes","768","legacy","31","31","C:/Users/solom/Desktop/MW-subject-4.csv","legacy","Lentiform Loewenfeld","3.3.3","0","h","NA","s","NA","NA","h","443","NA","28324","NA","NA","443","2","legacy","1024","2","48000","-16","experiment","HHHHH","4","even","33237","NA","NA","45195","45701","NA","97918","96742","4911","NA","NA","97914","4901","98024","98469","98024","Flanker Task","31","22961","32","yes","1024"
"96.9696969697","96.9696969697","714.03030303","714.03030303","black","legacy","legacy","legacy","0","Incongruent","uniform","1","undefined","1","h","0","0","0","32","32","0","32","32","0","0","0","32","0","32","32","32","09/27/20 07:35:32","1500","The main experiment item","yes","FlankerTask.osexp","C:/Users/solom/Desktop","no","mono","no","18","no","white","no","yes","768","legacy","32","32","C:/Users/solom/Desktop/MW-subject-4.csv","legacy","Lentiform Loewenfeld","3.3.3","0","h","NA","s","NA","NA","h","602","NA","28324","NA","NA","602","2","legacy","1024","2","48000","-16","experiment","SSHSS","4","even","33237","NA","NA","45195","45701","NA","99671","98494","4911","NA","NA","99666","4901","99777","100381","99776","Flanker Task","32","23563","33","yes","1024"
"97.0588235294","97.0588235294","706.441176471","706.441176471","black","legacy","legacy","legacy","0","Incongruent","uniform","1","undefined","1","h","0","0","0","33","33","0","33","33","0","0","0","33","0","33","33","33","09/27/20 07:35:32","1500","The main experiment item","yes","FlankerTask.osexp","C:/Users/solom/Desktop","no","mono","no","18","no","white","no","yes","768","legacy","33","33","C:/Users/solom/Desktop/MW-subject-4.csv","legacy","Lentiform Loewenfeld","3.3.3","0","h","NA","s","NA","NA","h","456","NA","28324","NA","NA","456","2","legacy","1024","2","48000","-16","experiment","SSHSS","4","even","33237","NA","NA","45195","45701","NA","101577","100401","4911","NA","NA","101572","4901","101683","102141","101682","Flanker Task","33","24019","34","yes","1024"
"97.1428571429","97.1428571429","699.971428571","699.971428571","black","legacy","legacy","legacy","0","Incongruent","uniform","1","undefined","1","h","0","0","0","34","34","0","34","34","0","0","0","34","0","34","34","34","09/27/20 07:35:32","1500","The main experiment item","yes","FlankerTask.osexp","C:/Users/solom/Desktop","no","mono","no","18","no","white","no","yes","768","legacy","34","34","C:/Users/solom/Desktop/MW-subject-4.csv","legacy","Lentiform Loewenfeld","3.3.3","0","h","NA","s","NA","NA","h","480","NA","28324","NA","NA","480","2","legacy","1024","2","48000","-16","experiment","SSHSS","4","even","33237","NA","NA","45195","45701","NA","103345","102170","4911","NA","NA","103340","4901","103451","103933","103451","Flanker Task","34","24499","35","yes","1024"
"97.2222222222","97.2222222222","692.916666667","692.916666667","black","legacy","legacy","legacy","0","Incongruent","uniform","1","undefined","1","h","0","0","0","35","35","0","35","35","0","0","0","35","0","35","35","35","09/27/20 07:35:32","1500","The main experiment item","yes","FlankerTask.osexp","C:/Users/solom/Desktop","no","mono","no","18","no","white","no","yes","768","legacy","35","35","C:/Users/solom/Desktop/MW-subject-4.csv","legacy","Lentiform Loewenfeld","3.3.3","0","h","NA","s","NA","NA","h","446","NA","28324","NA","NA","446","2","legacy","1024","2","48000","-16","experiment","SSHSS","4","even","33237","NA","NA","45195","45701","NA","105154","103979","4911","NA","NA","105150","4901","105261","105709","105260","Flanker Task","35","24945","36","yes","1024"
"97.2972972973","97.2972972973","687.594594595","687.594594595","black","legacy","legacy","legacy","0","Congruent","uniform","1","undefined","1","s","0","0","0","36","36","0","36","36","0","0","0","36","0","36","36","36","09/27/20 07:35:32","1500","The main experiment item","yes","FlankerTask.osexp","C:/Users/solom/Desktop","no","mono","no","18","no","white","no","yes","768","legacy","36","36","C:/Users/solom/Desktop/MW-subject-4.csv","legacy","Lentiform Loewenfeld","3.3.3","0","s","NA","s","NA","NA","s","496","NA","28324","NA","NA","496","2","legacy","1024","2","48000","-16","experiment","SSSSS","4","even","33237","NA","NA","45195","45701","NA","106913","105738","4911","NA","NA","106908","4901","107019","107517","107018","Flanker Task","36","25441","37","yes","1024"
"97.3684210526","97.3684210526","680.973684211","680.973684211","black","legacy","legacy","legacy","0","Congruent","uniform","1","undefined","1","s","0","0","0","37","37","0","37","37","0","0","0","37","0","37","37","37","09/27/20 07:35:32","1500","The main experiment item","yes","FlankerTask.osexp","C:/Users/solom/Desktop","no","mono","no","18","no","white","no","yes","768","legacy","37","37","C:/Users/solom/Desktop/MW-subject-4.csv","legacy","Lentiform Loewenfeld","3.3.3","0","s","NA","s","NA","NA","s","436","NA","28324","NA","NA","436","2","legacy","1024","2","48000","-16","experiment","SSSSS","4","even","33237","NA","NA","45195","45701","NA","108725","107547","4911","NA","NA","108720","4901","108831","109269","108830","Flanker Task","37","25877","38","yes","1024"
"97.4358974359","97.4358974359","683.025641026","683.025641026","black","legacy","legacy","legacy","0","Incongruent","uniform","1","undefined","1","h","0","0","0","38","38","0","38","38","0","0","0","38","0","38","38","38","09/27/20 07:35:32","1500","The main experiment item","yes","FlankerTask.osexp","C:/Users/solom/Desktop","no","mono","no","18","no","white","no","yes","768","legacy","38","38","C:/Users/solom/Desktop/MW-subject-4.csv","legacy","Lentiform Loewenfeld","3.3.3","0","h","NA","s","NA","NA","h","761","NA","28324","NA","NA","761","2","legacy","1024","2","48000","-16","experiment","SSHSS","4","even","33237","NA","NA","45195","45701","NA","110472","109298","4911","NA","NA","110467","4901","110578","111341","110577","Flanker Task","38","26638","39","yes","1024"
"95","95","677","677","black","legacy","legacy","legacy","0","Incongruent","uniform","0","undefined","0","s","0","0","0","39","39","0","39","39","0","0","0","39","0","39","39","39","09/27/20 07:35:32","1500","The main experiment item","yes","FlankerTask.osexp","C:/Users/solom/Desktop","no","mono","no","18","no","white","no","yes","768","legacy","39","39","C:/Users/solom/Desktop/MW-subject-4.csv","legacy","Lentiform Loewenfeld","3.3.3","0","h","NA","s","NA","NA","h","442","NA","28324","NA","NA","442","2","legacy","1024","2","48000","-16","experiment","HHSHH","4","even","33237","NA","NA","45195","45701","NA","112543","111362","4911","NA","NA","112538","4901","112649","113093","112648","Flanker Task","38","27080","40","yes","1024"
"95.1219512195","95.1219512195","679.048780488","679.048780488","black","legacy","legacy","legacy","0","Incongruent","uniform","1","undefined","1","s","0","0","0","40","40","0","40","40","0","0","0","40","0","40","40","40","09/27/20 07:35:32","1500","The main experiment item","yes","FlankerTask.osexp","C:/Users/solom/Desktop","no","mono","no","18","no","white","no","yes","768","legacy","40","40","C:/Users/solom/Desktop/MW-subject-4.csv","legacy","Lentiform Loewenfeld","3.3.3","0","s","NA","s","NA","NA","s","761","NA","28324","NA","NA","761","2","legacy","1024","2","48000","-16","experiment","HHSHH","4","even","33237","NA","NA","113123","45701","NA","114800","113626","4911","NA","NA","114795","4901","114906","115669","114905","Flanker Task","39","27841","41","yes","1024"
"95.2380952381","95.2380952381","678.238095238","678.238095238","black","legacy","legacy","legacy","0","Incongruent","uniform","1","undefined","1","s","0","0","0","41","41","0","41","41","0","0","0","41","0","41","41","41","09/27/20 07:35:32","1500","The main experiment item","yes","FlankerTask.osexp","C:/Users/solom/Desktop","no","mono","no","18","no","white","no","yes","768","legacy","41","41","C:/Users/solom/Desktop/MW-subject-4.csv","legacy","Lentiform Loewenfeld","3.3.3","0","s","NA","s","NA","NA","s","645","NA","28324","NA","NA","645","2","legacy","1024","2","48000","-16","experiment","HHSHH","4","even","33237","NA","NA","113123","45701","NA","116868","115688","4911","NA","NA","116864","4901","116974","117621","116973","Flanker Task","40","28486","42","yes","1024"
"95.3488372093","95.3488372093","676.930232558","676.930232558","black","legacy","legacy","legacy","0","Incongruent","uniform","1","undefined","1","h","0","0","0","42","42","0","42","42","0","0","0","42","0","42","42","42","09/27/20 07:35:32","1500","The main experiment item","yes","FlankerTask.osexp","C:/Users/solom/Desktop","no","mono","no","18","no","white","no","yes","768","legacy","42","42","C:/Users/solom/Desktop/MW-subject-4.csv","legacy","Lentiform Loewenfeld","3.3.3","0","h","NA","s","NA","NA","h","622","NA","28324","NA","NA","622","2","legacy","1024","2","48000","-16","experiment","SSHSS","4","even","33237","NA","NA","113123","45701","NA","118828","117650","4911","NA","NA","118823","4901","118933","119557","118933","Flanker Task","41","29108","43","yes","1024"
"95.4545454545","95.4545454545","678.704545455","678.704545455","black","legacy","legacy","legacy","0","Congruent","uniform","1","undefined","1","h","0","0","0","43","43","0","43","43","0","0","0","43","0","43","43","43","09/27/20 07:35:32","1500","The main experiment item","yes","FlankerTask.osexp","C:/Users/solom/Desktop","no","mono","no","18","no","white","no","yes","768","legacy","43","43","C:/Users/solom/Desktop/MW-subject-4.csv","legacy","Lentiform Loewenfeld","3.3.3","0","h","NA","s","NA","NA","h","755","NA","28324","NA","NA","755","2","legacy","1024","2","48000","-16","experiment","HHHHH","4","even","33237","NA","NA","113123","45701","NA","120767","119592","4911","NA","NA","120762","4901","120872","121629","120872","Flanker Task","42","29863","44","yes","1024"
"95.5555555556","95.5555555556","676.266666667","676.266666667","black","legacy","legacy","legacy","0","Congruent","uniform","1","undefined","1","s","0","0","0","44","44","0","44","44","0","0","0","44","0","44","44","44","09/27/20 07:35:32","1500","The main experiment item","yes","FlankerTask.osexp","C:/Users/solom/Desktop","no","mono","no","18","no","white","no","yes","768","legacy","44","44","C:/Users/solom/Desktop/MW-subject-4.csv","legacy","Lentiform Loewenfeld","3.3.3","0","s","NA","s","NA","NA","s","569","NA","28324","NA","NA","569","2","legacy","1024","2","48000","-16","experiment","SSSSS","4","even","33237","NA","NA","113123","45701","NA","122832","121659","4911","NA","NA","122827","4901","122938","123510","122937","Flanker Task","43","30432","45","yes","1024"
"95.652173913","95.652173913","672.804347826","672.804347826","black","legacy","legacy","legacy","0","Congruent","uniform","1","undefined","1","h","0","0","0","45","45","0","45","45","0","0","0","45","0","45","45","45","09/27/20 07:35:32","1500","The main experiment item","yes","FlankerTask.osexp","C:/Users/solom/Desktop","no","mono","no","18","no","white","no","yes","768","legacy","45","45","C:/Users/solom/Desktop/MW-subject-4.csv","legacy","Lentiform Loewenfeld","3.3.3","0","h","NA","s","NA","NA","h","517","NA","28324","NA","NA","517","2","legacy","1024","2","48000","-16","experiment","HHHHH","4","even","33237","NA","NA","113123","45701","NA","124707","123533","4911","NA","NA","124703","4901","124814","125334","124813","Flanker Task","44","30949","46","yes","1024"
"95.7446808511","95.7446808511","670.829787234","670.829787234","black","legacy","legacy","legacy","0","Incongruent","uniform","1","undefined","1","s","0","0","0","46","46","0","46","46","0","0","0","46","0","46","46","46","09/27/20 07:35:32","1500","The main experiment item","yes","FlankerTask.osexp","C:/Users/solom/Desktop","no","mono","no","18","no","white","no","yes","768","legacy","46","46","C:/Users/solom/Desktop/MW-subject-4.csv","legacy","Lentiform Loewenfeld","3.3.3","0","s","NA","s","NA","NA","s","580","NA","28324","NA","NA","580","2","legacy","1024","2","48000","-16","experiment","HHSHH","4","even","33237","NA","NA","113123","45701","NA","126533","125360","4911","NA","NA","126528","4901","126639","127222","126638","Flanker Task","45","31529","47","yes","1024"
"95.8333333333","95.8333333333","669.958333333","669.958333333","black","legacy","legacy","legacy","0","Congruent","uniform","1","undefined","1","s","0","0","0","47","47","0","47","47","0","0","0","47","0","47","47","47","09/27/20 07:35:32","1500","The main experiment item","yes","FlankerTask.osexp","C:/Users/solom/Desktop","no","mono","no","18","no","white","no","yes","768","legacy","47","47","C:/Users/solom/Desktop/MW-subject-4.csv","legacy","Lentiform Loewenfeld","3.3.3","0","s","NA","s","NA","NA","s","629","NA","28324","NA","NA","629","2","legacy","1024","2","48000","-16","experiment","SSSSS","4","even","33237","NA","NA","113123","45701","NA","128428","127253","4911","NA","NA","128423","4901","128534","129166","128533","Flanker Task","46","32158","48","yes","1024"
"95.9183673469","95.9183673469","668.816326531","668.816326531","black","legacy","legacy","legacy","0","Incongruent","uniform","1","undefined","1","h","0","0","0","48","48","0","48","48","0","0","0","48","0","48","48","48","09/27/20 07:35:32","1500","The main experiment item","yes","FlankerTask.osexp","C:/Users/solom/Desktop","no","mono","no","18","no","white","no","yes","768","legacy","48","48","C:/Users/solom/Desktop/MW-subject-4.csv","legacy","Lentiform Loewenfeld","3.3.3","0","h","NA","s","NA","NA","h","614","NA","28324","NA","NA","614","2","legacy","1024","2","48000","-16","experiment","SSHSS","4","even","33237","NA","NA","113123","45701","NA","130371","129195","4911","NA","NA","130366","4901","130477","131093","130476","Flanker Task","47","32772","49","yes","1024"
"96","96","664.86","664.86","black","legacy","legacy","legacy","0","Incongruent","uniform","1","undefined","1","s","0","0","0","49","49","0","49","49","0","0","0","49","0","49","49","49","09/27/20 07:35:32","1500","The main experiment item","yes","FlankerTask.osexp","C:/Users/solom/Desktop","no","mono","no","18","no","white","no","yes","768","legacy","49","49","C:/Users/solom/Desktop/MW-subject-4.csv","legacy","Lentiform Loewenfeld","3.3.3","0","s","NA","s","NA","NA","s","471","NA","28324","NA","NA","471","2","legacy","1024","2","48000","-16","experiment","HHSHH","4","even","33237","NA","NA","113123","45701","NA","132298","131120","4911","NA","NA","132293","4901","132404","132878","132403","Flanker Task","48","33243","50","yes","1024"
"96.0784313725","96.0784313725","662.37254902","662.37254902","black","legacy","legacy","legacy","0","Incongruent","uniform","1","undefined","1","h","0","0","0","50","50","0","50","50","0","0","0","50","0","50","50","50","09/27/20 07:35:32","1500","The main experiment item","yes","FlankerTask.osexp","C:/Users/solom/Desktop","no","mono","no","18","no","white","no","yes","768","legacy","50","50","C:/Users/solom/Desktop/MW-subject-4.csv","legacy","Lentiform Loewenfeld","3.3.3","0","h","NA","s","NA","NA","h","538","NA","28324","NA","NA","538","2","legacy","1024","2","48000","-16","experiment","SSHSS","4","even","33237","NA","NA","113123","45701","NA","134080","132902","4911","NA","NA","134075","4901","134185","134726","134184","Flanker Task","49","33781","51","yes","1024"
"96.1538461538","96.1538461538","657.596153846","657.596153846","black","legacy","legacy","legacy","0","Congruent","uniform","1","undefined","1","h","0","0","0","51","51","0","51","51","0","0","0","51","0","51","51","51","09/27/20 07:35:32","1500","The main experiment item","yes","FlankerTask.osexp","C:/Users/solom/Desktop","no","mono","no","18","no","white","no","yes","768","legacy","51","51","C:/Users/solom/Desktop/MW-subject-4.csv","legacy","Lentiform Loewenfeld","3.3.3","0","h","NA","s","NA","NA","h","414","NA","28324","NA","NA","414","2","legacy","1024","2","48000","-16","experiment","HHHHH","4","even","33237","NA","NA","113123","45701","NA","135931","134755","4911","NA","NA","135926","4901","136037","136453","136036","Flanker Task","50","34195","52","yes","1024"
"96.2264150943","96.2264150943","653.622641509","653.622641509","black","legacy","legacy","legacy","0","Congruent","uniform","1","undefined","1","h","0","0","0","52","52","0","52","52","0","0","0","52","0","52","52","52","09/27/20 07:35:32","1500","The main experiment item","yes","FlankerTask.osexp","C:/Users/solom/Desktop","no","mono","no","18","no","white","no","yes","768","legacy","52","52","C:/Users/solom/Desktop/MW-subject-4.csv","legacy","Lentiform Loewenfeld","3.3.3","0","h","NA","s","NA","NA","h","447","NA","28324","NA","NA","447","2","legacy","1024","2","48000","-16","experiment","HHHHH","4","even","33237","NA","NA","113123","45701","NA","137658","136478","4911","NA","NA","137653","4901","137764","138214","137763","Flanker Task","51","34642","53","yes","1024"
"96.2962962963","96.2962962963","653.277777778","653.277777778","black","legacy","legacy","legacy","0","Incongruent","uniform","1","undefined","1","h","0","0","0","53","53","0","53","53","0","0","0","53","0","53","53","53","09/27/20 07:35:32","1500","The main experiment item","yes","FlankerTask.osexp","C:/Users/solom/Desktop","no","mono","no","18","no","white","no","yes","768","legacy","53","53","C:/Users/solom/Desktop/MW-subject-4.csv","legacy","Lentiform Loewenfeld","3.3.3","0","h","NA","s","NA","NA","h","635","NA","28324","NA","NA","635","2","legacy","1024","2","48000","-16","experiment","SSHSS","4","even","33237","NA","NA","113123","45701","NA","139414","138240","4911","NA","NA","139409","4901","139520","140158","139519","Flanker Task","52","35277","54","yes","1024"
"96.3636363636","96.3636363636","649.163636364","649.163636364","black","legacy","legacy","legacy","0","Incongruent","uniform","1","undefined","1","h","0","0","0","54","54","0","54","54","0","0","0","54","0","54","54","54","09/27/20 07:35:32","1500","The main experiment item","yes","FlankerTask.osexp","C:/Users/solom/Desktop","no","mono","no","18","no","white","no","yes","768","legacy","54","54","C:/Users/solom/Desktop/MW-subject-4.csv","legacy","Lentiform Loewenfeld","3.3.3","0","h","NA","s","NA","NA","h","427","NA","28324","NA","NA","427","2","legacy","1024","2","48000","-16","experiment","SSHSS","4","even","33237","NA","NA","113123","45701","NA","141373","140188","4911","NA","NA","141369","4901","141480","141910","141479","Flanker Task","53","35704","55","yes","1024"
"96.4285714286","96.4285714286","648.535714286","648.535714286","black","legacy","legacy","legacy","0","Congruent","uniform","1","undefined","1","s","0","0","0","55","55","0","55","55","0","0","0","55","0","55","55","55","09/27/20 07:35:32","1500","The main experiment item","yes","FlankerTask.osexp","C:/Users/solom/Desktop","no","mono","no","18","no","white","no","yes","768","legacy","55","55","C:/Users/solom/Desktop/MW-subject-4.csv","legacy","Lentiform Loewenfeld","3.3.3","0","s","NA","s","NA","NA","s","614","NA","28324","NA","NA","614","2","legacy","1024","2","48000","-16","experiment","SSSSS","4","even","33237","NA","NA","113123","45701","NA","143115","141941","4911","NA","NA","143110","4901","143221","143838","143220","Flanker Task","54","36318","56","yes","1024"
"96.4912280702","96.4912280702","646.01754386","646.01754386","black","legacy","legacy","legacy","0","Congruent","uniform","1","undefined","1","h","0","0","0","56","56","0","56","56","0","0","0","56","0","56","56","56","09/27/20 07:35:32","1500","The main experiment item","yes","FlankerTask.osexp","C:/Users/solom/Desktop","no","mono","no","18","no","white","no","yes","768","legacy","56","56","C:/Users/solom/Desktop/MW-subject-4.csv","legacy","Lentiform Loewenfeld","3.3.3","0","h","NA","s","NA","NA","h","505","NA","28324","NA","NA","505","2","legacy","1024","2","48000","-16","experiment","HHHHH","4","even","33237","NA","NA","113123","45701","NA","145040","143866","4911","NA","NA","145035","4901","145146","145654","145145","Flanker Task","55","36823","57","yes","1024"
"96.5517241379","96.5517241379","643.206896552","643.206896552","black","legacy","legacy","legacy","0","Congruent","uniform","1","undefined","1","h","0","0","0","57","57","0","57","57","0","0","0","57","0","57","57","57","09/27/20 07:35:32","1500","The main experiment item","yes","FlankerTask.osexp","C:/Users/solom/Desktop","no","mono","no","18","no","white","no","yes","768","legacy","57","57","C:/Users/solom/Desktop/MW-subject-4.csv","legacy","Lentiform Loewenfeld","3.3.3","0","h","NA","s","NA","NA","h","483","NA","28324","NA","NA","483","2","legacy","1024","2","48000","-16","experiment","HHHHH","4","even","33237","NA","NA","113123","45701","NA","146854","145673","4911","NA","NA","146849","4901","146960","147446","146959","Flanker Task","56","37306","58","yes","1024"
"96.6101694915","96.6101694915","642.033898305","642.033898305","black","legacy","legacy","legacy","0","Incongruent","uniform","1","undefined","1","s","0","0","0","58","58","0","58","58","0","0","0","58","0","58","58","58","09/27/20 07:35:32","1500","The main experiment item","yes","FlankerTask.osexp","C:/Users/solom/Desktop","no","mono","no","18","no","white","no","yes","768","legacy","58","58","C:/Users/solom/Desktop/MW-subject-4.csv","legacy","Lentiform Loewenfeld","3.3.3","0","s","NA","s","NA","NA","s","574","NA","28324","NA","NA","574","2","legacy","1024","2","48000","-16","experiment","HHSHH","4","even","33237","NA","NA","113123","45701","NA","148651","147475","4911","NA","NA","148646","4901","148757","149334","148756","Flanker Task","57","37880","59","yes","1024"
"96.6666666667","96.6666666667","642.166666667","642.166666667","black","legacy","legacy","legacy","0","Incongruent","uniform","1","undefined","1","s","0","0","0","59","59","0","59","59","0","0","0","59","0","59","59","59","09/27/20 07:35:32","1500","The main experiment item","yes","FlankerTask.osexp","C:/Users/solom/Desktop","no","mono","no","18","no","white","no","yes","768","legacy","59","59","C:/Users/solom/Desktop/MW-subject-4.csv","legacy","Lentiform Loewenfeld","3.3.3","0","s","NA","s","NA","NA","s","650","NA","28324","NA","NA","650","2","legacy","1024","2","48000","-16","experiment","HHSHH","4","even","33237","NA","NA","113123","45701","NA","150534","149358","4911","NA","NA","150530","4901","150641","151295","150640","Flanker Task","58","38530","60","yes","1024"
"96.7213114754","96.7213114754","641.344262295","641.344262295","black","legacy","legacy","legacy","0","Congruent","uniform","1","undefined","1","h","0","0","0","60","60","0","60","60","0","0","0","60","0","60","60","60","09/27/20 07:35:32","1500","The main experiment item","yes","FlankerTask.osexp","C:/Users/solom/Desktop","no","mono","no","18","no","white","no","yes","768","legacy","60","60","C:/Users/solom/Desktop/MW-subject-4.csv","legacy","Lentiform Loewenfeld","3.3.3","0","h","NA","s","NA","NA","h","592","NA","28324","NA","NA","592","2","legacy","1024","2","48000","-16","experiment","HHHHH","4","even","33237","NA","NA","113123","45701","NA","152498","151326","4911","NA","NA","152493","4901","152603","153197","152603","Flanker Task","59","39122","61","yes","1024"
"96.7741935484","96.7741935484","638.758064516","638.758064516","black","legacy","legacy","legacy","0","Congruent","uniform","1","undefined","1","s","0","0","0","61","61","0","61","61","0","0","0","61","0","61","61","61","09/27/20 07:35:32","1500","The main experiment item","yes","FlankerTask.osexp","C:/Users/solom/Desktop","no","mono","no","18","no","white","no","yes","768","legacy","61","61","C:/Users/solom/Desktop/MW-subject-4.csv","legacy","Lentiform Loewenfeld","3.3.3","0","s","NA","s","NA","NA","s","481","NA","28324","NA","NA","481","2","legacy","1024","2","48000","-16","experiment","SSSSS","4","even","33237","NA","NA","113123","45701","NA","154400","153227","4911","NA","NA","154395","4901","154506","154990","154505","Flanker Task","60","39603","62","yes","1024"
"96.8253968254","96.8253968254","637.507936508","637.507936508","black","legacy","legacy","legacy","0","Incongruent","uniform","1","undefined","1","h","0","0","0","62","62","0","62","62","0","0","0","62","0","62","62","62","09/27/20 07:35:32","1500","The main experiment item","yes","FlankerTask.osexp","C:/Users/solom/Desktop","no","mono","no","18","no","white","no","yes","768","legacy","62","62","C:/Users/solom/Desktop/MW-subject-4.csv","legacy","Lentiform Loewenfeld","3.3.3","0","h","NA","s","NA","NA","h","560","NA","28324","NA","NA","560","2","legacy","1024","2","48000","-16","experiment","SSHSS","4","even","33237","NA","NA","113123","45701","NA","156195","155019","4911","NA","NA","156191","4901","156299","156862","156299","Flanker Task","61","40163","63","yes","1024"
"96.875","96.875","635.75","635.75","black","legacy","legacy","legacy","0","Incongruent","uniform","1","undefined","1","s","0","0","0","63","63","0","63","63","0","0","0","63","0","63","63","63","09/27/20 07:35:32","1500","The main experiment item","yes","FlankerTask.osexp","C:/Users/solom/Desktop","no","mono","no","18","no","white","no","yes","768","legacy","63","63","C:/Users/solom/Desktop/MW-subject-4.csv","legacy","Lentiform Loewenfeld","3.3.3","0","s","NA","s","NA","NA","s","525","NA","28324","NA","NA","525","2","legacy","1024","2","48000","-16","experiment","HHSHH","4","even","33237","NA","NA","113123","45701","NA","158068","156895","4911","NA","NA","158063","4901","158174","158702","158173","Flanker Task","62","40688","64","yes","1024"
"96.9230769231","96.9230769231","633.8","633.8","black","legacy","legacy","legacy","0","Incongruent","uniform","1","undefined","1","h","0","0","0","64","64","0","64","64","0","0","0","64","0","64","64","64","09/27/20 07:35:32","1500","The main experiment item","yes","FlankerTask.osexp","C:/Users/solom/Desktop","no","mono","no","18","no","white","no","yes","768","legacy","64","64","C:/Users/solom/Desktop/MW-subject-4.csv","legacy","Lentiform Loewenfeld","3.3.3","0","h","NA","s","NA","NA","h","509","NA","28324","NA","NA","509","2","legacy","1024","2","48000","-16","experiment","SSHSS","4","even","33237","NA","NA","113123","45701","NA","159907","158729","4911","NA","NA","159902","4901","160013","160525","160013","Flanker Task","63","41197","65","yes","1024"
"96.9696969697","96.9696969697","629.242424242","629.242424242","black","legacy","legacy","legacy","0","Congruent","uniform","1","undefined","1","s","0","0","0","65","65","0","65","65","0","0","0","65","0","65","65","65","09/27/20 07:35:32","1500","The main experiment item","yes","FlankerTask.osexp","C:/Users/solom/Desktop","no","mono","no","18","no","white","no","yes","768","legacy","65","65","C:/Users/solom/Desktop/MW-subject-4.csv","legacy","Lentiform Loewenfeld","3.3.3","0","s","NA","s","NA","NA","s","333","NA","28324","NA","NA","333","2","legacy","1024","2","48000","-16","experiment","SSSSS","4","even","33237","NA","NA","113123","45701","NA","161724","160552","4911","NA","NA","161719","4901","161830","162166","161829","Flanker Task","64","41530","66","yes","1024"
"97.0149253731","97.0149253731","625.47761194","625.47761194","black","legacy","legacy","legacy","0","Congruent","uniform","1","undefined","1","s","0","0","0","66","66","0","66","66","0","0","0","66","0","66","66","66","09/27/20 07:35:32","1500","The main experiment item","yes","FlankerTask.osexp","C:/Users/solom/Desktop","no","mono","no","18","no","white","no","yes","768","legacy","66","66","C:/Users/solom/Desktop/MW-subject-4.csv","legacy","Lentiform Loewenfeld","3.3.3","0","s","NA","s","NA","NA","s","377","NA","28324","NA","NA","377","2","legacy","1024","2","48000","-16","experiment","SSSSS","4","even","33237","NA","NA","113123","45701","NA","163368","162186","4911","NA","NA","163364","4901","163474","163854","163474","Flanker Task","65","41907","67","yes","1024"
"97.0588235294","97.0588235294","624.352941176","624.352941176","black","legacy","legacy","legacy","0","Incongruent","uniform","1","undefined","1","s","0","0","0","67","67","0","67","67","0","0","0","67","0","67","67","67","09/27/20 07:35:32","1500","The main experiment item","yes","FlankerTask.osexp","C:/Users/solom/Desktop","no","mono","no","18","no","white","no","yes","768","legacy","67","67","C:/Users/solom/Desktop/MW-subject-4.csv","legacy","Lentiform Loewenfeld","3.3.3","0","s","NA","s","NA","NA","s","549","NA","28324","NA","NA","549","2","legacy","1024","2","48000","-16","experiment","HHSHH","4","even","33237","NA","NA","113123","45701","NA","165054","163879","4911","NA","NA","165049","4901","165158","165710","165157","Flanker Task","66","42456","68","yes","1024"
"97.1014492754","97.1014492754","621.68115942","621.68115942","black","legacy","legacy","legacy","0","Congruent","uniform","1","undefined","1","s","0","0","0","68","68","0","68","68","0","0","0","68","0","68","68","68","09/27/20 07:35:32","1500","The main experiment item","yes","FlankerTask.osexp","C:/Users/solom/Desktop","no","mono","no","18","no","white","no","yes","768","legacy","68","68","C:/Users/solom/Desktop/MW-subject-4.csv","legacy","Lentiform Loewenfeld","3.3.3","0","s","NA","s","NA","NA","s","440","NA","28324","NA","NA","440","2","legacy","1024","2","48000","-16","experiment","SSSSS","4","even","33237","NA","NA","113123","45701","NA","166913","165740","4911","NA","NA","166908","4901","167019","167462","167018","Flanker Task","67","42896","69","yes","1024"
"97.1428571429","97.1428571429","619.657142857","619.657142857","black","legacy","legacy","legacy","0","Incongruent","uniform","1","undefined","1","s","0","0","0","69","69","0","69","69","0","0","0","69","0","69","69","69","09/27/20 07:35:32","1500","The main experiment item","yes","FlankerTask.osexp","C:/Users/solom/Desktop","no","mono","no","18","no","white","no","yes","768","legacy","69","69","C:/Users/solom/Desktop/MW-subject-4.csv","legacy","Lentiform Loewenfeld","3.3.3","0","s","NA","s","NA","NA","s","480","NA","28324","NA","NA","480","2","legacy","1024","2","48000","-16","experiment","HHSHH","4","even","33237","NA","NA","113123","45701","NA","168666","167489","4911","NA","NA","168661","4901","168771","169254","168771","Flanker Task","68","43376","70","yes","1024"
"97.1830985915","97.1830985915","616.887323944","616.887323944","black","legacy","legacy","legacy","0","Incongruent","uniform","1","undefined","1","h","0","0","0","70","70","0","70","70","0","0","0","70","0","70","70","70","09/27/20 07:35:32","1500","The main experiment item","yes","FlankerTask.osexp","C:/Users/solom/Desktop","no","mono","no","18","no","white","no","yes","768","legacy","70","70","C:/Users/solom/Desktop/MW-subject-4.csv","legacy","Lentiform Loewenfeld","3.3.3","0","h","NA","s","NA","NA","h","423","NA","28324","NA","NA","423","2","legacy","1024","2","48000","-16","experiment","SSHSS","4","even","33237","NA","NA","113123","45701","NA","170458","169280","4911","NA","NA","170453","4901","170564","170990","170563","Flanker Task","69","43799","71","yes","1024"
"97.2222222222","97.2222222222","614.722222222","614.722222222","black","legacy","legacy","legacy","0","Congruent","uniform","1","undefined","1","s","0","0","0","71","71","0","71","71","0","0","0","71","0","71","71","71","09/27/20 07:35:32","1500","The main experiment item","yes","FlankerTask.osexp","C:/Users/solom/Desktop","no","mono","no","18","no","white","no","yes","768","legacy","71","71","C:/Users/solom/Desktop/MW-subject-4.csv","legacy","Lentiform Loewenfeld","3.3.3","0","s","NA","s","NA","NA","s","461","NA","28324","NA","NA","461","2","legacy","1024","2","48000","-16","experiment","SSSSS","4","even","33237","NA","NA","113123","45701","NA","172189","171016","4911","NA","NA","172184","4901","172294","172758","172293","Flanker Task","70","44260","72","yes","1024"
"97.2602739726","97.2602739726","612.383561644","612.383561644","black","legacy","legacy","legacy","0","Congruent","uniform","1","undefined","1","s","0","0","0","72","72","0","72","72","0","0","0","72","0","72","72","72","09/27/20 07:35:32","1500","The main experiment item","yes","FlankerTask.osexp","C:/Users/solom/Desktop","no","mono","no","18","no","white","no","yes","768","legacy","72","72","C:/Users/solom/Desktop/MW-subject-4.csv","legacy","Lentiform Loewenfeld","3.3.3","0","s","NA","s","NA","NA","s","444","NA","28324","NA","NA","444","2","legacy","1024","2","48000","-16","experiment","SSSSS","4","even","33237","NA","NA","113123","45701","NA","173957","172781","4911","NA","NA","173952","4901","174063","174510","174063","Flanker Task","71","44704","73","yes","1024"
"97.2972972973","97.2972972973","609","609","black","legacy","legacy","legacy","0","Congruent","uniform","1","undefined","1","s","0","0","0","73","73","0","73","73","0","0","0","73","0","73","73","73","09/27/20 07:35:32","1500","The main experiment item","yes","FlankerTask.osexp","C:/Users/solom/Desktop","no","mono","no","18","no","white","no","yes","768","legacy","73","73","C:/Users/solom/Desktop/MW-subject-4.csv","legacy","Lentiform Loewenfeld","3.3.3","0","s","NA","s","NA","NA","s","362","NA","28324","NA","NA","362","2","legacy","1024","2","48000","-16","experiment","SSSSS","4","even","33237","NA","NA","113123","45701","NA","175711","174534","4911","NA","NA","175706","4901","175817","176182","175816","Flanker Task","72","45066","74","yes","1024"
"97.3333333333","97.3333333333","608.4","608.4","black","legacy","legacy","legacy","0","Incongruent","uniform","1","undefined","1","h","0","0","0","74","74","0","74","74","0","0","0","74","0","74","74","74","09/27/20 07:35:32","1500","The main experiment item","yes","FlankerTask.osexp","C:/Users/solom/Desktop","no","mono","no","18","no","white","no","yes","768","legacy","74","74","C:/Users/solom/Desktop/MW-subject-4.csv","legacy","Lentiform Loewenfeld","3.3.3","0","h","NA","s","NA","NA","h","564","NA","28324","NA","NA","564","2","legacy","1024","2","48000","-16","experiment","SSHSS","4","even","33237","NA","NA","113123","45701","NA","177381","176209","4911","NA","NA","177376","4901","177487","178054","177486","Flanker Task","73","45630","75","yes","1024"
"97.3684210526","97.3684210526","606.565789474","606.565789474","black","legacy","legacy","legacy","0","Congruent","uniform","1","undefined","1","h","0","0","0","75","75","0","75","75","0","0","0","75","0","75","75","75","09/27/20 07:35:32","1500","The main experiment item","yes","FlankerTask.osexp","C:/Users/solom/Desktop","no","mono","no","18","no","white","no","yes","768","legacy","75","75","C:/Users/solom/Desktop/MW-subject-4.csv","legacy","Lentiform Loewenfeld","3.3.3","0","h","NA","s","NA","NA","h","469","NA","28324","NA","NA","469","2","legacy","1024","2","48000","-16","experiment","HHHHH","4","even","33237","NA","NA","113123","45701","NA","179251","178075","4911","NA","NA","179247","4901","179358","179830","179357","Flanker Task","74","46099","76","yes","1024"
"97.4025974026","97.4025974026","604.818181818","604.818181818","black","legacy","legacy","legacy","0","Incongruent","uniform","1","undefined","1","h","0","0","0","76","76","0","76","76","0","0","0","76","0","76","76","76","09/27/20 07:35:32","1500","The main experiment item","yes","FlankerTask.osexp","C:/Users/solom/Desktop","no","mono","no","18","no","white","no","yes","768","legacy","76","76","C:/Users/solom/Desktop/MW-subject-4.csv","legacy","Lentiform Loewenfeld","3.3.3","0","h","NA","s","NA","NA","h","472","NA","28324","NA","NA","472","2","legacy","1024","2","48000","-16","experiment","SSHSS","4","even","33237","NA","NA","113123","45701","NA","181033","179860","4911","NA","NA","181028","4901","181139","181615","181138","Flanker Task","75","46571","77","yes","1024"
"97.4358974359","97.4358974359","603.743589744","603.743589744","black","legacy","legacy","legacy","0","Congruent","uniform","1","undefined","1","s","0","0","0","77","77","0","77","77","0","0","0","77","0","77","77","77","09/27/20 07:35:32","1500","The main experiment item","yes","FlankerTask.osexp","C:/Users/solom/Desktop","no","mono","no","18","no","white","no","yes","768","legacy","77","77","C:/Users/solom/Desktop/MW-subject-4.csv","legacy","Lentiform Loewenfeld","3.3.3","0","s","NA","s","NA","NA","s","521","NA","28324","NA","NA","521","2","legacy","1024","2","48000","-16","experiment","SSSSS","4","even","33237","NA","NA","113123","45701","NA","182816","181644","4911","NA","NA","182811","4901","182922","183446","182921","Flanker Task","76","47092","78","yes","1024"
"97.4683544304","97.4683544304","601.063291139","601.063291139","black","legacy","legacy","legacy","0","Congruent","uniform","1","undefined","1","s","0","0","0","78","78","0","78","78","0","0","0","78","0","78","78","78","09/27/20 07:35:32","1500","The main experiment item","yes","FlankerTask.osexp","C:/Users/solom/Desktop","no","mono","no","18","no","white","no","yes","768","legacy","78","78","C:/Users/solom/Desktop/MW-subject-4.csv","legacy","Lentiform Loewenfeld","3.3.3","0","s","NA","s","NA","NA","s","392","NA","28324","NA","NA","392","2","legacy","1024","2","48000","-16","experiment","SSSSS","4","even","33237","NA","NA","113123","45701","NA","184641","183467","4911","NA","NA","184636","4901","184747","185142","184746","Flanker Task","77","47484","79","yes","1024"
"97.5","97.5","600.2375","600.2375","black","legacy","legacy","legacy","0","Congruent","uniform","1","undefined","1","h","0","0","0","79","79","0","79","79","0","0","0","79","0","79","79","79","09/27/20 07:35:32","1500","The main experiment item","yes","FlankerTask.osexp","C:/Users/solom/Desktop","no","mono","no","18","no","white","no","yes","768","legacy","79","79","C:/Users/solom/Desktop/MW-subject-4.csv","legacy","Lentiform Loewenfeld","3.3.3","0","h","NA","s","NA","NA","h","535","NA","28324","NA","NA","535","2","legacy","1024","2","48000","-16","experiment","HHHHH","4","even","33237","NA","NA","113123","45701","NA","186354","185170","4911","NA","NA","186349","4901","186460","186999","186459","Flanker Task","78","48019","80","yes","1024"
"97.5308641975","97.5308641975","598.827160494","598.827160494","black","legacy","legacy","legacy","0","Congruent","uniform","1","undefined","1","s","0","0","0","80","80","0","80","80","0","0","0","80","0","80","80","80","09/27/20 07:35:32","600","The main experiment item","yes","FlankerTask.osexp","C:/Users/solom/Desktop","no","mono","no","18","no","white","no","yes","768","legacy","0","79","C:/Users/solom/Desktop/MW-subject-4.csv","legacy","Lentiform Loewenfeld","3.3.3","0","s","NA","s","s","NA","s","486","NA","28324","21610","NA","486","2","legacy","1024","2","48000","-16","experiment","SSSSS","4","even","33237","209678","NA","113123","45701","NA","209850","187030","4911","188065","NA","209846","4901","209957","210446","209956","Flanker Task","79","48505","81","yes","1024"
"97.5609756098","97.5609756098","597.548780488","597.548780488","black","legacy","legacy","legacy","0","Incongruent","uniform","1","undefined","1","s","0","0","0","81","81","0","81","81","0","0","0","81","0","81","81","81","09/27/20 07:35:32","600","The main experiment item","yes","FlankerTask.osexp","C:/Users/solom/Desktop","no","mono","no","18","no","white","no","yes","768","legacy","1","79","C:/Users/solom/Desktop/MW-subject-4.csv","legacy","Lentiform Loewenfeld","3.3.3","0","s","NA","s","s","NA","s","494","NA","28324","21610","NA","494","2","legacy","1024","2","48000","-16","experiment","HHSHH","4","even","33237","209678","NA","113123","45701","NA","211651","210467","4911","188065","NA","211646","4901","211757","212255","211757","Flanker Task","80","48999","82","yes","1024"
"97.5903614458","97.5903614458","596.385542169","596.385542169","black","legacy","legacy","legacy","0","Incongruent","uniform","1","undefined","1","s","0","0","0","82","82","0","82","82","0","0","0","82","0","82","82","82","09/27/20 07:35:32","600","The main experiment item","yes","FlankerTask.osexp","C:/Users/solom/Desktop","no","mono","no","18","no","white","no","yes","768","legacy","2","79","C:/Users/solom/Desktop/MW-subject-4.csv","legacy","Lentiform Loewenfeld","3.3.3","0","s","NA","s","s","NA","s","501","NA","28324","21610","NA","501","2","legacy","1024","2","48000","-16","experiment","HHSHH","4","even","33237","209678","NA","113123","45701","NA","213452","212276","4911","188065","NA","213447","4901","213558","214062","213557","Flanker Task","81","49500","83","yes","1024"
"97.619047619","97.619047619","593.857142857","593.857142857","black","legacy","legacy","legacy","0","Incongruent","uniform","1","undefined","1","s","0","0","0","83","83","0","83","83","0","0","0","83","0","83","83","83","09/27/20 07:35:32","600","The main experiment item","yes","FlankerTask.osexp","C:/Users/solom/Desktop","no","mono","no","18","no","white","no","yes","768","legacy","3","79","C:/Users/solom/Desktop/MW-subject-4.csv","legacy","Lentiform Loewenfeld","3.3.3","0","s","NA","s","s","NA","s","384","NA","28324","21610","NA","384","2","legacy","1024","2","48000","-16","experiment","HHSHH","4","even","33237","209678","NA","113123","45701","NA","215280","214104","4911","188065","NA","215275","4901","215387","215774","215386","Flanker Task","82","49884","84","yes","1024"
"97.6470588235","97.6470588235","592.341176471","592.341176471","black","legacy","legacy","legacy","0","Congruent","uniform","1","undefined","1","h","0","0","0","84","84","0","84","84","0","0","0","84","0","84","84","84","09/27/20 07:35:32","600","The main experiment item","yes","FlankerTask.osexp","C:/Users/solom/Desktop","no","mono","no","18","no","white","no","yes","768","legacy","4","79","C:/Users/solom/Desktop/MW-subject-4.csv","legacy","Lentiform Loewenfeld","3.3.3","0","h","NA","s","s","NA","h","465","NA","28324","21610","NA","465","2","legacy","1024","2","48000","-16","experiment","HHHHH","4","even","33237","209678","NA","113123","45701","NA","216970","215794","4911","188065","NA","216965","4901","217074","217542","217074","Flanker Task","83","50349","85","yes","1024"
"97.6744186047","97.6744186047","590.441860465","590.441860465","black","legacy","legacy","legacy","0","Incongruent","uniform","1","undefined","1","h","0","0","0","85","85","0","85","85","0","0","0","85","0","85","85","85","09/27/20 07:35:32","600","The main experiment item","yes","FlankerTask.osexp","C:/Users/solom/Desktop","no","mono","no","18","no","white","no","yes","768","legacy","5","79","C:/Users/solom/Desktop/MW-subject-4.csv","legacy","Lentiform Loewenfeld","3.3.3","0","h","NA","s","s","NA","h","429","NA","28324","21610","NA","429","2","legacy","1024","2","48000","-16","experiment","SSHSS","4","even","33237","209678","NA","113123","45701","NA","218740","217561","4911","188065","NA","218735","4901","218846","219278","218845","Flanker Task","84","50778","86","yes","1024"
"97.7011494253","97.7011494253","587.67816092","587.67816092","black","legacy","legacy","legacy","0","Congruent","uniform","1","undefined","1","h","0","0","0","86","86","0","86","86","0","0","0","86","0","86","86","86","09/27/20 07:35:32","600","The main experiment item","yes","FlankerTask.osexp","C:/Users/solom/Desktop","no","mono","no","18","no","white","no","yes","768","legacy","6","79","C:/Users/solom/Desktop/MW-subject-4.csv","legacy","Lentiform Loewenfeld","3.3.3","0","h","NA","s","s","NA","h","350","NA","28324","21610","NA","350","2","legacy","1024","2","48000","-16","experiment","HHHHH","4","even","33237","209678","NA","113123","45701","NA","220482","219305","4911","188065","NA","220477","4901","220589","220943","220588","Flanker Task","85","51128","87","yes","1024"
"97.7272727273","97.7272727273","586.238636364","586.238636364","black","legacy","legacy","legacy","0","Congruent","uniform","1","undefined","1","s","0","0","0","87","87","0","87","87","0","0","0","87","0","87","87","87","09/27/20 07:35:32","600","The main experiment item","yes","FlankerTask.osexp","C:/Users/solom/Desktop","no","mono","no","18","no","white","no","yes","768","legacy","7","79","C:/Users/solom/Desktop/MW-subject-4.csv","legacy","Lentiform Loewenfeld","3.3.3","0","s","NA","s","s","NA","s","461","NA","28324","21610","NA","461","2","legacy","1024","2","48000","-16","experiment","SSSSS","4","even","33237","209678","NA","113123","45701","NA","222146","220973","4911","188065","NA","222141","4901","222253","222718","222252","Flanker Task","86","51589","88","yes","1024"
"97.7528089888","97.7528089888","586.08988764","586.08988764","black","legacy","legacy","legacy","0","Incongruent","uniform","1","undefined","1","h","0","0","0","88","88","0","88","88","0","0","0","88","0","88","88","88","09/27/20 07:35:32","600","The main experiment item","yes","FlankerTask.osexp","C:/Users/solom/Desktop","no","mono","no","18","no","white","no","yes","768","legacy","8","79","C:/Users/solom/Desktop/MW-subject-4.csv","legacy","Lentiform Loewenfeld","3.3.3","0","h","NA","s","s","NA","h","573","NA","28324","21610","NA","573","2","legacy","1024","2","48000","-16","experiment","SSHSS","4","even","33237","209678","NA","113123","45701","NA","223923","222748","4911","188065","NA","223918","4901","224029","224606","224028","Flanker Task","87","52162","89","yes","1024"
"97.7777777778","97.7777777778","585.011111111","585.011111111","black","legacy","legacy","legacy","0","Congruent","uniform","1","undefined","1","s","0","0","0","89","89","0","89","89","0","0","0","89","0","89","89","89","09/27/20 07:35:32","600","The main experiment item","yes","FlankerTask.osexp","C:/Users/solom/Desktop","no","mono","no","18","no","white","no","yes","768","legacy","9","79","C:/Users/solom/Desktop/MW-subject-4.csv","legacy","Lentiform Loewenfeld","3.3.3","0","s","NA","s","s","NA","s","489","NA","28324","21610","NA","489","2","legacy","1024","2","48000","-16","experiment","SSSSS","4","even","33237","209678","NA","113123","45701","NA","225807","224631","4911","188065","NA","225802","4901","225913","226406","225912","Flanker Task","88","52651","90","yes","1024"
"97.8021978022","97.8021978022","583.516483516","583.516483516","black","legacy","legacy","legacy","0","Congruent","uniform","1","undefined","1","s","0","0","0","90","90","0","90","90","0","0","0","90","0","90","90","90","09/27/20 07:35:32","600","The main experiment item","yes","FlankerTask.osexp","C:/Users/solom/Desktop","no","mono","no","18","no","white","no","yes","768","legacy","10","79","C:/Users/solom/Desktop/MW-subject-4.csv","legacy","Lentiform Loewenfeld","3.3.3","0","s","NA","s","s","NA","s","449","NA","28324","21610","NA","449","2","legacy","1024","2","48000","-16","experiment","SSSSS","4","even","33237","209678","NA","113123","45701","NA","227610","226430","4911","188065","NA","227605","4901","227714","228167","227714","Flanker Task","89","53100","91","yes","1024"
"97.8260869565","97.8260869565","583.304347826","583.304347826","black","legacy","legacy","legacy","0","Congruent","uniform","1","undefined","1","h","0","0","0","91","91","0","91","91","0","0","0","91","0","91","91","91","09/27/20 07:35:32","600","The main experiment item","yes","FlankerTask.osexp","C:/Users/solom/Desktop","no","mono","no","18","no","white","no","yes","768","legacy","11","79","C:/Users/solom/Desktop/MW-subject-4.csv","legacy","Lentiform Loewenfeld","3.3.3","0","h","NA","s","s","NA","h","564","NA","28324","21610","NA","564","2","legacy","1024","2","48000","-16","experiment","HHHHH","4","even","33237","209678","NA","113123","45701","NA","229365","228190","4911","188065","NA","229360","4901","229471","230039","229470","Flanker Task","90","53664","92","yes","1024"
"97.8494623656","97.8494623656","581.322580645","581.322580645","black","legacy","legacy","legacy","0","Congruent","uniform","1","undefined","1","h","0","0","0","92","92","0","92","92","0","0","0","92","0","92","92","92","09/27/20 07:35:32","600","The main experiment item","yes","FlankerTask.osexp","C:/Users/solom/Desktop","no","mono","no","18","no","white","no","yes","768","legacy","12","79","C:/Users/solom/Desktop/MW-subject-4.csv","legacy","Lentiform Loewenfeld","3.3.3","0","h","NA","s","s","NA","h","399","NA","28324","21610","NA","399","2","legacy","1024","2","48000","-16","experiment","HHHHH","4","even","33237","209678","NA","113123","45701","NA","231241","230067","4911","188065","NA","231237","4901","231348","231751","231347","Flanker Task","91","54063","93","yes","1024"
"97.8723404255","97.8723404255","579.968085106","579.968085106","black","legacy","legacy","legacy","0","Congruent","uniform","1","undefined","1","s","0","0","0","93","93","0","93","93","0","0","0","93","0","93","93","93","09/27/20 07:35:32","600","The main experiment item","yes","FlankerTask.osexp","C:/Users/solom/Desktop","no","mono","no","18","no","white","no","yes","768","legacy","13","79","C:/Users/solom/Desktop/MW-subject-4.csv","legacy","Lentiform Loewenfeld","3.3.3","0","s","NA","s","s","NA","s","454","NA","28324","21610","NA","454","2","legacy","1024","2","48000","-16","experiment","SSSSS","4","even","33237","209678","NA","113123","45701","NA","232962","231784","4911","188065","NA","232957","4901","233068","233526","233067","Flanker Task","92","54517","94","yes","1024"
"97.8947368421","97.8947368421","577.894736842","577.894736842","black","legacy","legacy","legacy","0","Congruent","uniform","1","undefined","1","h","0","0","0","94","94","0","94","94","0","0","0","94","0","94","94","94","09/27/20 07:35:32","600","The main experiment item","yes","FlankerTask.osexp","C:/Users/solom/Desktop","no","mono","no","18","no","white","no","yes","768","legacy","14","79","C:/Users/solom/Desktop/MW-subject-4.csv","legacy","Lentiform Loewenfeld","3.3.3","0","h","NA","s","s","NA","h","383","NA","28324","21610","NA","383","2","legacy","1024","2","48000","-16","experiment","HHHHH","4","even","33237","209678","NA","113123","45701","NA","234730","233549","4911","188065","NA","234725","4901","234836","235222","234835","Flanker Task","93","54900","95","yes","1024"
"97.9166666667","97.9166666667","577.197916667","577.197916667","black","legacy","legacy","legacy","0","Incongruent","uniform","1","undefined","1","h","0","0","0","95","95","0","95","95","0","0","0","95","0","95","95","95","09/27/20 07:35:32","600","The main experiment item","yes","FlankerTask.osexp","C:/Users/solom/Desktop","no","mono","no","18","no","white","no","yes","768","legacy","15","79","C:/Users/solom/Desktop/MW-subject-4.csv","legacy","Lentiform Loewenfeld","3.3.3","0","h","NA","s","s","NA","h","511","NA","28324","21610","NA","511","2","legacy","1024","2","48000","-16","experiment","SSHSS","4","even","33237","209678","NA","113123","45701","NA","236433","235252","4911","188065","NA","236428","4901","236540","237055","236539","Flanker Task","94","55411","96","yes","1024"
"97.9381443299","97.9381443299","575.567010309","575.567010309","black","legacy","legacy","legacy","0","Incongruent","uniform","1","undefined","1","h","0","0","0","96","96","0","96","96","0","0","0","96","0","96","96","96","09/27/20 07:35:32","600","The main experiment item","yes","FlankerTask.osexp","C:/Users/solom/Desktop","no","mono","no","18","no","white","no","yes","768","legacy","16","79","C:/Users/solom/Desktop/MW-subject-4.csv","legacy","Lentiform Loewenfeld","3.3.3","0","h","NA","s","s","NA","h","419","NA","28324","21610","NA","419","2","legacy","1024","2","48000","-16","experiment","SSHSS","4","even","33237","209678","NA","113123","45701","NA","238262","237086","4911","188065","NA","238257","4901","238368","238790","238367","Flanker Task","95","55830","97","yes","1024"
"97.9591836735","97.9591836735","574.540816327","574.540816327","black","legacy","legacy","legacy","0","Congruent","uniform","1","undefined","1","s","0","0","0","97","97","0","97","97","0","0","0","97","0","97","97","97","09/27/20 07:35:32","600","The main experiment item","yes","FlankerTask.osexp","C:/Users/solom/Desktop","no","mono","no","18","no","white","no","yes","768","legacy","17","79","C:/Users/solom/Desktop/MW-subject-4.csv","legacy","Lentiform Loewenfeld","3.3.3","0","s","NA","s","s","NA","s","475","NA","28324","21610","NA","475","2","legacy","1024","2","48000","-16","experiment","SSSSS","4","even","33237","209678","NA","113123","45701","NA","239990","238819","4911","188065","NA","239985","4901","240096","240575","240095","Flanker Task","96","56305","98","yes","1024"
"97.9797979798","97.9797979798","574.727272727","574.727272727","black","legacy","legacy","legacy","0","Incongruent","uniform","1","undefined","1","s","0","0","0","98","98","0","98","98","0","0","0","98","0","98","98","98","09/27/20 07:35:32","600","The main experiment item","yes","FlankerTask.osexp","C:/Users/solom/Desktop","no","mono","no","18","no","white","no","yes","768","legacy","18","79","C:/Users/solom/Desktop/MW-subject-4.csv","legacy","Lentiform Loewenfeld","3.3.3","0","s","NA","s","s","NA","s","593","NA","28324","21610","NA","593","2","legacy","1024","2","48000","-16","experiment","HHSHH","4","even","33237","209678","NA","113123","45701","NA","241776","240594","4911","188065","NA","241771","4901","241882","242479","241881","Flanker Task","97","56898","99","yes","1024"
"98","98","574.08","574.08","black","legacy","legacy","legacy","0","Incongruent","uniform","1","undefined","1","s","0","0","0","99","99","0","99","99","0","0","0","99","0","99","99","99","09/27/20 07:35:32","600","The main experiment item","yes","FlankerTask.osexp","C:/Users/solom/Desktop","no","mono","no","18","no","white","no","yes","768","legacy","19","79","C:/Users/solom/Desktop/MW-subject-4.csv","legacy","Lentiform Loewenfeld","3.3.3","0","s","NA","s","s","NA","s","510","NA","28324","21610","NA","510","2","legacy","1024","2","48000","-16","experiment","HHSHH","4","even","33237","209678","NA","113123","45701","NA","243683","242512","4911","188065","NA","243678","4901","243789","244303","243788","Flanker Task","98","57408","100","yes","1024"
"97.0297029703","97.0297029703","572.237623762","572.237623762","black","legacy","legacy","legacy","0","Incongruent","uniform","0","undefined","0","s","0","0","0","100","100","0","100","100","0","0","0","100","0","100","100","100","09/27/20 07:35:32","600","The main experiment item","yes","FlankerTask.osexp","C:/Users/solom/Desktop","no","mono","no","18","no","white","no","yes","768","legacy","20","79","C:/Users/solom/Desktop/MW-subject-4.csv","legacy","Lentiform Loewenfeld","3.3.3","0","h","NA","s","s","NA","h","388","NA","28324","21610","NA","388","2","legacy","1024","2","48000","-16","experiment","HHSHH","4","even","33237","209678","NA","113123","45701","NA","245508","244330","4911","188065","NA","245503","4901","245615","246007","245614","Flanker Task","98","57796","101","yes","1024"
"97.0588235294","97.0588235294","571.401960784","571.401960784","black","legacy","legacy","legacy","0","Congruent","uniform","1","undefined","1","h","0","0","0","101","101","0","101","101","0","0","0","101","0","101","101","101","09/27/20 07:35:32","600","The main experiment item","yes","FlankerTask.osexp","C:/Users/solom/Desktop","no","mono","no","18","no","white","no","yes","768","legacy","21","79","C:/Users/solom/Desktop/MW-subject-4.csv","legacy","Lentiform Loewenfeld","3.3.3","0","h","NA","s","s","NA","h","487","NA","28324","21610","NA","487","2","legacy","1024","2","48000","-16","experiment","HHHHH","4","even","33237","209678","NA","246030","45701","NA","247707","246534","4911","188065","NA","247702","4901","247812","248303","247812","Flanker Task","99","58283","102","yes","1024"
"97.0873786408","97.0873786408","570.359223301","570.359223301","black","legacy","legacy","legacy","0","Congruent","uniform","1","undefined","1","s","0","0","0","102","102","0","102","102","0","0","0","102","0","102","102","102","09/27/20 07:35:32","600","The main experiment item","yes","FlankerTask.osexp","C:/Users/solom/Desktop","no","mono","no","18","no","white","no","yes","768","legacy","22","79","C:/Users/solom/Desktop/MW-subject-4.csv","legacy","Lentiform Loewenfeld","3.3.3","0","s","NA","s","s","NA","s","464","NA","28324","21610","NA","464","2","legacy","1024","2","48000","-16","experiment","SSSSS","4","even","33237","209678","NA","246030","45701","NA","249504","248331","4911","188065","NA","249500","4901","249611","250079","249610","Flanker Task","100","58747","103","yes","1024"
"97.1153846154","97.1153846154","569.115384615","569.115384615","black","legacy","legacy","legacy","0","Congruent","uniform","1","undefined","1","s","0","0","0","103","103","0","103","103","0","0","0","103","0","103","103","103","09/27/20 07:35:32","600","The main experiment item","yes","FlankerTask.osexp","C:/Users/solom/Desktop","no","mono","no","18","no","white","no","yes","768","legacy","23","79","C:/Users/solom/Desktop/MW-subject-4.csv","legacy","Lentiform Loewenfeld","3.3.3","0","s","NA","s","s","NA","s","441","NA","28324","21610","NA","441","2","legacy","1024","2","48000","-16","experiment","SSSSS","4","even","33237","209678","NA","246030","45701","NA","251287","250113","4911","188065","NA","251282","4901","251393","251839","251392","Flanker Task","101","59188","104","yes","1024"
"97.1428571429","97.1428571429","569.133333333","569.133333333","black","legacy","legacy","legacy","0","Incongruent","uniform","1","undefined","1","s","0","0","0","104","104","0","104","104","0","0","0","104","0","104","104","104","09/27/20 07:35:32","600","The main experiment item","yes","FlankerTask.osexp","C:/Users/solom/Desktop","no","mono","no","18","no","white","no","yes","768","legacy","24","79","C:/Users/solom/Desktop/MW-subject-4.csv","legacy","Lentiform Loewenfeld","3.3.3","0","s","NA","s","s","NA","s","571","NA","28324","21610","NA","571","2","legacy","1024","2","48000","-16","experiment","HHSHH","4","even","33237","209678","NA","246030","45701","NA","253046","251865","4911","188065","NA","253041","4901","253152","253727","253151","Flanker Task","102","59759","105","yes","1024"
"97.1698113208","97.1698113208","567.660377358","567.660377358","black","legacy","legacy","legacy","0","Incongruent","uniform","1","undefined","1","s","0","0","0","105","105","0","105","105","0","0","0","105","0","105","105","105","09/27/20 07:35:32","600","The main experiment item","yes","FlankerTask.osexp","C:/Users/solom/Desktop","no","mono","no","18","no","white","no","yes","768","legacy","25","79","C:/Users/solom/Desktop/MW-subject-4.csv","legacy","Lentiform Loewenfeld","3.3.3","0","s","NA","s","s","NA","s","413","NA","28324","21610","NA","413","2","legacy","1024","2","48000","-16","experiment","HHSHH","4","even","33237","209678","NA","246030","45701","NA","254924","253747","4911","188065","NA","254919","4901","255030","255447","255029","Flanker Task","103","60172","106","yes","1024"
"97.1962616822","97.1962616822","567.504672897","567.504672897","black","legacy","legacy","legacy","0","Congruent","uniform","1","undefined","1","s","0","0","0","106","106","0","106","106","0","0","0","106","0","106","106","106","09/27/20 07:35:32","600","The main experiment item","yes","FlankerTask.osexp","C:/Users/solom/Desktop","no","mono","no","18","no","white","no","yes","768","legacy","26","79","C:/Users/solom/Desktop/MW-subject-4.csv","legacy","Lentiform Loewenfeld","3.3.3","0","s","NA","s","s","NA","s","551","NA","28324","21610","NA","551","2","legacy","1024","2","48000","-16","experiment","SSSSS","4","even","33237","209678","NA","246030","45701","NA","256657","255481","4911","188065","NA","256652","4901","256763","257319","256763","Flanker Task","104","60723","107","yes","1024"
"97.2222222222","97.2222222222","568.324074074","568.324074074","black","legacy","legacy","legacy","0","Incongruent","uniform","1","undefined","1","h","0","0","0","107","107","0","107","107","0","0","0","107","0","107","107","107","09/27/20 07:35:32","600","The main experiment item","yes","FlankerTask.osexp","C:/Users/solom/Desktop","no","mono","no","18","no","white","no","yes","768","legacy","27","79","C:/Users/solom/Desktop/MW-subject-4.csv","legacy","Lentiform Loewenfeld","3.3.3","0","h","NA","s","s","NA","h","656","NA","28324","21610","NA","656","2","legacy","1024","2","48000","-16","experiment","SSHSS","4","even","33237","209678","NA","246030","45701","NA","258529","257358","4911","188065","NA","258524","4901","258635","259295","258634","Flanker Task","105","61379","108","yes","1024"
"97.247706422","97.247706422","567.256880734","567.256880734","black","legacy","legacy","legacy","0","Congruent","uniform","1","undefined","1","h","0","0","0","108","108","0","108","108","0","0","0","108","0","108","108","108","09/27/20 07:35:32","600","The main experiment item","yes","FlankerTask.osexp","C:/Users/solom/Desktop","no","mono","no","18","no","white","no","yes","768","legacy","28","79","C:/Users/solom/Desktop/MW-subject-4.csv","legacy","Lentiform Loewenfeld","3.3.3","0","h","NA","s","s","NA","h","452","NA","28324","21610","NA","452","2","legacy","1024","2","48000","-16","experiment","HHHHH","4","even","33237","209678","NA","246030","259316","NA","260996","259821","4911","188065","NA","260991","4901","261102","261559","261101","Flanker Task","106","61831","109","yes","1024"
"97.2727272727","97.2727272727","568.054545455","568.054545455","black","legacy","legacy","legacy","0","Incongruent","uniform","1","undefined","1","h","0","0","0","109","109","0","109","109","0","0","0","109","0","109","109","109","09/27/20 07:35:32","600","The main experiment item","yes","FlankerTask.osexp","C:/Users/solom/Desktop","no","mono","no","18","no","white","no","yes","768","legacy","29","79","C:/Users/solom/Desktop/MW-subject-4.csv","legacy","Lentiform Loewenfeld","3.3.3","0","h","NA","s","s","NA","h","655","NA","28324","21610","NA","655","2","legacy","1024","2","48000","-16","experiment","SSHSS","4","even","33237","209678","NA","246030","259316","NA","262769","261591","4911","188065","NA","262764","4901","262876","263535","262875","Flanker Task","107","62486","110","yes","1024"
"96.3963963964","96.3963963964","565.531531532","565.531531532","black","legacy","legacy","legacy","0","Congruent","uniform","0","undefined","0","h","0","0","0","110","110","0","110","110","0","0","0","110","0","110","110","110","09/27/20 07:35:32","600","The main experiment item","yes","FlankerTask.osexp","C:/Users/solom/Desktop","no","mono","no","18","no","white","no","yes","768","legacy","30","79","C:/Users/solom/Desktop/MW-subject-4.csv","legacy","Lentiform Loewenfeld","3.3.3","0","s","NA","s","s","NA","s","288","NA","28324","21610","NA","288","2","legacy","1024","2","48000","-16","experiment","HHHHH","4","even","33237","209678","NA","246030","263559","NA","265236","264063","4911","188065","NA","265231","4901","265339","265631","265339","Flanker Task","107","62774","111","yes","1024"
"96.4285714286","96.4285714286","563.633928571","563.633928571","black","legacy","legacy","legacy","0","Incongruent","uniform","1","undefined","1","h","0","0","0","111","111","0","111","111","0","0","0","111","0","111","111","111","09/27/20 07:35:32","600","The main experiment item","yes","FlankerTask.osexp","C:/Users/solom/Desktop","no","mono","no","18","no","white","no","yes","768","legacy","31","79","C:/Users/solom/Desktop/MW-subject-4.csv","legacy","Lentiform Loewenfeld","3.3.3","0","h","NA","s","s","NA","h","353","NA","28324","21610","NA","353","2","legacy","1024","2","48000","-16","experiment","SSHSS","4","even","33237","209678","NA","265661","263559","NA","267338","266164","4911","188065","NA","267333","4901","267442","267799","267442","Flanker Task","108","63127","112","yes","1024"
"96.4601769912","96.4601769912","562.867256637","562.867256637","black","legacy","legacy","legacy","0","Congruent","uniform","1","undefined","1","s","0","0","0","112","112","0","112","112","0","0","0","112","0","112","112","112","09/27/20 07:35:32","600","The main experiment item","yes","FlankerTask.osexp","C:/Users/solom/Desktop","no","mono","no","18","no","white","no","yes","768","legacy","32","79","C:/Users/solom/Desktop/MW-subject-4.csv","legacy","Lentiform Loewenfeld","3.3.3","0","s","NA","s","s","NA","s","477","NA","28324","21610","NA","477","2","legacy","1024","2","48000","-16","experiment","SSSSS","4","even","33237","209678","NA","265661","263559","NA","269004","267828","4911","188065","NA","268999","4901","269110","269591","269109","Flanker Task","109","63604","113","yes","1024"
"96.4912280702","96.4912280702","561.447368421","561.447368421","black","legacy","legacy","legacy","0","Congruent","uniform","1","undefined","1","h","0","0","0","113","113","0","113","113","0","0","0","113","0","113","113","113","09/27/20 07:35:32","600","The main experiment item","yes","FlankerTask.osexp","C:/Users/solom/Desktop","no","mono","no","18","no","white","no","yes","768","legacy","33","79","C:/Users/solom/Desktop/MW-subject-4.csv","legacy","Lentiform Loewenfeld","3.3.3","0","h","NA","s","s","NA","h","401","NA","28324","21610","NA","401","2","legacy","1024","2","48000","-16","experiment","HHHHH","4","even","33237","209678","NA","265661","263559","NA","270800","269621","4911","188065","NA","270795","4901","270906","271311","270905","Flanker Task","110","64005","114","yes","1024"
"96.5217391304","96.5217391304","560.565217391","560.565217391","black","legacy","legacy","legacy","0","Congruent","uniform","1","undefined","1","h","0","0","0","114","114","0","114","114","0","0","0","114","0","114","114","114","09/27/20 07:35:32","600","The main experiment item","yes","FlankerTask.osexp","C:/Users/solom/Desktop","no","mono","no","18","no","white","no","yes","768","legacy","34","79","C:/Users/solom/Desktop/MW-subject-4.csv","legacy","Lentiform Loewenfeld","3.3.3","0","h","NA","s","s","NA","h","460","NA","28324","21610","NA","460","2","legacy","1024","2","48000","-16","experiment","HHHHH","4","even","33237","209678","NA","265661","263559","NA","272517","271338","4911","188065","NA","272512","4901","272623","273087","272622","Flanker Task","111","64465","115","yes","1024"
"95.6896551724","95.6896551724","558.724137931","558.724137931","black","legacy","legacy","legacy","0","Congruent","uniform","0","undefined","0","s","0","0","0","115","115","0","115","115","0","0","0","115","0","115","115","115","09/27/20 07:35:32","600","The main experiment item","yes","FlankerTask.osexp","C:/Users/solom/Desktop","no","mono","no","18","no","white","no","yes","768","legacy","35","79","C:/Users/solom/Desktop/MW-subject-4.csv","legacy","Lentiform Loewenfeld","3.3.3","0","h","NA","s","s","NA","h","347","NA","28324","21610","NA","347","2","legacy","1024","2","48000","-16","experiment","SSSSS","4","even","33237","209678","NA","265661","263559","NA","274287","273111","4911","188065","NA","274282","4901","274392","274743","274392","Flanker Task","111","64812","116","yes","1024"
"95.7264957265","95.7264957265","559.247863248","559.247863248","black","legacy","legacy","legacy","0","Incongruent","uniform","1","undefined","1","h","0","0","0","116","116","0","116","116","0","0","0","116","0","116","116","116","09/27/20 07:35:32","600","The main experiment item","yes","FlankerTask.osexp","C:/Users/solom/Desktop","no","mono","no","18","no","white","no","yes","768","legacy","36","79","C:/Users/solom/Desktop/MW-subject-4.csv","legacy","Lentiform Loewenfeld","3.3.3","0","h","NA","s","s","NA","h","620","NA","28324","21610","NA","620","2","legacy","1024","2","48000","-16","experiment","SSHSS","4","even","33237","209678","NA","274772","263559","NA","276448","275275","4911","188065","NA","276443","4901","276551","277175","276551","Flanker Task","112","65432","117","yes","1024"
"94.9152542373","94.9152542373","557.5","557.5","black","legacy","legacy","legacy","0","Incongruent","uniform","0","undefined","0","s","0","0","0","117","117","0","117","117","0","0","0","117","0","117","117","117","09/27/20 07:35:32","600","The main experiment item","yes","FlankerTask.osexp","C:/Users/solom/Desktop","no","mono","no","18","no","white","no","yes","768","legacy","37","79","C:/Users/solom/Desktop/MW-subject-4.csv","legacy","Lentiform Loewenfeld","3.3.3","0","h","NA","s","s","NA","h","353","NA","28324","21610","NA","353","2","legacy","1024","2","48000","-16","experiment","HHSHH","4","even","33237","209678","NA","274772","277207","NA","278889","277712","4911","188065","NA","278884","4901","278994","279351","278993","Flanker Task","112","65785","118","yes","1024"
"94.9579831933","94.9579831933","556.621848739","556.621848739","black","legacy","legacy","legacy","0","Congruent","uniform","1","undefined","1","s","0","0","0","118","118","0","118","118","0","0","0","118","0","118","118","118","09/27/20 07:35:32","600","The main experiment item","yes","FlankerTask.osexp","C:/Users/solom/Desktop","no","mono","no","18","no","white","no","yes","768","legacy","38","79","C:/Users/solom/Desktop/MW-subject-4.csv","legacy","Lentiform Loewenfeld","3.3.3","0","s","NA","s","s","NA","s","453","NA","28324","21610","NA","453","2","legacy","1024","2","48000","-16","experiment","SSSSS","4","even","33237","209678","NA","279372","277207","NA","281051","279875","4911","188065","NA","281046","4901","281158","281616","281157","Flanker Task","113","66238","119","yes","1024"
"95","95","556.283333333","556.283333333","black","legacy","legacy","legacy","0","Congruent","uniform","1","undefined","1","h","0","0","0","119","119","0","119","119","0","0","0","119","0","119","119","119","09/27/20 07:35:32","600","The main experiment item","yes","FlankerTask.osexp","C:/Users/solom/Desktop","no","mono","no","18","no","white","no","yes","768","legacy","39","79","C:/Users/solom/Desktop/MW-subject-4.csv","legacy","Lentiform Loewenfeld","3.3.3","0","h","NA","s","s","NA","h","516","NA","28324","21610","NA","516","2","legacy","1024","2","48000","-16","experiment","HHHHH","4","even","33237","209678","NA","279372","277207","NA","282821","281649","4911","188065","NA","282816","4901","282927","283447","282926","Flanker Task","114","66754","120","yes","1024"
"94.2148760331","94.2148760331","554.743801653","554.743801653","black","legacy","legacy","legacy","0","Incongruent","uniform","0","undefined","0","s","0","0","0","120","120","0","120","120","0","0","0","120","0","120","120","120","09/27/20 07:35:32","600","The main experiment item","yes","FlankerTask.osexp","C:/Users/solom/Desktop","no","mono","no","18","no","white","no","yes","768","legacy","40","79","C:/Users/solom/Desktop/MW-subject-4.csv","legacy","Lentiform Loewenfeld","3.3.3","0","h","NA","s","s","NA","h","370","NA","28324","21610","NA","370","2","legacy","1024","2","48000","-16","experiment","HHSHH","4","even","33237","209678","NA","279372","277207","NA","284648","283474","4911","188065","NA","284643","4901","284753","285127","284753","Flanker Task","114","67124","121","yes","1024"
"94.262295082","94.262295082","554.385245902","554.385245902","black","legacy","legacy","legacy","0","Incongruent","uniform","1","undefined","1","s","0","0","0","121","121","0","121","121","0","0","0","121","0","121","121","121","09/27/20 07:35:32","600","The main experiment item","yes","FlankerTask.osexp","C:/Users/solom/Desktop","no","mono","no","18","no","white","no","yes","768","legacy","41","79","C:/Users/solom/Desktop/MW-subject-4.csv","legacy","Lentiform Loewenfeld","3.3.3","0","s","NA","s","s","NA","s","511","NA","28324","21610","NA","511","2","legacy","1024","2","48000","-16","experiment","HHSHH","4","even","33237","209678","NA","285148","277207","NA","286826","285653","4911","188065","NA","286821","4901","286932","287447","286932","Flanker Task","115","67635","122","yes","1024"
"93.4959349593","93.4959349593","553.853658537","553.853658537","black","legacy","legacy","legacy","0","Incongruent","uniform","0","undefined","0","h","0","0","0","122","122","0","122","122","0","0","0","122","0","122","122","122","09/27/20 07:35:32","600","The main experiment item","yes","FlankerTask.osexp","C:/Users/solom/Desktop","no","mono","no","18","no","white","no","yes","768","legacy","42","79","C:/Users/solom/Desktop/MW-subject-4.csv","legacy","Lentiform Loewenfeld","3.3.3","0","s","NA","s","s","NA","s","489","NA","28324","21610","NA","489","2","legacy","1024","2","48000","-16","experiment","SSHSS","4","even","33237","209678","NA","285148","277207","NA","288650","287477","4911","188065","NA","288645","4901","288754","289248","288754","Flanker Task","115","68124","123","yes","1024"
"93.5483870968","93.5483870968","553.161290323","553.161290323","black","legacy","legacy","legacy","0","Congruent","uniform","1","undefined","1","h","0","0","0","123","123","0","123","123","0","0","0","123","0","123","123","123","09/27/20 07:35:32","600","The main experiment item","yes","FlankerTask.osexp","C:/Users/solom/Desktop","no","mono","no","18","no","white","no","yes","768","legacy","43","79","C:/Users/solom/Desktop/MW-subject-4.csv","legacy","Lentiform Loewenfeld","3.3.3","0","h","NA","s","s","NA","h","468","NA","28324","21610","NA","468","2","legacy","1024","2","48000","-16","experiment","HHHHH","4","even","33237","209678","NA","289278","277207","NA","290955","289783","4911","188065","NA","290951","4901","291062","291535","291062","Flanker Task","116","68592","124","yes","1024"
"93.6","93.6","552.816","552.816","black","legacy","legacy","legacy","0","Incongruent","uniform","1","undefined","1","s","0","0","0","124","124","0","124","124","0","0","0","124","0","124","124","124","09/27/20 07:35:32","600","The main experiment item","yes","FlankerTask.osexp","C:/Users/solom/Desktop","no","mono","no","18","no","white","no","yes","768","legacy","44","79","C:/Users/solom/Desktop/MW-subject-4.csv","legacy","Lentiform Loewenfeld","3.3.3","0","s","NA","s","s","NA","s","510","NA","28324","21610","NA","510","2","legacy","1024","2","48000","-16","experiment","HHSHH","4","even","33237","209678","NA","289278","277207","NA","292740","291561","4911","188065","NA","292735","4901","292845","293359","292844","Flanker Task","117","69102","125","yes","1024"
"92.8571428571","92.8571428571","551.714285714","551.714285714","black","legacy","legacy","legacy","0","Incongruent","uniform","0","undefined","0","h","0","0","0","125","125","0","125","125","0","0","0","125","0","125","125","125","09/27/20 07:35:32","600","The main experiment item","yes","FlankerTask.osexp","C:/Users/solom/Desktop","no","mono","no","18","no","white","no","yes","768","legacy","45","79","C:/Users/solom/Desktop/MW-subject-4.csv","legacy","Lentiform Loewenfeld","3.3.3","0","s","NA","s","s","NA","s","414","NA","28324","21610","NA","414","2","legacy","1024","2","48000","-16","experiment","SSHSS","4","even","33237","209678","NA","289278","277207","NA","294561","293386","4911","188065","NA","294556","4901","294668","295087","294667","Flanker Task","117","69516","126","yes","1024"
