"acc","accuracy","average_response_time","avg_rt","background","canvas_backend","clock_backend","color_backend","compensation","condition","coordinates","correct","correct_Instruction","correct_keyboard_response","correct_response","count_Block1","count_Block2","count_Block3","count_Errorfeedback","count_Finish","count_Fixation","count_ISI","count_Instruction","count_Instruction2","count_Instruction3","count_experiment","count_faster","count_keyboard_response","count_logger","count_sequence","count_stimulus","datetime","deadline","description","disable_garbage_collection","experiment_file","experiment_path","font_bold","font_family","font_italic","font_size","font_underline","foreground","form_clicks","fullscreen","height","keyboard_backend","live_row","live_row_Block1","logfile","mouse_backend","opensesame_codename","opensesame_version","repeat_cycle","response","response_Finish","response_Instruction","response_Instruction2","response_Instruction3","response_keyboard_response","response_time","response_time_Finish","response_time_Instruction","response_time_Instruction2","response_time_Instruction3","response_time_keyboard_response","round_decimals","sampler_backend","sound_buf_size","sound_channels","sound_freq","sound_sample_size","start","stimulus","subject_nr","subject_parity","time_Block1","time_Block2","time_Block3","time_Errorfeedback","time_Finish","time_Fixation","time_ISI","time_Instruction","time_Instruction2","time_Instruction3","time_experiment","time_faster","time_keyboard_response","time_logger","time_sequence","time_stimulus","title","total_correct","total_response_time","total_responses","uniform_coordinates","width"
"100","100","1199","1199","black","legacy","legacy","legacy","0","congruent","uniform","1","undefined","1","h","0","0","0","0","0","0","0","0","0","0","0","0","0","0","0","0","Sat Sep 19 16:35:34 2020","1500","The main experiment item","yes","FlankerTask.osexp","/Users/kaylaredder/Desktop","no","mono","no","18","no","white","no","yes","768","legacy","0","0","/Users/kaylaredder/Desktop/mr-subject-3.csv","legacy","Lentiform Loewenfeld","3.3.3","0","h","NA","s","NA","NA","h","1199","NA","114959","NA","NA","1199","2","legacy","1024","2","48000","-16","experiment","HHHHH","3","odd","117476","NA","NA","NA","NA","117528","NA","2501","NA","NA","2486","NA","117643","118843","117516","117643","Flanker Task ","1","1199","1","yes","1024"
"100","100","1030.5","1030.5","black","legacy","legacy","legacy","0","incongruent ","uniform","1","undefined","1","h","0","0","0","1","0","1","1","0","0","0","0","1","1","1","1","1","Sat Sep 19 16:35:34 2020","1500","The main experiment item","yes","FlankerTask.osexp","/Users/kaylaredder/Desktop","no","mono","no","18","no","white","no","yes","768","legacy","1","1","/Users/kaylaredder/Desktop/mr-subject-3.csv","legacy","Lentiform Loewenfeld","3.3.3","0","h","NA","s","NA","NA","h","862","NA","114959","NA","NA","862","2","legacy","1024","2","48000","-16","experiment","SSHSS","3","odd","117476","NA","NA","NA","NA","119945","118877","2501","NA","NA","2486","NA","120059","120922","119933","120059","Flanker Task ","2","2061","2","yes","1024"
"100","100","886","886","black","legacy","legacy","legacy","0","incongruent ","uniform","1","undefined","1","h","0","0","0","2","0","2","2","0","0","0","0","2","2","2","2","2","Sat Sep 19 16:35:34 2020","1500","The main experiment item","yes","FlankerTask.osexp","/Users/kaylaredder/Desktop","no","mono","no","18","no","white","no","yes","768","legacy","2","2","/Users/kaylaredder/Desktop/mr-subject-3.csv","legacy","Lentiform Loewenfeld","3.3.3","0","h","NA","s","NA","NA","h","597","NA","114959","NA","NA","597","2","legacy","1024","2","48000","-16","experiment","SSHSS","3","odd","117476","NA","NA","NA","NA","122003","120946","2501","NA","NA","2486","NA","122118","122716","121992","122118","Flanker Task ","3","2658","3","yes","1024"
"100","100","864.5","864.5","black","legacy","legacy","legacy","0","congruent ","uniform","1","undefined","1","s","0","0","0","3","0","3","3","0","0","0","0","3","3","3","3","3","Sat Sep 19 16:35:34 2020","1500","The main experiment item","yes","FlankerTask.osexp","/Users/kaylaredder/Desktop","no","mono","no","18","no","white","no","yes","768","legacy","3","3","/Users/kaylaredder/Desktop/mr-subject-3.csv","legacy","Lentiform Loewenfeld","3.3.3","0","s","NA","s","NA","NA","s","800","NA","114959","NA","NA","800","2","legacy","1024","2","48000","-16","experiment","SSSSS","3","odd","117476","NA","NA","NA","NA","123796","122737","2501","NA","NA","2486","NA","123910","124711","123784","123910","Flanker Task ","4","3458","4","yes","1024"
"100","100","853.2","853.2","black","legacy","legacy","legacy","0","incongruent","uniform","1","undefined","1","s","0","0","0","4","0","4","4","0","0","0","0","4","4","4","4","4","Sat Sep 19 16:35:34 2020","1500","The main experiment item","yes","FlankerTask.osexp","/Users/kaylaredder/Desktop","no","mono","no","18","no","white","no","yes","768","legacy","4","4","/Users/kaylaredder/Desktop/mr-subject-3.csv","legacy","Lentiform Loewenfeld","3.3.3","0","s","NA","s","NA","NA","s","808","NA","114959","NA","NA","808","2","legacy","1024","2","48000","-16","experiment","HHSHH","3","odd","117476","NA","NA","NA","NA","125790","124732","2501","NA","NA","2486","NA","125904","126713","125777","125904","Flanker Task ","5","4266","5","yes","1024"
"100","100","807.8333333333334","807.8333333333334","black","legacy","legacy","legacy","0","congruent ","uniform","1","undefined","1","s","0","0","0","5","0","5","5","0","0","0","0","5","5","5","5","5","Sat Sep 19 16:35:34 2020","1500","The main experiment item","yes","FlankerTask.osexp","/Users/kaylaredder/Desktop","no","mono","no","18","no","white","no","yes","768","legacy","5","5","/Users/kaylaredder/Desktop/mr-subject-3.csv","legacy","Lentiform Loewenfeld","3.3.3","0","s","NA","s","NA","NA","s","581","NA","114959","NA","NA","581","2","legacy","1024","2","48000","-16","experiment","SSSSS","3","odd","117476","NA","NA","NA","NA","127791","126734","2501","NA","NA","2486","NA","127904","128486","127779","127904","Flanker Task ","6","4847","6","yes","1024"
"100","100","771.2857142857143","771.2857142857143","black","legacy","legacy","legacy","0","congruent ","uniform","1","undefined","1","s","0","0","0","6","0","6","6","0","0","0","0","6","6","6","6","6","Sat Sep 19 16:35:34 2020","1500","The main experiment item","yes","FlankerTask.osexp","/Users/kaylaredder/Desktop","no","mono","no","18","no","white","no","yes","768","legacy","6","6","/Users/kaylaredder/Desktop/mr-subject-3.csv","legacy","Lentiform Loewenfeld","3.3.3","0","s","NA","s","NA","NA","s","552","NA","114959","NA","NA","552","2","legacy","1024","2","48000","-16","experiment","SSSSS","3","odd","117476","NA","NA","NA","NA","129564","128507","2501","NA","NA","2486","NA","129678","130231","129552","129678","Flanker Task ","7","5399","7","yes","1024"
"100","100","759.125","759.125","black","legacy","legacy","legacy","0","incongruent ","uniform","1","undefined","1","h","0","0","0","7","0","7","7","0","0","0","0","7","7","7","7","7","Sat Sep 19 16:35:34 2020","1500","The main experiment item","yes","FlankerTask.osexp","/Users/kaylaredder/Desktop","no","mono","no","18","no","white","no","yes","768","legacy","7","7","/Users/kaylaredder/Desktop/mr-subject-3.csv","legacy","Lentiform Loewenfeld","3.3.3","0","h","NA","s","NA","NA","h","674","NA","114959","NA","NA","674","2","legacy","1024","2","48000","-16","experiment","SSHSS","3","odd","117476","NA","NA","NA","NA","131321","130263","2501","NA","NA","2486","NA","131435","132110","131309","131435","Flanker Task ","8","6073","8","yes","1024"
"100","100","723.7777777777778","723.7777777777778","black","legacy","legacy","legacy","0","congruent ","uniform","1","undefined","1","s","0","0","0","8","0","8","8","0","0","0","0","8","8","8","8","8","Sat Sep 19 16:35:34 2020","1500","The main experiment item","yes","FlankerTask.osexp","/Users/kaylaredder/Desktop","no","mono","no","18","no","white","no","yes","768","legacy","8","8","/Users/kaylaredder/Desktop/mr-subject-3.csv","legacy","Lentiform Loewenfeld","3.3.3","0","s","NA","s","NA","NA","s","441","NA","114959","NA","NA","441","2","legacy","1024","2","48000","-16","experiment","SSSSS","3","odd","117476","NA","NA","NA","NA","133188","132131","2501","NA","NA","2486","NA","133302","133744","133176","133302","Flanker Task ","9","6514","9","yes","1024"
"100","100","701.8","701.8","black","legacy","legacy","legacy","0","congruent","uniform","1","undefined","1","h","0","0","0","9","0","9","9","0","0","0","0","9","9","9","9","9","Sat Sep 19 16:35:34 2020","1500","The main experiment item","yes","FlankerTask.osexp","/Users/kaylaredder/Desktop","no","mono","no","18","no","white","no","yes","768","legacy","9","9","/Users/kaylaredder/Desktop/mr-subject-3.csv","legacy","Lentiform Loewenfeld","3.3.3","0","h","NA","s","NA","NA","h","504","NA","114959","NA","NA","504","2","legacy","1024","2","48000","-16","experiment","HHHHH","3","odd","117476","NA","NA","NA","NA","134823","133766","2501","NA","NA","2486","NA","134938","135443","134811","134938","Flanker Task ","10","7018","10","yes","1024"
"100","100","689.1818181818181","689.1818181818181","black","legacy","legacy","legacy","0","incongruent","uniform","1","undefined","1","s","0","0","0","10","0","10","10","0","0","0","0","10","10","10","10","10","Sat Sep 19 16:35:34 2020","1500","The main experiment item","yes","FlankerTask.osexp","/Users/kaylaredder/Desktop","no","mono","no","18","no","white","no","yes","768","legacy","10","10","/Users/kaylaredder/Desktop/mr-subject-3.csv","legacy","Lentiform Loewenfeld","3.3.3","0","s","NA","s","NA","NA","s","563","NA","114959","NA","NA","563","2","legacy","1024","2","48000","-16","experiment","HHSHH","3","odd","117476","NA","NA","NA","NA","136522","135464","2501","NA","NA","2486","NA","136637","137201","136509","136637","Flanker Task ","11","7581","11","yes","1024"
"100","100","670.0833333333334","670.0833333333334","black","legacy","legacy","legacy","0","incongruent ","uniform","1","undefined","1","h","0","0","0","11","0","11","11","0","0","0","0","11","11","11","11","11","Sat Sep 19 16:35:34 2020","1500","The main experiment item","yes","FlankerTask.osexp","/Users/kaylaredder/Desktop","no","mono","no","18","no","white","no","yes","768","legacy","11","11","/Users/kaylaredder/Desktop/mr-subject-3.csv","legacy","Lentiform Loewenfeld","3.3.3","0","h","NA","s","NA","NA","h","460","NA","114959","NA","NA","460","2","legacy","1024","2","48000","-16","experiment","SSHSS","3","odd","117476","NA","NA","NA","NA","138280","137222","2501","NA","NA","2486","NA","138395","138856","138268","138395","Flanker Task ","12","8041","12","yes","1024"
"92.3076923076923","92.3076923076923","733.9230769230769","733.9230769230769","black","legacy","legacy","legacy","0","incongruent ","uniform","0","undefined","0","h","0","0","0","12","0","12","12","0","0","0","0","12","12","12","12","12","Sat Sep 19 16:35:34 2020","1500","The main experiment item","yes","FlankerTask.osexp","/Users/kaylaredder/Desktop","no","mono","no","18","no","white","no","yes","768","legacy","12","12","/Users/kaylaredder/Desktop/mr-subject-3.csv","legacy","Lentiform Loewenfeld","3.3.3","0","None","NA","s","NA","NA","None","1500","NA","114959","NA","NA","1500","2","legacy","1024","2","48000","-16","experiment","SSHSS","3","odd","117476","NA","NA","NA","NA","139936","138877","2501","NA","NA","2486","NA","140050","141550","139923","140050","Flanker Task ","12","9541","13","yes","1024"
"92.85714285714286","92.85714285714286","753.4285714285714","753.4285714285714","black","legacy","legacy","legacy","0","congruent","uniform","1","undefined","1","h","0","0","0","13","0","13","13","0","0","0","0","13","13","13","13","13","Sat Sep 19 16:35:34 2020","1500","The main experiment item","yes","FlankerTask.osexp","/Users/kaylaredder/Desktop","no","mono","no","18","no","white","no","yes","768","legacy","13","13","/Users/kaylaredder/Desktop/mr-subject-3.csv","legacy","Lentiform Loewenfeld","3.3.3","0","h","NA","s","NA","NA","h","1007","NA","114959","NA","NA","1007","2","legacy","1024","2","48000","-16","experiment","HHHHH","3","odd","117476","NA","NA","141570","NA","143143","142085","2501","NA","NA","2486","NA","143258","144266","143131","143258","Flanker Task ","13","10548","14","yes","1024"
"93.33333333333333","93.33333333333333","742.8666666666667","742.8666666666667","black","legacy","legacy","legacy","0","incongruent ","uniform","1","undefined","1","h","0","0","0","14","0","14","14","0","0","0","0","14","14","14","14","14","Sat Sep 19 16:35:34 2020","1500","The main experiment item","yes","FlankerTask.osexp","/Users/kaylaredder/Desktop","no","mono","no","18","no","white","no","yes","768","legacy","14","14","/Users/kaylaredder/Desktop/mr-subject-3.csv","legacy","Lentiform Loewenfeld","3.3.3","0","h","NA","s","NA","NA","h","595","NA","114959","NA","NA","595","2","legacy","1024","2","48000","-16","experiment","SSHSS","3","odd","117476","NA","NA","141570","NA","145345","144287","2501","NA","NA","2486","NA","145460","146056","145333","145460","Flanker Task ","14","11143","15","yes","1024"
"93.75","93.75","732.125","732.125","black","legacy","legacy","legacy","0","congruent","uniform","1","undefined","1","h","0","0","0","15","0","15","15","0","0","0","0","15","15","15","15","15","Sat Sep 19 16:35:34 2020","1500","The main experiment item","yes","FlankerTask.osexp","/Users/kaylaredder/Desktop","no","mono","no","18","no","white","no","yes","768","legacy","15","15","/Users/kaylaredder/Desktop/mr-subject-3.csv","legacy","Lentiform Loewenfeld","3.3.3","0","h","NA","s","NA","NA","h","571","NA","114959","NA","NA","571","2","legacy","1024","2","48000","-16","experiment","HHHHH","3","odd","117476","NA","NA","141570","NA","147135","146077","2501","NA","NA","2486","NA","147251","147823","147123","147250","Flanker Task ","15","11714","16","yes","1024"
"88.23529411764706","88.23529411764706","777.2941176470588","777.2941176470588","black","legacy","legacy","legacy","0","congruent ","uniform","0","undefined","0","s","0","0","0","16","0","16","16","0","0","0","0","16","16","16","16","16","Sat Sep 19 16:35:34 2020","1500","The main experiment item","yes","FlankerTask.osexp","/Users/kaylaredder/Desktop","no","mono","no","18","no","white","no","yes","768","legacy","16","16","/Users/kaylaredder/Desktop/mr-subject-3.csv","legacy","Lentiform Loewenfeld","3.3.3","0","None","NA","s","NA","NA","None","1500","NA","114959","NA","NA","1500","2","legacy","1024","2","48000","-16","experiment","SSSSS","3","odd","117476","NA","NA","141570","NA","148901","147844","2501","NA","NA","2486","NA","149016","150516","148889","149016","Flanker Task ","15","13214","17","yes","1024"
"88.88888888888889","88.88888888888889","773.7777777777778","773.7777777777778","black","legacy","legacy","legacy","0","incongruent","uniform","1","undefined","1","s","0","0","0","17","0","17","17","0","0","0","0","17","17","17","17","17","Sat Sep 19 16:35:34 2020","1500","The main experiment item","yes","FlankerTask.osexp","/Users/kaylaredder/Desktop","no","mono","no","18","no","white","no","yes","768","legacy","17","17","/Users/kaylaredder/Desktop/mr-subject-3.csv","legacy","Lentiform Loewenfeld","3.3.3","0","s","NA","s","NA","NA","s","714","NA","114959","NA","NA","714","2","legacy","1024","2","48000","-16","experiment","HHSHH","3","odd","117476","NA","NA","150537","NA","152109","151051","2501","NA","NA","2486","NA","152223","152938","152097","152223","Flanker Task ","16","13928","18","yes","1024"
"89.47368421052632","89.47368421052632","769.421052631579","769.421052631579","black","legacy","legacy","legacy","0","congruent ","uniform","1","undefined","1","s","0","0","0","18","0","18","18","0","0","0","0","18","18","18","18","18","Sat Sep 19 16:35:34 2020","1500","The main experiment item","yes","FlankerTask.osexp","/Users/kaylaredder/Desktop","no","mono","no","18","no","white","no","yes","768","legacy","18","18","/Users/kaylaredder/Desktop/mr-subject-3.csv","legacy","Lentiform Loewenfeld","3.3.3","0","s","NA","s","NA","NA","s","691","NA","114959","NA","NA","691","2","legacy","1024","2","48000","-16","experiment","SSSSS","3","odd","117476","NA","NA","150537","NA","154015","152959","2501","NA","NA","2486","NA","154130","154822","154003","154130","Flanker Task ","17","14619","19","yes","1024"
"90","90","766.85","766.85","black","legacy","legacy","legacy","0","incongruent ","uniform","1","undefined","1","h","0","0","0","19","0","19","19","0","0","0","0","19","19","19","19","19","Sat Sep 19 16:35:34 2020","1500","The main experiment item","yes","FlankerTask.osexp","/Users/kaylaredder/Desktop","no","mono","no","18","no","white","no","yes","768","legacy","19","19","/Users/kaylaredder/Desktop/mr-subject-3.csv","legacy","Lentiform Loewenfeld","3.3.3","0","h","NA","s","NA","NA","h","718","NA","114959","NA","NA","718","2","legacy","1024","2","48000","-16","experiment","SSHSS","3","odd","117476","NA","NA","150537","NA","155903","154844","2501","NA","NA","2486","NA","156018","156737","155889","156017","Flanker Task ","18","15337","20","yes","1024"
"90.47619047619048","90.47619047619048","761.0952380952381","761.0952380952381","black","legacy","legacy","legacy","0","congruent","uniform","1","undefined","1","h","0","0","0","20","0","20","20","0","0","0","0","20","20","20","20","20","Sat Sep 19 16:35:34 2020","1500","The main experiment item","yes","FlankerTask.osexp","/Users/kaylaredder/Desktop","no","mono","no","18","no","white","no","yes","768","legacy","20","20","/Users/kaylaredder/Desktop/mr-subject-3.csv","legacy","Lentiform Loewenfeld","3.3.3","0","h","NA","s","NA","NA","h","646","NA","114959","NA","NA","646","2","legacy","1024","2","48000","-16","experiment","HHHHH","3","odd","117476","NA","NA","150537","NA","157816","156758","2501","NA","NA","2486","NA","157932","158579","157803","157931","Flanker Task ","19","15983","21","yes","1024"
"90.9090909090909","90.9090909090909","751.4090909090909","751.4090909090909","black","legacy","legacy","legacy","0","incongruent ","uniform","1","undefined","1","h","0","0","0","21","0","21","21","0","0","0","0","21","21","21","21","21","Sat Sep 19 16:35:34 2020","1500","The main experiment item","yes","FlankerTask.osexp","/Users/kaylaredder/Desktop","no","mono","no","18","no","white","no","yes","768","legacy","21","21","/Users/kaylaredder/Desktop/mr-subject-3.csv","legacy","Lentiform Loewenfeld","3.3.3","0","h","NA","s","NA","NA","h","548","NA","114959","NA","NA","548","2","legacy","1024","2","48000","-16","experiment","SSHSS","3","odd","117476","NA","NA","150537","NA","159657","158599","2501","NA","NA","2486","NA","159772","160321","159644","159772","Flanker Task ","20","16531","22","yes","1024"
"91.30434782608695","91.30434782608695","749.304347826087","749.304347826087","black","legacy","legacy","legacy","0","congruent ","uniform","1","undefined","1","s","0","0","0","22","0","22","22","0","0","0","0","22","22","22","22","22","Sat Sep 19 16:35:34 2020","1500","The main experiment item","yes","FlankerTask.osexp","/Users/kaylaredder/Desktop","no","mono","no","18","no","white","no","yes","768","legacy","22","22","/Users/kaylaredder/Desktop/mr-subject-3.csv","legacy","Lentiform Loewenfeld","3.3.3","0","s","NA","s","NA","NA","s","703","NA","114959","NA","NA","703","2","legacy","1024","2","48000","-16","experiment","SSSSS","3","odd","117476","NA","NA","150537","NA","161405","160346","2501","NA","NA","2486","NA","161520","162224","161392","161519","Flanker Task ","21","17234","23","yes","1024"
"87.5","87.5","780.5833333333334","780.5833333333334","black","legacy","legacy","legacy","0","congruent ","uniform","0","undefined","0","s","0","0","0","23","0","23","23","0","0","0","0","23","23","23","23","23","Sat Sep 19 16:35:34 2020","1500","The main experiment item","yes","FlankerTask.osexp","/Users/kaylaredder/Desktop","no","mono","no","18","no","white","no","yes","768","legacy","23","23","/Users/kaylaredder/Desktop/mr-subject-3.csv","legacy","Lentiform Loewenfeld","3.3.3","0","None","NA","s","NA","NA","None","1500","NA","114959","NA","NA","1500","2","legacy","1024","2","48000","-16","experiment","SSSSS","3","odd","117476","NA","NA","150537","NA","163304","162246","2501","NA","NA","2486","NA","163419","164919","163291","163418","Flanker Task ","21","18734","24","yes","1024"
"88","88","801.52","801.52","black","legacy","legacy","legacy","0","incongruent ","uniform","1","undefined","1","h","0","0","0","24","0","24","24","0","0","0","0","24","24","24","24","24","Sat Sep 19 16:35:34 2020","1500","The main experiment item","yes","FlankerTask.osexp","/Users/kaylaredder/Desktop","no","mono","no","18","no","white","no","yes","768","legacy","24","24","/Users/kaylaredder/Desktop/mr-subject-3.csv","legacy","Lentiform Loewenfeld","3.3.3","0","h","NA","s","NA","NA","h","1304","NA","114959","NA","NA","1304","2","legacy","1024","2","48000","-16","experiment","SSHSS","3","odd","117476","NA","NA","164943","NA","166518","165458","2501","NA","NA","2486","NA","166632","167938","166505","166632","Flanker Task ","22","20038","25","yes","1024"
"88.46153846153847","88.46153846153847","793.7307692307693","793.7307692307693","black","legacy","legacy","legacy","0","incongruent ","uniform","1","undefined","1","h","0","0","0","25","0","25","25","0","0","0","0","25","25","25","25","25","Sat Sep 19 16:35:34 2020","1500","The main experiment item","yes","FlankerTask.osexp","/Users/kaylaredder/Desktop","no","mono","no","18","no","white","no","yes","768","legacy","25","25","/Users/kaylaredder/Desktop/mr-subject-3.csv","legacy","Lentiform Loewenfeld","3.3.3","0","h","NA","s","NA","NA","h","599","NA","114959","NA","NA","599","2","legacy","1024","2","48000","-16","experiment","SSHSS","3","odd","117476","NA","NA","164943","NA","169017","167959","2501","NA","NA","2486","NA","169132","169733","169003","169132","Flanker Task ","23","20637","26","yes","1024"
"88.88888888888889","88.88888888888889","790.1111111111111","790.1111111111111","black","legacy","legacy","legacy","0","incongruent","uniform","1","undefined","1","s","0","0","0","26","0","26","26","0","0","0","0","26","26","26","26","26","Sat Sep 19 16:35:34 2020","1500","The main experiment item","yes","FlankerTask.osexp","/Users/kaylaredder/Desktop","no","mono","no","18","no","white","no","yes","768","legacy","26","26","/Users/kaylaredder/Desktop/mr-subject-3.csv","legacy","Lentiform Loewenfeld","3.3.3","0","s","NA","s","NA","NA","s","696","NA","114959","NA","NA","696","2","legacy","1024","2","48000","-16","experiment","HHSHH","3","odd","117476","NA","NA","164943","NA","170813","169753","2501","NA","NA","2486","NA","170928","171625","170801","170928","Flanker Task ","24","21333","27","yes","1024"
"89.28571428571429","89.28571428571429","784.5357142857143","784.5357142857143","black","legacy","legacy","legacy","0","congruent ","uniform","1","undefined","1","s","0","0","0","27","0","27","27","0","0","0","0","27","27","27","27","27","Sat Sep 19 16:35:34 2020","1500","The main experiment item","yes","FlankerTask.osexp","/Users/kaylaredder/Desktop","no","mono","no","18","no","white","no","yes","768","legacy","27","27","/Users/kaylaredder/Desktop/mr-subject-3.csv","legacy","Lentiform Loewenfeld","3.3.3","0","s","NA","s","NA","NA","s","634","NA","114959","NA","NA","634","2","legacy","1024","2","48000","-16","experiment","SSSSS","3","odd","117476","NA","NA","164943","NA","172706","171646","2501","NA","NA","2486","NA","172821","173457","172694","172821","Flanker Task ","25","21967","28","yes","1024"
"89.65517241379311","89.65517241379311","774.551724137931","774.551724137931","black","legacy","legacy","legacy","0","congruent","uniform","1","undefined","1","h","0","0","0","28","0","28","28","0","0","0","0","28","28","28","28","28","Sat Sep 19 16:35:34 2020","1500","The main experiment item","yes","FlankerTask.osexp","/Users/kaylaredder/Desktop","no","mono","no","18","no","white","no","yes","768","legacy","28","28","/Users/kaylaredder/Desktop/mr-subject-3.csv","legacy","Lentiform Loewenfeld","3.3.3","0","h","NA","s","NA","NA","h","495","NA","114959","NA","NA","495","2","legacy","1024","2","48000","-16","experiment","HHHHH","3","odd","117476","NA","NA","164943","NA","174538","173480","2501","NA","NA","2486","NA","174653","175150","174525","174653","Flanker Task ","26","22462","29","yes","1024"
"90","90","773.9666666666667","773.9666666666667","black","legacy","legacy","legacy","0","incongruent","uniform","1","undefined","1","s","0","0","0","29","0","29","29","0","0","0","0","29","29","29","29","29","Sat Sep 19 16:35:34 2020","1500","The main experiment item","yes","FlankerTask.osexp","/Users/kaylaredder/Desktop","no","mono","no","18","no","white","no","yes","768","legacy","29","29","/Users/kaylaredder/Desktop/mr-subject-3.csv","legacy","Lentiform Loewenfeld","3.3.3","0","s","NA","s","NA","NA","s","757","NA","114959","NA","NA","757","2","legacy","1024","2","48000","-16","experiment","HHSHH","3","odd","117476","NA","NA","164943","NA","176228","175170","2501","NA","NA","2486","NA","176344","177102","176216","176344","Flanker Task ","27","23219","30","yes","1024"
"90.3225806451613","90.3225806451613","767.1290322580645","767.1290322580645","black","legacy","legacy","legacy","0","congruent ","uniform","1","undefined","1","s","0","0","0","30","0","30","30","0","0","0","0","30","30","30","30","30","Sat Sep 19 16:35:34 2020","1500","The main experiment item","yes","FlankerTask.osexp","/Users/kaylaredder/Desktop","no","mono","no","18","no","white","no","yes","768","legacy","30","30","/Users/kaylaredder/Desktop/mr-subject-3.csv","legacy","Lentiform Loewenfeld","3.3.3","0","s","NA","s","NA","NA","s","562","NA","114959","NA","NA","562","2","legacy","1024","2","48000","-16","experiment","SSSSS","3","odd","117476","NA","NA","164943","NA","178182","177123","2501","NA","NA","2486","NA","178297","178861","178170","178297","Flanker Task ","28","23781","31","yes","1024"
"90.625","90.625","773.1875","773.1875","black","legacy","legacy","legacy","0","congruent","uniform","1","undefined","1","h","0","0","0","31","0","31","31","0","0","0","0","31","31","31","31","31","Sat Sep 19 16:35:34 2020","1500","The main experiment item","yes","FlankerTask.osexp","/Users/kaylaredder/Desktop","no","mono","no","18","no","white","no","yes","768","legacy","31","31","/Users/kaylaredder/Desktop/mr-subject-3.csv","legacy","Lentiform Loewenfeld","3.3.3","0","h","NA","s","NA","NA","h","961","NA","114959","NA","NA","961","2","legacy","1024","2","48000","-16","experiment","HHHHH","3","odd","117476","NA","NA","164943","NA","179948","178882","2501","NA","NA","2486","NA","180062","181025","179929","180062","Flanker Task ","29","24742","32","yes","1024"
"90.9090909090909","90.9090909090909","776.8787878787879","776.8787878787879","black","legacy","legacy","legacy","0","incongruent ","uniform","1","undefined","1","h","0","0","0","32","0","32","32","0","0","0","0","32","32","32","32","32","Sat Sep 19 16:35:34 2020","1500","The main experiment item","yes","FlankerTask.osexp","/Users/kaylaredder/Desktop","no","mono","no","18","no","white","no","yes","768","legacy","32","32","/Users/kaylaredder/Desktop/mr-subject-3.csv","legacy","Lentiform Loewenfeld","3.3.3","0","h","NA","s","NA","NA","h","895","NA","114959","NA","NA","895","2","legacy","1024","2","48000","-16","experiment","SSHSS","3","odd","117476","NA","NA","164943","NA","182104","181046","2501","NA","NA","2486","NA","182219","183116","182092","182219","Flanker Task ","30","25637","33","yes","1024"
"91.17647058823529","91.17647058823529","775.1470588235294","775.1470588235294","black","legacy","legacy","legacy","0","incongruent","uniform","1","undefined","1","s","0","0","0","33","0","33","33","0","0","0","0","33","33","33","33","33","Sat Sep 19 16:35:34 2020","1500","The main experiment item","yes","FlankerTask.osexp","/Users/kaylaredder/Desktop","no","mono","no","18","no","white","no","yes","768","legacy","33","33","/Users/kaylaredder/Desktop/mr-subject-3.csv","legacy","Lentiform Loewenfeld","3.3.3","0","s","NA","s","NA","NA","s","718","NA","114959","NA","NA","718","2","legacy","1024","2","48000","-16","experiment","HHSHH","3","odd","117476","NA","NA","164943","NA","184195","183136","2501","NA","NA","2486","NA","184310","185029","184182","184309","Flanker Task ","31","26355","34","yes","1024"
"91.42857142857143","91.42857142857143","767.5428571428571","767.5428571428571","black","legacy","legacy","legacy","0","congruent","uniform","1","undefined","1","h","0","0","0","34","0","34","34","0","0","0","0","34","34","34","34","34","Sat Sep 19 16:35:34 2020","1500","The main experiment item","yes","FlankerTask.osexp","/Users/kaylaredder/Desktop","no","mono","no","18","no","white","no","yes","768","legacy","34","34","/Users/kaylaredder/Desktop/mr-subject-3.csv","legacy","Lentiform Loewenfeld","3.3.3","0","h","NA","s","NA","NA","h","509","NA","114959","NA","NA","509","2","legacy","1024","2","48000","-16","experiment","HHHHH","3","odd","117476","NA","NA","164943","NA","186110","185052","2501","NA","NA","2486","NA","186225","186735","186098","186225","Flanker Task ","32","26864","35","yes","1024"
"91.66666666666667","91.66666666666667","760.4722222222222","760.4722222222222","black","legacy","legacy","legacy","0","congruent ","uniform","1","undefined","1","s","0","0","0","35","0","35","35","0","0","0","0","35","35","35","35","35","Sat Sep 19 16:35:34 2020","1500","The main experiment item","yes","FlankerTask.osexp","/Users/kaylaredder/Desktop","no","mono","no","18","no","white","no","yes","768","legacy","35","35","/Users/kaylaredder/Desktop/mr-subject-3.csv","legacy","Lentiform Loewenfeld","3.3.3","0","s","NA","s","NA","NA","s","513","NA","114959","NA","NA","513","2","legacy","1024","2","48000","-16","experiment","SSSSS","3","odd","117476","NA","NA","164943","NA","187813","186755","2501","NA","NA","2486","NA","187929","188443","187800","187929","Flanker Task ","33","27377","36","yes","1024"
"91.89189189189189","91.89189189189189","753.3783783783783","753.3783783783783","black","legacy","legacy","legacy","0","congruent ","uniform","1","undefined","1","s","0","0","0","36","0","36","36","0","0","0","0","36","36","36","36","36","Sat Sep 19 16:35:34 2020","1500","The main experiment item","yes","FlankerTask.osexp","/Users/kaylaredder/Desktop","no","mono","no","18","no","white","no","yes","768","legacy","36","36","/Users/kaylaredder/Desktop/mr-subject-3.csv","legacy","Lentiform Loewenfeld","3.3.3","0","s","NA","s","NA","NA","s","498","NA","114959","NA","NA","498","2","legacy","1024","2","48000","-16","experiment","SSSSS","3","odd","117476","NA","NA","164943","NA","189524","188465","2501","NA","NA","2486","NA","189638","190138","189512","189638","Flanker Task ","34","27875","37","yes","1024"
"92.10526315789474","92.10526315789474","745.9736842105264","745.9736842105264","black","legacy","legacy","legacy","0","incongruent ","uniform","1","undefined","1","h","0","0","0","37","0","37","37","0","0","0","0","37","37","37","37","37","Sat Sep 19 16:35:34 2020","1500","The main experiment item","yes","FlankerTask.osexp","/Users/kaylaredder/Desktop","no","mono","no","18","no","white","no","yes","768","legacy","37","37","/Users/kaylaredder/Desktop/mr-subject-3.csv","legacy","Lentiform Loewenfeld","3.3.3","0","h","NA","s","NA","NA","h","472","NA","114959","NA","NA","472","2","legacy","1024","2","48000","-16","experiment","SSHSS","3","odd","117476","NA","NA","164943","NA","191220","190162","2501","NA","NA","2486","NA","191334","191807","191207","191334","Flanker Task ","35","28347","38","yes","1024"
"92.3076923076923","92.3076923076923","745.4871794871794","745.4871794871794","black","legacy","legacy","legacy","0","congruent ","uniform","1","undefined","1","s","0","0","0","38","0","38","38","0","0","0","0","38","38","38","38","38","Sat Sep 19 16:35:34 2020","1500","The main experiment item","yes","FlankerTask.osexp","/Users/kaylaredder/Desktop","no","mono","no","18","no","white","no","yes","768","legacy","38","38","/Users/kaylaredder/Desktop/mr-subject-3.csv","legacy","Lentiform Loewenfeld","3.3.3","0","s","NA","s","NA","NA","s","727","NA","114959","NA","NA","727","2","legacy","1024","2","48000","-16","experiment","SSSSS","3","odd","117476","NA","NA","164943","NA","192887","191829","2501","NA","NA","2486","NA","193001","193730","192874","193001","Flanker Task ","36","29074","39","yes","1024"
"92.5","92.5","741.4","741.4","black","legacy","legacy","legacy","0","congruent","uniform","1","undefined","1","h","0","0","0","39","0","39","39","0","0","0","0","39","39","39","39","39","Sat Sep 19 16:35:34 2020","1500","The main experiment item","yes","FlankerTask.osexp","/Users/kaylaredder/Desktop","no","mono","no","18","no","white","no","yes","768","legacy","39","39","/Users/kaylaredder/Desktop/mr-subject-3.csv","legacy","Lentiform Loewenfeld","3.3.3","0","h","NA","s","NA","NA","h","582","NA","114959","NA","NA","582","2","legacy","1024","2","48000","-16","experiment","HHHHH","3","odd","117476","NA","NA","164943","NA","194809","193751","2501","NA","NA","2486","NA","194922","195505","194797","194922","Flanker Task ","37","29656","40","yes","1024"
"90.2439024390244","90.2439024390244","759.9024390243902","759.9024390243902","black","legacy","legacy","legacy","0","incongruent","uniform","0","undefined","0","s","0","0","0","40","0","40","40","0","0","0","0","40","40","40","40","40","Sat Sep 19 16:35:34 2020","1500","The main experiment item","yes","FlankerTask.osexp","/Users/kaylaredder/Desktop","no","mono","no","18","no","white","no","yes","768","legacy","40","40","/Users/kaylaredder/Desktop/mr-subject-3.csv","legacy","Lentiform Loewenfeld","3.3.3","0","None","NA","s","NA","NA","None","1500","NA","114959","NA","NA","1500","2","legacy","1024","2","48000","-16","experiment","HHSHH","3","odd","117476","NA","NA","164943","NA","196584","195526","2501","NA","NA","2486","NA","196698","198198","196572","196697","Flanker Task ","37","31156","41","yes","1024"
"90.47619047619048","90.47619047619048","753.1904761904761","753.1904761904761","black","legacy","legacy","legacy","0","congruent","uniform","1","undefined","1","h","0","0","0","41","0","41","41","0","0","0","0","41","41","41","41","41","Sat Sep 19 16:35:34 2020","1500","The main experiment item","yes","FlankerTask.osexp","/Users/kaylaredder/Desktop","no","mono","no","18","no","white","no","yes","768","legacy","41","41","/Users/kaylaredder/Desktop/mr-subject-3.csv","legacy","Lentiform Loewenfeld","3.3.3","0","h","NA","s","NA","NA","h","478","NA","114959","NA","NA","478","2","legacy","1024","2","48000","-16","experiment","HHHHH","3","odd","117476","NA","NA","198219","NA","199792","198733","2501","NA","NA","2486","NA","199907","200386","199780","199906","Flanker Task ","38","31634","42","yes","1024"
"90.69767441860465","90.69767441860465","746.2558139534884","746.2558139534884","black","legacy","legacy","legacy","0","incongruent","uniform","1","undefined","1","s","0","0","0","42","0","42","42","0","0","0","0","42","42","42","42","42","Sat Sep 19 16:35:34 2020","1500","The main experiment item","yes","FlankerTask.osexp","/Users/kaylaredder/Desktop","no","mono","no","18","no","white","no","yes","768","legacy","42","42","/Users/kaylaredder/Desktop/mr-subject-3.csv","legacy","Lentiform Loewenfeld","3.3.3","0","s","NA","s","NA","NA","s","455","NA","114959","NA","NA","455","2","legacy","1024","2","48000","-16","experiment","HHSHH","3","odd","117476","NA","NA","198219","NA","201466","200409","2501","NA","NA","2486","NA","201581","202037","201453","201580","Flanker Task ","39","32089","43","yes","1024"
"90.9090909090909","90.9090909090909","738.1136363636364","738.1136363636364","black","legacy","legacy","legacy","0","congruent","uniform","1","undefined","1","h","0","0","0","43","0","43","43","0","0","0","0","43","43","43","43","43","Sat Sep 19 16:35:34 2020","1500","The main experiment item","yes","FlankerTask.osexp","/Users/kaylaredder/Desktop","no","mono","no","18","no","white","no","yes","768","legacy","43","43","/Users/kaylaredder/Desktop/mr-subject-3.csv","legacy","Lentiform Loewenfeld","3.3.3","0","h","NA","s","NA","NA","h","388","NA","114959","NA","NA","388","2","legacy","1024","2","48000","-16","experiment","HHHHH","3","odd","117476","NA","NA","198219","NA","203120","202060","2501","NA","NA","2486","NA","203235","203624","203107","203234","Flanker Task ","40","32477","44","yes","1024"
"91.11111111111111","91.11111111111111","731.3777777777777","731.3777777777777","black","legacy","legacy","legacy","0","congruent ","uniform","1","undefined","1","s","0","0","0","44","0","44","44","0","0","0","0","44","44","44","44","44","Sat Sep 19 16:35:34 2020","1500","The main experiment item","yes","FlankerTask.osexp","/Users/kaylaredder/Desktop","no","mono","no","18","no","white","no","yes","768","legacy","44","44","/Users/kaylaredder/Desktop/mr-subject-3.csv","legacy","Lentiform Loewenfeld","3.3.3","0","s","NA","s","NA","NA","s","435","NA","114959","NA","NA","435","2","legacy","1024","2","48000","-16","experiment","SSSSS","3","odd","117476","NA","NA","198219","NA","204704","203647","2501","NA","NA","2486","NA","204819","205255","204692","204819","Flanker Task ","41","32912","45","yes","1024"
"91.30434782608695","91.30434782608695","727.5","727.5","black","legacy","legacy","legacy","0","congruent ","uniform","1","undefined","1","s","0","0","0","45","0","45","45","0","0","0","0","45","45","45","45","45","Sat Sep 19 16:35:34 2020","1500","The main experiment item","yes","FlankerTask.osexp","/Users/kaylaredder/Desktop","no","mono","no","18","no","white","no","yes","768","legacy","45","45","/Users/kaylaredder/Desktop/mr-subject-3.csv","legacy","Lentiform Loewenfeld","3.3.3","0","s","NA","s","NA","NA","s","553","NA","114959","NA","NA","553","2","legacy","1024","2","48000","-16","experiment","SSSSS","3","odd","117476","NA","NA","198219","NA","206335","205277","2501","NA","NA","2486","NA","206450","207004","206322","206450","Flanker Task ","42","33465","46","yes","1024"
"91.48936170212765","91.48936170212765","723.936170212766","723.936170212766","black","legacy","legacy","legacy","0","congruent","uniform","1","undefined","1","h","0","0","0","46","0","46","46","0","0","0","0","46","46","46","46","46","Sat Sep 19 16:35:34 2020","1500","The main experiment item","yes","FlankerTask.osexp","/Users/kaylaredder/Desktop","no","mono","no","18","no","white","no","yes","768","legacy","46","46","/Users/kaylaredder/Desktop/mr-subject-3.csv","legacy","Lentiform Loewenfeld","3.3.3","0","h","NA","s","NA","NA","h","560","NA","114959","NA","NA","560","2","legacy","1024","2","48000","-16","experiment","HHHHH","3","odd","117476","NA","NA","198219","NA","208083","207025","2501","NA","NA","2486","NA","208198","208759","208071","208198","Flanker Task ","43","34025","47","yes","1024"
"91.66666666666667","91.66666666666667","723.6875","723.6875","black","legacy","legacy","legacy","0","congruent","uniform","1","undefined","1","h","0","0","0","47","0","47","47","0","0","0","0","47","47","47","47","47","Sat Sep 19 16:35:34 2020","1500","The main experiment item","yes","FlankerTask.osexp","/Users/kaylaredder/Desktop","no","mono","no","18","no","white","no","yes","768","legacy","47","47","/Users/kaylaredder/Desktop/mr-subject-3.csv","legacy","Lentiform Loewenfeld","3.3.3","0","h","NA","s","NA","NA","h","712","NA","114959","NA","NA","712","2","legacy","1024","2","48000","-16","experiment","HHHHH","3","odd","117476","NA","NA","198219","NA","209838","208780","2501","NA","NA","2486","NA","209953","210666","209825","209953","Flanker Task ","44","34737","48","yes","1024"
"91.83673469387755","91.83673469387755","722.9795918367347","722.9795918367347","black","legacy","legacy","legacy","0","incongruent","uniform","1","undefined","1","s","0","0","0","48","0","48","48","0","0","0","0","48","48","48","48","48","Sat Sep 19 16:35:34 2020","1500","The main experiment item","yes","FlankerTask.osexp","/Users/kaylaredder/Desktop","no","mono","no","18","no","white","no","yes","768","legacy","48","48","/Users/kaylaredder/Desktop/mr-subject-3.csv","legacy","Lentiform Loewenfeld","3.3.3","0","s","NA","s","NA","NA","s","689","NA","114959","NA","NA","689","2","legacy","1024","2","48000","-16","experiment","HHSHH","3","odd","117476","NA","NA","198219","NA","211747","210688","2501","NA","NA","2486","NA","211862","212552","211735","211861","Flanker Task ","45","35426","49","yes","1024"
"92","92","721.2","721.2","black","legacy","legacy","legacy","0","incongruent","uniform","1","undefined","1","s","0","0","0","49","0","49","49","0","0","0","0","49","49","49","49","49","Sat Sep 19 16:35:34 2020","1500","The main experiment item","yes","FlankerTask.osexp","/Users/kaylaredder/Desktop","no","mono","no","18","no","white","no","yes","768","legacy","49","49","/Users/kaylaredder/Desktop/mr-subject-3.csv","legacy","Lentiform Loewenfeld","3.3.3","0","s","NA","s","NA","NA","s","634","NA","114959","NA","NA","634","2","legacy","1024","2","48000","-16","experiment","HHSHH","3","odd","117476","NA","NA","198219","NA","213632","212574","2501","NA","NA","2486","NA","213747","214382","213619","213746","Flanker Task ","46","36060","50","yes","1024"
"92.15686274509804","92.15686274509804","719.4313725490196","719.4313725490196","black","legacy","legacy","legacy","0","incongruent","uniform","1","undefined","1","s","0","0","0","50","0","50","50","0","0","0","0","50","50","50","50","50","Sat Sep 19 16:35:34 2020","1500","The main experiment item","yes","FlankerTask.osexp","/Users/kaylaredder/Desktop","no","mono","no","18","no","white","no","yes","768","legacy","50","50","/Users/kaylaredder/Desktop/mr-subject-3.csv","legacy","Lentiform Loewenfeld","3.3.3","0","s","NA","s","NA","NA","s","631","NA","114959","NA","NA","631","2","legacy","1024","2","48000","-16","experiment","HHSHH","3","odd","117476","NA","NA","198219","NA","215460","214403","2501","NA","NA","2486","NA","215575","216207","215448","215575","Flanker Task ","47","36691","51","yes","1024"
"92.3076923076923","92.3076923076923","717.6153846153846","717.6153846153846","black","legacy","legacy","legacy","0","incongruent ","uniform","1","undefined","1","h","0","0","0","51","0","51","51","0","0","0","0","51","51","51","51","51","Sat Sep 19 16:35:34 2020","1500","The main experiment item","yes","FlankerTask.osexp","/Users/kaylaredder/Desktop","no","mono","no","18","no","white","no","yes","768","legacy","51","51","/Users/kaylaredder/Desktop/mr-subject-3.csv","legacy","Lentiform Loewenfeld","3.3.3","0","h","NA","s","NA","NA","h","625","NA","114959","NA","NA","625","2","legacy","1024","2","48000","-16","experiment","SSHSS","3","odd","117476","NA","NA","198219","NA","217287","216229","2501","NA","NA","2486","NA","217400","218026","217275","217400","Flanker Task ","48","37316","52","yes","1024"
"92.45283018867924","92.45283018867924","717.9622641509434","717.9622641509434","black","legacy","legacy","legacy","0","incongruent","uniform","1","undefined","1","s","0","0","0","52","0","52","52","0","0","0","0","52","52","52","52","52","Sat Sep 19 16:35:34 2020","1500","The main experiment item","yes","FlankerTask.osexp","/Users/kaylaredder/Desktop","no","mono","no","18","no","white","no","yes","768","legacy","52","52","/Users/kaylaredder/Desktop/mr-subject-3.csv","legacy","Lentiform Loewenfeld","3.3.3","0","s","NA","s","NA","NA","s","736","NA","114959","NA","NA","736","2","legacy","1024","2","48000","-16","experiment","HHSHH","3","odd","117476","NA","NA","198219","NA","219105","218047","2501","NA","NA","2486","NA","219220","219957","219093","219220","Flanker Task ","49","38052","53","yes","1024"
"92.5925925925926","92.5925925925926","713.0925925925926","713.0925925925926","black","legacy","legacy","legacy","0","congruent","uniform","1","undefined","1","h","0","0","0","53","0","53","53","0","0","0","0","53","53","53","53","53","Sat Sep 19 16:35:34 2020","1500","The main experiment item","yes","FlankerTask.osexp","/Users/kaylaredder/Desktop","no","mono","no","18","no","white","no","yes","768","legacy","53","53","/Users/kaylaredder/Desktop/mr-subject-3.csv","legacy","Lentiform Loewenfeld","3.3.3","0","h","NA","s","NA","NA","h","455","NA","114959","NA","NA","455","2","legacy","1024","2","48000","-16","experiment","HHHHH","3","odd","117476","NA","NA","198219","NA","221040","219981","2501","NA","NA","2486","NA","221155","221611","221027","221155","Flanker Task ","50","38507","54","yes","1024"
"92.72727272727273","92.72727272727273","711.6363636363636","711.6363636363636","black","legacy","legacy","legacy","0","incongruent","uniform","1","undefined","1","s","0","0","0","54","0","54","54","0","0","0","0","54","54","54","54","54","Sat Sep 19 16:35:34 2020","1500","The main experiment item","yes","FlankerTask.osexp","/Users/kaylaredder/Desktop","no","mono","no","18","no","white","no","yes","768","legacy","54","54","/Users/kaylaredder/Desktop/mr-subject-3.csv","legacy","Lentiform Loewenfeld","3.3.3","0","s","NA","s","NA","NA","s","633","NA","114959","NA","NA","633","2","legacy","1024","2","48000","-16","experiment","HHSHH","3","odd","117476","NA","NA","198219","NA","222691","221632","2501","NA","NA","2486","NA","222805","223439","222678","222805","Flanker Task ","51","39140","55","yes","1024"
"92.85714285714286","92.85714285714286","709.5535714285714","709.5535714285714","black","legacy","legacy","legacy","0","incongruent","uniform","1","undefined","1","s","0","0","0","55","0","55","55","0","0","0","0","55","55","55","55","55","Sat Sep 19 16:35:34 2020","1500","The main experiment item","yes","FlankerTask.osexp","/Users/kaylaredder/Desktop","no","mono","no","18","no","white","no","yes","768","legacy","55","55","/Users/kaylaredder/Desktop/mr-subject-3.csv","legacy","Lentiform Loewenfeld","3.3.3","0","s","NA","s","NA","NA","s","595","NA","114959","NA","NA","595","2","legacy","1024","2","48000","-16","experiment","HHSHH","3","odd","117476","NA","NA","198219","NA","224520","223462","2501","NA","NA","2486","NA","224635","225231","224508","224635","Flanker Task ","52","39735","56","yes","1024"
"92.98245614035088","92.98245614035088","709","709","black","legacy","legacy","legacy","0","incongruent ","uniform","1","undefined","1","h","0","0","0","56","0","56","56","0","0","0","0","56","56","56","56","56","Sat Sep 19 16:35:34 2020","1500","The main experiment item","yes","FlankerTask.osexp","/Users/kaylaredder/Desktop","no","mono","no","18","no","white","no","yes","768","legacy","56","56","/Users/kaylaredder/Desktop/mr-subject-3.csv","legacy","Lentiform Loewenfeld","3.3.3","0","h","NA","s","NA","NA","h","678","NA","114959","NA","NA","678","2","legacy","1024","2","48000","-16","experiment","SSHSS","3","odd","117476","NA","NA","198219","NA","226311","225253","2501","NA","NA","2486","NA","226426","227105","226298","226426","Flanker Task ","53","40413","57","yes","1024"
"93.10344827586206","93.10344827586206","708.3103448275862","708.3103448275862","black","legacy","legacy","legacy","0","incongruent ","uniform","1","undefined","1","h","0","0","0","57","0","57","57","0","0","0","0","57","57","57","57","57","Sat Sep 19 16:35:34 2020","1500","The main experiment item","yes","FlankerTask.osexp","/Users/kaylaredder/Desktop","no","mono","no","18","no","white","no","yes","768","legacy","57","57","/Users/kaylaredder/Desktop/mr-subject-3.csv","legacy","Lentiform Loewenfeld","3.3.3","0","h","NA","s","NA","NA","h","669","NA","114959","NA","NA","669","2","legacy","1024","2","48000","-16","experiment","SSHSS","3","odd","117476","NA","NA","198219","NA","228184","227126","2501","NA","NA","2486","NA","228299","228969","228171","228299","Flanker Task ","54","41082","58","yes","1024"
"93.22033898305085","93.22033898305085","706.7118644067797","706.7118644067797","black","legacy","legacy","legacy","0","congruent ","uniform","1","undefined","1","s","0","0","0","58","0","58","58","0","0","0","0","58","58","58","58","58","Sat Sep 19 16:35:34 2020","1500","The main experiment item","yes","FlankerTask.osexp","/Users/kaylaredder/Desktop","no","mono","no","18","no","white","no","yes","768","legacy","58","58","/Users/kaylaredder/Desktop/mr-subject-3.csv","legacy","Lentiform Loewenfeld","3.3.3","0","s","NA","s","NA","NA","s","614","NA","114959","NA","NA","614","2","legacy","1024","2","48000","-16","experiment","SSSSS","3","odd","117476","NA","NA","198219","NA","230048","228991","2501","NA","NA","2486","NA","230163","230778","230035","230163","Flanker Task ","55","41696","59","yes","1024"
"93.33333333333333","93.33333333333333","704.0333333333333","704.0333333333333","black","legacy","legacy","legacy","0","congruent ","uniform","1","undefined","1","s","0","0","0","59","0","59","59","0","0","0","0","59","59","59","59","59","Sat Sep 19 16:35:34 2020","1500","The main experiment item","yes","FlankerTask.osexp","/Users/kaylaredder/Desktop","no","mono","no","18","no","white","no","yes","768","legacy","59","59","/Users/kaylaredder/Desktop/mr-subject-3.csv","legacy","Lentiform Loewenfeld","3.3.3","0","s","NA","s","NA","NA","s","546","NA","114959","NA","NA","546","2","legacy","1024","2","48000","-16","experiment","SSSSS","3","odd","117476","NA","NA","198219","NA","231859","230800","2501","NA","NA","2486","NA","231974","232521","231846","231974","Flanker Task ","56","42242","60","yes","1024"
"93.44262295081967","93.44262295081967","703.0327868852459","703.0327868852459","black","legacy","legacy","legacy","0","incongruent ","uniform","1","undefined","1","h","0","0","0","60","0","60","60","0","0","0","0","60","60","60","60","60","Sat Sep 19 16:35:34 2020","1500","The main experiment item","yes","FlankerTask.osexp","/Users/kaylaredder/Desktop","no","mono","no","18","no","white","no","yes","768","legacy","60","60","/Users/kaylaredder/Desktop/mr-subject-3.csv","legacy","Lentiform Loewenfeld","3.3.3","0","h","NA","s","NA","NA","h","643","NA","114959","NA","NA","643","2","legacy","1024","2","48000","-16","experiment","SSHSS","3","odd","117476","NA","NA","198219","NA","233602","232542","2501","NA","NA","2486","NA","233717","234361","233590","233717","Flanker Task ","57","42885","61","yes","1024"
"93.54838709677419","93.54838709677419","703.3064516129032","703.3064516129032","black","legacy","legacy","legacy","0","incongruent","uniform","1","undefined","1","s","0","0","0","61","0","61","61","0","0","0","0","61","61","61","61","61","Sat Sep 19 16:35:34 2020","1500","The main experiment item","yes","FlankerTask.osexp","/Users/kaylaredder/Desktop","no","mono","no","18","no","white","no","yes","768","legacy","61","61","/Users/kaylaredder/Desktop/mr-subject-3.csv","legacy","Lentiform Loewenfeld","3.3.3","0","s","NA","s","NA","NA","s","720","NA","114959","NA","NA","720","2","legacy","1024","2","48000","-16","experiment","HHSHH","3","odd","117476","NA","NA","198219","NA","235440","234382","2501","NA","NA","2486","NA","235555","236276","235427","235555","Flanker Task ","58","43605","62","yes","1024"
"93.65079365079364","93.65079365079364","701.7301587301587","701.7301587301587","black","legacy","legacy","legacy","0","incongruent","uniform","1","undefined","1","s","0","0","0","62","0","62","62","0","0","0","0","62","62","62","62","62","Sat Sep 19 16:35:34 2020","1500","The main experiment item","yes","FlankerTask.osexp","/Users/kaylaredder/Desktop","no","mono","no","18","no","white","no","yes","768","legacy","62","62","/Users/kaylaredder/Desktop/mr-subject-3.csv","legacy","Lentiform Loewenfeld","3.3.3","0","s","NA","s","NA","NA","s","604","NA","114959","NA","NA","604","2","legacy","1024","2","48000","-16","experiment","HHSHH","3","odd","117476","NA","NA","198219","NA","237355","236297","2501","NA","NA","2486","NA","237470","238075","237342","237470","Flanker Task ","59","44209","63","yes","1024"
"93.75","93.75","700.71875","700.71875","black","legacy","legacy","legacy","0","incongruent ","uniform","1","undefined","1","h","0","0","0","63","0","63","63","0","0","0","0","63","63","63","63","63","Sat Sep 19 16:35:34 2020","1500","The main experiment item","yes","FlankerTask.osexp","/Users/kaylaredder/Desktop","no","mono","no","18","no","white","no","yes","768","legacy","63","63","/Users/kaylaredder/Desktop/mr-subject-3.csv","legacy","Lentiform Loewenfeld","3.3.3","0","h","NA","s","NA","NA","h","637","NA","114959","NA","NA","637","2","legacy","1024","2","48000","-16","experiment","SSHSS","3","odd","117476","NA","NA","198219","NA","239154","238096","2501","NA","NA","2486","NA","239269","239907","239142","239269","Flanker Task ","60","44846","64","yes","1024"
"93.84615384615384","93.84615384615384","700.1538461538462","700.1538461538462","black","legacy","legacy","legacy","0","congruent","uniform","1","undefined","1","h","0","0","0","64","0","64","64","0","0","0","0","64","64","64","64","64","Sat Sep 19 16:35:34 2020","1500","The main experiment item","yes","FlankerTask.osexp","/Users/kaylaredder/Desktop","no","mono","no","18","no","white","no","yes","768","legacy","64","64","/Users/kaylaredder/Desktop/mr-subject-3.csv","legacy","Lentiform Loewenfeld","3.3.3","0","h","NA","s","NA","NA","h","664","NA","114959","NA","NA","664","2","legacy","1024","2","48000","-16","experiment","HHHHH","3","odd","117476","NA","NA","198219","NA","240988","239930","2501","NA","NA","2486","NA","241102","241767","240976","241102","Flanker Task ","61","45510","65","yes","1024"
"93.93939393939394","93.93939393939394","696.2121212121212","696.2121212121212","black","legacy","legacy","legacy","0","congruent","uniform","1","undefined","1","h","0","0","0","65","0","65","65","0","0","0","0","65","65","65","65","65","Sat Sep 19 16:35:34 2020","1500","The main experiment item","yes","FlankerTask.osexp","/Users/kaylaredder/Desktop","no","mono","no","18","no","white","no","yes","768","legacy","65","65","/Users/kaylaredder/Desktop/mr-subject-3.csv","legacy","Lentiform Loewenfeld","3.3.3","0","h","NA","s","NA","NA","h","440","NA","114959","NA","NA","440","2","legacy","1024","2","48000","-16","experiment","HHHHH","3","odd","117476","NA","NA","198219","NA","242846","241788","2501","NA","NA","2486","NA","242961","243402","242834","242961","Flanker Task ","62","45950","66","yes","1024"
"94.02985074626865","94.02985074626865","696.0149253731344","696.0149253731344","black","legacy","legacy","legacy","0","congruent ","uniform","1","undefined","1","s","0","0","0","66","0","66","66","0","0","0","0","66","66","66","66","66","Sat Sep 19 16:35:34 2020","1500","The main experiment item","yes","FlankerTask.osexp","/Users/kaylaredder/Desktop","no","mono","no","18","no","white","no","yes","768","legacy","66","66","/Users/kaylaredder/Desktop/mr-subject-3.csv","legacy","Lentiform Loewenfeld","3.3.3","0","s","NA","s","NA","NA","s","683","NA","114959","NA","NA","683","2","legacy","1024","2","48000","-16","experiment","SSSSS","3","odd","117476","NA","NA","198219","NA","244481","243423","2501","NA","NA","2486","NA","244596","245281","244468","244596","Flanker Task ","63","46633","67","yes","1024"
"94.11764705882354","94.11764705882354","694.3823529411765","694.3823529411765","black","legacy","legacy","legacy","0","incongruent","uniform","1","undefined","1","s","0","0","0","67","0","67","67","0","0","0","0","67","67","67","67","67","Sat Sep 19 16:35:34 2020","1500","The main experiment item","yes","FlankerTask.osexp","/Users/kaylaredder/Desktop","no","mono","no","18","no","white","no","yes","768","legacy","67","67","/Users/kaylaredder/Desktop/mr-subject-3.csv","legacy","Lentiform Loewenfeld","3.3.3","0","s","NA","s","NA","NA","s","585","NA","114959","NA","NA","585","2","legacy","1024","2","48000","-16","experiment","HHSHH","3","odd","117476","NA","NA","198219","NA","246360","245302","2501","NA","NA","2486","NA","246473","247060","246348","246473","Flanker Task ","64","47218","68","yes","1024"
"94.20289855072464","94.20289855072464","694.6086956521739","694.6086956521739","black","legacy","legacy","legacy","0","congruent","uniform","1","undefined","1","h","0","0","0","68","0","68","68","0","0","0","0","68","68","68","68","68","Sat Sep 19 16:35:34 2020","1500","The main experiment item","yes","FlankerTask.osexp","/Users/kaylaredder/Desktop","no","mono","no","18","no","white","no","yes","768","legacy","68","68","/Users/kaylaredder/Desktop/mr-subject-3.csv","legacy","Lentiform Loewenfeld","3.3.3","0","h","NA","s","NA","NA","h","710","NA","114959","NA","NA","710","2","legacy","1024","2","48000","-16","experiment","HHHHH","3","odd","117476","NA","NA","198219","NA","248139","247081","2501","NA","NA","2486","NA","248254","248966","248126","248254","Flanker Task ","65","47928","69","yes","1024"
"94.28571428571429","94.28571428571429","691.8285714285714","691.8285714285714","black","legacy","legacy","legacy","0","incongruent ","uniform","1","undefined","1","h","0","0","0","69","0","69","69","0","0","0","0","69","69","69","69","69","Sat Sep 19 16:35:34 2020","1500","The main experiment item","yes","FlankerTask.osexp","/Users/kaylaredder/Desktop","no","mono","no","18","no","white","no","yes","768","legacy","69","69","/Users/kaylaredder/Desktop/mr-subject-3.csv","legacy","Lentiform Loewenfeld","3.3.3","0","h","NA","s","NA","NA","h","500","NA","114959","NA","NA","500","2","legacy","1024","2","48000","-16","experiment","SSHSS","3","odd","117476","NA","NA","198219","NA","250043","248986","2501","NA","NA","2486","NA","250158","250660","250030","250157","Flanker Task ","66","48428","70","yes","1024"
"94.36619718309859","94.36619718309859","693.2676056338029","693.2676056338029","black","legacy","legacy","legacy","0","congruent ","uniform","1","undefined","1","s","0","0","0","70","0","70","70","0","0","0","0","70","70","70","70","70","Sat Sep 19 16:35:34 2020","1500","The main experiment item","yes","FlankerTask.osexp","/Users/kaylaredder/Desktop","no","mono","no","18","no","white","no","yes","768","legacy","70","70","/Users/kaylaredder/Desktop/mr-subject-3.csv","legacy","Lentiform Loewenfeld","3.3.3","0","s","NA","s","NA","NA","s","794","NA","114959","NA","NA","794","2","legacy","1024","2","48000","-16","experiment","SSSSS","3","odd","117476","NA","NA","198219","NA","251744","250685","2501","NA","NA","2486","NA","251859","252655","251731","251858","Flanker Task ","67","49222","71","yes","1024"
"94.44444444444444","94.44444444444444","694.0555555555555","694.0555555555555","black","legacy","legacy","legacy","0","incongruent","uniform","1","undefined","1","s","0","0","0","71","0","71","71","0","0","0","0","71","71","71","71","71","Sat Sep 19 16:35:34 2020","1500","The main experiment item","yes","FlankerTask.osexp","/Users/kaylaredder/Desktop","no","mono","no","18","no","white","no","yes","768","legacy","71","71","/Users/kaylaredder/Desktop/mr-subject-3.csv","legacy","Lentiform Loewenfeld","3.3.3","0","s","NA","s","NA","NA","s","750","NA","114959","NA","NA","750","2","legacy","1024","2","48000","-16","experiment","HHSHH","3","odd","117476","NA","NA","198219","NA","253736","252678","2501","NA","NA","2486","NA","253851","254603","253724","253851","Flanker Task ","68","49972","72","yes","1024"
"94.52054794520548","94.52054794520548","693.2602739726027","693.2602739726027","black","legacy","legacy","legacy","0","congruent ","uniform","1","undefined","1","s","0","0","0","72","0","72","72","0","0","0","0","72","72","72","72","72","Sat Sep 19 16:35:34 2020","1500","The main experiment item","yes","FlankerTask.osexp","/Users/kaylaredder/Desktop","no","mono","no","18","no","white","no","yes","768","legacy","72","72","/Users/kaylaredder/Desktop/mr-subject-3.csv","legacy","Lentiform Loewenfeld","3.3.3","0","s","NA","s","NA","NA","s","636","NA","114959","NA","NA","636","2","legacy","1024","2","48000","-16","experiment","SSSSS","3","odd","117476","NA","NA","198219","NA","255682","254625","2501","NA","NA","2486","NA","255797","256435","255670","255797","Flanker Task ","69","50608","73","yes","1024"
"94.5945945945946","94.5945945945946","690.972972972973","690.972972972973","black","legacy","legacy","legacy","0","congruent","uniform","1","undefined","1","h","0","0","0","73","0","73","73","0","0","0","0","73","73","73","73","73","Sat Sep 19 16:35:34 2020","1500","The main experiment item","yes","FlankerTask.osexp","/Users/kaylaredder/Desktop","no","mono","no","18","no","white","no","yes","768","legacy","73","73","/Users/kaylaredder/Desktop/mr-subject-3.csv","legacy","Lentiform Loewenfeld","3.3.3","0","h","NA","s","NA","NA","h","524","NA","114959","NA","NA","524","2","legacy","1024","2","48000","-16","experiment","HHHHH","3","odd","117476","NA","NA","198219","NA","257515","256456","2501","NA","NA","2486","NA","257629","258155","257503","257629","Flanker Task ","70","51132","74","yes","1024"
"94.66666666666667","94.66666666666667","694.9066666666666","694.9066666666666","black","legacy","legacy","legacy","0","incongruent","uniform","1","undefined","1","s","0","0","0","74","0","74","74","0","0","0","0","74","74","74","74","74","Sat Sep 19 16:35:34 2020","1500","The main experiment item","yes","FlankerTask.osexp","/Users/kaylaredder/Desktop","no","mono","no","18","no","white","no","yes","768","legacy","74","74","/Users/kaylaredder/Desktop/mr-subject-3.csv","legacy","Lentiform Loewenfeld","3.3.3","0","s","NA","s","NA","NA","s","986","NA","114959","NA","NA","986","2","legacy","1024","2","48000","-16","experiment","HHSHH","3","odd","117476","NA","NA","198219","NA","259234","258176","2501","NA","NA","2486","NA","259349","260337","259222","259349","Flanker Task ","71","52118","75","yes","1024"
"94.73684210526316","94.73684210526316","695.1315789473684","695.1315789473684","black","legacy","legacy","legacy","0","congruent","uniform","1","undefined","1","h","0","0","0","75","0","75","75","0","0","0","0","75","75","75","75","75","Sat Sep 19 16:35:34 2020","1500","The main experiment item","yes","FlankerTask.osexp","/Users/kaylaredder/Desktop","no","mono","no","18","no","white","no","yes","768","legacy","75","75","/Users/kaylaredder/Desktop/mr-subject-3.csv","legacy","Lentiform Loewenfeld","3.3.3","0","h","NA","s","NA","NA","h","712","NA","114959","NA","NA","712","2","legacy","1024","2","48000","-16","experiment","HHHHH","3","odd","117476","NA","NA","198219","NA","261421","260360","2501","NA","NA","2486","NA","261536","262249","261408","261536","Flanker Task ","72","52830","76","yes","1024"
"94.8051948051948","94.8051948051948","699.5714285714286","699.5714285714286","black","legacy","legacy","legacy","0","incongruent ","uniform","1","undefined","1","h","0","0","0","76","0","76","76","0","0","0","0","76","76","76","76","76","Sat Sep 19 16:35:34 2020","1500","The main experiment item","yes","FlankerTask.osexp","/Users/kaylaredder/Desktop","no","mono","no","18","no","white","no","yes","768","legacy","76","76","/Users/kaylaredder/Desktop/mr-subject-3.csv","legacy","Lentiform Loewenfeld","3.3.3","0","h","NA","s","NA","NA","h","1037","NA","114959","NA","NA","1037","2","legacy","1024","2","48000","-16","experiment","SSHSS","3","odd","117476","NA","NA","198219","NA","263328","262270","2501","NA","NA","2486","NA","263443","264482","263316","263443","Flanker Task ","73","53867","77","yes","1024"
"94.87179487179488","94.87179487179488","696.6025641025641","696.6025641025641","black","legacy","legacy","legacy","0","incongruent","uniform","1","undefined","1","s","0","0","0","77","0","77","77","0","0","0","0","77","77","77","77","77","Sat Sep 19 16:35:34 2020","1500","The main experiment item","yes","FlankerTask.osexp","/Users/kaylaredder/Desktop","no","mono","no","18","no","white","no","yes","768","legacy","77","77","/Users/kaylaredder/Desktop/mr-subject-3.csv","legacy","Lentiform Loewenfeld","3.3.3","0","s","NA","s","NA","NA","s","468","NA","114959","NA","NA","468","2","legacy","1024","2","48000","-16","experiment","HHSHH","3","odd","117476","NA","NA","198219","NA","265560","264502","2501","NA","NA","2486","NA","265675","266145","265547","265674","Flanker Task ","74","54335","78","yes","1024"
"94.9367088607595","94.9367088607595","695.5443037974684","695.5443037974684","black","legacy","legacy","legacy","0","incongruent ","uniform","1","undefined","1","h","0","0","0","78","0","78","78","0","0","0","0","78","78","78","78","78","Sat Sep 19 16:35:34 2020","1500","The main experiment item","yes","FlankerTask.osexp","/Users/kaylaredder/Desktop","no","mono","no","18","no","white","no","yes","768","legacy","78","78","/Users/kaylaredder/Desktop/mr-subject-3.csv","legacy","Lentiform Loewenfeld","3.3.3","0","h","NA","s","NA","NA","h","613","NA","114959","NA","NA","613","2","legacy","1024","2","48000","-16","experiment","SSHSS","3","odd","117476","NA","NA","198219","NA","267223","266165","2501","NA","NA","2486","NA","267338","267952","267211","267337","Flanker Task ","75","54948","79","yes","1024"
"95","95","695.4125","695.4125","black","legacy","legacy","legacy","0","congruent","uniform","1","undefined","1","h","0","0","0","79","0","79","79","0","0","0","0","79","79","79","79","79","Sat Sep 19 16:35:34 2020","1500","The main experiment item","yes","FlankerTask.osexp","/Users/kaylaredder/Desktop","no","mono","no","18","no","white","no","yes","768","legacy","79","79","/Users/kaylaredder/Desktop/mr-subject-3.csv","legacy","Lentiform Loewenfeld","3.3.3","0","h","NA","s","NA","NA","h","685","NA","114959","NA","NA","685","2","legacy","1024","2","48000","-16","experiment","HHHHH","3","odd","117476","NA","NA","198219","NA","269031","267974","2501","NA","NA","2486","NA","269146","269832","269018","269146","Flanker Task ","76","55633","80","yes","1024"
"95.06172839506173","95.06172839506173","697.5679012345679","697.5679012345679","black","legacy","legacy","legacy","0","incongruent","uniform","1","undefined","1","s","0","0","0","80","0","80","80","0","0","0","0","80","80","80","80","80","Sat Sep 19 16:35:34 2020","600","The main experiment item","yes","FlankerTask.osexp","/Users/kaylaredder/Desktop","no","mono","no","18","no","white","no","yes","768","legacy","0","79","/Users/kaylaredder/Desktop/mr-subject-3.csv","legacy","Lentiform Loewenfeld","3.3.3","0","s","NA","s","h","NA","s","870","NA","114959","27220","NA","870","2","legacy","1024","2","48000","-16","experiment","HHSHH","3","odd","117476","298112","NA","198219","NA","298156","269853","2501","270890","NA","2486","NA","298271","299143","298144","298271","Flanker Task ","77","56503","81","yes","1024"
"95.1219512195122","95.1219512195122","695.9024390243902","695.9024390243902","black","legacy","legacy","legacy","0","incongruent","uniform","1","undefined","1","s","0","0","0","81","0","81","81","0","0","0","0","81","81","81","81","81","Sat Sep 19 16:35:34 2020","600","The main experiment item","yes","FlankerTask.osexp","/Users/kaylaredder/Desktop","no","mono","no","18","no","white","no","yes","768","legacy","1","79","/Users/kaylaredder/Desktop/mr-subject-3.csv","legacy","Lentiform Loewenfeld","3.3.3","0","s","NA","s","h","NA","s","561","NA","114959","27220","NA","561","2","legacy","1024","2","48000","-16","experiment","HHSHH","3","odd","117476","298112","NA","198219","NA","300736","299678","2501","270890","NA","2486","299164","300851","301413","300724","300851","Flanker Task ","78","57064","82","yes","1024"
"95.18072289156626","95.18072289156626","694.0963855421687","694.0963855421687","black","legacy","legacy","legacy","0","congrunent ","uniform","1","undefined","1","s","0","0","0","82","0","82","82","0","0","0","0","82","82","82","82","82","Sat Sep 19 16:35:34 2020","600","The main experiment item","yes","FlankerTask.osexp","/Users/kaylaredder/Desktop","no","mono","no","18","no","white","no","yes","768","legacy","2","79","/Users/kaylaredder/Desktop/mr-subject-3.csv","legacy","Lentiform Loewenfeld","3.3.3","0","s","NA","s","h","NA","s","546","NA","114959","27220","NA","546","2","legacy","1024","2","48000","-16","experiment","SSSSS","3","odd","117476","298112","NA","198219","NA","302491","301432","2501","270890","NA","2486","299164","302606","303154","302479","302606","Flanker Task ","79","57610","83","yes","1024"
"95.23809523809524","95.23809523809524","691.0238095238095","691.0238095238095","black","legacy","legacy","legacy","0","congrunent ","uniform","1","undefined","1","s","0","0","0","83","0","83","83","0","0","0","0","83","83","83","83","83","Sat Sep 19 16:35:34 2020","600","The main experiment item","yes","FlankerTask.osexp","/Users/kaylaredder/Desktop","no","mono","no","18","no","white","no","yes","768","legacy","3","79","/Users/kaylaredder/Desktop/mr-subject-3.csv","legacy","Lentiform Loewenfeld","3.3.3","0","s","NA","s","h","NA","s","436","NA","114959","27220","NA","436","2","legacy","1024","2","48000","-16","experiment","SSSSS","3","odd","117476","298112","NA","198219","NA","304233","303174","2501","270890","NA","2486","299164","304347","304785","304221","304347","Flanker Task ","80","58046","84","yes","1024"
"95.29411764705883","95.29411764705883","688.1529411764706","688.1529411764706","black","legacy","legacy","legacy","0","congruent","uniform","1","undefined","1","h","0","0","0","84","0","84","84","0","0","0","0","84","84","84","84","84","Sat Sep 19 16:35:34 2020","600","The main experiment item","yes","FlankerTask.osexp","/Users/kaylaredder/Desktop","no","mono","no","18","no","white","no","yes","768","legacy","4","79","/Users/kaylaredder/Desktop/mr-subject-3.csv","legacy","Lentiform Loewenfeld","3.3.3","0","h","NA","s","h","NA","h","447","NA","114959","27220","NA","447","2","legacy","1024","2","48000","-16","experiment","HHHHH","3","odd","117476","298112","NA","198219","NA","305864","304806","2501","270890","NA","2486","299164","305979","306429","305851","305979","Flanker Task ","81","58493","85","yes","1024"
"95.34883720930233","95.34883720930233","684.7906976744187","684.7906976744187","black","legacy","legacy","legacy","0","incongruent","uniform","1","undefined","1","s","0","0","0","85","0","85","85","0","0","0","0","85","85","85","85","85","Sat Sep 19 16:35:34 2020","600","The main experiment item","yes","FlankerTask.osexp","/Users/kaylaredder/Desktop","no","mono","no","18","no","white","no","yes","768","legacy","5","79","/Users/kaylaredder/Desktop/mr-subject-3.csv","legacy","Lentiform Loewenfeld","3.3.3","0","s","NA","s","h","NA","s","399","NA","114959","27220","NA","399","2","legacy","1024","2","48000","-16","experiment","HHSHH","3","odd","117476","298112","NA","198219","NA","307510","306452","2501","270890","NA","2486","299164","307624","308025","307498","307624","Flanker Task ","82","58892","86","yes","1024"
"95.40229885057471","95.40229885057471","683.6666666666666","683.6666666666666","black","legacy","legacy","legacy","0","incongruent","uniform","1","undefined","1","s","0","0","0","86","0","86","86","0","0","0","0","86","86","86","86","86","Sat Sep 19 16:35:34 2020","600","The main experiment item","yes","FlankerTask.osexp","/Users/kaylaredder/Desktop","no","mono","no","18","no","white","no","yes","768","legacy","6","79","/Users/kaylaredder/Desktop/mr-subject-3.csv","legacy","Lentiform Loewenfeld","3.3.3","0","s","NA","s","h","NA","s","587","NA","114959","27220","NA","587","2","legacy","1024","2","48000","-16","experiment","HHSHH","3","odd","117476","298112","NA","198219","NA","309106","308046","2501","270890","NA","2486","299164","309221","309810","309093","309221","Flanker Task ","83","59479","87","yes","1024"
"95.45454545454545","95.45454545454545","683.0454545454545","683.0454545454545","black","legacy","legacy","legacy","0","incongruent ","uniform","1","undefined","1","h","0","0","0","87","0","87","87","0","0","0","0","87","87","87","87","87","Sat Sep 19 16:35:34 2020","600","The main experiment item","yes","FlankerTask.osexp","/Users/kaylaredder/Desktop","no","mono","no","18","no","white","no","yes","768","legacy","7","79","/Users/kaylaredder/Desktop/mr-subject-3.csv","legacy","Lentiform Loewenfeld","3.3.3","0","h","NA","s","h","NA","h","629","NA","114959","27220","NA","629","2","legacy","1024","2","48000","-16","experiment","SSHSS","3","odd","117476","298112","NA","198219","NA","310891","309833","2501","270890","NA","2486","299164","311005","311636","310879","311005","Flanker Task ","84","60108","88","yes","1024"
"95.50561797752809","95.50561797752809","681.4269662921348","681.4269662921348","black","legacy","legacy","legacy","0","congruent","uniform","1","undefined","1","h","0","0","0","88","0","88","88","0","0","0","0","88","88","88","88","88","Sat Sep 19 16:35:34 2020","600","The main experiment item","yes","FlankerTask.osexp","/Users/kaylaredder/Desktop","no","mono","no","18","no","white","no","yes","768","legacy","8","79","/Users/kaylaredder/Desktop/mr-subject-3.csv","legacy","Lentiform Loewenfeld","3.3.3","0","h","NA","s","h","NA","h","539","NA","114959","27220","NA","539","2","legacy","1024","2","48000","-16","experiment","HHHHH","3","odd","117476","298112","NA","198219","NA","313228","312171","2501","270890","NA","2486","311658","313342","313883","313216","313342","Flanker Task ","85","60647","89","yes","1024"
"95.55555555555556","95.55555555555556","679.7444444444444","679.7444444444444","black","legacy","legacy","legacy","0","congrunent ","uniform","1","undefined","1","s","0","0","0","89","0","89","89","0","0","0","0","89","89","89","89","89","Sat Sep 19 16:35:34 2020","600","The main experiment item","yes","FlankerTask.osexp","/Users/kaylaredder/Desktop","no","mono","no","18","no","white","no","yes","768","legacy","9","79","/Users/kaylaredder/Desktop/mr-subject-3.csv","legacy","Lentiform Loewenfeld","3.3.3","0","s","NA","s","h","NA","s","530","NA","114959","27220","NA","530","2","legacy","1024","2","48000","-16","experiment","SSSSS","3","odd","117476","298112","NA","198219","NA","314963","313904","2501","270890","NA","2486","311658","315077","315609","314950","315077","Flanker Task ","86","61177","90","yes","1024"
"95.6043956043956","95.6043956043956","677.6263736263736","677.6263736263736","black","legacy","legacy","legacy","0","congruent","uniform","1","undefined","1","h","0","0","0","90","0","90","90","0","0","0","0","90","90","90","90","90","Sat Sep 19 16:35:34 2020","600","The main experiment item","yes","FlankerTask.osexp","/Users/kaylaredder/Desktop","no","mono","no","18","no","white","no","yes","768","legacy","10","79","/Users/kaylaredder/Desktop/mr-subject-3.csv","legacy","Lentiform Loewenfeld","3.3.3","0","h","NA","s","h","NA","h","487","NA","114959","27220","NA","487","2","legacy","1024","2","48000","-16","experiment","HHHHH","3","odd","117476","298112","NA","198219","NA","316688","315630","2501","270890","NA","2486","311658","316803","317292","316675","316803","Flanker Task ","87","61664","91","yes","1024"
"95.65217391304348","95.65217391304348","675.7282608695652","675.7282608695652","black","legacy","legacy","legacy","0","incongruent ","uniform","1","undefined","1","h","0","0","0","91","0","91","91","0","0","0","0","91","91","91","91","91","Sat Sep 19 16:35:34 2020","600","The main experiment item","yes","FlankerTask.osexp","/Users/kaylaredder/Desktop","no","mono","no","18","no","white","no","yes","768","legacy","11","79","/Users/kaylaredder/Desktop/mr-subject-3.csv","legacy","Lentiform Loewenfeld","3.3.3","0","h","NA","s","h","NA","h","503","NA","114959","27220","NA","503","2","legacy","1024","2","48000","-16","experiment","SSHSS","3","odd","117476","298112","NA","198219","NA","318371","317313","2501","270890","NA","2486","311658","318486","318991","318359","318486","Flanker Task ","88","62167","92","yes","1024"
"95.6989247311828","95.6989247311828","674.3548387096774","674.3548387096774","black","legacy","legacy","legacy","0","congrunent ","uniform","1","undefined","1","s","0","0","0","92","0","92","92","0","0","0","0","92","92","92","92","92","Sat Sep 19 16:35:34 2020","600","The main experiment item","yes","FlankerTask.osexp","/Users/kaylaredder/Desktop","no","mono","no","18","no","white","no","yes","768","legacy","12","79","/Users/kaylaredder/Desktop/mr-subject-3.csv","legacy","Lentiform Loewenfeld","3.3.3","0","s","NA","s","h","NA","s","548","NA","114959","27220","NA","548","2","legacy","1024","2","48000","-16","experiment","SSSSS","3","odd","117476","298112","NA","198219","NA","320068","319011","2501","270890","NA","2486","311658","320183","320733","320056","320183","Flanker Task ","89","62715","93","yes","1024"
"95.74468085106383","95.74468085106383","670.8617021276596","670.8617021276596","black","legacy","legacy","legacy","0","congruent","uniform","1","undefined","1","h","0","0","0","93","0","93","93","0","0","0","0","93","93","93","93","93","Sat Sep 19 16:35:34 2020","600","The main experiment item","yes","FlankerTask.osexp","/Users/kaylaredder/Desktop","no","mono","no","18","no","white","no","yes","768","legacy","13","79","/Users/kaylaredder/Desktop/mr-subject-3.csv","legacy","Lentiform Loewenfeld","3.3.3","0","h","NA","s","h","NA","h","346","NA","114959","27220","NA","346","2","legacy","1024","2","48000","-16","experiment","HHHHH","3","odd","117476","298112","NA","198219","NA","321812","320754","2501","270890","NA","2486","311658","321928","322276","321799","321928","Flanker Task ","90","63061","94","yes","1024"
"95.78947368421052","95.78947368421052","668.7473684210527","668.7473684210527","black","legacy","legacy","legacy","0","congruent","uniform","1","undefined","1","h","0","0","0","94","0","94","94","0","0","0","0","94","94","94","94","94","Sat Sep 19 16:35:34 2020","600","The main experiment item","yes","FlankerTask.osexp","/Users/kaylaredder/Desktop","no","mono","no","18","no","white","no","yes","768","legacy","14","79","/Users/kaylaredder/Desktop/mr-subject-3.csv","legacy","Lentiform Loewenfeld","3.3.3","0","h","NA","s","h","NA","h","470","NA","114959","27220","NA","470","2","legacy","1024","2","48000","-16","experiment","HHHHH","3","odd","117476","298112","NA","198219","NA","323354","322296","2501","270890","NA","2486","311658","323469","323941","323342","323469","Flanker Task ","91","63531","95","yes","1024"
"95.83333333333333","95.83333333333333","666.5104166666666","666.5104166666666","black","legacy","legacy","legacy","0","congrunent ","uniform","1","undefined","1","s","0","0","0","95","0","95","95","0","0","0","0","95","95","95","95","95","Sat Sep 19 16:35:34 2020","600","The main experiment item","yes","FlankerTask.osexp","/Users/kaylaredder/Desktop","no","mono","no","18","no","white","no","yes","768","legacy","15","79","/Users/kaylaredder/Desktop/mr-subject-3.csv","legacy","Lentiform Loewenfeld","3.3.3","0","s","NA","s","h","NA","s","454","NA","114959","27220","NA","454","2","legacy","1024","2","48000","-16","experiment","SSSSS","3","odd","117476","298112","NA","198219","NA","325018","323961","2501","270890","NA","2486","311658","325133","325588","325005","325133","Flanker Task ","92","63985","96","yes","1024"
"95.87628865979381","95.87628865979381","665.5463917525773","665.5463917525773","black","legacy","legacy","legacy","0","congruent","uniform","1","undefined","1","h","0","0","0","96","0","96","96","0","0","0","0","96","96","96","96","96","Sat Sep 19 16:35:34 2020","600","The main experiment item","yes","FlankerTask.osexp","/Users/kaylaredder/Desktop","no","mono","no","18","no","white","no","yes","768","legacy","16","79","/Users/kaylaredder/Desktop/mr-subject-3.csv","legacy","Lentiform Loewenfeld","3.3.3","0","h","NA","s","h","NA","h","573","NA","114959","27220","NA","573","2","legacy","1024","2","48000","-16","experiment","HHHHH","3","odd","117476","298112","NA","198219","NA","326668","325609","2501","270890","NA","2486","311658","326783","327358","326656","326783","Flanker Task ","93","64558","97","yes","1024"
"95.91836734693878","95.91836734693878","663.1836734693877","663.1836734693877","black","legacy","legacy","legacy","0","incongruent","uniform","1","undefined","1","s","0","0","0","97","0","97","97","0","0","0","0","97","97","97","97","97","Sat Sep 19 16:35:34 2020","600","The main experiment item","yes","FlankerTask.osexp","/Users/kaylaredder/Desktop","no","mono","no","18","no","white","no","yes","768","legacy","17","79","/Users/kaylaredder/Desktop/mr-subject-3.csv","legacy","Lentiform Loewenfeld","3.3.3","0","s","NA","s","h","NA","s","434","NA","114959","27220","NA","434","2","legacy","1024","2","48000","-16","experiment","HHSHH","3","odd","117476","298112","NA","198219","NA","328437","327379","2501","270890","NA","2486","311658","328552","328987","328425","328552","Flanker Task ","94","64992","98","yes","1024"
"95.95959595959596","95.95959595959596","662.4040404040404","662.4040404040404","black","legacy","legacy","legacy","0","incongruent ","uniform","1","undefined","1","h","0","0","0","98","0","98","98","0","0","0","0","98","98","98","98","98","Sat Sep 19 16:35:34 2020","600","The main experiment item","yes","FlankerTask.osexp","/Users/kaylaredder/Desktop","no","mono","no","18","no","white","no","yes","768","legacy","18","79","/Users/kaylaredder/Desktop/mr-subject-3.csv","legacy","Lentiform Loewenfeld","3.3.3","0","h","NA","s","h","NA","h","586","NA","114959","27220","NA","586","2","legacy","1024","2","48000","-16","experiment","SSHSS","3","odd","117476","298112","NA","198219","NA","330066","329007","2501","270890","NA","2486","311658","330180","330767","330053","330180","Flanker Task ","95","65578","99","yes","1024"
"96","96","660.34","660.34","black","legacy","legacy","legacy","0","incongruent","uniform","1","undefined","1","s","0","0","0","99","0","99","99","0","0","0","0","99","99","99","99","99","Sat Sep 19 16:35:34 2020","600","The main experiment item","yes","FlankerTask.osexp","/Users/kaylaredder/Desktop","no","mono","no","18","no","white","no","yes","768","legacy","19","79","/Users/kaylaredder/Desktop/mr-subject-3.csv","legacy","Lentiform Loewenfeld","3.3.3","0","s","NA","s","h","NA","s","456","NA","114959","27220","NA","456","2","legacy","1024","2","48000","-16","experiment","HHSHH","3","odd","117476","298112","NA","198219","NA","331848","330790","2501","270890","NA","2486","311658","331963","332421","331836","331963","Flanker Task ","96","66034","100","yes","1024"
"96.03960396039604","96.03960396039604","658.5148514851485","658.5148514851485","black","legacy","legacy","legacy","0","congruent","uniform","1","undefined","1","h","0","0","0","100","0","100","100","0","0","0","0","100","100","100","100","100","Sat Sep 19 16:35:34 2020","600","The main experiment item","yes","FlankerTask.osexp","/Users/kaylaredder/Desktop","no","mono","no","18","no","white","no","yes","768","legacy","20","79","/Users/kaylaredder/Desktop/mr-subject-3.csv","legacy","Lentiform Loewenfeld","3.3.3","0","h","NA","s","h","NA","h","476","NA","114959","27220","NA","476","2","legacy","1024","2","48000","-16","experiment","HHHHH","3","odd","117476","298112","NA","198219","NA","333500","332442","2501","270890","NA","2486","311658","333614","334091","333487","333614","Flanker Task ","97","66510","101","yes","1024"
"96.07843137254902","96.07843137254902","656.2352941176471","656.2352941176471","black","legacy","legacy","legacy","0","congruent","uniform","1","undefined","1","h","0","0","0","101","0","101","101","0","0","0","0","101","101","101","101","101","Sat Sep 19 16:35:34 2020","600","The main experiment item","yes","FlankerTask.osexp","/Users/kaylaredder/Desktop","no","mono","no","18","no","white","no","yes","768","legacy","21","79","/Users/kaylaredder/Desktop/mr-subject-3.csv","legacy","Lentiform Loewenfeld","3.3.3","0","h","NA","s","h","NA","h","426","NA","114959","27220","NA","426","2","legacy","1024","2","48000","-16","experiment","HHHHH","3","odd","117476","298112","NA","198219","NA","335170","334112","2501","270890","NA","2486","311658","335285","335712","335157","335285","Flanker Task ","98","66936","102","yes","1024"
"96.11650485436893","96.11650485436893","654.2330097087379","654.2330097087379","black","legacy","legacy","legacy","0","congruent","uniform","1","undefined","1","h","0","0","0","102","0","102","102","0","0","0","0","102","102","102","102","102","Sat Sep 19 16:35:34 2020","600","The main experiment item","yes","FlankerTask.osexp","/Users/kaylaredder/Desktop","no","mono","no","18","no","white","no","yes","768","legacy","22","79","/Users/kaylaredder/Desktop/mr-subject-3.csv","legacy","Lentiform Loewenfeld","3.3.3","0","h","NA","s","h","NA","h","450","NA","114959","27220","NA","450","2","legacy","1024","2","48000","-16","experiment","HHHHH","3","odd","117476","298112","NA","198219","NA","336794","335735","2501","270890","NA","2486","311658","336908","337359","336781","336908","Flanker Task ","99","67386","103","yes","1024"
"96.15384615384616","96.15384615384616","653.3173076923077","653.3173076923077","black","legacy","legacy","legacy","0","incongruent","uniform","1","undefined","1","s","0","0","0","103","0","103","103","0","0","0","0","103","103","103","103","103","Sat Sep 19 16:35:34 2020","600","The main experiment item","yes","FlankerTask.osexp","/Users/kaylaredder/Desktop","no","mono","no","18","no","white","no","yes","768","legacy","23","79","/Users/kaylaredder/Desktop/mr-subject-3.csv","legacy","Lentiform Loewenfeld","3.3.3","0","s","NA","s","h","NA","s","559","NA","114959","27220","NA","559","2","legacy","1024","2","48000","-16","experiment","HHSHH","3","odd","117476","298112","NA","198219","NA","338439","337381","2501","270890","NA","2486","311658","338553","339114","338427","338553","Flanker Task ","100","67945","104","yes","1024"
"96.19047619047619","96.19047619047619","652.2095238095238","652.2095238095238","black","legacy","legacy","legacy","0","incongruent ","uniform","1","undefined","1","h","0","0","0","104","0","104","104","0","0","0","0","104","104","104","104","104","Sat Sep 19 16:35:34 2020","600","The main experiment item","yes","FlankerTask.osexp","/Users/kaylaredder/Desktop","no","mono","no","18","no","white","no","yes","768","legacy","24","79","/Users/kaylaredder/Desktop/mr-subject-3.csv","legacy","Lentiform Loewenfeld","3.3.3","0","h","NA","s","h","NA","h","537","NA","114959","27220","NA","537","2","legacy","1024","2","48000","-16","experiment","SSHSS","3","odd","117476","298112","NA","198219","NA","340194","339137","2501","270890","NA","2486","311658","340309","340847","340182","340308","Flanker Task ","101","68482","105","yes","1024"
"96.22641509433963","96.22641509433963","650.5471698113207","650.5471698113207","black","legacy","legacy","legacy","0","incongruent","uniform","1","undefined","1","s","0","0","0","105","0","105","105","0","0","0","0","105","105","105","105","105","Sat Sep 19 16:35:34 2020","600","The main experiment item","yes","FlankerTask.osexp","/Users/kaylaredder/Desktop","no","mono","no","18","no","white","no","yes","768","legacy","25","79","/Users/kaylaredder/Desktop/mr-subject-3.csv","legacy","Lentiform Loewenfeld","3.3.3","0","s","NA","s","h","NA","s","476","NA","114959","27220","NA","476","2","legacy","1024","2","48000","-16","experiment","HHSHH","3","odd","117476","298112","NA","198219","NA","341932","340872","2501","270890","NA","2486","311658","342047","342524","341918","342046","Flanker Task ","102","68958","106","yes","1024"
"95.32710280373831","95.32710280373831","648.2710280373832","648.2710280373832","black","legacy","legacy","legacy","0","incongruent ","uniform","0","undefined","0","h","0","0","0","106","0","106","106","0","0","0","0","106","106","106","106","106","Sat Sep 19 16:35:34 2020","600","The main experiment item","yes","FlankerTask.osexp","/Users/kaylaredder/Desktop","no","mono","no","18","no","white","no","yes","768","legacy","26","79","/Users/kaylaredder/Desktop/mr-subject-3.csv","legacy","Lentiform Loewenfeld","3.3.3","0","s","NA","s","h","NA","s","407","NA","114959","27220","NA","407","2","legacy","1024","2","48000","-16","experiment","SSHSS","3","odd","117476","298112","NA","198219","NA","343603","342545","2501","270890","NA","2486","311658","343719","344127","343591","343718","Flanker Task ","102","69365","107","yes","1024"
"95.37037037037037","95.37037037037037","647.1574074074074","647.1574074074074","black","legacy","legacy","legacy","0","congruent","uniform","1","undefined","1","h","0","0","0","107","0","107","107","0","0","0","0","107","107","107","107","107","Sat Sep 19 16:35:34 2020","600","The main experiment item","yes","FlankerTask.osexp","/Users/kaylaredder/Desktop","no","mono","no","18","no","white","no","yes","768","legacy","27","79","/Users/kaylaredder/Desktop/mr-subject-3.csv","legacy","Lentiform Loewenfeld","3.3.3","0","h","NA","s","h","NA","h","528","NA","114959","27220","NA","528","2","legacy","1024","2","48000","-16","experiment","HHHHH","3","odd","117476","298112","NA","344150","NA","345722","344663","2501","270890","NA","2486","311658","345837","346366","345709","345836","Flanker Task ","103","69893","108","yes","1024"
"95.41284403669725","95.41284403669725","646.7339449541284","646.7339449541284","black","legacy","legacy","legacy","0","congrunent ","uniform","1","undefined","1","s","0","0","0","108","0","108","108","0","0","0","0","108","108","108","108","108","Sat Sep 19 16:35:34 2020","600","The main experiment item","yes","FlankerTask.osexp","/Users/kaylaredder/Desktop","no","mono","no","18","no","white","no","yes","768","legacy","28","79","/Users/kaylaredder/Desktop/mr-subject-3.csv","legacy","Lentiform Loewenfeld","3.3.3","0","s","NA","s","h","NA","s","601","NA","114959","27220","NA","601","2","legacy","1024","2","48000","-16","experiment","SSSSS","3","odd","117476","298112","NA","344150","NA","347440","346382","2501","270890","NA","2486","311658","347554","348156","347427","347554","Flanker Task ","104","70494","109","yes","1024"
"95.45454545454545","95.45454545454545","646","646","black","legacy","legacy","legacy","0","congrunent ","uniform","1","undefined","1","s","0","0","0","109","0","109","109","0","0","0","0","109","109","109","109","109","Sat Sep 19 16:35:34 2020","600","The main experiment item","yes","FlankerTask.osexp","/Users/kaylaredder/Desktop","no","mono","no","18","no","white","no","yes","768","legacy","29","79","/Users/kaylaredder/Desktop/mr-subject-3.csv","legacy","Lentiform Loewenfeld","3.3.3","0","s","NA","s","h","NA","s","566","NA","114959","27220","NA","566","2","legacy","1024","2","48000","-16","experiment","SSSSS","3","odd","117476","298112","NA","344150","NA","349749","348691","2501","270890","NA","2486","348177","349864","350431","349736","349863","Flanker Task ","105","71060","110","yes","1024"
"95.49549549549549","95.49549549549549","646.3513513513514","646.3513513513514","black","legacy","legacy","legacy","0","incongruent ","uniform","1","undefined","1","h","0","0","0","110","0","110","110","0","0","0","0","110","110","110","110","110","Sat Sep 19 16:35:34 2020","600","The main experiment item","yes","FlankerTask.osexp","/Users/kaylaredder/Desktop","no","mono","no","18","no","white","no","yes","768","legacy","30","79","/Users/kaylaredder/Desktop/mr-subject-3.csv","legacy","Lentiform Loewenfeld","3.3.3","0","h","NA","s","h","NA","h","685","NA","114959","27220","NA","685","2","legacy","1024","2","48000","-16","experiment","SSHSS","3","odd","117476","298112","NA","344150","NA","351512","350454","2501","270890","NA","2486","348177","351627","352313","351499","351626","Flanker Task ","106","71745","111","yes","1024"
"95.53571428571429","95.53571428571429","645.0982142857143","645.0982142857143","black","legacy","legacy","legacy","0","congruent","uniform","1","undefined","1","h","0","0","0","111","0","111","111","0","0","0","0","111","111","111","111","111","Sat Sep 19 16:35:34 2020","600","The main experiment item","yes","FlankerTask.osexp","/Users/kaylaredder/Desktop","no","mono","no","18","no","white","no","yes","768","legacy","31","79","/Users/kaylaredder/Desktop/mr-subject-3.csv","legacy","Lentiform Loewenfeld","3.3.3","0","h","NA","s","h","NA","h","506","NA","114959","27220","NA","506","2","legacy","1024","2","48000","-16","experiment","HHHHH","3","odd","117476","298112","NA","344150","NA","353907","352848","2501","270890","NA","2486","352334","354022","354529","353894","354021","Flanker Task ","107","72251","112","yes","1024"
"95.57522123893806","95.57522123893806","644.9734513274336","644.9734513274336","black","legacy","legacy","legacy","0","incongruent ","uniform","1","undefined","1","h","0","0","0","112","0","112","112","0","0","0","0","112","112","112","112","112","Sat Sep 19 16:35:34 2020","600","The main experiment item","yes","FlankerTask.osexp","/Users/kaylaredder/Desktop","no","mono","no","18","no","white","no","yes","768","legacy","32","79","/Users/kaylaredder/Desktop/mr-subject-3.csv","legacy","Lentiform Loewenfeld","3.3.3","0","h","NA","s","h","NA","h","631","NA","114959","27220","NA","631","2","legacy","1024","2","48000","-16","experiment","SSHSS","3","odd","117476","298112","NA","344150","NA","355608","354550","2501","270890","NA","2486","352334","355723","356355","355596","355723","Flanker Task ","108","72882","113","yes","1024"
"95.6140350877193","95.6140350877193","643.7543859649123","643.7543859649123","black","legacy","legacy","legacy","0","congrunent ","uniform","1","undefined","1","s","0","0","0","113","0","113","113","0","0","0","0","113","113","113","113","113","Sat Sep 19 16:35:34 2020","600","The main experiment item","yes","FlankerTask.osexp","/Users/kaylaredder/Desktop","no","mono","no","18","no","white","no","yes","768","legacy","33","79","/Users/kaylaredder/Desktop/mr-subject-3.csv","legacy","Lentiform Loewenfeld","3.3.3","0","s","NA","s","h","NA","s","506","NA","114959","27220","NA","506","2","legacy","1024","2","48000","-16","experiment","SSSSS","3","odd","117476","298112","NA","344150","NA","357950","356890","2501","270890","NA","2486","356376","358064","358571","357937","358064","Flanker Task ","109","73388","114","yes","1024"
"95.65217391304348","95.65217391304348","642.4521739130435","642.4521739130435","black","legacy","legacy","legacy","0","congrunent ","uniform","1","undefined","1","s","0","0","0","114","0","114","114","0","0","0","0","114","114","114","114","114","Sat Sep 19 16:35:34 2020","600","The main experiment item","yes","FlankerTask.osexp","/Users/kaylaredder/Desktop","no","mono","no","18","no","white","no","yes","768","legacy","34","79","/Users/kaylaredder/Desktop/mr-subject-3.csv","legacy","Lentiform Loewenfeld","3.3.3","0","s","NA","s","h","NA","s","494","NA","114959","27220","NA","494","2","legacy","1024","2","48000","-16","experiment","SSSSS","3","odd","117476","298112","NA","344150","NA","359651","358593","2501","270890","NA","2486","356376","359765","360260","359638","359765","Flanker Task ","110","73882","115","yes","1024"
"95.6896551724138","95.6896551724138","642.9396551724138","642.9396551724138","black","legacy","legacy","legacy","0","incongruent","uniform","1","undefined","1","s","0","0","0","115","0","115","115","0","0","0","0","115","115","115","115","115","Sat Sep 19 16:35:34 2020","600","The main experiment item","yes","FlankerTask.osexp","/Users/kaylaredder/Desktop","no","mono","no","18","no","white","no","yes","768","legacy","35","79","/Users/kaylaredder/Desktop/mr-subject-3.csv","legacy","Lentiform Loewenfeld","3.3.3","0","s","NA","s","h","NA","s","699","NA","114959","27220","NA","699","2","legacy","1024","2","48000","-16","experiment","HHSHH","3","odd","117476","298112","NA","344150","NA","361340","360282","2501","270890","NA","2486","356376","361455","362155","361328","361455","Flanker Task ","111","74581","116","yes","1024"
"95.72649572649573","95.72649572649573","641.7777777777778","641.7777777777778","black","legacy","legacy","legacy","0","congrunent ","uniform","1","undefined","1","s","0","0","0","116","0","116","116","0","0","0","0","116","116","116","116","116","Sat Sep 19 16:35:34 2020","600","The main experiment item","yes","FlankerTask.osexp","/Users/kaylaredder/Desktop","no","mono","no","18","no","white","no","yes","768","legacy","36","79","/Users/kaylaredder/Desktop/mr-subject-3.csv","legacy","Lentiform Loewenfeld","3.3.3","0","s","NA","s","h","NA","s","507","NA","114959","27220","NA","507","2","legacy","1024","2","48000","-16","experiment","SSSSS","3","odd","117476","298112","NA","344150","NA","363748","362689","2501","270890","NA","2486","362176","363862","364370","363735","363862","Flanker Task ","112","75088","117","yes","1024"
"95.76271186440678","95.76271186440678","640.5169491525423","640.5169491525423","black","legacy","legacy","legacy","0","incongruent","uniform","1","undefined","1","s","0","0","0","117","0","117","117","0","0","0","0","117","117","117","117","117","Sat Sep 19 16:35:34 2020","600","The main experiment item","yes","FlankerTask.osexp","/Users/kaylaredder/Desktop","no","mono","no","18","no","white","no","yes","768","legacy","37","79","/Users/kaylaredder/Desktop/mr-subject-3.csv","legacy","Lentiform Loewenfeld","3.3.3","0","s","NA","s","h","NA","s","493","NA","114959","27220","NA","493","2","legacy","1024","2","48000","-16","experiment","HHSHH","3","odd","117476","298112","NA","344150","NA","365451","364393","2501","270890","NA","2486","362176","365566","366061","365438","365565","Flanker Task ","113","75581","118","yes","1024"
"94.95798319327731","94.95798319327731","638.6974789915967","638.6974789915967","black","legacy","legacy","legacy","0","incongruent ","uniform","0","undefined","0","h","0","0","0","118","0","118","118","0","0","0","0","118","118","118","118","118","Sat Sep 19 16:35:34 2020","600","The main experiment item","yes","FlankerTask.osexp","/Users/kaylaredder/Desktop","no","mono","no","18","no","white","no","yes","768","legacy","38","79","/Users/kaylaredder/Desktop/mr-subject-3.csv","legacy","Lentiform Loewenfeld","3.3.3","0","s","NA","s","h","NA","s","424","NA","114959","27220","NA","424","2","legacy","1024","2","48000","-16","experiment","SSHSS","3","odd","117476","298112","NA","344150","NA","367140","366081","2501","270890","NA","2486","362176","367255","367681","367127","367255","Flanker Task ","113","76005","119","yes","1024"
"95","95","639.3666666666667","639.3666666666667","black","legacy","legacy","legacy","0","incongruent","uniform","1","undefined","1","s","0","0","0","119","0","119","119","0","0","0","0","119","119","119","119","119","Sat Sep 19 16:35:34 2020","600","The main experiment item","yes","FlankerTask.osexp","/Users/kaylaredder/Desktop","no","mono","no","18","no","white","no","yes","768","legacy","39","79","/Users/kaylaredder/Desktop/mr-subject-3.csv","legacy","Lentiform Loewenfeld","3.3.3","0","s","NA","s","h","NA","s","719","NA","114959","27220","NA","719","2","legacy","1024","2","48000","-16","experiment","HHSHH","3","odd","117476","298112","NA","367702","NA","369281","368217","2501","270890","NA","2486","362176","369396","370116","369264","369396","Flanker Task ","114","76724","120","yes","1024"
"95.04132231404958","95.04132231404958","638.9173553719008","638.9173553719008","black","legacy","legacy","legacy","0","incongruent ","uniform","1","undefined","1","h","0","0","0","120","0","120","120","0","0","0","0","120","120","120","120","120","Sat Sep 19 16:35:34 2020","600","The main experiment item","yes","FlankerTask.osexp","/Users/kaylaredder/Desktop","no","mono","no","18","no","white","no","yes","768","legacy","40","79","/Users/kaylaredder/Desktop/mr-subject-3.csv","legacy","Lentiform Loewenfeld","3.3.3","0","h","NA","s","h","NA","h","585","NA","114959","27220","NA","585","2","legacy","1024","2","48000","-16","experiment","SSHSS","3","odd","117476","298112","NA","367702","NA","371712","370654","2501","270890","NA","2486","370141","371827","372413","371699","371826","Flanker Task ","115","77309","121","yes","1024"
"94.26229508196721","94.26229508196721","637.7950819672132","637.7950819672132","black","legacy","legacy","legacy","0","congruent","uniform","0","undefined","0","h","0","0","0","121","0","121","121","0","0","0","0","121","121","121","121","121","Sat Sep 19 16:35:34 2020","600","The main experiment item","yes","FlankerTask.osexp","/Users/kaylaredder/Desktop","no","mono","no","18","no","white","no","yes","768","legacy","41","79","/Users/kaylaredder/Desktop/mr-subject-3.csv","legacy","Lentiform Loewenfeld","3.3.3","0","s","NA","s","h","NA","s","502","NA","114959","27220","NA","502","2","legacy","1024","2","48000","-16","experiment","HHHHH","3","odd","117476","298112","NA","367702","NA","373494","372436","2501","270890","NA","2486","370141","373609","374113","373481","373609","Flanker Task ","115","77811","122","yes","1024"
