"acc","accuracy","average_response_time","avg_rt","background","canvas_backend","clock_backend","color_backend","compensation","condition","coordinates","correct","correct_instructions1","correct_keyboard_response","correct_response","count_ISI","count_block1","count_block2","count_block3","count_errorFeedback","count_experiment","count_faster","count_finish","count_fixation","count_instructions1","count_instructions2","count_instructions3","count_keyboard_response","count_logger","count_sequence","count_stimulus","datetime","deadline","description","disable_garbage_collection","experiment_file","experiment_path","font_bold","font_family","font_italic","font_size","font_underline","foreground","form_clicks","fullscreen","height","keyboard_backend","live_row","live_row_block1","logfile","mouse_backend","opensesame_codename","opensesame_version","repeat_cycle","response","response_finish","response_instructions1","response_instructions2","response_instructions3","response_keyboard_response","response_time","response_time_finish","response_time_instructions1","response_time_instructions2","response_time_instructions3","response_time_keyboard_response","round_decimals","sampler_backend","sound_buf_size","sound_channels","sound_freq","sound_sample_size","start","stimulus","subject_nr","subject_parity","time_ISI","time_block1","time_block2","time_block3","time_errorFeedback","time_experiment","time_faster","time_finish","time_fixation","time_instructions1","time_instructions2","time_instructions3","time_keyboard_response","time_logger","time_sequence","time_stimulus","title","total_correct","total_response_time","total_responses","uniform_coordinates","width"
"0","0","1500","1500","black","legacy","legacy","legacy","0","incongruent","uniform","0","undefined","0","s","0","0","0","0","0","0","0","0","0","0","0","0","0","0","0","0","Sun Sep 27 21:07:08 2020","1500","The main experiment item","yes","Flankertask.osexp","C:/Users/JHS6-EAGLE/Desktop/OpenSes Files","no","mono","no","18","no","white","no","yes","1440","legacy","0","0","C:/Users/JHS6-EAGLE/Desktop/OpenSes Files/JH-subject-4.csv","legacy","Lentiform Loewenfeld","3.3.3","0","None","NA","a","NA","NA","None","1500","NA","31549","NA","NA","1500","2","legacy","1024","2","48000","-16","experiment","HHSHH","4","even","NA","33690","NA","NA","NA","2134","NA","NA","33814","2140","NA","NA","33930","35430","33809","33930","Flanker task","0","1500","1","yes","2560"
"50","50","1060","1060","black","legacy","legacy","legacy","0","congruent","uniform","1","undefined","1","h","1","0","0","0","1","0","1","0","1","0","0","0","1","1","1","1","Sun Sep 27 21:07:08 2020","1500","The main experiment item","yes","Flankertask.osexp","C:/Users/JHS6-EAGLE/Desktop/OpenSes Files","no","mono","no","18","no","white","no","yes","1440","legacy","1","1","C:/Users/JHS6-EAGLE/Desktop/OpenSes Files/JH-subject-4.csv","legacy","Lentiform Loewenfeld","3.3.3","0","h","NA","a","NA","NA","h","620","NA","31549","NA","NA","620","2","legacy","1024","2","48000","-16","experiment","HHHHH","4","even","35943","33690","NA","NA","35439","2134","NA","NA","37065","2140","NA","NA","37169","37790","37059","37169","Flanker task","1","2120","2","yes","2560"
"66.66666666666667","66.66666666666667","1055","1055","black","legacy","legacy","legacy","0","congruent","uniform","1","undefined","1","h","2","0","0","0","2","0","2","0","2","0","0","0","2","2","2","2","Sun Sep 27 21:07:08 2020","1500","The main experiment item","yes","Flankertask.osexp","C:/Users/JHS6-EAGLE/Desktop/OpenSes Files","no","mono","no","18","no","white","no","yes","1440","legacy","2","2","C:/Users/JHS6-EAGLE/Desktop/OpenSes Files/JH-subject-4.csv","legacy","Lentiform Loewenfeld","3.3.3","0","h","NA","a","NA","NA","h","1045","NA","31549","NA","NA","1045","2","legacy","1024","2","48000","-16","experiment","HHHHH","4","even","37798","33690","NA","NA","35439","2134","NA","NA","38924","2140","NA","NA","39028","40074","38918","39028","Flanker task","2","3165","3","yes","2560"
"75","75","998.75","998.75","black","legacy","legacy","legacy","0","congruent","uniform","1","undefined","1","h","3","0","0","0","3","0","3","0","3","0","0","0","3","3","3","3","Sun Sep 27 21:07:08 2020","1500","The main experiment item","yes","Flankertask.osexp","C:/Users/JHS6-EAGLE/Desktop/OpenSes Files","no","mono","no","18","no","white","no","yes","1440","legacy","3","3","C:/Users/JHS6-EAGLE/Desktop/OpenSes Files/JH-subject-4.csv","legacy","Lentiform Loewenfeld","3.3.3","0","h","NA","a","NA","NA","h","830","NA","31549","NA","NA","830","2","legacy","1024","2","48000","-16","experiment","HHHHH","4","even","40081","33690","NA","NA","35439","2134","NA","NA","41225","2140","NA","NA","41329","42160","41220","41329","Flanker task","3","3995","4","yes","2560"
"80","80","955","955","black","legacy","legacy","legacy","0","incongruent","uniform","1","undefined","1","s","4","0","0","0","4","0","4","0","4","0","0","0","4","4","4","4","Sun Sep 27 21:07:08 2020","1500","The main experiment item","yes","Flankertask.osexp","C:/Users/JHS6-EAGLE/Desktop/OpenSes Files","no","mono","no","18","no","white","no","yes","1440","legacy","4","4","C:/Users/JHS6-EAGLE/Desktop/OpenSes Files/JH-subject-4.csv","legacy","Lentiform Loewenfeld","3.3.3","0","s","NA","a","NA","NA","s","780","NA","31549","NA","NA","780","2","legacy","1024","2","48000","-16","experiment","HHSHH","4","even","42167","33690","NA","NA","35439","2134","NA","NA","43297","2140","NA","NA","43401","44182","43291","43401","Flanker task","4","4775","5","yes","2560"
"83.33333333333333","83.33333333333333","922.6666666666666","922.6666666666666","black","legacy","legacy","legacy","0","incongruent","uniform","1","undefined","1","h","5","0","0","0","5","0","5","0","5","0","0","0","5","5","5","5","Sun Sep 27 21:07:08 2020","1500","The main experiment item","yes","Flankertask.osexp","C:/Users/JHS6-EAGLE/Desktop/OpenSes Files","no","mono","no","18","no","white","no","yes","1440","legacy","5","5","C:/Users/JHS6-EAGLE/Desktop/OpenSes Files/JH-subject-4.csv","legacy","Lentiform Loewenfeld","3.3.3","0","h","NA","a","NA","NA","h","761","NA","31549","NA","NA","761","2","legacy","1024","2","48000","-16","experiment","SSHSS","4","even","44189","33690","NA","NA","35439","2134","NA","NA","45319","2140","NA","NA","45423","46185","45313","45423","Flanker task","5","5536","6","yes","2560"
"85.71428571428571","85.71428571428571","880.7142857142857","880.7142857142857","black","legacy","legacy","legacy","0","incongruent","uniform","1","undefined","1","h","6","0","0","0","6","0","6","0","6","0","0","0","6","6","6","6","Sun Sep 27 21:07:08 2020","1500","The main experiment item","yes","Flankertask.osexp","C:/Users/JHS6-EAGLE/Desktop/OpenSes Files","no","mono","no","18","no","white","no","yes","1440","legacy","6","6","C:/Users/JHS6-EAGLE/Desktop/OpenSes Files/JH-subject-4.csv","legacy","Lentiform Loewenfeld","3.3.3","0","h","NA","a","NA","NA","h","629","NA","31549","NA","NA","629","2","legacy","1024","2","48000","-16","experiment","SSHSS","4","even","46192","33690","NA","NA","35439","2134","NA","NA","47315","2140","NA","NA","47419","48049","47309","47419","Flanker task","6","6165","7","yes","2560"
"87.5","87.5","878.875","878.875","black","legacy","legacy","legacy","0","incongruent","uniform","1","undefined","1","h","7","0","0","0","7","0","7","0","7","0","0","0","7","7","7","7","Sun Sep 27 21:07:08 2020","1500","The main experiment item","yes","Flankertask.osexp","C:/Users/JHS6-EAGLE/Desktop/OpenSes Files","no","mono","no","18","no","white","no","yes","1440","legacy","7","7","C:/Users/JHS6-EAGLE/Desktop/OpenSes Files/JH-subject-4.csv","legacy","Lentiform Loewenfeld","3.3.3","0","h","NA","a","NA","NA","h","866","NA","31549","NA","NA","866","2","legacy","1024","2","48000","-16","experiment","SSHSS","4","even","48057","33690","NA","NA","35439","2134","NA","NA","49186","2140","NA","NA","49290","50157","49180","49290","Flanker task","7","7031","8","yes","2560"
"88.88888888888889","88.88888888888889","875","875","black","legacy","legacy","legacy","0","incongruent","uniform","1","undefined","1","h","8","0","0","0","8","0","8","0","8","0","0","0","8","8","8","8","Sun Sep 27 21:07:08 2020","1500","The main experiment item","yes","Flankertask.osexp","C:/Users/JHS6-EAGLE/Desktop/OpenSes Files","no","mono","no","18","no","white","no","yes","1440","legacy","8","8","C:/Users/JHS6-EAGLE/Desktop/OpenSes Files/JH-subject-4.csv","legacy","Lentiform Loewenfeld","3.3.3","0","h","NA","a","NA","NA","h","844","NA","31549","NA","NA","844","2","legacy","1024","2","48000","-16","experiment","SSHSS","4","even","50163","33690","NA","NA","35439","2134","NA","NA","51289","2140","NA","NA","51393","52237","51283","51393","Flanker task","8","7875","9","yes","2560"
"90","90","860.5","860.5","black","legacy","legacy","legacy","0","conruent","uniform","1","undefined","1","s","9","0","0","0","9","0","9","0","9","0","0","0","9","9","9","9","Sun Sep 27 21:07:08 2020","1500","The main experiment item","yes","Flankertask.osexp","C:/Users/JHS6-EAGLE/Desktop/OpenSes Files","no","mono","no","18","no","white","no","yes","1440","legacy","9","9","C:/Users/JHS6-EAGLE/Desktop/OpenSes Files/JH-subject-4.csv","legacy","Lentiform Loewenfeld","3.3.3","0","s","NA","a","NA","NA","s","730","NA","31549","NA","NA","730","2","legacy","1024","2","48000","-16","experiment","SSSSS","4","even","52245","33690","NA","NA","35439","2134","NA","NA","53370","2140","NA","NA","53487","54218","53365","53487","Flanker task","9","8605","10","yes","2560"
"90.9090909090909","90.9090909090909","839.1818181818181","839.1818181818181","black","legacy","legacy","legacy","0","incongruent","uniform","1","undefined","1","s","10","0","0","0","10","0","10","0","10","0","0","0","10","10","10","10","Sun Sep 27 21:07:08 2020","1500","The main experiment item","yes","Flankertask.osexp","C:/Users/JHS6-EAGLE/Desktop/OpenSes Files","no","mono","no","18","no","white","no","yes","1440","legacy","10","10","C:/Users/JHS6-EAGLE/Desktop/OpenSes Files/JH-subject-4.csv","legacy","Lentiform Loewenfeld","3.3.3","0","s","NA","a","NA","NA","s","626","NA","31549","NA","NA","626","2","legacy","1024","2","48000","-16","experiment","HHSHH","4","even","54224","33690","NA","NA","35439","2134","NA","NA","55368","2140","NA","NA","55473","56100","55362","55473","Flanker task","10","9231","11","yes","2560"
"91.66666666666667","91.66666666666667","819.5833333333334","819.5833333333334","black","legacy","legacy","legacy","0","incongruent","uniform","1","undefined","1","h","11","0","0","0","11","0","11","0","11","0","0","0","11","11","11","11","Sun Sep 27 21:07:08 2020","1500","The main experiment item","yes","Flankertask.osexp","C:/Users/JHS6-EAGLE/Desktop/OpenSes Files","no","mono","no","18","no","white","no","yes","1440","legacy","11","11","C:/Users/JHS6-EAGLE/Desktop/OpenSes Files/JH-subject-4.csv","legacy","Lentiform Loewenfeld","3.3.3","0","h","NA","a","NA","NA","h","604","NA","31549","NA","NA","604","2","legacy","1024","2","48000","-16","experiment","SSHSS","4","even","56107","33690","NA","NA","35439","2134","NA","NA","57243","2140","NA","NA","57349","57954","57237","57349","Flanker task","11","9835","12","yes","2560"
"92.3076923076923","92.3076923076923","810.6923076923077","810.6923076923077","black","legacy","legacy","legacy","0","conruent","uniform","1","undefined","1","s","12","0","0","0","12","0","12","0","12","0","0","0","12","12","12","12","Sun Sep 27 21:07:08 2020","1500","The main experiment item","yes","Flankertask.osexp","C:/Users/JHS6-EAGLE/Desktop/OpenSes Files","no","mono","no","18","no","white","no","yes","1440","legacy","12","12","C:/Users/JHS6-EAGLE/Desktop/OpenSes Files/JH-subject-4.csv","legacy","Lentiform Loewenfeld","3.3.3","0","s","NA","a","NA","NA","s","704","NA","31549","NA","NA","704","2","legacy","1024","2","48000","-16","experiment","SSSSS","4","even","57961","33690","NA","NA","35439","2134","NA","NA","59099","2140","NA","NA","59203","59907","59093","59203","Flanker task","12","10539","13","yes","2560"
"92.85714285714286","92.85714285714286","793.2142857142857","793.2142857142857","black","legacy","legacy","legacy","0","congruent","uniform","1","undefined","1","h","13","0","0","0","13","0","13","0","13","0","0","0","13","13","13","13","Sun Sep 27 21:07:08 2020","1500","The main experiment item","yes","Flankertask.osexp","C:/Users/JHS6-EAGLE/Desktop/OpenSes Files","no","mono","no","18","no","white","no","yes","1440","legacy","13","13","C:/Users/JHS6-EAGLE/Desktop/OpenSes Files/JH-subject-4.csv","legacy","Lentiform Loewenfeld","3.3.3","0","h","NA","a","NA","NA","h","566","NA","31549","NA","NA","566","2","legacy","1024","2","48000","-16","experiment","HHHHH","4","even","59915","33690","NA","NA","35439","2134","NA","NA","61041","2140","NA","NA","61146","61713","61035","61146","Flanker task","13","11105","14","yes","2560"
"93.33333333333333","93.33333333333333","786.7333333333333","786.7333333333333","black","legacy","legacy","legacy","0","incongruent","uniform","1","undefined","1","s","14","0","0","0","14","0","14","0","14","0","0","0","14","14","14","14","Sun Sep 27 21:07:08 2020","1500","The main experiment item","yes","Flankertask.osexp","C:/Users/JHS6-EAGLE/Desktop/OpenSes Files","no","mono","no","18","no","white","no","yes","1440","legacy","14","14","C:/Users/JHS6-EAGLE/Desktop/OpenSes Files/JH-subject-4.csv","legacy","Lentiform Loewenfeld","3.3.3","0","s","NA","a","NA","NA","s","696","NA","31549","NA","NA","696","2","legacy","1024","2","48000","-16","experiment","HHSHH","4","even","61720","33690","NA","NA","35439","2134","NA","NA","62845","2140","NA","NA","62949","63645","62839","62949","Flanker task","14","11801","15","yes","2560"
"93.75","93.75","789.3125","789.3125","black","legacy","legacy","legacy","0","incongruent","uniform","1","undefined","1","s","15","0","0","0","15","0","15","0","15","0","0","0","15","15","15","15","Sun Sep 27 21:07:08 2020","1500","The main experiment item","yes","Flankertask.osexp","C:/Users/JHS6-EAGLE/Desktop/OpenSes Files","no","mono","no","18","no","white","no","yes","1440","legacy","15","15","C:/Users/JHS6-EAGLE/Desktop/OpenSes Files/JH-subject-4.csv","legacy","Lentiform Loewenfeld","3.3.3","0","s","NA","a","NA","NA","s","828","NA","31549","NA","NA","828","2","legacy","1024","2","48000","-16","experiment","HHSHH","4","even","63653","33690","NA","NA","35439","2134","NA","NA","64779","2140","NA","NA","64883","65712","64773","64883","Flanker task","15","12629","16","yes","2560"
"94.11764705882354","94.11764705882354","786.4705882352941","786.4705882352941","black","legacy","legacy","legacy","0","congruent","uniform","1","undefined","1","h","16","0","0","0","16","0","16","0","16","0","0","0","16","16","16","16","Sun Sep 27 21:07:08 2020","1500","The main experiment item","yes","Flankertask.osexp","C:/Users/JHS6-EAGLE/Desktop/OpenSes Files","no","mono","no","18","no","white","no","yes","1440","legacy","16","16","C:/Users/JHS6-EAGLE/Desktop/OpenSes Files/JH-subject-4.csv","legacy","Lentiform Loewenfeld","3.3.3","0","h","NA","a","NA","NA","h","741","NA","31549","NA","NA","741","2","legacy","1024","2","48000","-16","experiment","HHHHH","4","even","65721","33690","NA","NA","35439","2134","NA","NA","66847","2140","NA","NA","66952","67694","66841","66952","Flanker task","16","13370","17","yes","2560"
"94.44444444444444","94.44444444444444","780.3333333333334","780.3333333333334","black","legacy","legacy","legacy","0","congruent","uniform","1","undefined","1","h","17","0","0","0","17","0","17","0","17","0","0","0","17","17","17","17","Sun Sep 27 21:07:08 2020","1500","The main experiment item","yes","Flankertask.osexp","C:/Users/JHS6-EAGLE/Desktop/OpenSes Files","no","mono","no","18","no","white","no","yes","1440","legacy","17","17","C:/Users/JHS6-EAGLE/Desktop/OpenSes Files/JH-subject-4.csv","legacy","Lentiform Loewenfeld","3.3.3","0","h","NA","a","NA","NA","h","676","NA","31549","NA","NA","676","2","legacy","1024","2","48000","-16","experiment","HHHHH","4","even","67702","33690","NA","NA","35439","2134","NA","NA","68829","2140","NA","NA","68936","69613","68823","68935","Flanker task","17","14046","18","yes","2560"
"94.73684210526316","94.73684210526316","775","775","black","legacy","legacy","legacy","0","conruent","uniform","1","undefined","1","s","18","0","0","0","18","0","18","0","18","0","0","0","18","18","18","18","Sun Sep 27 21:07:08 2020","1500","The main experiment item","yes","Flankertask.osexp","C:/Users/JHS6-EAGLE/Desktop/OpenSes Files","no","mono","no","18","no","white","no","yes","1440","legacy","18","18","C:/Users/JHS6-EAGLE/Desktop/OpenSes Files/JH-subject-4.csv","legacy","Lentiform Loewenfeld","3.3.3","0","s","NA","a","NA","NA","s","679","NA","31549","NA","NA","679","2","legacy","1024","2","48000","-16","experiment","SSSSS","4","even","69621","33690","NA","NA","35439","2134","NA","NA","70746","2140","NA","NA","70852","71532","70741","70852","Flanker task","18","14725","19","yes","2560"
"95","95","772.5","772.5","black","legacy","legacy","legacy","0","incongruent","uniform","1","undefined","1","s","19","0","0","0","19","0","19","0","19","0","0","0","19","19","19","19","Sun Sep 27 21:07:08 2020","1500","The main experiment item","yes","Flankertask.osexp","C:/Users/JHS6-EAGLE/Desktop/OpenSes Files","no","mono","no","18","no","white","no","yes","1440","legacy","19","19","C:/Users/JHS6-EAGLE/Desktop/OpenSes Files/JH-subject-4.csv","legacy","Lentiform Loewenfeld","3.3.3","0","s","NA","a","NA","NA","s","725","NA","31549","NA","NA","725","2","legacy","1024","2","48000","-16","experiment","HHSHH","4","even","71541","33690","NA","NA","35439","2134","NA","NA","72669","2140","NA","NA","72773","73499","72663","72773","Flanker task","19","15450","20","yes","2560"
"95.23809523809524","95.23809523809524","772.047619047619","772.047619047619","black","legacy","legacy","legacy","0","incongruent","uniform","1","undefined","1","s","20","0","0","0","20","0","20","0","20","0","0","0","20","20","20","20","Sun Sep 27 21:07:08 2020","1500","The main experiment item","yes","Flankertask.osexp","C:/Users/JHS6-EAGLE/Desktop/OpenSes Files","no","mono","no","18","no","white","no","yes","1440","legacy","20","20","C:/Users/JHS6-EAGLE/Desktop/OpenSes Files/JH-subject-4.csv","legacy","Lentiform Loewenfeld","3.3.3","0","s","NA","a","NA","NA","s","763","NA","31549","NA","NA","763","2","legacy","1024","2","48000","-16","experiment","HHSHH","4","even","73508","33690","NA","NA","35439","2134","NA","NA","74645","2140","NA","NA","74749","75513","74639","74749","Flanker task","20","16213","21","yes","2560"
"95.45454545454545","95.45454545454545","770.0909090909091","770.0909090909091","black","legacy","legacy","legacy","0","conruent","uniform","1","undefined","1","s","21","0","0","0","21","0","21","0","21","0","0","0","21","21","21","21","Sun Sep 27 21:07:08 2020","1500","The main experiment item","yes","Flankertask.osexp","C:/Users/JHS6-EAGLE/Desktop/OpenSes Files","no","mono","no","18","no","white","no","yes","1440","legacy","21","21","C:/Users/JHS6-EAGLE/Desktop/OpenSes Files/JH-subject-4.csv","legacy","Lentiform Loewenfeld","3.3.3","0","s","NA","a","NA","NA","s","729","NA","31549","NA","NA","729","2","legacy","1024","2","48000","-16","experiment","SSSSS","4","even","75529","33690","NA","NA","35439","2134","NA","NA","76655","2140","NA","NA","76760","77489","76649","76759","Flanker task","21","16942","22","yes","2560"
"95.65217391304348","95.65217391304348","763.1304347826087","763.1304347826087","black","legacy","legacy","legacy","0","congruent","uniform","1","undefined","1","h","22","0","0","0","22","0","22","0","22","0","0","0","22","22","22","22","Sun Sep 27 21:07:08 2020","1500","The main experiment item","yes","Flankertask.osexp","C:/Users/JHS6-EAGLE/Desktop/OpenSes Files","no","mono","no","18","no","white","no","yes","1440","legacy","22","22","C:/Users/JHS6-EAGLE/Desktop/OpenSes Files/JH-subject-4.csv","legacy","Lentiform Loewenfeld","3.3.3","0","h","NA","a","NA","NA","h","610","NA","31549","NA","NA","610","2","legacy","1024","2","48000","-16","experiment","HHHHH","4","even","77498","33690","NA","NA","35439","2134","NA","NA","78623","2140","NA","NA","78728","79339","78617","78728","Flanker task","22","17552","23","yes","2560"
"95.83333333333333","95.83333333333333","767.125","767.125","black","legacy","legacy","legacy","0","conruent","uniform","1","undefined","1","s","23","0","0","0","23","0","23","0","23","0","0","0","23","23","23","23","Sun Sep 27 21:07:08 2020","1500","The main experiment item","yes","Flankertask.osexp","C:/Users/JHS6-EAGLE/Desktop/OpenSes Files","no","mono","no","18","no","white","no","yes","1440","legacy","23","23","C:/Users/JHS6-EAGLE/Desktop/OpenSes Files/JH-subject-4.csv","legacy","Lentiform Loewenfeld","3.3.3","0","s","NA","a","NA","NA","s","859","NA","31549","NA","NA","859","2","legacy","1024","2","48000","-16","experiment","SSSSS","4","even","79348","33690","NA","NA","35439","2134","NA","NA","80473","2140","NA","NA","80578","81438","80467","80578","Flanker task","23","18411","24","yes","2560"
"96","96","781.2","781.2","black","legacy","legacy","legacy","0","incongruent","uniform","1","undefined","1","s","24","0","0","0","24","0","24","0","24","0","0","0","24","24","24","24","Sun Sep 27 21:07:08 2020","1500","The main experiment item","yes","Flankertask.osexp","C:/Users/JHS6-EAGLE/Desktop/OpenSes Files","no","mono","no","18","no","white","no","yes","1440","legacy","24","24","C:/Users/JHS6-EAGLE/Desktop/OpenSes Files/JH-subject-4.csv","legacy","Lentiform Loewenfeld","3.3.3","0","s","NA","a","NA","NA","s","1119","NA","31549","NA","NA","1119","2","legacy","1024","2","48000","-16","experiment","HHSHH","4","even","81447","33690","NA","NA","35439","2134","NA","NA","82572","2140","NA","NA","82677","83797","82567","82676","Flanker task","24","19530","25","yes","2560"
"96.15384615384616","96.15384615384616","780.1538461538462","780.1538461538462","black","legacy","legacy","legacy","0","incongruent","uniform","1","undefined","1","h","25","0","0","0","25","0","25","0","25","0","0","0","25","25","25","25","Sun Sep 27 21:07:08 2020","1500","The main experiment item","yes","Flankertask.osexp","C:/Users/JHS6-EAGLE/Desktop/OpenSes Files","no","mono","no","18","no","white","no","yes","1440","legacy","25","25","C:/Users/JHS6-EAGLE/Desktop/OpenSes Files/JH-subject-4.csv","legacy","Lentiform Loewenfeld","3.3.3","0","h","NA","a","NA","NA","h","754","NA","31549","NA","NA","754","2","legacy","1024","2","48000","-16","experiment","SSHSS","4","even","83806","33690","NA","NA","35439","2134","NA","NA","84931","2140","NA","NA","85035","85790","84925","85035","Flanker task","25","20284","26","yes","2560"
"96.29629629629629","96.29629629629629","782.074074074074","782.074074074074","black","legacy","legacy","legacy","0","congruent","uniform","1","undefined","1","h","26","0","0","0","26","0","26","0","26","0","0","0","26","26","26","26","Sun Sep 27 21:07:08 2020","1500","The main experiment item","yes","Flankertask.osexp","C:/Users/JHS6-EAGLE/Desktop/OpenSes Files","no","mono","no","18","no","white","no","yes","1440","legacy","26","26","C:/Users/JHS6-EAGLE/Desktop/OpenSes Files/JH-subject-4.csv","legacy","Lentiform Loewenfeld","3.3.3","0","h","NA","a","NA","NA","h","832","NA","31549","NA","NA","832","2","legacy","1024","2","48000","-16","experiment","HHHHH","4","even","85797","33690","NA","NA","35439","2134","NA","NA","86942","2140","NA","NA","87046","87879","86936","87046","Flanker task","26","21116","27","yes","2560"
"96.42857142857143","96.42857142857143","787.7142857142857","787.7142857142857","black","legacy","legacy","legacy","0","incongruent","uniform","1","undefined","1","h","27","0","0","0","27","0","27","0","27","0","0","0","27","27","27","27","Sun Sep 27 21:07:08 2020","1500","The main experiment item","yes","Flankertask.osexp","C:/Users/JHS6-EAGLE/Desktop/OpenSes Files","no","mono","no","18","no","white","no","yes","1440","legacy","27","27","C:/Users/JHS6-EAGLE/Desktop/OpenSes Files/JH-subject-4.csv","legacy","Lentiform Loewenfeld","3.3.3","0","h","NA","a","NA","NA","h","940","NA","31549","NA","NA","940","2","legacy","1024","2","48000","-16","experiment","SSHSS","4","even","87886","33690","NA","NA","35439","2134","NA","NA","89010","2140","NA","NA","89114","90054","89005","89114","Flanker task","27","22056","28","yes","2560"
"96.55172413793103","96.55172413793103","793.2413793103449","793.2413793103449","black","legacy","legacy","legacy","0","conruent","uniform","1","undefined","1","s","28","0","0","0","28","0","28","0","28","0","0","0","28","28","28","28","Sun Sep 27 21:07:08 2020","1500","The main experiment item","yes","Flankertask.osexp","C:/Users/JHS6-EAGLE/Desktop/OpenSes Files","no","mono","no","18","no","white","no","yes","1440","legacy","28","28","C:/Users/JHS6-EAGLE/Desktop/OpenSes Files/JH-subject-4.csv","legacy","Lentiform Loewenfeld","3.3.3","0","s","NA","a","NA","NA","s","948","NA","31549","NA","NA","948","2","legacy","1024","2","48000","-16","experiment","SSSSS","4","even","90064","33690","NA","NA","35439","2134","NA","NA","91190","2140","NA","NA","91294","92243","91184","91294","Flanker task","28","23004","29","yes","2560"
"96.66666666666667","96.66666666666667","801.3333333333334","801.3333333333334","black","legacy","legacy","legacy","0","conruent","uniform","1","undefined","1","s","29","0","0","0","29","0","29","0","29","0","0","0","29","29","29","29","Sun Sep 27 21:07:08 2020","1500","The main experiment item","yes","Flankertask.osexp","C:/Users/JHS6-EAGLE/Desktop/OpenSes Files","no","mono","no","18","no","white","no","yes","1440","legacy","29","29","C:/Users/JHS6-EAGLE/Desktop/OpenSes Files/JH-subject-4.csv","legacy","Lentiform Loewenfeld","3.3.3","0","s","NA","a","NA","NA","s","1036","NA","31549","NA","NA","1036","2","legacy","1024","2","48000","-16","experiment","SSSSS","4","even","92252","33690","NA","NA","35439","2134","NA","NA","93379","2140","NA","NA","93483","94519","93373","93483","Flanker task","29","24040","30","yes","2560"
"96.7741935483871","96.7741935483871","807.741935483871","807.741935483871","black","legacy","legacy","legacy","0","incongruent","uniform","1","undefined","1","s","30","0","0","0","30","0","30","0","30","0","0","0","30","30","30","30","Sun Sep 27 21:07:08 2020","1500","The main experiment item","yes","Flankertask.osexp","C:/Users/JHS6-EAGLE/Desktop/OpenSes Files","no","mono","no","18","no","white","no","yes","1440","legacy","30","30","C:/Users/JHS6-EAGLE/Desktop/OpenSes Files/JH-subject-4.csv","legacy","Lentiform Loewenfeld","3.3.3","0","s","NA","a","NA","NA","s","1000","NA","31549","NA","NA","1000","2","legacy","1024","2","48000","-16","experiment","HHSHH","4","even","94529","33690","NA","NA","35439","2134","NA","NA","95660","2140","NA","NA","95765","96766","95654","95764","Flanker task","30","25040","31","yes","2560"
"96.875","96.875","818.8125","818.8125","black","legacy","legacy","legacy","0","incongruent","uniform","1","undefined","1","s","31","0","0","0","31","0","31","0","31","0","0","0","31","31","31","31","Sun Sep 27 21:07:08 2020","1500","The main experiment item","yes","Flankertask.osexp","C:/Users/JHS6-EAGLE/Desktop/OpenSes Files","no","mono","no","18","no","white","no","yes","1440","legacy","31","31","C:/Users/JHS6-EAGLE/Desktop/OpenSes Files/JH-subject-4.csv","legacy","Lentiform Loewenfeld","3.3.3","0","s","NA","a","NA","NA","s","1162","NA","31549","NA","NA","1162","2","legacy","1024","2","48000","-16","experiment","HHSHH","4","even","96774","33690","NA","NA","35439","2134","NA","NA","97899","2140","NA","NA","98017","99180","97893","98016","Flanker task","31","26202","32","yes","2560"
"96.96969696969697","96.96969696969697","825.0909090909091","825.0909090909091","black","legacy","legacy","legacy","0","congruent","uniform","1","undefined","1","h","32","0","0","0","32","0","32","0","32","0","0","0","32","32","32","32","Sun Sep 27 21:07:08 2020","1500","The main experiment item","yes","Flankertask.osexp","C:/Users/JHS6-EAGLE/Desktop/OpenSes Files","no","mono","no","18","no","white","no","yes","1440","legacy","32","32","C:/Users/JHS6-EAGLE/Desktop/OpenSes Files/JH-subject-4.csv","legacy","Lentiform Loewenfeld","3.3.3","0","h","NA","a","NA","NA","h","1026","NA","31549","NA","NA","1026","2","legacy","1024","2","48000","-16","experiment","HHHHH","4","even","99187","33690","NA","NA","35439","2134","NA","NA","100327","2140","NA","NA","100431","101458","100321","100431","Flanker task","32","27228","33","yes","2560"
"97.05882352941177","97.05882352941177","827.0588235294117","827.0588235294117","black","legacy","legacy","legacy","0","congruent","uniform","1","undefined","1","h","33","0","0","0","33","0","33","0","33","0","0","0","33","33","33","33","Sun Sep 27 21:07:08 2020","1500","The main experiment item","yes","Flankertask.osexp","C:/Users/JHS6-EAGLE/Desktop/OpenSes Files","no","mono","no","18","no","white","no","yes","1440","legacy","33","33","C:/Users/JHS6-EAGLE/Desktop/OpenSes Files/JH-subject-4.csv","legacy","Lentiform Loewenfeld","3.3.3","0","h","NA","a","NA","NA","h","892","NA","31549","NA","NA","892","2","legacy","1024","2","48000","-16","experiment","HHHHH","4","even","101467","33690","NA","NA","35439","2134","NA","NA","102592","2140","NA","NA","102696","103590","102586","102696","Flanker task","33","28120","34","yes","2560"
"97.14285714285714","97.14285714285714","826.6285714285714","826.6285714285714","black","legacy","legacy","legacy","0","conruent","uniform","1","undefined","1","s","34","0","0","0","34","0","34","0","34","0","0","0","34","34","34","34","Sun Sep 27 21:07:08 2020","1500","The main experiment item","yes","Flankertask.osexp","C:/Users/JHS6-EAGLE/Desktop/OpenSes Files","no","mono","no","18","no","white","no","yes","1440","legacy","34","34","C:/Users/JHS6-EAGLE/Desktop/OpenSes Files/JH-subject-4.csv","legacy","Lentiform Loewenfeld","3.3.3","0","s","NA","a","NA","NA","s","812","NA","31549","NA","NA","812","2","legacy","1024","2","48000","-16","experiment","SSSSS","4","even","103598","33690","NA","NA","35439","2134","NA","NA","104723","2140","NA","NA","104831","105644","104717","104831","Flanker task","34","28932","35","yes","2560"
"97.22222222222223","97.22222222222223","827.3333333333334","827.3333333333334","black","legacy","legacy","legacy","0","conruent","uniform","1","undefined","1","s","35","0","0","0","35","0","35","0","35","0","0","0","35","35","35","35","Sun Sep 27 21:07:08 2020","1500","The main experiment item","yes","Flankertask.osexp","C:/Users/JHS6-EAGLE/Desktop/OpenSes Files","no","mono","no","18","no","white","no","yes","1440","legacy","35","35","C:/Users/JHS6-EAGLE/Desktop/OpenSes Files/JH-subject-4.csv","legacy","Lentiform Loewenfeld","3.3.3","0","s","NA","a","NA","NA","s","852","NA","31549","NA","NA","852","2","legacy","1024","2","48000","-16","experiment","SSSSS","4","even","105653","33690","NA","NA","35439","2134","NA","NA","106778","2140","NA","NA","106882","107735","106772","106882","Flanker task","35","29784","36","yes","2560"
"97.29729729729729","97.29729729729729","827.9459459459459","827.9459459459459","black","legacy","legacy","legacy","0","incongruent","uniform","1","undefined","1","h","36","0","0","0","36","0","36","0","36","0","0","0","36","36","36","36","Sun Sep 27 21:07:08 2020","1500","The main experiment item","yes","Flankertask.osexp","C:/Users/JHS6-EAGLE/Desktop/OpenSes Files","no","mono","no","18","no","white","no","yes","1440","legacy","36","36","C:/Users/JHS6-EAGLE/Desktop/OpenSes Files/JH-subject-4.csv","legacy","Lentiform Loewenfeld","3.3.3","0","h","NA","a","NA","NA","h","850","NA","31549","NA","NA","850","2","legacy","1024","2","48000","-16","experiment","SSHSS","4","even","107744","33690","NA","NA","35439","2134","NA","NA","108869","2140","NA","NA","108983","109834","108863","108983","Flanker task","36","30634","37","yes","2560"
"97.36842105263158","97.36842105263158","826.9736842105264","826.9736842105264","black","legacy","legacy","legacy","0","incongruent","uniform","1","undefined","1","h","37","0","0","0","37","0","37","0","37","0","0","0","37","37","37","37","Sun Sep 27 21:07:08 2020","1500","The main experiment item","yes","Flankertask.osexp","C:/Users/JHS6-EAGLE/Desktop/OpenSes Files","no","mono","no","18","no","white","no","yes","1440","legacy","37","37","C:/Users/JHS6-EAGLE/Desktop/OpenSes Files/JH-subject-4.csv","legacy","Lentiform Loewenfeld","3.3.3","0","h","NA","a","NA","NA","h","791","NA","31549","NA","NA","791","2","legacy","1024","2","48000","-16","experiment","SSHSS","4","even","109842","33690","NA","NA","35439","2134","NA","NA","110969","2140","NA","NA","111074","111865","110962","111074","Flanker task","37","31425","38","yes","2560"
"97.43589743589743","97.43589743589743","825.1538461538462","825.1538461538462","black","legacy","legacy","legacy","0","incongruent","uniform","1","undefined","1","s","38","0","0","0","38","0","38","0","38","0","0","0","38","38","38","38","Sun Sep 27 21:07:08 2020","1500","The main experiment item","yes","Flankertask.osexp","C:/Users/JHS6-EAGLE/Desktop/OpenSes Files","no","mono","no","18","no","white","no","yes","1440","legacy","38","38","C:/Users/JHS6-EAGLE/Desktop/OpenSes Files/JH-subject-4.csv","legacy","Lentiform Loewenfeld","3.3.3","0","s","NA","a","NA","NA","s","756","NA","31549","NA","NA","756","2","legacy","1024","2","48000","-16","experiment","HHSHH","4","even","111875","33690","NA","NA","35439","2134","NA","NA","113008","2140","NA","NA","113113","113870","113002","113112","Flanker task","38","32181","39","yes","2560"
"97.5","97.5","823.35","823.35","black","legacy","legacy","legacy","0","congruent","uniform","1","undefined","1","h","39","0","0","0","39","0","39","0","39","0","0","0","39","39","39","39","Sun Sep 27 21:07:08 2020","1500","The main experiment item","yes","Flankertask.osexp","C:/Users/JHS6-EAGLE/Desktop/OpenSes Files","no","mono","no","18","no","white","no","yes","1440","legacy","39","39","C:/Users/JHS6-EAGLE/Desktop/OpenSes Files/JH-subject-4.csv","legacy","Lentiform Loewenfeld","3.3.3","0","h","NA","a","NA","NA","h","753","NA","31549","NA","NA","753","2","legacy","1024","2","48000","-16","experiment","HHHHH","4","even","113878","33690","NA","NA","35439","2134","NA","NA","115004","2140","NA","NA","115118","115871","114999","115118","Flanker task","39","32934","40","yes","2560"
"97.5609756097561","97.5609756097561","827.8048780487804","827.8048780487804","black","legacy","legacy","legacy","0","incongruent","uniform","1","undefined","1","s","40","0","0","0","40","0","40","0","40","0","0","0","40","40","40","40","Sun Sep 27 21:07:08 2020","1500","The main experiment item","yes","Flankertask.osexp","C:/Users/JHS6-EAGLE/Desktop/OpenSes Files","no","mono","no","18","no","white","no","yes","1440","legacy","40","40","C:/Users/JHS6-EAGLE/Desktop/OpenSes Files/JH-subject-4.csv","legacy","Lentiform Loewenfeld","3.3.3","0","s","NA","a","NA","NA","s","1006","NA","31549","NA","NA","1006","2","legacy","1024","2","48000","-16","experiment","HHSHH","4","even","115881","33690","NA","NA","35439","2134","NA","NA","117007","2140","NA","NA","117117","118124","117001","117117","Flanker task","40","33940","41","yes","2560"
"95.23809523809524","95.23809523809524","832.8095238095239","832.8095238095239","black","legacy","legacy","legacy","0","incongruent","uniform","0","undefined","0","s","41","0","0","0","41","0","41","0","41","0","0","0","41","41","41","41","Sun Sep 27 21:07:08 2020","1500","The main experiment item","yes","Flankertask.osexp","C:/Users/JHS6-EAGLE/Desktop/OpenSes Files","no","mono","no","18","no","white","no","yes","1440","legacy","41","41","C:/Users/JHS6-EAGLE/Desktop/OpenSes Files/JH-subject-4.csv","legacy","Lentiform Loewenfeld","3.3.3","0","h","NA","a","NA","NA","h","1038","NA","31549","NA","NA","1038","2","legacy","1024","2","48000","-16","experiment","HHSHH","4","even","118133","33690","NA","NA","35439","2134","NA","NA","119258","2140","NA","NA","119363","120402","119253","119362","Flanker task","40","34978","42","yes","2560"
"95.34883720930233","95.34883720930233","832.3720930232558","832.3720930232558","black","legacy","legacy","legacy","0","incongruent","uniform","1","undefined","1","s","42","0","0","0","42","0","42","0","42","0","0","0","42","42","42","42","Sun Sep 27 21:07:08 2020","1500","The main experiment item","yes","Flankertask.osexp","C:/Users/JHS6-EAGLE/Desktop/OpenSes Files","no","mono","no","18","no","white","no","yes","1440","legacy","42","42","C:/Users/JHS6-EAGLE/Desktop/OpenSes Files/JH-subject-4.csv","legacy","Lentiform Loewenfeld","3.3.3","0","s","NA","a","NA","NA","s","814","NA","31549","NA","NA","814","2","legacy","1024","2","48000","-16","experiment","HHSHH","4","even","120924","33690","NA","NA","120409","2134","NA","NA","122051","2140","NA","NA","122155","122970","122045","122155","Flanker task","41","35792","43","yes","2560"
"95.45454545454545","95.45454545454545","832.5","832.5","black","legacy","legacy","legacy","0","incongruent","uniform","1","undefined","1","h","43","0","0","0","43","0","43","0","43","0","0","0","43","43","43","43","Sun Sep 27 21:07:08 2020","1500","The main experiment item","yes","Flankertask.osexp","C:/Users/JHS6-EAGLE/Desktop/OpenSes Files","no","mono","no","18","no","white","no","yes","1440","legacy","43","43","C:/Users/JHS6-EAGLE/Desktop/OpenSes Files/JH-subject-4.csv","legacy","Lentiform Loewenfeld","3.3.3","0","h","NA","a","NA","NA","h","838","NA","31549","NA","NA","838","2","legacy","1024","2","48000","-16","experiment","SSHSS","4","even","122978","33690","NA","NA","120409","2134","NA","NA","124103","2140","NA","NA","124207","125046","124098","124207","Flanker task","42","36630","44","yes","2560"
"95.55555555555556","95.55555555555556","831.2666666666667","831.2666666666667","black","legacy","legacy","legacy","0","congruent","uniform","1","undefined","1","h","44","0","0","0","44","0","44","0","44","0","0","0","44","44","44","44","Sun Sep 27 21:07:08 2020","1500","The main experiment item","yes","Flankertask.osexp","C:/Users/JHS6-EAGLE/Desktop/OpenSes Files","no","mono","no","18","no","white","no","yes","1440","legacy","44","44","C:/Users/JHS6-EAGLE/Desktop/OpenSes Files/JH-subject-4.csv","legacy","Lentiform Loewenfeld","3.3.3","0","h","NA","a","NA","NA","h","777","NA","31549","NA","NA","777","2","legacy","1024","2","48000","-16","experiment","HHHHH","4","even","125053","33690","NA","NA","120409","2134","NA","NA","126178","2140","NA","NA","126283","127060","126173","126283","Flanker task","43","37407","45","yes","2560"
"95.65217391304348","95.65217391304348","834.3478260869565","834.3478260869565","black","legacy","legacy","legacy","0","incongruent","uniform","1","undefined","1","h","45","0","0","0","45","0","45","0","45","0","0","0","45","45","45","45","Sun Sep 27 21:07:08 2020","1500","The main experiment item","yes","Flankertask.osexp","C:/Users/JHS6-EAGLE/Desktop/OpenSes Files","no","mono","no","18","no","white","no","yes","1440","legacy","45","45","C:/Users/JHS6-EAGLE/Desktop/OpenSes Files/JH-subject-4.csv","legacy","Lentiform Loewenfeld","3.3.3","0","h","NA","a","NA","NA","h","973","NA","31549","NA","NA","973","2","legacy","1024","2","48000","-16","experiment","SSHSS","4","even","127068","33690","NA","NA","120409","2134","NA","NA","128196","2140","NA","NA","128305","129279","128190","128305","Flanker task","44","38380","46","yes","2560"
"95.74468085106383","95.74468085106383","837.6595744680851","837.6595744680851","black","legacy","legacy","legacy","0","incongruent","uniform","1","undefined","1","h","46","0","0","0","46","0","46","0","46","0","0","0","46","46","46","46","Sun Sep 27 21:07:08 2020","1500","The main experiment item","yes","Flankertask.osexp","C:/Users/JHS6-EAGLE/Desktop/OpenSes Files","no","mono","no","18","no","white","no","yes","1440","legacy","46","46","C:/Users/JHS6-EAGLE/Desktop/OpenSes Files/JH-subject-4.csv","legacy","Lentiform Loewenfeld","3.3.3","0","h","NA","a","NA","NA","h","990","NA","31549","NA","NA","990","2","legacy","1024","2","48000","-16","experiment","SSHSS","4","even","129286","33690","NA","NA","120409","2134","NA","NA","130411","2140","NA","NA","130515","131506","130406","130515","Flanker task","45","39370","47","yes","2560"
"95.83333333333333","95.83333333333333","841.3541666666666","841.3541666666666","black","legacy","legacy","legacy","0","incongruent","uniform","1","undefined","1","h","47","0","0","0","47","0","47","0","47","0","0","0","47","47","47","47","Sun Sep 27 21:07:08 2020","1500","The main experiment item","yes","Flankertask.osexp","C:/Users/JHS6-EAGLE/Desktop/OpenSes Files","no","mono","no","18","no","white","no","yes","1440","legacy","47","47","C:/Users/JHS6-EAGLE/Desktop/OpenSes Files/JH-subject-4.csv","legacy","Lentiform Loewenfeld","3.3.3","0","h","NA","a","NA","NA","h","1015","NA","31549","NA","NA","1015","2","legacy","1024","2","48000","-16","experiment","SSHSS","4","even","131514","33690","NA","NA","120409","2134","NA","NA","132640","2140","NA","NA","132744","133760","132634","132744","Flanker task","46","40385","48","yes","2560"
"95.91836734693878","95.91836734693878","843.2857142857143","843.2857142857143","black","legacy","legacy","legacy","0","conruent","uniform","1","undefined","1","s","48","0","0","0","48","0","48","0","48","0","0","0","48","48","48","48","Sun Sep 27 21:07:08 2020","1500","The main experiment item","yes","Flankertask.osexp","C:/Users/JHS6-EAGLE/Desktop/OpenSes Files","no","mono","no","18","no","white","no","yes","1440","legacy","48","48","C:/Users/JHS6-EAGLE/Desktop/OpenSes Files/JH-subject-4.csv","legacy","Lentiform Loewenfeld","3.3.3","0","s","NA","a","NA","NA","s","936","NA","31549","NA","NA","936","2","legacy","1024","2","48000","-16","experiment","SSSSS","4","even","133767","33690","NA","NA","120409","2134","NA","NA","134893","2140","NA","NA","135009","135946","134888","135009","Flanker task","47","41321","49","yes","2560"
"96","96","847.06","847.06","black","legacy","legacy","legacy","0","incongruent","uniform","1","undefined","1","h","49","0","0","0","49","0","49","0","49","0","0","0","49","49","49","49","Sun Sep 27 21:07:08 2020","1500","The main experiment item","yes","Flankertask.osexp","C:/Users/JHS6-EAGLE/Desktop/OpenSes Files","no","mono","no","18","no","white","no","yes","1440","legacy","49","49","C:/Users/JHS6-EAGLE/Desktop/OpenSes Files/JH-subject-4.csv","legacy","Lentiform Loewenfeld","3.3.3","0","h","NA","a","NA","NA","h","1032","NA","31549","NA","NA","1032","2","legacy","1024","2","48000","-16","experiment","SSHSS","4","even","135954","33690","NA","NA","120409","2134","NA","NA","137080","2140","NA","NA","137184","138216","137075","137184","Flanker task","48","42353","50","yes","2560"
"96.07843137254902","96.07843137254902","844.6666666666666","844.6666666666666","black","legacy","legacy","legacy","0","incongruent","uniform","1","undefined","1","h","50","0","0","0","50","0","50","0","50","0","0","0","50","50","50","50","Sun Sep 27 21:07:08 2020","1500","The main experiment item","yes","Flankertask.osexp","C:/Users/JHS6-EAGLE/Desktop/OpenSes Files","no","mono","no","18","no","white","no","yes","1440","legacy","50","50","C:/Users/JHS6-EAGLE/Desktop/OpenSes Files/JH-subject-4.csv","legacy","Lentiform Loewenfeld","3.3.3","0","h","NA","a","NA","NA","h","725","NA","31549","NA","NA","725","2","legacy","1024","2","48000","-16","experiment","SSHSS","4","even","138224","33690","NA","NA","120409","2134","NA","NA","139349","2140","NA","NA","139453","140178","139344","139453","Flanker task","49","43078","51","yes","2560"
"96.15384615384616","96.15384615384616","845.2692307692307","845.2692307692307","black","legacy","legacy","legacy","0","incongruent","uniform","1","undefined","1","h","51","0","0","0","51","0","51","0","51","0","0","0","51","51","51","51","Sun Sep 27 21:07:08 2020","1500","The main experiment item","yes","Flankertask.osexp","C:/Users/JHS6-EAGLE/Desktop/OpenSes Files","no","mono","no","18","no","white","no","yes","1440","legacy","51","51","C:/Users/JHS6-EAGLE/Desktop/OpenSes Files/JH-subject-4.csv","legacy","Lentiform Loewenfeld","3.3.3","0","h","NA","a","NA","NA","h","876","NA","31549","NA","NA","876","2","legacy","1024","2","48000","-16","experiment","SSHSS","4","even","140186","33690","NA","NA","120409","2134","NA","NA","141319","2140","NA","NA","141432","142309","141314","141432","Flanker task","50","43954","52","yes","2560"
"96.22641509433963","96.22641509433963","842.6415094339623","842.6415094339623","black","legacy","legacy","legacy","0","incongruent","uniform","1","undefined","1","s","52","0","0","0","52","0","52","0","52","0","0","0","52","52","52","52","Sun Sep 27 21:07:08 2020","1500","The main experiment item","yes","Flankertask.osexp","C:/Users/JHS6-EAGLE/Desktop/OpenSes Files","no","mono","no","18","no","white","no","yes","1440","legacy","52","52","C:/Users/JHS6-EAGLE/Desktop/OpenSes Files/JH-subject-4.csv","legacy","Lentiform Loewenfeld","3.3.3","0","s","NA","a","NA","NA","s","706","NA","31549","NA","NA","706","2","legacy","1024","2","48000","-16","experiment","HHSHH","4","even","142317","33690","NA","NA","120409","2134","NA","NA","143443","2140","NA","NA","143547","144254","143437","143547","Flanker task","51","44660","53","yes","2560"
"96.29629629629629","96.29629629629629","841.1851851851852","841.1851851851852","black","legacy","legacy","legacy","0","conruent","uniform","1","undefined","1","s","53","0","0","0","53","0","53","0","53","0","0","0","53","53","53","53","Sun Sep 27 21:07:08 2020","1500","The main experiment item","yes","Flankertask.osexp","C:/Users/JHS6-EAGLE/Desktop/OpenSes Files","no","mono","no","18","no","white","no","yes","1440","legacy","53","53","C:/Users/JHS6-EAGLE/Desktop/OpenSes Files/JH-subject-4.csv","legacy","Lentiform Loewenfeld","3.3.3","0","s","NA","a","NA","NA","s","764","NA","31549","NA","NA","764","2","legacy","1024","2","48000","-16","experiment","SSSSS","4","even","144262","33690","NA","NA","120409","2134","NA","NA","145391","2140","NA","NA","145495","146260","145386","145495","Flanker task","52","45424","54","yes","2560"
"96.36363636363636","96.36363636363636","842.3272727272728","842.3272727272728","black","legacy","legacy","legacy","0","incongruent","uniform","1","undefined","1","s","54","0","0","0","54","0","54","0","54","0","0","0","54","54","54","54","Sun Sep 27 21:07:08 2020","1500","The main experiment item","yes","Flankertask.osexp","C:/Users/JHS6-EAGLE/Desktop/OpenSes Files","no","mono","no","18","no","white","no","yes","1440","legacy","54","54","C:/Users/JHS6-EAGLE/Desktop/OpenSes Files/JH-subject-4.csv","legacy","Lentiform Loewenfeld","3.3.3","0","s","NA","a","NA","NA","s","904","NA","31549","NA","NA","904","2","legacy","1024","2","48000","-16","experiment","HHSHH","4","even","146267","33690","NA","NA","120409","2134","NA","NA","147392","2140","NA","NA","147496","148400","147387","147496","Flanker task","53","46328","55","yes","2560"
"96.42857142857143","96.42857142857143","851.8035714285714","851.8035714285714","black","legacy","legacy","legacy","0","conruent","uniform","1","undefined","1","s","55","0","0","0","55","0","55","0","55","0","0","0","55","55","55","55","Sun Sep 27 21:07:08 2020","1500","The main experiment item","yes","Flankertask.osexp","C:/Users/JHS6-EAGLE/Desktop/OpenSes Files","no","mono","no","18","no","white","no","yes","1440","legacy","55","55","C:/Users/JHS6-EAGLE/Desktop/OpenSes Files/JH-subject-4.csv","legacy","Lentiform Loewenfeld","3.3.3","0","s","NA","a","NA","NA","s","1373","NA","31549","NA","NA","1373","2","legacy","1024","2","48000","-16","experiment","SSSSS","4","even","148408","33690","NA","NA","120409","2134","NA","NA","149533","2140","NA","NA","149638","151012","149527","149637","Flanker task","54","47701","56","yes","2560"
"96.49122807017544","96.49122807017544","854.438596491228","854.438596491228","black","legacy","legacy","legacy","0","incongruent","uniform","1","undefined","1","s","56","0","0","0","56","0","56","0","56","0","0","0","56","56","56","56","Sun Sep 27 21:07:08 2020","1500","The main experiment item","yes","Flankertask.osexp","C:/Users/JHS6-EAGLE/Desktop/OpenSes Files","no","mono","no","18","no","white","no","yes","1440","legacy","56","56","C:/Users/JHS6-EAGLE/Desktop/OpenSes Files/JH-subject-4.csv","legacy","Lentiform Loewenfeld","3.3.3","0","s","NA","a","NA","NA","s","1002","NA","31549","NA","NA","1002","2","legacy","1024","2","48000","-16","experiment","HHSHH","4","even","151018","33690","NA","NA","120409","2134","NA","NA","152150","2140","NA","NA","152254","153257","152144","152254","Flanker task","55","48703","57","yes","2560"
"96.55172413793103","96.55172413793103","854.448275862069","854.448275862069","black","legacy","legacy","legacy","0","congruent","uniform","1","undefined","1","h","57","0","0","0","57","0","57","0","57","0","0","0","57","57","57","57","Sun Sep 27 21:07:08 2020","1500","The main experiment item","yes","Flankertask.osexp","C:/Users/JHS6-EAGLE/Desktop/OpenSes Files","no","mono","no","18","no","white","no","yes","1440","legacy","57","57","C:/Users/JHS6-EAGLE/Desktop/OpenSes Files/JH-subject-4.csv","legacy","Lentiform Loewenfeld","3.3.3","0","h","NA","a","NA","NA","h","855","NA","31549","NA","NA","855","2","legacy","1024","2","48000","-16","experiment","HHHHH","4","even","153265","33690","NA","NA","120409","2134","NA","NA","154391","2140","NA","NA","154496","155352","154386","154496","Flanker task","56","49558","58","yes","2560"
"96.61016949152543","96.61016949152543","854.8813559322034","854.8813559322034","black","legacy","legacy","legacy","0","congruent","uniform","1","undefined","1","h","58","0","0","0","58","0","58","0","58","0","0","0","58","58","58","58","Sun Sep 27 21:07:08 2020","1500","The main experiment item","yes","Flankertask.osexp","C:/Users/JHS6-EAGLE/Desktop/OpenSes Files","no","mono","no","18","no","white","no","yes","1440","legacy","58","58","C:/Users/JHS6-EAGLE/Desktop/OpenSes Files/JH-subject-4.csv","legacy","Lentiform Loewenfeld","3.3.3","0","h","NA","a","NA","NA","h","880","NA","31549","NA","NA","880","2","legacy","1024","2","48000","-16","experiment","HHHHH","4","even","155359","33690","NA","NA","120409","2134","NA","NA","156487","2140","NA","NA","156593","157474","156481","156593","Flanker task","57","50438","59","yes","2560"
"96.66666666666667","96.66666666666667","855.9666666666667","855.9666666666667","black","legacy","legacy","legacy","0","congruent","uniform","1","undefined","1","h","59","0","0","0","59","0","59","0","59","0","0","0","59","59","59","59","Sun Sep 27 21:07:08 2020","1500","The main experiment item","yes","Flankertask.osexp","C:/Users/JHS6-EAGLE/Desktop/OpenSes Files","no","mono","no","18","no","white","no","yes","1440","legacy","59","59","C:/Users/JHS6-EAGLE/Desktop/OpenSes Files/JH-subject-4.csv","legacy","Lentiform Loewenfeld","3.3.3","0","h","NA","a","NA","NA","h","920","NA","31549","NA","NA","920","2","legacy","1024","2","48000","-16","experiment","HHHHH","4","even","157481","33690","NA","NA","120409","2134","NA","NA","158625","2140","NA","NA","158729","159650","158620","158729","Flanker task","58","51358","60","yes","2560"
"96.72131147540983","96.72131147540983","855.7540983606557","855.7540983606557","black","legacy","legacy","legacy","0","congruent","uniform","1","undefined","1","h","60","0","0","0","60","0","60","0","60","0","0","0","60","60","60","60","Sun Sep 27 21:07:08 2020","1500","The main experiment item","yes","Flankertask.osexp","C:/Users/JHS6-EAGLE/Desktop/OpenSes Files","no","mono","no","18","no","white","no","yes","1440","legacy","60","60","C:/Users/JHS6-EAGLE/Desktop/OpenSes Files/JH-subject-4.csv","legacy","Lentiform Loewenfeld","3.3.3","0","h","NA","a","NA","NA","h","843","NA","31549","NA","NA","843","2","legacy","1024","2","48000","-16","experiment","HHHHH","4","even","159657","33690","NA","NA","120409","2134","NA","NA","160782","2140","NA","NA","160886","161730","160776","160886","Flanker task","59","52201","61","yes","2560"
"96.7741935483871","96.7741935483871","854.4032258064516","854.4032258064516","black","legacy","legacy","legacy","0","conruent","uniform","1","undefined","1","s","61","0","0","0","61","0","61","0","61","0","0","0","61","61","61","61","Sun Sep 27 21:07:08 2020","1500","The main experiment item","yes","Flankertask.osexp","C:/Users/JHS6-EAGLE/Desktop/OpenSes Files","no","mono","no","18","no","white","no","yes","1440","legacy","61","61","C:/Users/JHS6-EAGLE/Desktop/OpenSes Files/JH-subject-4.csv","legacy","Lentiform Loewenfeld","3.3.3","0","s","NA","a","NA","NA","s","772","NA","31549","NA","NA","772","2","legacy","1024","2","48000","-16","experiment","SSSSS","4","even","161737","33690","NA","NA","120409","2134","NA","NA","162880","2140","NA","NA","162984","163757","162875","162984","Flanker task","60","52973","62","yes","2560"
"96.82539682539682","96.82539682539682","853.1111111111111","853.1111111111111","black","legacy","legacy","legacy","0","congruent","uniform","1","undefined","1","h","62","0","0","0","62","0","62","0","62","0","0","0","62","62","62","62","Sun Sep 27 21:07:08 2020","1500","The main experiment item","yes","Flankertask.osexp","C:/Users/JHS6-EAGLE/Desktop/OpenSes Files","no","mono","no","18","no","white","no","yes","1440","legacy","62","62","C:/Users/JHS6-EAGLE/Desktop/OpenSes Files/JH-subject-4.csv","legacy","Lentiform Loewenfeld","3.3.3","0","h","NA","a","NA","NA","h","773","NA","31549","NA","NA","773","2","legacy","1024","2","48000","-16","experiment","HHHHH","4","even","163764","33690","NA","NA","120409","2134","NA","NA","164889","2140","NA","NA","164993","165767","164883","164993","Flanker task","61","53746","63","yes","2560"
"96.875","96.875","846.5625","846.5625","black","legacy","legacy","legacy","0","conruent","uniform","1","undefined","1","s","63","0","0","0","63","0","63","0","63","0","0","0","63","63","63","63","Sun Sep 27 21:07:08 2020","1500","The main experiment item","yes","Flankertask.osexp","C:/Users/JHS6-EAGLE/Desktop/OpenSes Files","no","mono","no","18","no","white","no","yes","1440","legacy","63","63","C:/Users/JHS6-EAGLE/Desktop/OpenSes Files/JH-subject-4.csv","legacy","Lentiform Loewenfeld","3.3.3","0","s","NA","a","NA","NA","s","434","NA","31549","NA","NA","434","2","legacy","1024","2","48000","-16","experiment","SSSSS","4","even","165778","33690","NA","NA","120409","2134","NA","NA","166902","2140","NA","NA","167007","167441","166897","167007","Flanker task","62","54180","64","yes","2560"
"96.92307692307692","96.92307692307692","843.7384615384616","843.7384615384616","black","legacy","legacy","legacy","0","conruent","uniform","1","undefined","1","s","64","0","0","0","64","0","64","0","64","0","0","0","64","64","64","64","Sun Sep 27 21:07:08 2020","1500","The main experiment item","yes","Flankertask.osexp","C:/Users/JHS6-EAGLE/Desktop/OpenSes Files","no","mono","no","18","no","white","no","yes","1440","legacy","64","64","C:/Users/JHS6-EAGLE/Desktop/OpenSes Files/JH-subject-4.csv","legacy","Lentiform Loewenfeld","3.3.3","0","s","NA","a","NA","NA","s","663","NA","31549","NA","NA","663","2","legacy","1024","2","48000","-16","experiment","SSSSS","4","even","167449","33690","NA","NA","120409","2134","NA","NA","168573","2140","NA","NA","168677","169341","168567","168677","Flanker task","63","54843","65","yes","2560"
"96.96969696969697","96.96969696969697","838.560606060606","838.560606060606","black","legacy","legacy","legacy","0","conruent","uniform","1","undefined","1","s","65","0","0","0","65","0","65","0","65","0","0","0","65","65","65","65","Sun Sep 27 21:07:08 2020","1500","The main experiment item","yes","Flankertask.osexp","C:/Users/JHS6-EAGLE/Desktop/OpenSes Files","no","mono","no","18","no","white","no","yes","1440","legacy","65","65","C:/Users/JHS6-EAGLE/Desktop/OpenSes Files/JH-subject-4.csv","legacy","Lentiform Loewenfeld","3.3.3","0","s","NA","a","NA","NA","s","502","NA","31549","NA","NA","502","2","legacy","1024","2","48000","-16","experiment","SSSSS","4","even","169349","33690","NA","NA","120409","2134","NA","NA","170477","2140","NA","NA","170596","171099","170471","170596","Flanker task","64","55345","66","yes","2560"
"97.01492537313433","97.01492537313433","845.0895522388059","845.0895522388059","black","legacy","legacy","legacy","0","incongruent","uniform","1","undefined","1","h","66","0","0","0","66","0","66","0","66","0","0","0","66","66","66","66","Sun Sep 27 21:07:08 2020","1500","The main experiment item","yes","Flankertask.osexp","C:/Users/JHS6-EAGLE/Desktop/OpenSes Files","no","mono","no","18","no","white","no","yes","1440","legacy","66","66","C:/Users/JHS6-EAGLE/Desktop/OpenSes Files/JH-subject-4.csv","legacy","Lentiform Loewenfeld","3.3.3","0","h","NA","a","NA","NA","h","1276","NA","31549","NA","NA","1276","2","legacy","1024","2","48000","-16","experiment","SSHSS","4","even","171105","33690","NA","NA","120409","2134","NA","NA","172230","2140","NA","NA","172337","173614","172224","172336","Flanker task","65","56621","67","yes","2560"
"97.05882352941177","97.05882352941177","844.9117647058823","844.9117647058823","black","legacy","legacy","legacy","0","conruent","uniform","1","undefined","1","s","67","0","0","0","67","0","67","0","67","0","0","0","67","67","67","67","Sun Sep 27 21:07:08 2020","1500","The main experiment item","yes","Flankertask.osexp","C:/Users/JHS6-EAGLE/Desktop/OpenSes Files","no","mono","no","18","no","white","no","yes","1440","legacy","67","67","C:/Users/JHS6-EAGLE/Desktop/OpenSes Files/JH-subject-4.csv","legacy","Lentiform Loewenfeld","3.3.3","0","s","NA","a","NA","NA","s","833","NA","31549","NA","NA","833","2","legacy","1024","2","48000","-16","experiment","SSSSS","4","even","173621","33690","NA","NA","120409","2134","NA","NA","174746","2140","NA","NA","174850","175683","174740","174850","Flanker task","66","57454","68","yes","2560"
"97.10144927536231","97.10144927536231","841.9420289855072","841.9420289855072","black","legacy","legacy","legacy","0","conruent","uniform","1","undefined","1","s","68","0","0","0","68","0","68","0","68","0","0","0","68","68","68","68","Sun Sep 27 21:07:08 2020","1500","The main experiment item","yes","Flankertask.osexp","C:/Users/JHS6-EAGLE/Desktop/OpenSes Files","no","mono","no","18","no","white","no","yes","1440","legacy","68","68","C:/Users/JHS6-EAGLE/Desktop/OpenSes Files/JH-subject-4.csv","legacy","Lentiform Loewenfeld","3.3.3","0","s","NA","a","NA","NA","s","640","NA","31549","NA","NA","640","2","legacy","1024","2","48000","-16","experiment","SSSSS","4","even","175691","33690","NA","NA","120409","2134","NA","NA","176820","2140","NA","NA","176935","177575","176814","176935","Flanker task","67","58094","69","yes","2560"
"97.14285714285714","97.14285714285714","838.3142857142857","838.3142857142857","black","legacy","legacy","legacy","0","conruent","uniform","1","undefined","1","s","69","0","0","0","69","0","69","0","69","0","0","0","69","69","69","69","Sun Sep 27 21:07:08 2020","1500","The main experiment item","yes","Flankertask.osexp","C:/Users/JHS6-EAGLE/Desktop/OpenSes Files","no","mono","no","18","no","white","no","yes","1440","legacy","69","69","C:/Users/JHS6-EAGLE/Desktop/OpenSes Files/JH-subject-4.csv","legacy","Lentiform Loewenfeld","3.3.3","0","s","NA","a","NA","NA","s","588","NA","31549","NA","NA","588","2","legacy","1024","2","48000","-16","experiment","SSSSS","4","even","177583","33690","NA","NA","120409","2134","NA","NA","178707","2140","NA","NA","178812","179401","178701","178811","Flanker task","68","58682","70","yes","2560"
"97.1830985915493","97.1830985915493","836.9859154929577","836.9859154929577","black","legacy","legacy","legacy","0","congruent","uniform","1","undefined","1","h","70","0","0","0","70","0","70","0","70","0","0","0","70","70","70","70","Sun Sep 27 21:07:08 2020","1500","The main experiment item","yes","Flankertask.osexp","C:/Users/JHS6-EAGLE/Desktop/OpenSes Files","no","mono","no","18","no","white","no","yes","1440","legacy","70","70","C:/Users/JHS6-EAGLE/Desktop/OpenSes Files/JH-subject-4.csv","legacy","Lentiform Loewenfeld","3.3.3","0","h","NA","a","NA","NA","h","744","NA","31549","NA","NA","744","2","legacy","1024","2","48000","-16","experiment","HHHHH","4","even","179408","33690","NA","NA","120409","2134","NA","NA","180533","2140","NA","NA","180637","181382","180527","180637","Flanker task","69","59426","71","yes","2560"
"97.22222222222223","97.22222222222223","840.5138888888889","840.5138888888889","black","legacy","legacy","legacy","0","incongruent","uniform","1","undefined","1","s","71","0","0","0","71","0","71","0","71","0","0","0","71","71","71","71","Sun Sep 27 21:07:08 2020","1500","The main experiment item","yes","Flankertask.osexp","C:/Users/JHS6-EAGLE/Desktop/OpenSes Files","no","mono","no","18","no","white","no","yes","1440","legacy","71","71","C:/Users/JHS6-EAGLE/Desktop/OpenSes Files/JH-subject-4.csv","legacy","Lentiform Loewenfeld","3.3.3","0","s","NA","a","NA","NA","s","1091","NA","31549","NA","NA","1091","2","legacy","1024","2","48000","-16","experiment","HHSHH","4","even","181389","33690","NA","NA","120409","2134","NA","NA","182513","2140","NA","NA","182617","183708","182507","182617","Flanker task","70","60517","72","yes","2560"
"97.26027397260275","97.26027397260275","843.7808219178082","843.7808219178082","black","legacy","legacy","legacy","0","incongruent","uniform","1","undefined","1","h","72","0","0","0","72","0","72","0","72","0","0","0","72","72","72","72","Sun Sep 27 21:07:08 2020","1500","The main experiment item","yes","Flankertask.osexp","C:/Users/JHS6-EAGLE/Desktop/OpenSes Files","no","mono","no","18","no","white","no","yes","1440","legacy","72","72","C:/Users/JHS6-EAGLE/Desktop/OpenSes Files/JH-subject-4.csv","legacy","Lentiform Loewenfeld","3.3.3","0","h","NA","a","NA","NA","h","1079","NA","31549","NA","NA","1079","2","legacy","1024","2","48000","-16","experiment","SSHSS","4","even","183716","33690","NA","NA","120409","2134","NA","NA","184840","2140","NA","NA","184955","186035","184835","184955","Flanker task","71","61596","73","yes","2560"
"97.29729729729729","97.29729729729729","847.1486486486486","847.1486486486486","black","legacy","legacy","legacy","0","incongruent","uniform","1","undefined","1","s","73","0","0","0","73","0","73","0","73","0","0","0","73","73","73","73","Sun Sep 27 21:07:08 2020","1500","The main experiment item","yes","Flankertask.osexp","C:/Users/JHS6-EAGLE/Desktop/OpenSes Files","no","mono","no","18","no","white","no","yes","1440","legacy","73","73","C:/Users/JHS6-EAGLE/Desktop/OpenSes Files/JH-subject-4.csv","legacy","Lentiform Loewenfeld","3.3.3","0","s","NA","a","NA","NA","s","1093","NA","31549","NA","NA","1093","2","legacy","1024","2","48000","-16","experiment","HHSHH","4","even","186043","33690","NA","NA","120409","2134","NA","NA","187179","2140","NA","NA","187283","188377","187173","187283","Flanker task","72","62689","74","yes","2560"
"97.33333333333333","97.33333333333333","847.44","847.44","black","legacy","legacy","legacy","0","congruent","uniform","1","undefined","1","h","74","0","0","0","74","0","74","0","74","0","0","0","74","74","74","74","Sun Sep 27 21:07:08 2020","1500","The main experiment item","yes","Flankertask.osexp","C:/Users/JHS6-EAGLE/Desktop/OpenSes Files","no","mono","no","18","no","white","no","yes","1440","legacy","74","74","C:/Users/JHS6-EAGLE/Desktop/OpenSes Files/JH-subject-4.csv","legacy","Lentiform Loewenfeld","3.3.3","0","h","NA","a","NA","NA","h","869","NA","31549","NA","NA","869","2","legacy","1024","2","48000","-16","experiment","HHHHH","4","even","188385","33690","NA","NA","120409","2134","NA","NA","189509","2140","NA","NA","189613","190483","189503","189613","Flanker task","73","63558","75","yes","2560"
"97.36842105263158","97.36842105263158","848.5921052631579","848.5921052631579","black","legacy","legacy","legacy","0","incongruent","uniform","1","undefined","1","s","75","0","0","0","75","0","75","0","75","0","0","0","75","75","75","75","Sun Sep 27 21:07:08 2020","1500","The main experiment item","yes","Flankertask.osexp","C:/Users/JHS6-EAGLE/Desktop/OpenSes Files","no","mono","no","18","no","white","no","yes","1440","legacy","75","75","C:/Users/JHS6-EAGLE/Desktop/OpenSes Files/JH-subject-4.csv","legacy","Lentiform Loewenfeld","3.3.3","0","s","NA","a","NA","NA","s","935","NA","31549","NA","NA","935","2","legacy","1024","2","48000","-16","experiment","HHSHH","4","even","190490","33690","NA","NA","120409","2134","NA","NA","191615","2140","NA","NA","191719","192655","191609","191719","Flanker task","74","64493","76","yes","2560"
"97.40259740259741","97.40259740259741","848.4805194805194","848.4805194805194","black","legacy","legacy","legacy","0","conruent","uniform","1","undefined","1","s","76","0","0","0","76","0","76","0","76","0","0","0","76","76","76","76","Sun Sep 27 21:07:08 2020","1500","The main experiment item","yes","Flankertask.osexp","C:/Users/JHS6-EAGLE/Desktop/OpenSes Files","no","mono","no","18","no","white","no","yes","1440","legacy","76","76","C:/Users/JHS6-EAGLE/Desktop/OpenSes Files/JH-subject-4.csv","legacy","Lentiform Loewenfeld","3.3.3","0","s","NA","a","NA","NA","s","840","NA","31549","NA","NA","840","2","legacy","1024","2","48000","-16","experiment","SSSSS","4","even","192663","33690","NA","NA","120409","2134","NA","NA","193787","2140","NA","NA","193891","194732","193781","193891","Flanker task","75","65333","77","yes","2560"
"97.43589743589743","97.43589743589743","851.2564102564103","851.2564102564103","black","legacy","legacy","legacy","0","incongruent","uniform","1","undefined","1","h","77","0","0","0","77","0","77","0","77","0","0","0","77","77","77","77","Sun Sep 27 21:07:08 2020","1500","The main experiment item","yes","Flankertask.osexp","C:/Users/JHS6-EAGLE/Desktop/OpenSes Files","no","mono","no","18","no","white","no","yes","1440","legacy","77","77","C:/Users/JHS6-EAGLE/Desktop/OpenSes Files/JH-subject-4.csv","legacy","Lentiform Loewenfeld","3.3.3","0","h","NA","a","NA","NA","h","1065","NA","31549","NA","NA","1065","2","legacy","1024","2","48000","-16","experiment","SSHSS","4","even","194740","33690","NA","NA","120409","2134","NA","NA","195865","2140","NA","NA","195970","197036","195859","195969","Flanker task","76","66398","78","yes","2560"
"97.46835443037975","97.46835443037975","856.0886075949367","856.0886075949367","black","legacy","legacy","legacy","0","incongruent","uniform","1","undefined","1","h","78","0","0","0","78","0","78","0","78","0","0","0","78","78","78","78","Sun Sep 27 21:07:08 2020","1500","The main experiment item","yes","Flankertask.osexp","C:/Users/JHS6-EAGLE/Desktop/OpenSes Files","no","mono","no","18","no","white","no","yes","1440","legacy","78","78","C:/Users/JHS6-EAGLE/Desktop/OpenSes Files/JH-subject-4.csv","legacy","Lentiform Loewenfeld","3.3.3","0","h","NA","a","NA","NA","h","1233","NA","31549","NA","NA","1233","2","legacy","1024","2","48000","-16","experiment","SSHSS","4","even","197044","33690","NA","NA","120409","2134","NA","NA","198169","2140","NA","NA","198281","199515","198163","198281","Flanker task","77","67631","79","yes","2560"
"97.5","97.5","858.4375","858.4375","black","legacy","legacy","legacy","0","congruent","uniform","1","undefined","1","h","79","0","0","0","79","0","79","0","79","0","0","0","79","79","79","79","Sun Sep 27 21:07:08 2020","1500","The main experiment item","yes","Flankertask.osexp","C:/Users/JHS6-EAGLE/Desktop/OpenSes Files","no","mono","no","18","no","white","no","yes","1440","legacy","79","79","C:/Users/JHS6-EAGLE/Desktop/OpenSes Files/JH-subject-4.csv","legacy","Lentiform Loewenfeld","3.3.3","0","h","NA","a","NA","NA","h","1044","NA","31549","NA","NA","1044","2","legacy","1024","2","48000","-16","experiment","HHHHH","4","even","199522","33690","NA","NA","120409","2134","NA","NA","200653","2140","NA","NA","200758","201803","200648","200758","Flanker task","78","68675","80","yes","2560"
"97.53086419753086","97.53086419753086","853.0493827160494","853.0493827160494","black","legacy","legacy","legacy","0","conruent","uniform","1","undefined","1","s","80","0","0","0","80","0","80","0","80","0","0","0","80","80","80","80","Sun Sep 27 21:07:08 2020","600","The main experiment item","yes","Flankertask.osexp","C:/Users/JHS6-EAGLE/Desktop/OpenSes Files","no","mono","no","18","no","white","no","yes","1440","legacy","0","79","C:/Users/JHS6-EAGLE/Desktop/OpenSes Files/JH-subject-4.csv","legacy","Lentiform Loewenfeld","3.3.3","0","s","NA","a","s","NA","s","422","NA","31549","380645","NA","422","2","legacy","1024","2","48000","-16","experiment","SSSSS","4","even","201810","33690","583478","NA","120409","2134","NA","NA","583600","2140","202831","NA","583704","584127","583594","583704","Flanker task","79","69097","81","yes","2560"
"97.5609756097561","97.5609756097561","848.9268292682926","848.9268292682926","black","legacy","legacy","legacy","0","conruent","uniform","1","undefined","1","s","81","0","0","0","81","0","81","0","81","0","0","0","81","81","81","81","Sun Sep 27 21:07:08 2020","600","The main experiment item","yes","Flankertask.osexp","C:/Users/JHS6-EAGLE/Desktop/OpenSes Files","no","mono","no","18","no","white","no","yes","1440","legacy","1","79","C:/Users/JHS6-EAGLE/Desktop/OpenSes Files/JH-subject-4.csv","legacy","Lentiform Loewenfeld","3.3.3","0","s","NA","a","s","NA","s","515","NA","31549","380645","NA","515","2","legacy","1024","2","48000","-16","experiment","SSSSS","4","even","584133","33690","583478","NA","120409","2134","NA","NA","585258","2140","202831","NA","585372","585888","585252","585372","Flanker task","80","69612","82","yes","2560"
"97.59036144578313","97.59036144578313","845.7710843373494","845.7710843373494","black","legacy","legacy","legacy","0","congruent","uniform","1","undefined","1","h","82","0","0","0","82","0","82","0","82","0","0","0","82","82","82","82","Sun Sep 27 21:07:08 2020","600","The main experiment item","yes","Flankertask.osexp","C:/Users/JHS6-EAGLE/Desktop/OpenSes Files","no","mono","no","18","no","white","no","yes","1440","legacy","2","79","C:/Users/JHS6-EAGLE/Desktop/OpenSes Files/JH-subject-4.csv","legacy","Lentiform Loewenfeld","3.3.3","0","h","NA","a","s","NA","h","587","NA","31549","380645","NA","587","2","legacy","1024","2","48000","-16","experiment","HHHHH","4","even","585894","33690","583478","NA","120409","2134","NA","NA","587021","2140","202831","NA","587125","587713","587015","587125","Flanker task","81","70199","83","yes","2560"
"96.42857142857143","96.42857142857143","844.0119047619048","844.0119047619048","black","legacy","legacy","legacy","0","incongruent","uniform","0","undefined","0","s","83","0","0","0","83","0","83","0","83","0","0","0","83","83","83","83","Sun Sep 27 21:07:08 2020","600","The main experiment item","yes","Flankertask.osexp","C:/Users/JHS6-EAGLE/Desktop/OpenSes Files","no","mono","no","18","no","white","no","yes","1440","legacy","3","79","C:/Users/JHS6-EAGLE/Desktop/OpenSes Files/JH-subject-4.csv","legacy","Lentiform Loewenfeld","3.3.3","0","h","NA","a","s","NA","h","698","NA","31549","380645","NA","698","2","legacy","1024","2","48000","-16","experiment","HHSHH","4","even","587721","33690","583478","NA","120409","2134","NA","NA","588848","2140","202831","NA","588952","589651","588842","588952","Flanker task","81","70897","84","yes","2560"
"96.47058823529412","96.47058823529412","842.9882352941177","842.9882352941177","black","legacy","legacy","legacy","0","congruent","uniform","1","undefined","1","h","84","0","0","0","84","0","84","0","84","0","0","0","84","84","84","84","Sun Sep 27 21:07:08 2020","600","The main experiment item","yes","Flankertask.osexp","C:/Users/JHS6-EAGLE/Desktop/OpenSes Files","no","mono","no","18","no","white","no","yes","1440","legacy","4","79","C:/Users/JHS6-EAGLE/Desktop/OpenSes Files/JH-subject-4.csv","legacy","Lentiform Loewenfeld","3.3.3","0","h","NA","a","s","NA","h","757","NA","31549","380645","NA","757","2","legacy","1024","2","48000","-16","experiment","HHHHH","4","even","590667","33690","583478","NA","589659","2134","590163","NA","591793","2140","202831","NA","591897","592655","591787","591897","Flanker task","82","71654","85","yes","2560"
"96.51162790697674","96.51162790697674","840.3255813953489","840.3255813953489","black","legacy","legacy","legacy","0","incongruent","uniform","1","undefined","1","h","85","0","0","0","85","0","85","0","85","0","0","0","85","85","85","85","Sun Sep 27 21:07:08 2020","600","The main experiment item","yes","Flankertask.osexp","C:/Users/JHS6-EAGLE/Desktop/OpenSes Files","no","mono","no","18","no","white","no","yes","1440","legacy","5","79","C:/Users/JHS6-EAGLE/Desktop/OpenSes Files/JH-subject-4.csv","legacy","Lentiform Loewenfeld","3.3.3","0","h","NA","a","s","NA","h","614","NA","31549","380645","NA","614","2","legacy","1024","2","48000","-16","experiment","SSHSS","4","even","593169","33690","583478","NA","589659","2134","592664","NA","594296","2140","202831","NA","594401","595016","594291","594401","Flanker task","83","72268","86","yes","2560"
"96.55172413793103","96.55172413793103","836","836","black","legacy","legacy","legacy","0","conruent","uniform","1","undefined","1","s","86","0","0","0","86","0","86","0","86","0","0","0","86","86","86","86","Sun Sep 27 21:07:08 2020","600","The main experiment item","yes","Flankertask.osexp","C:/Users/JHS6-EAGLE/Desktop/OpenSes Files","no","mono","no","18","no","white","no","yes","1440","legacy","6","79","C:/Users/JHS6-EAGLE/Desktop/OpenSes Files/JH-subject-4.csv","legacy","Lentiform Loewenfeld","3.3.3","0","s","NA","a","s","NA","s","464","NA","31549","380645","NA","464","2","legacy","1024","2","48000","-16","experiment","SSSSS","4","even","595528","33690","583478","NA","589659","2134","595024","NA","596653","2140","202831","NA","596757","597222","596647","596757","Flanker task","84","72732","87","yes","2560"
"96.5909090909091","96.5909090909091","831.6022727272727","831.6022727272727","black","legacy","legacy","legacy","0","congruent","uniform","1","undefined","1","h","87","0","0","0","87","0","87","0","87","0","0","0","87","87","87","87","Sun Sep 27 21:07:08 2020","600","The main experiment item","yes","Flankertask.osexp","C:/Users/JHS6-EAGLE/Desktop/OpenSes Files","no","mono","no","18","no","white","no","yes","1440","legacy","7","79","C:/Users/JHS6-EAGLE/Desktop/OpenSes Files/JH-subject-4.csv","legacy","Lentiform Loewenfeld","3.3.3","0","h","NA","a","s","NA","h","449","NA","31549","380645","NA","449","2","legacy","1024","2","48000","-16","experiment","HHHHH","4","even","597230","33690","583478","NA","589659","2134","595024","NA","598358","2140","202831","NA","598463","598913","598352","598463","Flanker task","85","73181","88","yes","2560"
"96.62921348314607","96.62921348314607","827.5280898876405","827.5280898876405","black","legacy","legacy","legacy","0","incongruent","uniform","1","undefined","1","s","88","0","0","0","88","0","88","0","88","0","0","0","88","88","88","88","Sun Sep 27 21:07:08 2020","600","The main experiment item","yes","Flankertask.osexp","C:/Users/JHS6-EAGLE/Desktop/OpenSes Files","no","mono","no","18","no","white","no","yes","1440","legacy","8","79","C:/Users/JHS6-EAGLE/Desktop/OpenSes Files/JH-subject-4.csv","legacy","Lentiform Loewenfeld","3.3.3","0","s","NA","a","s","NA","s","469","NA","31549","380645","NA","469","2","legacy","1024","2","48000","-16","experiment","HHSHH","4","even","598921","33690","583478","NA","589659","2134","595024","NA","600048","2140","202831","NA","600166","600636","600041","600166","Flanker task","86","73650","89","yes","2560"
"96.66666666666667","96.66666666666667","825.3666666666667","825.3666666666667","black","legacy","legacy","legacy","0","conruent","uniform","1","undefined","1","s","89","0","0","0","89","0","89","0","89","0","0","0","89","89","89","89","Sun Sep 27 21:07:08 2020","600","The main experiment item","yes","Flankertask.osexp","C:/Users/JHS6-EAGLE/Desktop/OpenSes Files","no","mono","no","18","no","white","no","yes","1440","legacy","9","79","C:/Users/JHS6-EAGLE/Desktop/OpenSes Files/JH-subject-4.csv","legacy","Lentiform Loewenfeld","3.3.3","0","s","NA","a","s","NA","s","633","NA","31549","380645","NA","633","2","legacy","1024","2","48000","-16","experiment","SSSSS","4","even","600644","33690","583478","NA","589659","2134","595024","NA","601775","2140","202831","NA","601879","602513","601769","601879","Flanker task","87","74283","90","yes","2560"
"96.7032967032967","96.7032967032967","820.3846153846154","820.3846153846154","black","legacy","legacy","legacy","0","incongruent","uniform","1","undefined","1","h","90","0","0","0","90","0","90","0","90","0","0","0","90","90","90","90","Sun Sep 27 21:07:08 2020","600","The main experiment item","yes","Flankertask.osexp","C:/Users/JHS6-EAGLE/Desktop/OpenSes Files","no","mono","no","18","no","white","no","yes","1440","legacy","10","79","C:/Users/JHS6-EAGLE/Desktop/OpenSes Files/JH-subject-4.csv","legacy","Lentiform Loewenfeld","3.3.3","0","h","NA","a","s","NA","h","372","NA","31549","380645","NA","372","2","legacy","1024","2","48000","-16","experiment","SSHSS","4","even","603025","33690","583478","NA","589659","2134","602521","NA","604170","2140","202831","NA","604282","604655","604164","604282","Flanker task","88","74655","91","yes","2560"
"96.73913043478261","96.73913043478261","816.5760869565217","816.5760869565217","black","legacy","legacy","legacy","0","conruent","uniform","1","undefined","1","s","91","0","0","0","91","0","91","0","91","0","0","0","91","91","91","91","Sun Sep 27 21:07:08 2020","600","The main experiment item","yes","Flankertask.osexp","C:/Users/JHS6-EAGLE/Desktop/OpenSes Files","no","mono","no","18","no","white","no","yes","1440","legacy","11","79","C:/Users/JHS6-EAGLE/Desktop/OpenSes Files/JH-subject-4.csv","legacy","Lentiform Loewenfeld","3.3.3","0","s","NA","a","s","NA","s","470","NA","31549","380645","NA","470","2","legacy","1024","2","48000","-16","experiment","SSSSS","4","even","604662","33690","583478","NA","589659","2134","602521","NA","605787","2140","202831","NA","605891","606362","605782","605891","Flanker task","89","75125","92","yes","2560"
"96.7741935483871","96.7741935483871","813.4731182795699","813.4731182795699","black","legacy","legacy","legacy","0","congruent","uniform","1","undefined","1","h","92","0","0","0","92","0","92","0","92","0","0","0","92","92","92","92","Sun Sep 27 21:07:08 2020","600","The main experiment item","yes","Flankertask.osexp","C:/Users/JHS6-EAGLE/Desktop/OpenSes Files","no","mono","no","18","no","white","no","yes","1440","legacy","12","79","C:/Users/JHS6-EAGLE/Desktop/OpenSes Files/JH-subject-4.csv","legacy","Lentiform Loewenfeld","3.3.3","0","h","NA","a","s","NA","h","528","NA","31549","380645","NA","528","2","legacy","1024","2","48000","-16","experiment","HHHHH","4","even","606369","33690","583478","NA","589659","2134","602521","NA","607506","2140","202831","NA","607623","608152","607500","607623","Flanker task","90","75653","93","yes","2560"
"96.80851063829788","96.80851063829788","810.7021276595744","810.7021276595744","black","legacy","legacy","legacy","0","incongruent","uniform","1","undefined","1","h","93","0","0","0","93","0","93","0","93","0","0","0","93","93","93","93","Sun Sep 27 21:07:08 2020","600","The main experiment item","yes","Flankertask.osexp","C:/Users/JHS6-EAGLE/Desktop/OpenSes Files","no","mono","no","18","no","white","no","yes","1440","legacy","13","79","C:/Users/JHS6-EAGLE/Desktop/OpenSes Files/JH-subject-4.csv","legacy","Lentiform Loewenfeld","3.3.3","0","h","NA","a","s","NA","h","553","NA","31549","380645","NA","553","2","legacy","1024","2","48000","-16","experiment","SSHSS","4","even","608159","33690","583478","NA","589659","2134","602521","NA","609284","2140","202831","NA","609388","609942","609278","609388","Flanker task","91","76206","94","yes","2560"
"96.84210526315789","96.84210526315789","808.3894736842105","808.3894736842105","black","legacy","legacy","legacy","0","incongruent","uniform","1","undefined","1","s","94","0","0","0","94","0","94","0","94","0","0","0","94","94","94","94","Sun Sep 27 21:07:08 2020","600","The main experiment item","yes","Flankertask.osexp","C:/Users/JHS6-EAGLE/Desktop/OpenSes Files","no","mono","no","18","no","white","no","yes","1440","legacy","14","79","C:/Users/JHS6-EAGLE/Desktop/OpenSes Files/JH-subject-4.csv","legacy","Lentiform Loewenfeld","3.3.3","0","s","NA","a","s","NA","s","591","NA","31549","380645","NA","591","2","legacy","1024","2","48000","-16","experiment","HHSHH","4","even","609949","33690","583478","NA","589659","2134","602521","NA","611073","2140","202831","NA","611177","611769","611067","611177","Flanker task","92","76797","95","yes","2560"
"96.875","96.875","806.9270833333334","806.9270833333334","black","legacy","legacy","legacy","0","incongruent","uniform","1","undefined","1","s","95","0","0","0","95","0","95","0","95","0","0","0","95","95","95","95","Sun Sep 27 21:07:08 2020","600","The main experiment item","yes","Flankertask.osexp","C:/Users/JHS6-EAGLE/Desktop/OpenSes Files","no","mono","no","18","no","white","no","yes","1440","legacy","15","79","C:/Users/JHS6-EAGLE/Desktop/OpenSes Files/JH-subject-4.csv","legacy","Lentiform Loewenfeld","3.3.3","0","s","NA","a","s","NA","s","668","NA","31549","380645","NA","668","2","legacy","1024","2","48000","-16","experiment","HHSHH","4","even","611776","33690","583478","NA","589659","2134","602521","NA","612901","2140","202831","NA","613008","613677","612895","613008","Flanker task","93","77465","96","yes","2560"
"96.90721649484536","96.90721649484536","803.5567010309278","803.5567010309278","black","legacy","legacy","legacy","0","incongruent","uniform","1","undefined","1","s","96","0","0","0","96","0","96","0","96","0","0","0","96","96","96","96","Sun Sep 27 21:07:08 2020","600","The main experiment item","yes","Flankertask.osexp","C:/Users/JHS6-EAGLE/Desktop/OpenSes Files","no","mono","no","18","no","white","no","yes","1440","legacy","16","79","C:/Users/JHS6-EAGLE/Desktop/OpenSes Files/JH-subject-4.csv","legacy","Lentiform Loewenfeld","3.3.3","0","s","NA","a","s","NA","s","480","NA","31549","380645","NA","480","2","legacy","1024","2","48000","-16","experiment","HHSHH","4","even","614189","33690","583478","NA","589659","2134","613685","NA","615317","2140","202831","NA","615421","615902","615311","615421","Flanker task","94","77945","97","yes","2560"
"96.93877551020408","96.93877551020408","799.8367346938776","799.8367346938776","black","legacy","legacy","legacy","0","conruent","uniform","1","undefined","1","s","97","0","0","0","97","0","97","0","97","0","0","0","97","97","97","97","Sun Sep 27 21:07:08 2020","600","The main experiment item","yes","Flankertask.osexp","C:/Users/JHS6-EAGLE/Desktop/OpenSes Files","no","mono","no","18","no","white","no","yes","1440","legacy","17","79","C:/Users/JHS6-EAGLE/Desktop/OpenSes Files/JH-subject-4.csv","legacy","Lentiform Loewenfeld","3.3.3","0","s","NA","a","s","NA","s","439","NA","31549","380645","NA","439","2","legacy","1024","2","48000","-16","experiment","SSSSS","4","even","615908","33690","583478","NA","589659","2134","613685","NA","617035","2140","202831","NA","617139","617579","617030","617139","Flanker task","95","78384","98","yes","2560"
"96.96969696969697","96.96969696969697","797.8181818181819","797.8181818181819","black","legacy","legacy","legacy","0","incongruent","uniform","1","undefined","1","h","98","0","0","0","98","0","98","0","98","0","0","0","98","98","98","98","Sun Sep 27 21:07:08 2020","600","The main experiment item","yes","Flankertask.osexp","C:/Users/JHS6-EAGLE/Desktop/OpenSes Files","no","mono","no","18","no","white","no","yes","1440","legacy","18","79","C:/Users/JHS6-EAGLE/Desktop/OpenSes Files/JH-subject-4.csv","legacy","Lentiform Loewenfeld","3.3.3","0","h","NA","a","s","NA","h","600","NA","31549","380645","NA","600","2","legacy","1024","2","48000","-16","experiment","SSHSS","4","even","617587","33690","583478","NA","589659","2134","613685","NA","618715","2140","202831","NA","618820","619421","618709","618820","Flanker task","96","78984","99","yes","2560"
"97","97","796.03","796.03","black","legacy","legacy","legacy","0","conruent","uniform","1","undefined","1","s","99","0","0","0","99","0","99","0","99","0","0","0","99","99","99","99","Sun Sep 27 21:07:08 2020","600","The main experiment item","yes","Flankertask.osexp","C:/Users/JHS6-EAGLE/Desktop/OpenSes Files","no","mono","no","18","no","white","no","yes","1440","legacy","19","79","C:/Users/JHS6-EAGLE/Desktop/OpenSes Files/JH-subject-4.csv","legacy","Lentiform Loewenfeld","3.3.3","0","s","NA","a","s","NA","s","619","NA","31549","380645","NA","619","2","legacy","1024","2","48000","-16","experiment","SSSSS","4","even","619572","33690","583478","NA","589659","2134","613685","NA","620703","2140","202831","NA","620807","621428","620698","620807","Flanker task","97","79603","100","yes","2560"
"96.03960396039604","96.03960396039604","793.049504950495","793.049504950495","black","legacy","legacy","legacy","0","incongruent","uniform","0","undefined","0","s","100","0","0","0","100","0","100","0","100","0","0","0","100","100","100","100","Sun Sep 27 21:07:08 2020","600","The main experiment item","yes","Flankertask.osexp","C:/Users/JHS6-EAGLE/Desktop/OpenSes Files","no","mono","no","18","no","white","no","yes","1440","legacy","20","79","C:/Users/JHS6-EAGLE/Desktop/OpenSes Files/JH-subject-4.csv","legacy","Lentiform Loewenfeld","3.3.3","0","h","NA","a","s","NA","h","495","NA","31549","380645","NA","495","2","legacy","1024","2","48000","-16","experiment","HHSHH","4","even","621939","33690","583478","NA","589659","2134","621435","NA","623067","2140","202831","NA","623171","623668","623061","623171","Flanker task","97","80098","101","yes","2560"
"96.07843137254902","96.07843137254902","789.5196078431372","789.5196078431372","black","legacy","legacy","legacy","0","incongruent","uniform","1","undefined","1","h","101","0","0","0","101","0","101","0","101","0","0","0","101","101","101","101","Sun Sep 27 21:07:08 2020","600","The main experiment item","yes","Flankertask.osexp","C:/Users/JHS6-EAGLE/Desktop/OpenSes Files","no","mono","no","18","no","white","no","yes","1440","legacy","21","79","C:/Users/JHS6-EAGLE/Desktop/OpenSes Files/JH-subject-4.csv","legacy","Lentiform Loewenfeld","3.3.3","0","h","NA","a","s","NA","h","433","NA","31549","380645","NA","433","2","legacy","1024","2","48000","-16","experiment","SSHSS","4","even","624179","33690","583478","NA","623675","2134","621435","NA","625307","2140","202831","NA","625420","625854","625301","625420","Flanker task","98","80531","102","yes","2560"
"96.11650485436893","96.11650485436893","786.1747572815534","786.1747572815534","black","legacy","legacy","legacy","0","incongruent","uniform","1","undefined","1","s","102","0","0","0","102","0","102","0","102","0","0","0","102","102","102","102","Sun Sep 27 21:07:08 2020","600","The main experiment item","yes","Flankertask.osexp","C:/Users/JHS6-EAGLE/Desktop/OpenSes Files","no","mono","no","18","no","white","no","yes","1440","legacy","22","79","C:/Users/JHS6-EAGLE/Desktop/OpenSes Files/JH-subject-4.csv","legacy","Lentiform Loewenfeld","3.3.3","0","s","NA","a","s","NA","s","445","NA","31549","380645","NA","445","2","legacy","1024","2","48000","-16","experiment","HHSHH","4","even","625862","33690","583478","NA","623675","2134","621435","NA","627005","2140","202831","NA","627111","627558","626999","627111","Flanker task","99","80976","103","yes","2560"
"96.15384615384616","96.15384615384616","783.1442307692307","783.1442307692307","black","legacy","legacy","legacy","0","conruent","uniform","1","undefined","1","s","103","0","0","0","103","0","103","0","103","0","0","0","103","103","103","103","Sun Sep 27 21:07:08 2020","600","The main experiment item","yes","Flankertask.osexp","C:/Users/JHS6-EAGLE/Desktop/OpenSes Files","no","mono","no","18","no","white","no","yes","1440","legacy","23","79","C:/Users/JHS6-EAGLE/Desktop/OpenSes Files/JH-subject-4.csv","legacy","Lentiform Loewenfeld","3.3.3","0","s","NA","a","s","NA","s","471","NA","31549","380645","NA","471","2","legacy","1024","2","48000","-16","experiment","SSSSS","4","even","627565","33690","583478","NA","623675","2134","621435","NA","628706","2140","202831","NA","628810","629282","628700","628810","Flanker task","100","81447","104","yes","2560"
"96.19047619047619","96.19047619047619","780.4285714285714","780.4285714285714","black","legacy","legacy","legacy","0","conruent","uniform","1","undefined","1","s","104","0","0","0","104","0","104","0","104","0","0","0","104","104","104","104","Sun Sep 27 21:07:08 2020","600","The main experiment item","yes","Flankertask.osexp","C:/Users/JHS6-EAGLE/Desktop/OpenSes Files","no","mono","no","18","no","white","no","yes","1440","legacy","24","79","C:/Users/JHS6-EAGLE/Desktop/OpenSes Files/JH-subject-4.csv","legacy","Lentiform Loewenfeld","3.3.3","0","s","NA","a","s","NA","s","498","NA","31549","380645","NA","498","2","legacy","1024","2","48000","-16","experiment","SSSSS","4","even","629290","33690","583478","NA","623675","2134","621435","NA","630416","2140","202831","NA","630520","631019","630410","630520","Flanker task","101","81945","105","yes","2560"
"96.22641509433963","96.22641509433963","777.2452830188679","777.2452830188679","black","legacy","legacy","legacy","0","congruent","uniform","1","undefined","1","h","105","0","0","0","105","0","105","0","105","0","0","0","105","105","105","105","Sun Sep 27 21:07:08 2020","600","The main experiment item","yes","Flankertask.osexp","C:/Users/JHS6-EAGLE/Desktop/OpenSes Files","no","mono","no","18","no","white","no","yes","1440","legacy","25","79","C:/Users/JHS6-EAGLE/Desktop/OpenSes Files/JH-subject-4.csv","legacy","Lentiform Loewenfeld","3.3.3","0","h","NA","a","s","NA","h","443","NA","31549","380645","NA","443","2","legacy","1024","2","48000","-16","experiment","HHHHH","4","even","631027","33690","583478","NA","623675","2134","621435","NA","632152","2140","202831","NA","632256","632700","632146","632256","Flanker task","102","82388","106","yes","2560"
"96.26168224299066","96.26168224299066","773.6448598130842","773.6448598130842","black","legacy","legacy","legacy","0","conruent","uniform","1","undefined","1","s","106","0","0","0","106","0","106","0","106","0","0","0","106","106","106","106","Sun Sep 27 21:07:08 2020","600","The main experiment item","yes","Flankertask.osexp","C:/Users/JHS6-EAGLE/Desktop/OpenSes Files","no","mono","no","18","no","white","no","yes","1440","legacy","26","79","C:/Users/JHS6-EAGLE/Desktop/OpenSes Files/JH-subject-4.csv","legacy","Lentiform Loewenfeld","3.3.3","0","s","NA","a","s","NA","s","392","NA","31549","380645","NA","392","2","legacy","1024","2","48000","-16","experiment","SSSSS","4","even","632708","33690","583478","NA","623675","2134","621435","NA","633834","2140","202831","NA","633940","634333","633828","633940","Flanker task","103","82780","107","yes","2560"
"96.29629629629629","96.29629629629629","770.4722222222222","770.4722222222222","black","legacy","legacy","legacy","0","incongruent","uniform","1","undefined","1","h","107","0","0","0","107","0","107","0","107","0","0","0","107","107","107","107","Sun Sep 27 21:07:08 2020","600","The main experiment item","yes","Flankertask.osexp","C:/Users/JHS6-EAGLE/Desktop/OpenSes Files","no","mono","no","18","no","white","no","yes","1440","legacy","27","79","C:/Users/JHS6-EAGLE/Desktop/OpenSes Files/JH-subject-4.csv","legacy","Lentiform Loewenfeld","3.3.3","0","h","NA","a","s","NA","h","431","NA","31549","380645","NA","431","2","legacy","1024","2","48000","-16","experiment","SSHSS","4","even","634341","33690","583478","NA","623675","2134","621435","NA","635467","2140","202831","NA","635571","636003","635461","635571","Flanker task","104","83211","108","yes","2560"
"96.3302752293578","96.3302752293578","768.7981651376147","768.7981651376147","black","legacy","legacy","legacy","0","incongruent","uniform","1","undefined","1","h","108","0","0","0","108","0","108","0","108","0","0","0","108","108","108","108","Sun Sep 27 21:07:08 2020","600","The main experiment item","yes","Flankertask.osexp","C:/Users/JHS6-EAGLE/Desktop/OpenSes Files","no","mono","no","18","no","white","no","yes","1440","legacy","28","79","C:/Users/JHS6-EAGLE/Desktop/OpenSes Files/JH-subject-4.csv","legacy","Lentiform Loewenfeld","3.3.3","0","h","NA","a","s","NA","h","588","NA","31549","380645","NA","588","2","legacy","1024","2","48000","-16","experiment","SSHSS","4","even","636011","33690","583478","NA","623675","2134","621435","NA","637155","2140","202831","NA","637259","637848","637148","637259","Flanker task","105","83799","109","yes","2560"
"96.36363636363636","96.36363636363636","765.4181818181818","765.4181818181818","black","legacy","legacy","legacy","0","incongruent","uniform","1","undefined","1","h","109","0","0","0","109","0","109","0","109","0","0","0","109","109","109","109","Sun Sep 27 21:07:08 2020","600","The main experiment item","yes","Flankertask.osexp","C:/Users/JHS6-EAGLE/Desktop/OpenSes Files","no","mono","no","18","no","white","no","yes","1440","legacy","29","79","C:/Users/JHS6-EAGLE/Desktop/OpenSes Files/JH-subject-4.csv","legacy","Lentiform Loewenfeld","3.3.3","0","h","NA","a","s","NA","h","397","NA","31549","380645","NA","397","2","legacy","1024","2","48000","-16","experiment","SSHSS","4","even","637854","33690","583478","NA","623675","2134","621435","NA","638980","2140","202831","NA","639085","639483","638975","639085","Flanker task","106","84196","110","yes","2560"
"96.3963963963964","96.3963963963964","762.4234234234234","762.4234234234234","black","legacy","legacy","legacy","0","incongruent","uniform","1","undefined","1","h","110","0","0","0","110","0","110","0","110","0","0","0","110","110","110","110","Sun Sep 27 21:07:08 2020","600","The main experiment item","yes","Flankertask.osexp","C:/Users/JHS6-EAGLE/Desktop/OpenSes Files","no","mono","no","18","no","white","no","yes","1440","legacy","30","79","C:/Users/JHS6-EAGLE/Desktop/OpenSes Files/JH-subject-4.csv","legacy","Lentiform Loewenfeld","3.3.3","0","h","NA","a","s","NA","h","433","NA","31549","380645","NA","433","2","legacy","1024","2","48000","-16","experiment","SSHSS","4","even","639490","33690","583478","NA","623675","2134","621435","NA","640628","2140","202831","NA","640732","641166","640623","640732","Flanker task","107","84629","111","yes","2560"
"96.42857142857143","96.42857142857143","759.875","759.875","black","legacy","legacy","legacy","0","congruent","uniform","1","undefined","1","h","111","0","0","0","111","0","111","0","111","0","0","0","111","111","111","111","Sun Sep 27 21:07:08 2020","600","The main experiment item","yes","Flankertask.osexp","C:/Users/JHS6-EAGLE/Desktop/OpenSes Files","no","mono","no","18","no","white","no","yes","1440","legacy","31","79","C:/Users/JHS6-EAGLE/Desktop/OpenSes Files/JH-subject-4.csv","legacy","Lentiform Loewenfeld","3.3.3","0","h","NA","a","s","NA","h","477","NA","31549","380645","NA","477","2","legacy","1024","2","48000","-16","experiment","HHHHH","4","even","641174","33690","583478","NA","623675","2134","621435","NA","642298","2140","202831","NA","642404","642882","642292","642404","Flanker task","108","85106","112","yes","2560"
"96.46017699115045","96.46017699115045","758.3185840707964","758.3185840707964","black","legacy","legacy","legacy","0","incongruent","uniform","1","undefined","1","s","112","0","0","0","112","0","112","0","112","0","0","0","112","112","112","112","Sun Sep 27 21:07:08 2020","600","The main experiment item","yes","Flankertask.osexp","C:/Users/JHS6-EAGLE/Desktop/OpenSes Files","no","mono","no","18","no","white","no","yes","1440","legacy","32","79","C:/Users/JHS6-EAGLE/Desktop/OpenSes Files/JH-subject-4.csv","legacy","Lentiform Loewenfeld","3.3.3","0","s","NA","a","s","NA","s","584","NA","31549","380645","NA","584","2","legacy","1024","2","48000","-16","experiment","HHSHH","4","even","642890","33690","583478","NA","623675","2134","621435","NA","644016","2140","202831","NA","644134","644719","644010","644133","Flanker task","109","85690","113","yes","2560"
"96.49122807017544","96.49122807017544","756.9473684210526","756.9473684210526","black","legacy","legacy","legacy","0","incongruent","uniform","1","undefined","1","h","113","0","0","0","113","0","113","0","113","0","0","0","113","113","113","113","Sun Sep 27 21:07:08 2020","600","The main experiment item","yes","Flankertask.osexp","C:/Users/JHS6-EAGLE/Desktop/OpenSes Files","no","mono","no","18","no","white","no","yes","1440","legacy","33","79","C:/Users/JHS6-EAGLE/Desktop/OpenSes Files/JH-subject-4.csv","legacy","Lentiform Loewenfeld","3.3.3","0","h","NA","a","s","NA","h","602","NA","31549","380645","NA","602","2","legacy","1024","2","48000","-16","experiment","SSHSS","4","even","644725","33690","583478","NA","623675","2134","621435","NA","645850","2140","202831","NA","645955","646558","645845","645955","Flanker task","110","86292","114","yes","2560"
"96.52173913043478","96.52173913043478","753.4347826086956","753.4347826086956","black","legacy","legacy","legacy","0","congruent","uniform","1","undefined","1","h","114","0","0","0","114","0","114","0","114","0","0","0","114","114","114","114","Sun Sep 27 21:07:08 2020","600","The main experiment item","yes","Flankertask.osexp","C:/Users/JHS6-EAGLE/Desktop/OpenSes Files","no","mono","no","18","no","white","no","yes","1440","legacy","34","79","C:/Users/JHS6-EAGLE/Desktop/OpenSes Files/JH-subject-4.csv","legacy","Lentiform Loewenfeld","3.3.3","0","h","NA","a","s","NA","h","353","NA","31549","380645","NA","353","2","legacy","1024","2","48000","-16","experiment","HHHHH","4","even","647070","33690","583478","NA","623675","2134","646566","NA","648198","2140","202831","NA","648303","648657","648193","648303","Flanker task","111","86645","115","yes","2560"
"96.55172413793103","96.55172413793103","750.6810344827586","750.6810344827586","black","legacy","legacy","legacy","0","incongruent","uniform","1","undefined","1","s","115","0","0","0","115","0","115","0","115","0","0","0","115","115","115","115","Sun Sep 27 21:07:08 2020","600","The main experiment item","yes","Flankertask.osexp","C:/Users/JHS6-EAGLE/Desktop/OpenSes Files","no","mono","no","18","no","white","no","yes","1440","legacy","35","79","C:/Users/JHS6-EAGLE/Desktop/OpenSes Files/JH-subject-4.csv","legacy","Lentiform Loewenfeld","3.3.3","0","s","NA","a","s","NA","s","434","NA","31549","380645","NA","434","2","legacy","1024","2","48000","-16","experiment","HHSHH","4","even","648664","33690","583478","NA","623675","2134","646566","NA","649803","2140","202831","NA","649915","650350","649797","649914","Flanker task","112","87079","116","yes","2560"
"96.58119658119658","96.58119658119658","747.9145299145299","747.9145299145299","black","legacy","legacy","legacy","0","conruent","uniform","1","undefined","1","s","116","0","0","0","116","0","116","0","116","0","0","0","116","116","116","116","Sun Sep 27 21:07:08 2020","600","The main experiment item","yes","Flankertask.osexp","C:/Users/JHS6-EAGLE/Desktop/OpenSes Files","no","mono","no","18","no","white","no","yes","1440","legacy","36","79","C:/Users/JHS6-EAGLE/Desktop/OpenSes Files/JH-subject-4.csv","legacy","Lentiform Loewenfeld","3.3.3","0","s","NA","a","s","NA","s","427","NA","31549","380645","NA","427","2","legacy","1024","2","48000","-16","experiment","SSSSS","4","even","650358","33690","583478","NA","623675","2134","646566","NA","651482","2140","202831","NA","651586","652014","651477","651586","Flanker task","113","87506","117","yes","2560"
