"acc","accuracy","average_response_time","avg_rt","background","canvas_backend","clock_backend","color_backend","compensation","condition","coordinates","correct","correct_Instructions1","correct_keyboard_response","correct_response","count_Block1","count_Block2","count_Block3","count_ErrorFeedback","count_Faster","count_Finished","count_Fixation","count_ISI","count_Instructions1","count_Instructions2","count_Instructions3","count_Sequence","count_experiment","count_keyboard_response","count_logger","count_stimulus","datetime","deadline","description","disable_garbage_collection","experiment_file","experiment_path","font_bold","font_family","font_italic","font_size","font_underline","foreground","form_clicks","fullscreen","height","keyboard_backend","live_row","live_row_Block1","logfile","mouse_backend","opensesame_codename","opensesame_version","repeat_cycle","response","response_Finished","response_Instructions1","response_Instructions2","response_Instructions3","response_keyboard_response","response_time","response_time_Finished","response_time_Instructions1","response_time_Instructions2","response_time_Instructions3","response_time_keyboard_response","round_decimals","sampler_backend","sound_buf_size","sound_channels","sound_freq","sound_sample_size","start","stimulus","subject_nr","subject_parity","time_Block1","time_Block2","time_Block3","time_ErrorFeedback","time_Faster","time_Finished","time_Fixation","time_ISI","time_Instructions1","time_Instructions2","time_Instructions3","time_Sequence","time_experiment","time_keyboard_response","time_logger","time_stimulus","title","total_correct","total_response_time","total_responses","uniform_coordinates","width"
"100","100","1203","1203","black","legacy","legacy","legacy","0","Congruent","uniform","1","undefined","1","h","0","0","0","0","0","0","0","0","0","0","0","0","0","0","0","0","09/25/20 20:53:33","1500","The main experiment item","yes","FlankerTask.osexp","C:/Users/solom/Desktop","no","mono","no","18","no","white","no","yes","768","legacy","0","0","C:/Users/solom/Desktop/MW-subject-2.csv","legacy","Lentiform Loewenfeld","3.3.3","0","h","NA","h","NA","NA","h","1203","NA","2053","NA","NA","1203","2","legacy","1024","2","48000","-16","experiment","HHHHH","2","even","6087","NA","NA","NA","NA","NA","6311","NA","4032","NA","NA","6306","4025","6418","7622","6417","Flanker Task","1","1203","1","yes","1024"
"100","100","1225.5","1225.5","black","legacy","legacy","legacy","0","Incongruent","uniform","1","undefined","1","s","0","0","0","1","1","0","1","1","0","0","0","1","0","1","1","1","09/25/20 20:53:33","1500","The main experiment item","yes","FlankerTask.osexp","C:/Users/solom/Desktop","no","mono","no","18","no","white","no","yes","768","legacy","1","1","C:/Users/solom/Desktop/MW-subject-2.csv","legacy","Lentiform Loewenfeld","3.3.3","0","s","NA","h","NA","NA","s","1248","NA","2053","NA","NA","1248","2","legacy","1024","2","48000","-16","experiment","HHSHH","2","even","6087","NA","NA","NA","NA","NA","9244","8029","4032","NA","NA","9238","4025","9349","10598","9349","Flanker Task","2","2451","2","yes","1024"
"100","100","1210.33333333","1210.33333333","black","legacy","legacy","legacy","0","Congruent","uniform","1","undefined","1","s","0","0","0","2","2","0","2","2","0","0","0","2","0","2","2","2","09/25/20 20:53:33","1500","The main experiment item","yes","FlankerTask.osexp","C:/Users/solom/Desktop","no","mono","no","18","no","white","no","yes","768","legacy","2","2","C:/Users/solom/Desktop/MW-subject-2.csv","legacy","Lentiform Loewenfeld","3.3.3","0","s","NA","h","NA","NA","s","1180","NA","2053","NA","NA","1180","2","legacy","1024","2","48000","-16","experiment","SSSSS","2","even","6087","NA","NA","NA","NA","NA","12127","10932","4032","NA","NA","12122","4025","12233","13414","12233","Flanker Task","3","3631","3","yes","1024"
"100","100","1179.5","1179.5","black","legacy","legacy","legacy","0","Congruent","uniform","1","undefined","1","h","0","0","0","3","3","0","3","3","0","0","0","3","0","3","3","3","09/25/20 20:53:33","1500","The main experiment item","yes","FlankerTask.osexp","C:/Users/solom/Desktop","no","mono","no","18","no","white","no","yes","768","legacy","3","3","C:/Users/solom/Desktop/MW-subject-2.csv","legacy","Lentiform Loewenfeld","3.3.3","0","h","NA","h","NA","NA","h","1087","NA","2053","NA","NA","1087","2","legacy","1024","2","48000","-16","experiment","HHHHH","2","even","6087","NA","NA","NA","NA","NA","14869","13659","4032","NA","NA","14861","4025","14974","16062","14973","Flanker Task","4","4718","4","yes","1024"
"100","100","1160","1160","black","legacy","legacy","legacy","0","Congruent","uniform","1","undefined","1","s","0","0","0","4","4","0","4","4","0","0","0","4","0","4","4","4","09/25/20 20:53:33","1500","The main experiment item","yes","FlankerTask.osexp","C:/Users/solom/Desktop","no","mono","no","18","no","white","no","yes","768","legacy","4","4","C:/Users/solom/Desktop/MW-subject-2.csv","legacy","Lentiform Loewenfeld","3.3.3","0","s","NA","h","NA","NA","s","1082","NA","2053","NA","NA","1082","2","legacy","1024","2","48000","-16","experiment","SSSSS","2","even","6087","NA","NA","NA","NA","NA","17610","16395","4032","NA","NA","17603","4025","17715","18798","17714","Flanker Task","5","5800","5","yes","1024"
"100","100","1169","1169","black","legacy","legacy","legacy","0","Incongruent","uniform","1","undefined","1","h","0","0","0","5","5","0","5","5","0","0","0","5","0","5","5","5","09/25/20 20:53:33","1500","The main experiment item","yes","FlankerTask.osexp","C:/Users/solom/Desktop","no","mono","no","18","no","white","no","yes","768","legacy","5","5","C:/Users/solom/Desktop/MW-subject-2.csv","legacy","Lentiform Loewenfeld","3.3.3","0","h","NA","h","NA","NA","h","1214","NA","2053","NA","NA","1214","2","legacy","1024","2","48000","-16","experiment","SSHSS","2","even","6087","NA","NA","NA","NA","NA","20160","18950","4032","NA","NA","20154","4025","20264","21480","20263","Flanker Task","6","7014","6","yes","1024"
"100","100","1191.42857143","1191.42857143","black","legacy","legacy","legacy","0","Incongruent","uniform","1","undefined","1","s","0","0","0","6","6","0","6","6","0","0","0","6","0","6","6","6","09/25/20 20:53:33","1500","The main experiment item","yes","FlankerTask.osexp","C:/Users/solom/Desktop","no","mono","no","18","no","white","no","yes","768","legacy","6","6","C:/Users/solom/Desktop/MW-subject-2.csv","legacy","Lentiform Loewenfeld","3.3.3","0","s","NA","h","NA","NA","s","1326","NA","2053","NA","NA","1326","2","legacy","1024","2","48000","-16","experiment","HHSHH","2","even","6087","NA","NA","NA","NA","NA","22918","21705","4032","NA","NA","22912","4025","23023","24350","23022","Flanker Task","7","8340","7","yes","1024"
"100","100","1204.625","1204.625","black","legacy","legacy","legacy","0","Congruent","uniform","1","undefined","1","h","0","0","0","7","7","0","7","7","0","0","0","7","0","7","7","7","09/25/20 20:53:33","1500","The main experiment item","yes","FlankerTask.osexp","C:/Users/solom/Desktop","no","mono","no","18","no","white","no","yes","768","legacy","7","7","C:/Users/solom/Desktop/MW-subject-2.csv","legacy","Lentiform Loewenfeld","3.3.3","0","h","NA","h","NA","NA","h","1297","NA","2053","NA","NA","1297","2","legacy","1024","2","48000","-16","experiment","HHHHH","2","even","6087","NA","NA","NA","NA","NA","25779","24587","4032","NA","NA","25773","4025","25884","27182","25883","Flanker Task","8","9637","8","yes","1024"
"100","100","1147.55555556","1147.55555556","black","legacy","legacy","legacy","0","Incongruent","uniform","1","undefined","1","s","0","0","0","8","8","0","8","8","0","0","0","8","0","8","8","8","09/25/20 20:53:33","1500","The main experiment item","yes","FlankerTask.osexp","C:/Users/solom/Desktop","no","mono","no","18","no","white","no","yes","768","legacy","8","8","C:/Users/solom/Desktop/MW-subject-2.csv","legacy","Lentiform Loewenfeld","3.3.3","0","s","NA","h","NA","NA","s","691","NA","2053","NA","NA","691","2","legacy","1024","2","48000","-16","experiment","HHSHH","2","even","6087","NA","NA","NA","NA","NA","28530","27336","4032","NA","NA","28525","4025","28634","29326","28634","Flanker Task","9","10328","9","yes","1024"
"100","100","1098.3","1098.3","black","legacy","legacy","legacy","0","Congruent","uniform","1","undefined","1","s","0","0","0","9","9","0","9","9","0","0","0","9","0","9","9","9","09/25/20 20:53:33","1500","The main experiment item","yes","FlankerTask.osexp","C:/Users/solom/Desktop","no","mono","no","18","no","white","no","yes","768","legacy","9","9","C:/Users/solom/Desktop/MW-subject-2.csv","legacy","Lentiform Loewenfeld","3.3.3","0","s","NA","h","NA","NA","s","655","NA","2053","NA","NA","655","2","legacy","1024","2","48000","-16","experiment","SSSSS","2","even","6087","NA","NA","NA","NA","NA","30742","29530","4032","NA","NA","30736","4025","30846","31502","30845","Flanker Task","10","10983","10","yes","1024"
"100","100","1059.27272727","1059.27272727","black","legacy","legacy","legacy","0","Incongruent","uniform","1","undefined","1","s","0","0","0","10","10","0","10","10","0","0","0","10","0","10","10","10","09/25/20 20:53:33","1500","The main experiment item","yes","FlankerTask.osexp","C:/Users/solom/Desktop","no","mono","no","18","no","white","no","yes","768","legacy","10","10","C:/Users/solom/Desktop/MW-subject-2.csv","legacy","Lentiform Loewenfeld","3.3.3","0","s","NA","h","NA","NA","s","669","NA","2053","NA","NA","669","2","legacy","1024","2","48000","-16","experiment","HHSHH","2","even","6087","NA","NA","NA","NA","NA","32823","31597","4032","NA","NA","32817","4025","32928","33599","32927","Flanker Task","11","11652","11","yes","1024"
"100","100","1015.25","1015.25","black","legacy","legacy","legacy","0","Congruent","uniform","1","undefined","1","h","0","0","0","11","11","0","11","11","0","0","0","11","0","11","11","11","09/25/20 20:53:33","1500","The main experiment item","yes","FlankerTask.osexp","C:/Users/solom/Desktop","no","mono","no","18","no","white","no","yes","768","legacy","11","11","C:/Users/solom/Desktop/MW-subject-2.csv","legacy","Lentiform Loewenfeld","3.3.3","0","h","NA","h","NA","NA","h","531","NA","2053","NA","NA","531","2","legacy","1024","2","48000","-16","experiment","HHHHH","2","even","6087","NA","NA","NA","NA","NA","34842","33649","4032","NA","NA","34837","4025","34946","35478","34946","Flanker Task","12","12183","12","yes","1024"
"92.3076923077","92.3076923077","986.461538462","986.461538462","black","legacy","legacy","legacy","0","Incongruent","uniform","0","undefined","0","h","0","0","0","12","12","0","12","12","0","0","0","12","0","12","12","12","09/25/20 20:53:33","1500","The main experiment item","yes","FlankerTask.osexp","C:/Users/solom/Desktop","no","mono","no","18","no","white","no","yes","768","legacy","12","12","C:/Users/solom/Desktop/MW-subject-2.csv","legacy","Lentiform Loewenfeld","3.3.3","0","s","NA","h","NA","NA","s","641","NA","2053","NA","NA","641","2","legacy","1024","2","48000","-16","experiment","SSHSS","2","even","6087","NA","NA","NA","NA","NA","37004","35826","4032","NA","NA","36999","4025","37108","37751","37107","Flanker Task","12","12824","13","yes","1024"
"92.8571428571","92.8571428571","960.714285714","960.714285714","black","legacy","legacy","legacy","0","Congruent","uniform","1","undefined","1","h","0","0","0","13","13","0","13","13","0","0","0","13","0","13","13","13","09/25/20 20:53:33","1500","The main experiment item","yes","FlankerTask.osexp","C:/Users/solom/Desktop","no","mono","no","18","no","white","no","yes","768","legacy","13","13","C:/Users/solom/Desktop/MW-subject-2.csv","legacy","Lentiform Loewenfeld","3.3.3","0","h","NA","h","NA","NA","h","626","NA","2053","NA","NA","626","2","legacy","1024","2","48000","-16","experiment","HHHHH","2","even","6087","NA","NA","37966","NA","NA","39674","38471","4032","NA","NA","39668","4025","39778","40407","39778","Flanker Task","13","13450","14","yes","1024"
"93.3333333333","93.3333333333","943.933333333","943.933333333","black","legacy","legacy","legacy","0","Incongruent","uniform","1","undefined","1","h","0","0","0","14","14","0","14","14","0","0","0","14","0","14","14","14","09/25/20 20:53:33","1500","The main experiment item","yes","FlankerTask.osexp","C:/Users/solom/Desktop","no","mono","no","18","no","white","no","yes","768","legacy","14","14","C:/Users/solom/Desktop/MW-subject-2.csv","legacy","Lentiform Loewenfeld","3.3.3","0","h","NA","h","NA","NA","h","709","NA","2053","NA","NA","709","2","legacy","1024","2","48000","-16","experiment","SSHSS","2","even","6087","NA","NA","37966","NA","NA","41740","40556","4032","NA","NA","41735","4025","41848","42558","41847","Flanker Task","14","14159","15","yes","1024"
"93.75","93.75","948.3125","948.3125","black","legacy","legacy","legacy","0","Incongruent","uniform","1","undefined","1","h","0","0","0","15","15","0","15","15","0","0","0","15","0","15","15","15","09/25/20 20:53:33","1500","The main experiment item","yes","FlankerTask.osexp","C:/Users/solom/Desktop","no","mono","no","18","no","white","no","yes","768","legacy","15","15","C:/Users/solom/Desktop/MW-subject-2.csv","legacy","Lentiform Loewenfeld","3.3.3","0","h","NA","h","NA","NA","h","1014","NA","2053","NA","NA","1014","2","legacy","1024","2","48000","-16","experiment","SSHSS","2","even","6087","NA","NA","37966","NA","NA","43862","42651","4032","NA","NA","43856","4025","43967","44983","43966","Flanker Task","15","15173","16","yes","1024"
"94.1176470588","94.1176470588","933.705882353","933.705882353","black","legacy","legacy","legacy","0","Incongruent","uniform","1","undefined","1","s","0","0","0","16","16","0","16","16","0","0","0","16","0","16","16","16","09/25/20 20:53:33","1500","The main experiment item","yes","FlankerTask.osexp","C:/Users/solom/Desktop","no","mono","no","18","no","white","no","yes","768","legacy","16","16","C:/Users/solom/Desktop/MW-subject-2.csv","legacy","Lentiform Loewenfeld","3.3.3","0","s","NA","h","NA","NA","s","700","NA","2053","NA","NA","700","2","legacy","1024","2","48000","-16","experiment","HHSHH","2","even","6087","NA","NA","37966","NA","NA","46257","45051","4032","NA","NA","46252","4025","46361","47063","46361","Flanker Task","16","15873","17","yes","1024"
"94.4444444444","94.4444444444","913.277777778","913.277777778","black","legacy","legacy","legacy","0","Incongruent","uniform","1","undefined","1","s","0","0","0","17","17","0","17","17","0","0","0","17","0","17","17","17","09/25/20 20:53:33","1500","The main experiment item","yes","FlankerTask.osexp","C:/Users/solom/Desktop","no","mono","no","18","no","white","no","yes","768","legacy","17","17","C:/Users/solom/Desktop/MW-subject-2.csv","legacy","Lentiform Loewenfeld","3.3.3","0","s","NA","h","NA","NA","s","566","NA","2053","NA","NA","566","2","legacy","1024","2","48000","-16","experiment","HHSHH","2","even","6087","NA","NA","37966","NA","NA","48367","47150","4032","NA","NA","48361","4025","48471","49039","48471","Flanker Task","17","16439","18","yes","1024"
"94.7368421053","94.7368421053","894.842105263","894.842105263","black","legacy","legacy","legacy","0","Incongruent","uniform","1","undefined","1","h","0","0","0","18","18","0","18","18","0","0","0","18","0","18","18","18","09/25/20 20:53:33","1500","The main experiment item","yes","FlankerTask.osexp","C:/Users/solom/Desktop","no","mono","no","18","no","white","no","yes","768","legacy","18","18","C:/Users/solom/Desktop/MW-subject-2.csv","legacy","Lentiform Loewenfeld","3.3.3","0","h","NA","h","NA","NA","h","563","NA","2053","NA","NA","563","2","legacy","1024","2","48000","-16","experiment","SSHSS","2","even","6087","NA","NA","37966","NA","NA","50407","49217","4032","NA","NA","50402","4025","50511","51076","50510","Flanker Task","18","17002","19","yes","1024"
"95","95","892.3","892.3","black","legacy","legacy","legacy","0","Incongruent","uniform","1","undefined","1","s","0","0","0","19","19","0","19","19","0","0","0","19","0","19","19","19","09/25/20 20:53:33","1500","The main experiment item","yes","FlankerTask.osexp","C:/Users/solom/Desktop","no","mono","no","18","no","white","no","yes","768","legacy","19","19","C:/Users/solom/Desktop/MW-subject-2.csv","legacy","Lentiform Loewenfeld","3.3.3","0","s","NA","h","NA","NA","s","844","NA","2053","NA","NA","844","2","legacy","1024","2","48000","-16","experiment","HHSHH","2","even","6087","NA","NA","37966","NA","NA","52503","51313","4032","NA","NA","52498","4025","52609","53454","52608","Flanker Task","19","17846","20","yes","1024"
"95.2380952381","95.2380952381","880.142857143","880.142857143","black","legacy","legacy","legacy","0","Congruent","uniform","1","undefined","1","s","0","0","0","20","20","0","20","20","0","0","0","20","0","20","20","20","09/25/20 20:53:33","1500","The main experiment item","yes","FlankerTask.osexp","C:/Users/solom/Desktop","no","mono","no","18","no","white","no","yes","768","legacy","20","20","C:/Users/solom/Desktop/MW-subject-2.csv","legacy","Lentiform Loewenfeld","3.3.3","0","s","NA","h","NA","NA","s","637","NA","2053","NA","NA","637","2","legacy","1024","2","48000","-16","experiment","SSSSS","2","even","6087","NA","NA","37966","NA","NA","54783","53603","4032","NA","NA","54778","4025","54888","55527","54887","Flanker Task","20","18483","21","yes","1024"
"95.4545454545","95.4545454545","869.636363636","869.636363636","black","legacy","legacy","legacy","0","Incongruent","uniform","1","undefined","1","h","0","0","0","21","21","0","21","21","0","0","0","21","0","21","21","21","09/25/20 20:53:33","1500","The main experiment item","yes","FlankerTask.osexp","C:/Users/solom/Desktop","no","mono","no","18","no","white","no","yes","768","legacy","21","21","C:/Users/solom/Desktop/MW-subject-2.csv","legacy","Lentiform Loewenfeld","3.3.3","0","h","NA","h","NA","NA","h","649","NA","2053","NA","NA","649","2","legacy","1024","2","48000","-16","experiment","SSHSS","2","even","6087","NA","NA","37966","NA","NA","56956","55763","4032","NA","NA","56951","4025","57060","57711","57059","Flanker Task","21","19132","22","yes","1024"
"95.652173913","95.652173913","857","857","black","legacy","legacy","legacy","0","Congruent","uniform","1","undefined","1","s","0","0","0","22","22","0","22","22","0","0","0","22","0","22","22","22","09/25/20 20:53:33","1500","The main experiment item","yes","FlankerTask.osexp","C:/Users/solom/Desktop","no","mono","no","18","no","white","no","yes","768","legacy","22","22","C:/Users/solom/Desktop/MW-subject-2.csv","legacy","Lentiform Loewenfeld","3.3.3","0","s","NA","h","NA","NA","s","579","NA","2053","NA","NA","579","2","legacy","1024","2","48000","-16","experiment","SSSSS","2","even","6087","NA","NA","37966","NA","NA","59298","58107","4032","NA","NA","59290","4025","59402","59983","59401","Flanker Task","22","19711","23","yes","1024"
"95.8333333333","95.8333333333","839.041666667","839.041666667","black","legacy","legacy","legacy","0","Incongruent","uniform","1","undefined","1","h","0","0","0","23","23","0","23","23","0","0","0","23","0","23","23","23","09/25/20 20:53:33","1500","The main experiment item","yes","FlankerTask.osexp","C:/Users/solom/Desktop","no","mono","no","18","no","white","no","yes","768","legacy","23","23","C:/Users/solom/Desktop/MW-subject-2.csv","legacy","Lentiform Loewenfeld","3.3.3","0","h","NA","h","NA","NA","h","426","NA","2053","NA","NA","426","2","legacy","1024","2","48000","-16","experiment","SSHSS","2","even","6087","NA","NA","37966","NA","NA","61298","60096","4032","NA","NA","61290","4025","61403","61831","61403","Flanker Task","23","20137","24","yes","1024"
"96","96","823.24","823.24","black","legacy","legacy","legacy","0","Congruent","uniform","1","undefined","1","s","0","0","0","24","24","0","24","24","0","0","0","24","0","24","24","24","09/25/20 20:53:33","1500","The main experiment item","yes","FlankerTask.osexp","C:/Users/solom/Desktop","no","mono","no","18","no","white","no","yes","768","legacy","24","24","C:/Users/solom/Desktop/MW-subject-2.csv","legacy","Lentiform Loewenfeld","3.3.3","0","s","NA","h","NA","NA","s","444","NA","2053","NA","NA","444","2","legacy","1024","2","48000","-16","experiment","SSSSS","2","even","6087","NA","NA","37966","NA","NA","63239","62049","4032","NA","NA","63234","4025","63344","63792","63343","Flanker Task","24","20581","25","yes","1024"
"96.1538461538","96.1538461538","813.769230769","813.769230769","black","legacy","legacy","legacy","0","Congruent","uniform","1","undefined","1","s","0","0","0","25","25","0","25","25","0","0","0","25","0","25","25","25","09/25/20 20:53:33","1500","The main experiment item","yes","FlankerTask.osexp","C:/Users/solom/Desktop","no","mono","no","18","no","white","no","yes","768","legacy","25","25","C:/Users/solom/Desktop/MW-subject-2.csv","legacy","Lentiform Loewenfeld","3.3.3","0","s","NA","h","NA","NA","s","577","NA","2053","NA","NA","577","2","legacy","1024","2","48000","-16","experiment","SSSSS","2","even","6087","NA","NA","37966","NA","NA","65203","63991","4032","NA","NA","65197","4025","65308","65886","65307","Flanker Task","25","21158","26","yes","1024"
"96.2962962963","96.2962962963","820.814814815","820.814814815","black","legacy","legacy","legacy","0","Incongruent","uniform","1","undefined","1","h","0","0","0","26","26","0","26","26","0","0","0","26","0","26","26","26","09/25/20 20:53:33","1500","The main experiment item","yes","FlankerTask.osexp","C:/Users/solom/Desktop","no","mono","no","18","no","white","no","yes","768","legacy","26","26","C:/Users/solom/Desktop/MW-subject-2.csv","legacy","Lentiform Loewenfeld","3.3.3","0","h","NA","h","NA","NA","h","1004","NA","2053","NA","NA","1004","2","legacy","1024","2","48000","-16","experiment","SSHSS","2","even","6087","NA","NA","37966","NA","NA","67177","65989","4032","NA","NA","67172","4025","67281","68287","67281","Flanker Task","26","22162","27","yes","1024"
"96.4285714286","96.4285714286","828.107142857","828.107142857","black","legacy","legacy","legacy","0","Incongruent","uniform","1","undefined","1","h","0","0","0","27","27","0","27","27","0","0","0","27","0","27","27","27","09/25/20 20:53:33","1500","The main experiment item","yes","FlankerTask.osexp","C:/Users/solom/Desktop","no","mono","no","18","no","white","no","yes","768","legacy","27","27","C:/Users/solom/Desktop/MW-subject-2.csv","legacy","Lentiform Loewenfeld","3.3.3","0","h","NA","h","NA","NA","h","1025","NA","2053","NA","NA","1025","2","legacy","1024","2","48000","-16","experiment","SSHSS","2","even","6087","NA","NA","37966","NA","NA","70195","69009","4032","NA","NA","70189","4025","70299","71326","70299","Flanker Task","27","23187","28","yes","1024"
"96.5517241379","96.5517241379","824.068965517","824.068965517","black","legacy","legacy","legacy","0","Congruent","uniform","1","undefined","1","h","0","0","0","28","28","0","28","28","0","0","0","28","0","28","28","28","09/25/20 20:53:33","1500","The main experiment item","yes","FlankerTask.osexp","C:/Users/solom/Desktop","no","mono","no","18","no","white","no","yes","768","legacy","28","28","C:/Users/solom/Desktop/MW-subject-2.csv","legacy","Lentiform Loewenfeld","3.3.3","0","h","NA","h","NA","NA","h","711","NA","2053","NA","NA","711","2","legacy","1024","2","48000","-16","experiment","HHHHH","2","even","6087","NA","NA","37966","NA","NA","72716","71515","4032","NA","NA","72711","4025","72821","73534","72820","Flanker Task","28","23898","29","yes","1024"
"96.6666666667","96.6666666667","821.566666667","821.566666667","black","legacy","legacy","legacy","0","Incongruent","uniform","1","undefined","1","h","0","0","0","29","29","0","29","29","0","0","0","29","0","29","29","29","09/25/20 20:53:33","1500","The main experiment item","yes","FlankerTask.osexp","C:/Users/solom/Desktop","no","mono","no","18","no","white","no","yes","768","legacy","29","29","C:/Users/solom/Desktop/MW-subject-2.csv","legacy","Lentiform Loewenfeld","3.3.3","0","h","NA","h","NA","NA","h","749","NA","2053","NA","NA","749","2","legacy","1024","2","48000","-16","experiment","SSHSS","2","even","6087","NA","NA","37966","NA","NA","74831","73627","4032","NA","NA","74825","4025","74935","75686","74935","Flanker Task","29","24647","30","yes","1024"
"96.7741935484","96.7741935484","815.225806452","815.225806452","black","legacy","legacy","legacy","0","Congruent","uniform","1","undefined","1","s","0","0","0","30","30","0","30","30","0","0","0","30","0","30","30","30","09/25/20 20:53:33","1500","The main experiment item","yes","FlankerTask.osexp","C:/Users/solom/Desktop","no","mono","no","18","no","white","no","yes","768","legacy","30","30","C:/Users/solom/Desktop/MW-subject-2.csv","legacy","Lentiform Loewenfeld","3.3.3","0","s","NA","h","NA","NA","s","625","NA","2053","NA","NA","625","2","legacy","1024","2","48000","-16","experiment","SSSSS","2","even","6087","NA","NA","37966","NA","NA","77043","75858","4032","NA","NA","77036","4025","77147","77774","77147","Flanker Task","30","25272","31","yes","1024"
"96.875","96.875","807.34375","807.34375","black","legacy","legacy","legacy","0","Incongruent","uniform","1","undefined","1","h","0","0","0","31","31","0","31","31","0","0","0","31","0","31","31","31","09/25/20 20:53:33","1500","The main experiment item","yes","FlankerTask.osexp","C:/Users/solom/Desktop","no","mono","no","18","no","white","no","yes","768","legacy","31","31","C:/Users/solom/Desktop/MW-subject-2.csv","legacy","Lentiform Loewenfeld","3.3.3","0","h","NA","h","NA","NA","h","563","NA","2053","NA","NA","563","2","legacy","1024","2","48000","-16","experiment","SSHSS","2","even","6087","NA","NA","37966","NA","NA","79426","78223","4032","NA","NA","79421","4025","79530","80095","79530","Flanker Task","31","25835","32","yes","1024"
"96.9696969697","96.9696969697","801.878787879","801.878787879","black","legacy","legacy","legacy","0","Congruent","uniform","1","undefined","1","s","0","0","0","32","32","0","32","32","0","0","0","32","0","32","32","32","09/25/20 20:53:33","1500","The main experiment item","yes","FlankerTask.osexp","C:/Users/solom/Desktop","no","mono","no","18","no","white","no","yes","768","legacy","32","32","C:/Users/solom/Desktop/MW-subject-2.csv","legacy","Lentiform Loewenfeld","3.3.3","0","s","NA","h","NA","NA","s","627","NA","2053","NA","NA","627","2","legacy","1024","2","48000","-16","experiment","SSSSS","2","even","6087","NA","NA","37966","NA","NA","81488","80285","4032","NA","NA","81482","4025","81594","82222","81593","Flanker Task","32","26462","33","yes","1024"
"97.0588235294","97.0588235294","794.323529412","794.323529412","black","legacy","legacy","legacy","0","Congruent","uniform","1","undefined","1","h","0","0","0","33","33","0","33","33","0","0","0","33","0","33","33","33","09/25/20 20:53:33","1500","The main experiment item","yes","FlankerTask.osexp","C:/Users/solom/Desktop","no","mono","no","18","no","white","no","yes","768","legacy","33","33","C:/Users/solom/Desktop/MW-subject-2.csv","legacy","Lentiform Loewenfeld","3.3.3","0","h","NA","h","NA","NA","h","545","NA","2053","NA","NA","545","2","legacy","1024","2","48000","-16","experiment","HHHHH","2","even","6087","NA","NA","37966","NA","NA","83772","82560","4032","NA","NA","83764","4025","83876","84423","83876","Flanker Task","33","27007","34","yes","1024"
"97.1428571429","97.1428571429","788.828571429","788.828571429","black","legacy","legacy","legacy","0","Incongruent","uniform","1","undefined","1","s","0","0","0","34","34","0","34","34","0","0","0","34","0","34","34","34","09/25/20 20:53:33","1500","The main experiment item","yes","FlankerTask.osexp","C:/Users/solom/Desktop","no","mono","no","18","no","white","no","yes","768","legacy","34","34","C:/Users/solom/Desktop/MW-subject-2.csv","legacy","Lentiform Loewenfeld","3.3.3","0","s","NA","h","NA","NA","s","602","NA","2053","NA","NA","602","2","legacy","1024","2","48000","-16","experiment","HHSHH","2","even","6087","NA","NA","37966","NA","NA","86185","84974","4032","NA","NA","86179","4025","86291","86895","86290","Flanker Task","34","27609","35","yes","1024"
"97.2222222222","97.2222222222","782.472222222","782.472222222","black","legacy","legacy","legacy","0","Congruent","uniform","1","undefined","1","h","0","0","0","35","35","0","35","35","0","0","0","35","0","35","35","35","09/25/20 20:53:33","1500","The main experiment item","yes","FlankerTask.osexp","C:/Users/solom/Desktop","no","mono","no","18","no","white","no","yes","768","legacy","35","35","C:/Users/solom/Desktop/MW-subject-2.csv","legacy","Lentiform Loewenfeld","3.3.3","0","h","NA","h","NA","NA","h","560","NA","2053","NA","NA","560","2","legacy","1024","2","48000","-16","experiment","HHHHH","2","even","6087","NA","NA","37966","NA","NA","88242","87038","4032","NA","NA","88236","4025","88348","88911","88347","Flanker Task","35","28169","36","yes","1024"
"97.2972972973","97.2972972973","777.081081081","777.081081081","black","legacy","legacy","legacy","0","Incongruent","uniform","1","undefined","1","s","0","0","0","36","36","0","36","36","0","0","0","36","0","36","36","36","09/25/20 20:53:33","1500","The main experiment item","yes","FlankerTask.osexp","C:/Users/solom/Desktop","no","mono","no","18","no","white","no","yes","768","legacy","36","36","C:/Users/solom/Desktop/MW-subject-2.csv","legacy","Lentiform Loewenfeld","3.3.3","0","s","NA","h","NA","NA","s","583","NA","2053","NA","NA","583","2","legacy","1024","2","48000","-16","experiment","HHSHH","2","even","6087","NA","NA","37966","NA","NA","90508","89306","4032","NA","NA","90502","4025","90613","91199","90613","Flanker Task","36","28752","37","yes","1024"
"97.3684210526","97.3684210526","770.5","770.5","black","legacy","legacy","legacy","0","Congruent","uniform","1","undefined","1","h","0","0","0","37","37","0","37","37","0","0","0","37","0","37","37","37","09/25/20 20:53:33","1500","The main experiment item","yes","FlankerTask.osexp","C:/Users/solom/Desktop","no","mono","no","18","no","white","no","yes","768","legacy","37","37","C:/Users/solom/Desktop/MW-subject-2.csv","legacy","Lentiform Loewenfeld","3.3.3","0","h","NA","h","NA","NA","h","527","NA","2053","NA","NA","527","2","legacy","1024","2","48000","-16","experiment","HHHHH","2","even","6087","NA","NA","37966","NA","NA","92836","91651","4032","NA","NA","92830","4025","92942","93471","92941","Flanker Task","37","29279","38","yes","1024"
"97.4358974359","97.4358974359","763.461538462","763.461538462","black","legacy","legacy","legacy","0","Congruent","uniform","1","undefined","1","h","0","0","0","38","38","0","38","38","0","0","0","38","0","38","38","38","09/25/20 20:53:33","1500","The main experiment item","yes","FlankerTask.osexp","C:/Users/solom/Desktop","no","mono","no","18","no","white","no","yes","768","legacy","38","38","C:/Users/solom/Desktop/MW-subject-2.csv","legacy","Lentiform Loewenfeld","3.3.3","0","h","NA","h","NA","NA","h","496","NA","2053","NA","NA","496","2","legacy","1024","2","48000","-16","experiment","HHHHH","2","even","6087","NA","NA","37966","NA","NA","94979","93792","4032","NA","NA","94974","4025","95085","95583","95084","Flanker Task","38","29775","39","yes","1024"
"95","95","759.6","759.6","black","legacy","legacy","legacy","0","Incongruent","uniform","0","undefined","0","h","0","0","0","39","39","0","39","39","0","0","0","39","0","39","39","39","09/25/20 20:53:33","1500","The main experiment item","yes","FlankerTask.osexp","C:/Users/solom/Desktop","no","mono","no","18","no","white","no","yes","768","legacy","39","39","C:/Users/solom/Desktop/MW-subject-2.csv","legacy","Lentiform Loewenfeld","3.3.3","0","s","NA","h","NA","NA","s","609","NA","2053","NA","NA","609","2","legacy","1024","2","48000","-16","experiment","SSHSS","2","even","6087","NA","NA","37966","NA","NA","97017","95816","4032","NA","NA","97012","4025","97124","97735","97124","Flanker Task","38","30384","40","yes","1024"
"95.1219512195","95.1219512195","754.365853659","754.365853659","black","legacy","legacy","legacy","0","Congruent","uniform","1","undefined","1","h","0","0","0","40","40","0","40","40","0","0","0","40","0","40","40","40","09/25/20 20:53:33","1500","The main experiment item","yes","FlankerTask.osexp","C:/Users/solom/Desktop","no","mono","no","18","no","white","no","yes","768","legacy","40","40","C:/Users/solom/Desktop/MW-subject-2.csv","legacy","Lentiform Loewenfeld","3.3.3","0","h","NA","h","NA","NA","h","545","NA","2053","NA","NA","545","2","legacy","1024","2","48000","-16","experiment","HHHHH","2","even","6087","NA","NA","97902","NA","NA","99604","98409","4032","NA","NA","99599","4025","99708","100255","99708","Flanker Task","39","30929","41","yes","1024"
"95.2380952381","95.2380952381","747.523809524","747.523809524","black","legacy","legacy","legacy","0","Congruent","uniform","1","undefined","1","h","0","0","0","41","41","0","41","41","0","0","0","41","0","41","41","41","09/25/20 20:53:33","1500","The main experiment item","yes","FlankerTask.osexp","C:/Users/solom/Desktop","no","mono","no","18","no","white","no","yes","768","legacy","41","41","C:/Users/solom/Desktop/MW-subject-2.csv","legacy","Lentiform Loewenfeld","3.3.3","0","h","NA","h","NA","NA","h","467","NA","2053","NA","NA","467","2","legacy","1024","2","48000","-16","experiment","HHHHH","2","even","6087","NA","NA","97902","NA","NA","102057","100853","4032","NA","NA","102051","4025","102162","102631","102161","Flanker Task","40","31396","42","yes","1024"
"95.3488372093","95.3488372093","747.162790698","747.162790698","black","legacy","legacy","legacy","0","Congruent","uniform","1","undefined","1","s","0","0","0","42","42","0","42","42","0","0","0","42","0","42","42","42","09/25/20 20:53:33","1500","The main experiment item","yes","FlankerTask.osexp","C:/Users/solom/Desktop","no","mono","no","18","no","white","no","yes","768","legacy","42","42","C:/Users/solom/Desktop/MW-subject-2.csv","legacy","Lentiform Loewenfeld","3.3.3","0","s","NA","h","NA","NA","s","732","NA","2053","NA","NA","732","2","legacy","1024","2","48000","-16","experiment","SSSSS","2","even","6087","NA","NA","97902","NA","NA","104128","102935","4032","NA","NA","104123","4025","104232","104967","104232","Flanker Task","41","32128","43","yes","1024"
"95.4545454545","95.4545454545","744.818181818","744.818181818","black","legacy","legacy","legacy","0","Incongruent","uniform","1","undefined","1","h","0","0","0","43","43","0","43","43","0","0","0","43","0","43","43","43","09/25/20 20:53:33","1500","The main experiment item","yes","FlankerTask.osexp","C:/Users/solom/Desktop","no","mono","no","18","no","white","no","yes","768","legacy","43","43","C:/Users/solom/Desktop/MW-subject-2.csv","legacy","Lentiform Loewenfeld","3.3.3","0","h","NA","h","NA","NA","h","644","NA","2053","NA","NA","644","2","legacy","1024","2","48000","-16","experiment","SSHSS","2","even","6087","NA","NA","97902","NA","NA","106458","105267","4032","NA","NA","106452","4025","106561","107207","106561","Flanker Task","42","32772","44","yes","1024"
"95.5555555556","95.5555555556","741.2","741.2","black","legacy","legacy","legacy","0","Incongruent","uniform","1","undefined","1","h","0","0","0","44","44","0","44","44","0","0","0","44","0","44","44","44","09/25/20 20:53:33","1500","The main experiment item","yes","FlankerTask.osexp","C:/Users/solom/Desktop","no","mono","no","18","no","white","no","yes","768","legacy","44","44","C:/Users/solom/Desktop/MW-subject-2.csv","legacy","Lentiform Loewenfeld","3.3.3","0","h","NA","h","NA","NA","h","582","NA","2053","NA","NA","582","2","legacy","1024","2","48000","-16","experiment","SSHSS","2","even","6087","NA","NA","97902","NA","NA","108495","107294","4032","NA","NA","108489","4025","108599","109183","108599","Flanker Task","43","33354","45","yes","1024"
"95.652173913","95.652173913","738.065217391","738.065217391","black","legacy","legacy","legacy","0","Congruent","uniform","1","undefined","1","h","0","0","0","45","45","0","45","45","0","0","0","45","0","45","45","45","09/25/20 20:53:33","1500","The main experiment item","yes","FlankerTask.osexp","C:/Users/solom/Desktop","no","mono","no","18","no","white","no","yes","768","legacy","45","45","C:/Users/solom/Desktop/MW-subject-2.csv","legacy","Lentiform Loewenfeld","3.3.3","0","h","NA","h","NA","NA","h","597","NA","2053","NA","NA","597","2","legacy","1024","2","48000","-16","experiment","HHHHH","2","even","6087","NA","NA","97902","NA","NA","110439","109254","4032","NA","NA","110434","4025","110544","111143","110543","Flanker Task","44","33951","46","yes","1024"
"95.7446808511","95.7446808511","733.14893617","733.14893617","black","legacy","legacy","legacy","0","Congruent","uniform","1","undefined","1","h","0","0","0","46","46","0","46","46","0","0","0","46","0","46","46","46","09/25/20 20:53:33","1500","The main experiment item","yes","FlankerTask.osexp","C:/Users/solom/Desktop","no","mono","no","18","no","white","no","yes","768","legacy","46","46","C:/Users/solom/Desktop/MW-subject-2.csv","legacy","Lentiform Loewenfeld","3.3.3","0","h","NA","h","NA","NA","h","507","NA","2053","NA","NA","507","2","legacy","1024","2","48000","-16","experiment","HHHHH","2","even","6087","NA","NA","97902","NA","NA","112481","111261","4032","NA","NA","112475","4025","112585","113095","112585","Flanker Task","45","34458","47","yes","1024"
"95.8333333333","95.8333333333","730.020833333","730.020833333","black","legacy","legacy","legacy","0","Incongruent","uniform","1","undefined","1","s","0","0","0","47","47","0","47","47","0","0","0","47","0","47","47","47","09/25/20 20:53:33","1500","The main experiment item","yes","FlankerTask.osexp","C:/Users/solom/Desktop","no","mono","no","18","no","white","no","yes","768","legacy","47","47","C:/Users/solom/Desktop/MW-subject-2.csv","legacy","Lentiform Loewenfeld","3.3.3","0","s","NA","h","NA","NA","s","583","NA","2053","NA","NA","583","2","legacy","1024","2","48000","-16","experiment","HHSHH","2","even","6087","NA","NA","97902","NA","NA","114533","113323","4032","NA","NA","114527","4025","114638","115228","114637","Flanker Task","46","35041","48","yes","1024"
"95.9183673469","95.9183673469","726.612244898","726.612244898","black","legacy","legacy","legacy","0","Incongruent","uniform","1","undefined","1","h","0","0","0","48","48","0","48","48","0","0","0","48","0","48","48","48","09/25/20 20:53:33","1500","The main experiment item","yes","FlankerTask.osexp","C:/Users/solom/Desktop","no","mono","no","18","no","white","no","yes","768","legacy","48","48","C:/Users/solom/Desktop/MW-subject-2.csv","legacy","Lentiform Loewenfeld","3.3.3","0","h","NA","h","NA","NA","h","563","NA","2053","NA","NA","563","2","legacy","1024","2","48000","-16","experiment","SSHSS","2","even","6087","NA","NA","97902","NA","NA","116633","115418","4032","NA","NA","116627","4025","116737","117305","116737","Flanker Task","47","35604","49","yes","1024"
"96","96","722.88","722.88","black","legacy","legacy","legacy","0","Incongruent","uniform","1","undefined","1","s","0","0","0","49","49","0","49","49","0","0","0","49","0","49","49","49","09/25/20 20:53:33","1500","The main experiment item","yes","FlankerTask.osexp","C:/Users/solom/Desktop","no","mono","no","18","no","white","no","yes","768","legacy","49","49","C:/Users/solom/Desktop/MW-subject-2.csv","legacy","Lentiform Loewenfeld","3.3.3","0","s","NA","h","NA","NA","s","540","NA","2053","NA","NA","540","2","legacy","1024","2","48000","-16","experiment","HHSHH","2","even","6087","NA","NA","97902","NA","NA","118569","117370","4032","NA","NA","118563","4025","118673","119215","118673","Flanker Task","48","36144","50","yes","1024"
"96.0784313725","96.0784313725","722.450980392","722.450980392","black","legacy","legacy","legacy","0","Incongruent","uniform","1","undefined","1","s","0","0","0","50","50","0","50","50","0","0","0","50","0","50","50","50","09/25/20 20:53:33","1500","The main experiment item","yes","FlankerTask.osexp","C:/Users/solom/Desktop","no","mono","no","18","no","white","no","yes","768","legacy","50","50","C:/Users/solom/Desktop/MW-subject-2.csv","legacy","Lentiform Loewenfeld","3.3.3","0","s","NA","h","NA","NA","s","701","NA","2053","NA","NA","701","2","legacy","1024","2","48000","-16","experiment","HHSHH","2","even","6087","NA","NA","97902","NA","NA","120501","119319","4032","NA","NA","120497","4025","120607","121311","120606","Flanker Task","49","36845","51","yes","1024"
"96.1538461538","96.1538461538","721.980769231","721.980769231","black","legacy","legacy","legacy","0","Incongruent","uniform","1","undefined","1","h","0","0","0","51","51","0","51","51","0","0","0","51","0","51","51","51","09/25/20 20:53:33","1500","The main experiment item","yes","FlankerTask.osexp","C:/Users/solom/Desktop","no","mono","no","18","no","white","no","yes","768","legacy","51","51","C:/Users/solom/Desktop/MW-subject-2.csv","legacy","Lentiform Loewenfeld","3.3.3","0","h","NA","h","NA","NA","h","698","NA","2053","NA","NA","698","2","legacy","1024","2","48000","-16","experiment","SSHSS","2","even","6087","NA","NA","97902","NA","NA","122667","121480","4032","NA","NA","122662","4025","122771","123471","122770","Flanker Task","50","37543","52","yes","1024"
"96.2264150943","96.2264150943","719.301886792","719.301886792","black","legacy","legacy","legacy","0","Congruent","uniform","1","undefined","1","h","0","0","0","52","52","0","52","52","0","0","0","52","0","52","52","52","09/25/20 20:53:33","1500","The main experiment item","yes","FlankerTask.osexp","C:/Users/solom/Desktop","no","mono","no","18","no","white","no","yes","768","legacy","52","52","C:/Users/solom/Desktop/MW-subject-2.csv","legacy","Lentiform Loewenfeld","3.3.3","0","h","NA","h","NA","NA","h","580","NA","2053","NA","NA","580","2","legacy","1024","2","48000","-16","experiment","HHHHH","2","even","6087","NA","NA","97902","NA","NA","124737","123548","4032","NA","NA","124731","4025","124841","125423","124841","Flanker Task","51","38123","53","yes","1024"
"96.2962962963","96.2962962963","715.62962963","715.62962963","black","legacy","legacy","legacy","0","Congruent","uniform","1","undefined","1","h","0","0","0","53","53","0","53","53","0","0","0","53","0","53","53","53","09/25/20 20:53:33","1500","The main experiment item","yes","FlankerTask.osexp","C:/Users/solom/Desktop","no","mono","no","18","no","white","no","yes","768","legacy","53","53","C:/Users/solom/Desktop/MW-subject-2.csv","legacy","Lentiform Loewenfeld","3.3.3","0","h","NA","h","NA","NA","h","521","NA","2053","NA","NA","521","2","legacy","1024","2","48000","-16","experiment","HHHHH","2","even","6087","NA","NA","97902","NA","NA","126692","125486","4032","NA","NA","126686","4025","126796","127319","126796","Flanker Task","52","38644","54","yes","1024"
"96.3636363636","96.3636363636","712.072727273","712.072727273","black","legacy","legacy","legacy","0","Incongruent","uniform","1","undefined","1","h","0","0","0","54","54","0","54","54","0","0","0","54","0","54","54","54","09/25/20 20:53:33","1500","The main experiment item","yes","FlankerTask.osexp","C:/Users/solom/Desktop","no","mono","no","18","no","white","no","yes","768","legacy","54","54","C:/Users/solom/Desktop/MW-subject-2.csv","legacy","Lentiform Loewenfeld","3.3.3","0","h","NA","h","NA","NA","h","520","NA","2053","NA","NA","520","2","legacy","1024","2","48000","-16","experiment","SSHSS","2","even","6087","NA","NA","97902","NA","NA","128573","127378","4032","NA","NA","128567","4025","128677","129199","128677","Flanker Task","53","39164","55","yes","1024"
"96.4285714286","96.4285714286","709.410714286","709.410714286","black","legacy","legacy","legacy","0","Congruent","uniform","1","undefined","1","s","0","0","0","55","55","0","55","55","0","0","0","55","0","55","55","55","09/25/20 20:53:33","1500","The main experiment item","yes","FlankerTask.osexp","C:/Users/solom/Desktop","no","mono","no","18","no","white","no","yes","768","legacy","55","55","C:/Users/solom/Desktop/MW-subject-2.csv","legacy","Lentiform Loewenfeld","3.3.3","0","s","NA","h","NA","NA","s","563","NA","2053","NA","NA","563","2","legacy","1024","2","48000","-16","experiment","SSSSS","2","even","6087","NA","NA","97902","NA","NA","130457","129266","4032","NA","NA","130452","4025","130562","131128","130562","Flanker Task","54","39727","56","yes","1024"
"96.4912280702","96.4912280702","706.526315789","706.526315789","black","legacy","legacy","legacy","0","Incongruent","uniform","1","undefined","1","s","0","0","0","56","56","0","56","56","0","0","0","56","0","56","56","56","09/25/20 20:53:33","1500","The main experiment item","yes","FlankerTask.osexp","C:/Users/solom/Desktop","no","mono","no","18","no","white","no","yes","768","legacy","56","56","C:/Users/solom/Desktop/MW-subject-2.csv","legacy","Lentiform Loewenfeld","3.3.3","0","s","NA","h","NA","NA","s","545","NA","2053","NA","NA","545","2","legacy","1024","2","48000","-16","experiment","HHSHH","2","even","6087","NA","NA","97902","NA","NA","132434","131231","4032","NA","NA","132429","4025","132539","133087","132539","Flanker Task","55","40272","57","yes","1024"
"96.5517241379","96.5517241379","702.706896552","702.706896552","black","legacy","legacy","legacy","0","Incongruent","uniform","1","undefined","1","s","0","0","0","57","57","0","57","57","0","0","0","57","0","57","57","57","09/25/20 20:53:33","1500","The main experiment item","yes","FlankerTask.osexp","C:/Users/solom/Desktop","no","mono","no","18","no","white","no","yes","768","legacy","57","57","C:/Users/solom/Desktop/MW-subject-2.csv","legacy","Lentiform Loewenfeld","3.3.3","0","s","NA","h","NA","NA","s","485","NA","2053","NA","NA","485","2","legacy","1024","2","48000","-16","experiment","HHSHH","2","even","6087","NA","NA","97902","NA","NA","134343","133143","4032","NA","NA","134337","4025","134447","134935","134447","Flanker Task","56","40757","58","yes","1024"
"96.6101694915","96.6101694915","699.050847458","699.050847458","black","legacy","legacy","legacy","0","Incongruent","uniform","1","undefined","1","s","0","0","0","58","58","0","58","58","0","0","0","58","0","58","58","58","09/25/20 20:53:33","1500","The main experiment item","yes","FlankerTask.osexp","C:/Users/solom/Desktop","no","mono","no","18","no","white","no","yes","768","legacy","58","58","C:/Users/solom/Desktop/MW-subject-2.csv","legacy","Lentiform Loewenfeld","3.3.3","0","s","NA","h","NA","NA","s","487","NA","2053","NA","NA","487","2","legacy","1024","2","48000","-16","experiment","HHSHH","2","even","6087","NA","NA","97902","NA","NA","136238","135028","4032","NA","NA","136232","4025","136342","136831","136342","Flanker Task","57","41244","59","yes","1024"
"96.6666666667","96.6666666667","698.683333333","698.683333333","black","legacy","legacy","legacy","0","Congruent","uniform","1","undefined","1","s","0","0","0","59","59","0","59","59","0","0","0","59","0","59","59","59","09/25/20 20:53:33","1500","The main experiment item","yes","FlankerTask.osexp","C:/Users/solom/Desktop","no","mono","no","18","no","white","no","yes","768","legacy","59","59","C:/Users/solom/Desktop/MW-subject-2.csv","legacy","Lentiform Loewenfeld","3.3.3","0","s","NA","h","NA","NA","s","677","NA","2053","NA","NA","677","2","legacy","1024","2","48000","-16","experiment","SSSSS","2","even","6087","NA","NA","97902","NA","NA","138119","136922","4032","NA","NA","138113","4025","138223","138903","138223","Flanker Task","58","41921","60","yes","1024"
"96.7213114754","96.7213114754","696.37704918","696.37704918","black","legacy","legacy","legacy","0","Congruent","uniform","1","undefined","1","h","0","0","0","60","60","0","60","60","0","0","0","60","0","60","60","60","09/25/20 20:53:33","1500","The main experiment item","yes","FlankerTask.osexp","C:/Users/solom/Desktop","no","mono","no","18","no","white","no","yes","768","legacy","60","60","C:/Users/solom/Desktop/MW-subject-2.csv","legacy","Lentiform Loewenfeld","3.3.3","0","h","NA","h","NA","NA","h","558","NA","2053","NA","NA","558","2","legacy","1024","2","48000","-16","experiment","HHHHH","2","even","6087","NA","NA","97902","NA","NA","140195","139005","4032","NA","NA","140191","4025","140302","140863","140302","Flanker Task","59","42479","61","yes","1024"
"96.7741935484","96.7741935484","692.403225806","692.403225806","black","legacy","legacy","legacy","0","Incongruent","uniform","1","undefined","1","h","0","0","0","61","61","0","61","61","0","0","0","61","0","61","61","61","09/25/20 20:53:33","1500","The main experiment item","yes","FlankerTask.osexp","C:/Users/solom/Desktop","no","mono","no","18","no","white","no","yes","768","legacy","61","61","C:/Users/solom/Desktop/MW-subject-2.csv","legacy","Lentiform Loewenfeld","3.3.3","0","h","NA","h","NA","NA","h","450","NA","2053","NA","NA","450","2","legacy","1024","2","48000","-16","experiment","SSHSS","2","even","6087","NA","NA","97902","NA","NA","142146","140961","4032","NA","NA","142141","4025","142250","142703","142250","Flanker Task","60","42929","62","yes","1024"
"96.8253968254","96.8253968254","688.46031746","688.46031746","black","legacy","legacy","legacy","0","Congruent","uniform","1","undefined","1","s","0","0","0","62","62","0","62","62","0","0","0","62","0","62","62","62","09/25/20 20:53:33","1500","The main experiment item","yes","FlankerTask.osexp","C:/Users/solom/Desktop","no","mono","no","18","no","white","no","yes","768","legacy","62","62","C:/Users/solom/Desktop/MW-subject-2.csv","legacy","Lentiform Loewenfeld","3.3.3","0","s","NA","h","NA","NA","s","444","NA","2053","NA","NA","444","2","legacy","1024","2","48000","-16","experiment","SSSSS","2","even","6087","NA","NA","97902","NA","NA","143962","142764","4032","NA","NA","143957","4025","144065","144512","144065","Flanker Task","61","43373","63","yes","1024"
"96.875","96.875","686.125","686.125","black","legacy","legacy","legacy","0","Congruent","uniform","1","undefined","1","h","0","0","0","63","63","0","63","63","0","0","0","63","0","63","63","63","09/25/20 20:53:33","1500","The main experiment item","yes","FlankerTask.osexp","C:/Users/solom/Desktop","no","mono","no","18","no","white","no","yes","768","legacy","63","63","C:/Users/solom/Desktop/MW-subject-2.csv","legacy","Lentiform Loewenfeld","3.3.3","0","h","NA","h","NA","NA","h","539","NA","2053","NA","NA","539","2","legacy","1024","2","48000","-16","experiment","HHHHH","2","even","6087","NA","NA","97902","NA","NA","145865","144648","4032","NA","NA","145858","4025","145970","146512","145969","Flanker Task","62","43912","64","yes","1024"
"96.9230769231","96.9230769231","683.523076923","683.523076923","black","legacy","legacy","legacy","0","Congruent","uniform","1","undefined","1","s","0","0","0","64","64","0","64","64","0","0","0","64","0","64","64","64","09/25/20 20:53:33","1500","The main experiment item","yes","FlankerTask.osexp","C:/Users/solom/Desktop","no","mono","no","18","no","white","no","yes","768","legacy","64","64","C:/Users/solom/Desktop/MW-subject-2.csv","legacy","Lentiform Loewenfeld","3.3.3","0","s","NA","h","NA","NA","s","517","NA","2053","NA","NA","517","2","legacy","1024","2","48000","-16","experiment","SSSSS","2","even","6087","NA","NA","97902","NA","NA","147806","146587","4032","NA","NA","147801","4025","147911","148431","147911","Flanker Task","63","44429","65","yes","1024"
"95.4545454545","95.4545454545","681.727272727","681.727272727","black","legacy","legacy","legacy","0","Incongruent","uniform","0","undefined","0","s","0","0","0","65","65","0","65","65","0","0","0","65","0","65","65","65","09/25/20 20:53:33","1500","The main experiment item","yes","FlankerTask.osexp","C:/Users/solom/Desktop","no","mono","no","18","no","white","no","yes","768","legacy","65","65","C:/Users/solom/Desktop/MW-subject-2.csv","legacy","Lentiform Loewenfeld","3.3.3","0","h","NA","h","NA","NA","h","565","NA","2053","NA","NA","565","2","legacy","1024","2","48000","-16","experiment","HHSHH","2","even","6087","NA","NA","97902","NA","NA","149736","148547","4032","NA","NA","149731","4025","149840","150408","149840","Flanker Task","63","44994","66","yes","1024"
"95.5223880597","95.5223880597","680.910447761","680.910447761","black","legacy","legacy","legacy","0","Incongruent","uniform","1","undefined","1","h","0","0","0","66","66","0","66","66","0","0","0","66","0","66","66","66","09/25/20 20:53:33","1500","The main experiment item","yes","FlankerTask.osexp","C:/Users/solom/Desktop","no","mono","no","18","no","white","no","yes","768","legacy","66","66","C:/Users/solom/Desktop/MW-subject-2.csv","legacy","Lentiform Loewenfeld","3.3.3","0","h","NA","h","NA","NA","h","627","NA","2053","NA","NA","627","2","legacy","1024","2","48000","-16","experiment","SSHSS","2","even","6087","NA","NA","150489","NA","NA","152192","150994","4032","NA","NA","152186","4025","152297","152928","152296","Flanker Task","64","45621","67","yes","1024"
"95.5882352941","95.5882352941","679.220588235","679.220588235","black","legacy","legacy","legacy","0","Incongruent","uniform","1","undefined","1","s","0","0","0","67","67","0","67","67","0","0","0","67","0","67","67","67","09/25/20 20:53:33","1500","The main experiment item","yes","FlankerTask.osexp","C:/Users/solom/Desktop","no","mono","no","18","no","white","no","yes","768","legacy","67","67","C:/Users/solom/Desktop/MW-subject-2.csv","legacy","Lentiform Loewenfeld","3.3.3","0","s","NA","h","NA","NA","s","566","NA","2053","NA","NA","566","2","legacy","1024","2","48000","-16","experiment","HHSHH","2","even","6087","NA","NA","150489","NA","NA","154191","152965","4032","NA","NA","154185","4025","154295","154865","154295","Flanker Task","65","46187","68","yes","1024"
"95.652173913","95.652173913","677.52173913","677.52173913","black","legacy","legacy","legacy","0","Congruent","uniform","1","undefined","1","s","0","0","0","68","68","0","68","68","0","0","0","68","0","68","68","68","09/25/20 20:53:33","1500","The main experiment item","yes","FlankerTask.osexp","C:/Users/solom/Desktop","no","mono","no","18","no","white","no","yes","768","legacy","68","68","C:/Users/solom/Desktop/MW-subject-2.csv","legacy","Lentiform Loewenfeld","3.3.3","0","s","NA","h","NA","NA","s","562","NA","2053","NA","NA","562","2","legacy","1024","2","48000","-16","experiment","SSSSS","2","even","6087","NA","NA","150489","NA","NA","156140","154936","4032","NA","NA","156133","4025","156245","156812","156244","Flanker Task","66","46749","69","yes","1024"
"95.7142857143","95.7142857143","676.842857143","676.842857143","black","legacy","legacy","legacy","0","Incongruent","uniform","1","undefined","1","h","0","0","0","69","69","0","69","69","0","0","0","69","0","69","69","69","09/25/20 20:53:33","1500","The main experiment item","yes","FlankerTask.osexp","C:/Users/solom/Desktop","no","mono","no","18","no","white","no","yes","768","legacy","69","69","C:/Users/solom/Desktop/MW-subject-2.csv","legacy","Lentiform Loewenfeld","3.3.3","0","h","NA","h","NA","NA","h","630","NA","2053","NA","NA","630","2","legacy","1024","2","48000","-16","experiment","SSHSS","2","even","6087","NA","NA","150489","NA","NA","158062","156851","4032","NA","NA","158056","4025","158166","158799","158166","Flanker Task","67","47379","70","yes","1024"
"95.7746478873","95.7746478873","675.154929577","675.154929577","black","legacy","legacy","legacy","0","Congruent","uniform","1","undefined","1","h","0","0","0","70","70","0","70","70","0","0","0","70","0","70","70","70","09/25/20 20:53:33","1500","The main experiment item","yes","FlankerTask.osexp","C:/Users/solom/Desktop","no","mono","no","18","no","white","no","yes","768","legacy","70","70","C:/Users/solom/Desktop/MW-subject-2.csv","legacy","Lentiform Loewenfeld","3.3.3","0","h","NA","h","NA","NA","h","557","NA","2053","NA","NA","557","2","legacy","1024","2","48000","-16","experiment","HHHHH","2","even","6087","NA","NA","150489","NA","NA","160527","159318","4032","NA","NA","160522","4025","160631","161193","160630","Flanker Task","68","47936","71","yes","1024"
"95.8333333333","95.8333333333","673.666666667","673.666666667","black","legacy","legacy","legacy","0","Congruent","uniform","1","undefined","1","s","0","0","0","71","71","0","71","71","0","0","0","71","0","71","71","71","09/25/20 20:53:33","1500","The main experiment item","yes","FlankerTask.osexp","C:/Users/solom/Desktop","no","mono","no","18","no","white","no","yes","768","legacy","71","71","C:/Users/solom/Desktop/MW-subject-2.csv","legacy","Lentiform Loewenfeld","3.3.3","0","s","NA","h","NA","NA","s","568","NA","2053","NA","NA","568","2","legacy","1024","2","48000","-16","experiment","SSSSS","2","even","6087","NA","NA","150489","NA","NA","162844","161653","4032","NA","NA","162839","4025","162949","163520","162949","Flanker Task","69","48504","72","yes","1024"
"95.8904109589","95.8904109589","671.465753425","671.465753425","black","legacy","legacy","legacy","0","Incongruent","uniform","1","undefined","1","s","0","0","0","72","72","0","72","72","0","0","0","72","0","72","72","72","09/25/20 20:53:33","1500","The main experiment item","yes","FlankerTask.osexp","C:/Users/solom/Desktop","no","mono","no","18","no","white","no","yes","768","legacy","72","72","C:/Users/solom/Desktop/MW-subject-2.csv","legacy","Lentiform Loewenfeld","3.3.3","0","s","NA","h","NA","NA","s","513","NA","2053","NA","NA","513","2","legacy","1024","2","48000","-16","experiment","HHSHH","2","even","6087","NA","NA","150489","NA","NA","165121","163914","4032","NA","NA","165115","4025","165227","165748","165226","Flanker Task","70","49017","73","yes","1024"
"95.9459459459","95.9459459459","669.283783784","669.283783784","black","legacy","legacy","legacy","0","Congruent","uniform","1","undefined","1","s","0","0","0","73","73","0","73","73","0","0","0","73","0","73","73","73","09/25/20 20:53:33","1500","The main experiment item","yes","FlankerTask.osexp","C:/Users/solom/Desktop","no","mono","no","18","no","white","no","yes","768","legacy","73","73","C:/Users/solom/Desktop/MW-subject-2.csv","legacy","Lentiform Loewenfeld","3.3.3","0","s","NA","h","NA","NA","s","510","NA","2053","NA","NA","510","2","legacy","1024","2","48000","-16","experiment","SSSSS","2","even","6087","NA","NA","150489","NA","NA","167039","165828","4032","NA","NA","167033","4025","167143","167657","167143","Flanker Task","71","49527","74","yes","1024"
"96","96","667","667","black","legacy","legacy","legacy","0","Congruent","uniform","1","undefined","1","s","0","0","0","74","74","0","74","74","0","0","0","74","0","74","74","74","09/25/20 20:53:33","1500","The main experiment item","yes","FlankerTask.osexp","C:/Users/solom/Desktop","no","mono","no","18","no","white","no","yes","768","legacy","74","74","C:/Users/solom/Desktop/MW-subject-2.csv","legacy","Lentiform Loewenfeld","3.3.3","0","s","NA","h","NA","NA","s","498","NA","2053","NA","NA","498","2","legacy","1024","2","48000","-16","experiment","SSSSS","2","even","6087","NA","NA","150489","NA","NA","169291","168096","4032","NA","NA","169286","4025","169394","169896","169394","Flanker Task","72","50025","75","yes","1024"
"96.0526315789","96.0526315789","665.5","665.5","black","legacy","legacy","legacy","0","Congruent","uniform","1","undefined","1","s","0","0","0","75","75","0","75","75","0","0","0","75","0","75","75","75","09/25/20 20:53:33","1500","The main experiment item","yes","FlankerTask.osexp","C:/Users/solom/Desktop","no","mono","no","18","no","white","no","yes","768","legacy","75","75","C:/Users/solom/Desktop/MW-subject-2.csv","legacy","Lentiform Loewenfeld","3.3.3","0","s","NA","h","NA","NA","s","553","NA","2053","NA","NA","553","2","legacy","1024","2","48000","-16","experiment","SSSSS","2","even","6087","NA","NA","150489","NA","NA","171212","170006","4032","NA","NA","171205","4025","171316","171872","171316","Flanker Task","73","50578","76","yes","1024"
"96.1038961039","96.1038961039","663.818181818","663.818181818","black","legacy","legacy","legacy","0","Congruent","uniform","1","undefined","1","h","0","0","0","76","76","0","76","76","0","0","0","76","0","76","76","76","09/25/20 20:53:33","1500","The main experiment item","yes","FlankerTask.osexp","C:/Users/solom/Desktop","no","mono","no","18","no","white","no","yes","768","legacy","76","76","C:/Users/solom/Desktop/MW-subject-2.csv","legacy","Lentiform Loewenfeld","3.3.3","0","h","NA","h","NA","NA","h","536","NA","2053","NA","NA","536","2","legacy","1024","2","48000","-16","experiment","HHHHH","2","even","6087","NA","NA","150489","NA","NA","173142","171948","4032","NA","NA","173137","4025","173246","173786","173246","Flanker Task","74","51114","77","yes","1024"
"96.1538461538","96.1538461538","662.384615385","662.384615385","black","legacy","legacy","legacy","0","Congruent","uniform","1","undefined","1","s","0","0","0","77","77","0","77","77","0","0","0","77","0","77","77","77","09/25/20 20:53:33","1500","The main experiment item","yes","FlankerTask.osexp","C:/Users/solom/Desktop","no","mono","no","18","no","white","no","yes","768","legacy","77","77","C:/Users/solom/Desktop/MW-subject-2.csv","legacy","Lentiform Loewenfeld","3.3.3","0","s","NA","h","NA","NA","s","552","NA","2053","NA","NA","552","2","legacy","1024","2","48000","-16","experiment","SSSSS","2","even","6087","NA","NA","150489","NA","NA","175029","173830","4032","NA","NA","175023","4025","175133","175688","175133","Flanker Task","75","51666","78","yes","1024"
"96.2025316456","96.2025316456","661.265822785","661.265822785","black","legacy","legacy","legacy","0","Incongruent","uniform","1","undefined","1","s","0","0","0","78","78","0","78","78","0","0","0","78","0","78","78","78","09/25/20 20:53:33","1500","The main experiment item","yes","FlankerTask.osexp","C:/Users/solom/Desktop","no","mono","no","18","no","white","no","yes","768","legacy","78","78","C:/Users/solom/Desktop/MW-subject-2.csv","legacy","Lentiform Loewenfeld","3.3.3","0","s","NA","h","NA","NA","s","574","NA","2053","NA","NA","574","2","legacy","1024","2","48000","-16","experiment","HHSHH","2","even","6087","NA","NA","150489","NA","NA","176959","175740","4032","NA","NA","176953","4025","177063","177641","177063","Flanker Task","76","52240","79","yes","1024"
"96.25","96.25","660.0625","660.0625","black","legacy","legacy","legacy","0","Incongruent","uniform","1","undefined","1","s","0","0","0","79","79","0","79","79","0","0","0","79","0","79","79","79","09/25/20 20:53:33","1500","The main experiment item","yes","FlankerTask.osexp","C:/Users/solom/Desktop","no","mono","no","18","no","white","no","yes","768","legacy","79","79","C:/Users/solom/Desktop/MW-subject-2.csv","legacy","Lentiform Loewenfeld","3.3.3","0","s","NA","h","NA","NA","s","565","NA","2053","NA","NA","565","2","legacy","1024","2","48000","-16","experiment","HHSHH","2","even","6087","NA","NA","150489","NA","NA","178895","177689","4032","NA","NA","178890","4025","178999","179568","178999","Flanker Task","77","52805","80","yes","1024"
"96.2962962963","96.2962962963","664.567901235","664.567901235","black","legacy","legacy","legacy","0","Incongruent","uniform","1","undefined","1","h","0","0","0","80","80","0","80","80","0","0","0","80","0","80","80","80","09/25/20 20:53:33","600","The main experiment item","yes","FlankerTask.osexp","C:/Users/solom/Desktop","no","mono","no","18","no","white","no","yes","768","legacy","0","79","C:/Users/solom/Desktop/MW-subject-2.csv","legacy","Lentiform Loewenfeld","3.3.3","0","h","NA","h","h","NA","h","1025","NA","2053","9756","NA","1025","2","legacy","1024","2","48000","-16","experiment","SSHSS","2","even","6087","190448","NA","150489","NA","NA","190652","179651","4032","180688","NA","190648","4025","190756","191785","190756","Flanker Task","78","53830","81","yes","1024"
"96.3414634146","96.3414634146","662.5","662.5","black","legacy","legacy","legacy","0","Incongruent","uniform","1","undefined","1","h","0","0","0","81","81","0","81","81","0","0","0","81","0","81","81","81","09/25/20 20:53:33","600","The main experiment item","yes","FlankerTask.osexp","C:/Users/solom/Desktop","no","mono","no","18","no","white","no","yes","768","legacy","1","79","C:/Users/solom/Desktop/MW-subject-2.csv","legacy","Lentiform Loewenfeld","3.3.3","0","h","NA","h","h","NA","h","495","NA","2053","9756","NA","495","2","legacy","1024","2","48000","-16","experiment","SSHSS","2","even","6087","190448","NA","150489","191855","NA","193574","192359","4032","180688","NA","193568","4025","193678","194178","193678","Flanker Task","79","54325","82","yes","1024"
"96.3855421687","96.3855421687","660.855421687","660.855421687","black","legacy","legacy","legacy","0","Incongruent","uniform","1","undefined","1","h","0","0","0","82","82","0","82","82","0","0","0","82","0","82","82","82","09/25/20 20:53:33","600","The main experiment item","yes","FlankerTask.osexp","C:/Users/solom/Desktop","no","mono","no","18","no","white","no","yes","768","legacy","2","79","C:/Users/solom/Desktop/MW-subject-2.csv","legacy","Lentiform Loewenfeld","3.3.3","0","h","NA","h","h","NA","h","526","NA","2053","9756","NA","526","2","legacy","1024","2","48000","-16","experiment","SSHSS","2","even","6087","190448","NA","150489","191855","NA","195437","194225","4032","180688","NA","195431","4025","195543","196072","195542","Flanker Task","80","54851","83","yes","1024"
"96.4285714286","96.4285714286","657.642857143","657.642857143","black","legacy","legacy","legacy","0","Incongruent","uniform","1","undefined","1","h","0","0","0","83","83","0","83","83","0","0","0","83","0","83","83","83","09/25/20 20:53:33","600","The main experiment item","yes","FlankerTask.osexp","C:/Users/solom/Desktop","no","mono","no","18","no","white","no","yes","768","legacy","3","79","C:/Users/solom/Desktop/MW-subject-2.csv","legacy","Lentiform Loewenfeld","3.3.3","0","h","NA","h","h","NA","h","391","NA","2053","9756","NA","391","2","legacy","1024","2","48000","-16","experiment","SSHSS","2","even","6087","190448","NA","150489","191855","NA","197342","196129","4032","180688","NA","197336","4025","197446","197841","197446","Flanker Task","81","55242","84","yes","1024"
"96.4705882353","96.4705882353","655.717647059","655.717647059","black","legacy","legacy","legacy","0","Congruent","uniform","1","undefined","1","s","0","0","0","84","84","0","84","84","0","0","0","84","0","84","84","84","09/25/20 20:53:33","600","The main experiment item","yes","FlankerTask.osexp","C:/Users/solom/Desktop","no","mono","no","18","no","white","no","yes","768","legacy","4","79","C:/Users/solom/Desktop/MW-subject-2.csv","legacy","Lentiform Loewenfeld","3.3.3","0","s","NA","h","h","NA","s","494","NA","2053","9756","NA","494","2","legacy","1024","2","48000","-16","experiment","SSSSS","2","even","6087","190448","NA","150489","191855","NA","199108","197905","4032","180688","NA","199104","4025","199214","199712","199214","Flanker Task","82","55736","85","yes","1024"
"96.511627907","96.511627907","654.790697674","654.790697674","black","legacy","legacy","legacy","0","Incongruent","uniform","1","undefined","1","s","0","0","0","85","85","0","85","85","0","0","0","85","0","85","85","85","09/25/20 20:53:33","600","The main experiment item","yes","FlankerTask.osexp","C:/Users/solom/Desktop","no","mono","no","18","no","white","no","yes","768","legacy","5","79","C:/Users/solom/Desktop/MW-subject-2.csv","legacy","Lentiform Loewenfeld","3.3.3","0","s","NA","h","h","NA","s","576","NA","2053","9756","NA","576","2","legacy","1024","2","48000","-16","experiment","HHSHH","2","even","6087","190448","NA","150489","191855","NA","200981","199780","4032","180688","NA","200975","4025","201085","201665","201085","Flanker Task","83","56312","86","yes","1024"
"96.5517241379","96.5517241379","654.298850575","654.298850575","black","legacy","legacy","legacy","0","Incongruent","uniform","1","undefined","1","h","0","0","0","86","86","0","86","86","0","0","0","86","0","86","86","86","09/25/20 20:53:33","600","The main experiment item","yes","FlankerTask.osexp","C:/Users/solom/Desktop","no","mono","no","18","no","white","no","yes","768","legacy","6","79","C:/Users/solom/Desktop/MW-subject-2.csv","legacy","Lentiform Loewenfeld","3.3.3","0","h","NA","h","h","NA","h","612","NA","2053","9756","NA","612","2","legacy","1024","2","48000","-16","experiment","SSHSS","2","even","6087","190448","NA","150489","191855","NA","202951","201761","4032","180688","NA","202946","4025","203056","203672","203056","Flanker Task","84","56924","87","yes","1024"
"96.5909090909","96.5909090909","654.352272727","654.352272727","black","legacy","legacy","legacy","0","Incongruent","uniform","1","undefined","1","s","0","0","0","87","87","0","87","87","0","0","0","87","0","87","87","87","09/25/20 20:53:33","600","The main experiment item","yes","FlankerTask.osexp","C:/Users/solom/Desktop","no","mono","no","18","no","white","no","yes","768","legacy","7","79","C:/Users/solom/Desktop/MW-subject-2.csv","legacy","Lentiform Loewenfeld","3.3.3","0","s","NA","h","h","NA","s","659","NA","2053","9756","NA","659","2","legacy","1024","2","48000","-16","experiment","HHSHH","2","even","6087","190448","NA","150489","203714","NA","205409","204219","4032","180688","NA","205404","4025","205513","206176","205513","Flanker Task","85","57583","88","yes","1024"
"96.6292134831","96.6292134831","651.460674157","651.460674157","black","legacy","legacy","legacy","0","Congruent","uniform","1","undefined","1","h","0","0","0","88","88","0","88","88","0","0","0","88","0","88","88","88","09/25/20 20:53:33","600","The main experiment item","yes","FlankerTask.osexp","C:/Users/solom/Desktop","no","mono","no","18","no","white","no","yes","768","legacy","8","79","C:/Users/solom/Desktop/MW-subject-2.csv","legacy","Lentiform Loewenfeld","3.3.3","0","h","NA","h","h","NA","h","397","NA","2053","9756","NA","397","2","legacy","1024","2","48000","-16","experiment","HHHHH","2","even","6087","190448","NA","150489","206264","NA","207974","206767","4032","180688","NA","207969","4025","208079","208480","208079","Flanker Task","86","57980","89","yes","1024"
"96.6666666667","96.6666666667","650.655555556","650.655555556","black","legacy","legacy","legacy","0","Congruent","uniform","1","undefined","1","h","0","0","0","89","89","0","89","89","0","0","0","89","0","89","89","89","09/25/20 20:53:33","600","The main experiment item","yes","FlankerTask.osexp","C:/Users/solom/Desktop","no","mono","no","18","no","white","no","yes","768","legacy","9","79","C:/Users/solom/Desktop/MW-subject-2.csv","legacy","Lentiform Loewenfeld","3.3.3","0","h","NA","h","h","NA","h","579","NA","2053","9756","NA","579","2","legacy","1024","2","48000","-16","experiment","HHHHH","2","even","6087","190448","NA","150489","206264","NA","209784","208573","4032","180688","NA","209778","4025","209889","210472","209888","Flanker Task","87","58559","90","yes","1024"
"96.7032967033","96.7032967033","649.043956044","649.043956044","black","legacy","legacy","legacy","0","Congruent","uniform","1","undefined","1","s","0","0","0","90","90","0","90","90","0","0","0","90","0","90","90","90","09/25/20 20:53:33","600","The main experiment item","yes","FlankerTask.osexp","C:/Users/solom/Desktop","no","mono","no","18","no","white","no","yes","768","legacy","10","79","C:/Users/solom/Desktop/MW-subject-2.csv","legacy","Lentiform Loewenfeld","3.3.3","0","s","NA","h","h","NA","s","504","NA","2053","9756","NA","504","2","legacy","1024","2","48000","-16","experiment","SSSSS","2","even","6087","190448","NA","150489","206264","NA","211788","210580","4032","180688","NA","211783","4025","211892","212400","211891","Flanker Task","88","59063","91","yes","1024"
"96.7391304348","96.7391304348","646.413043478","646.413043478","black","legacy","legacy","legacy","0","Congruent","uniform","1","undefined","1","s","0","0","0","91","91","0","91","91","0","0","0","91","0","91","91","91","09/25/20 20:53:33","600","The main experiment item","yes","FlankerTask.osexp","C:/Users/solom/Desktop","no","mono","no","18","no","white","no","yes","768","legacy","11","79","C:/Users/solom/Desktop/MW-subject-2.csv","legacy","Lentiform Loewenfeld","3.3.3","0","s","NA","h","h","NA","s","407","NA","2053","9756","NA","407","2","legacy","1024","2","48000","-16","experiment","SSSSS","2","even","6087","190448","NA","150489","206264","NA","213781","212597","4032","180688","NA","213776","4025","213885","214297","213885","Flanker Task","89","59470","92","yes","1024"
"96.7741935484","96.7741935484","643.655913978","643.655913978","black","legacy","legacy","legacy","0","Congruent","uniform","1","undefined","1","s","0","0","0","92","92","0","92","92","0","0","0","92","0","92","92","92","09/25/20 20:53:33","600","The main experiment item","yes","FlankerTask.osexp","C:/Users/solom/Desktop","no","mono","no","18","no","white","no","yes","768","legacy","12","79","C:/Users/solom/Desktop/MW-subject-2.csv","legacy","Lentiform Loewenfeld","3.3.3","0","s","NA","h","h","NA","s","390","NA","2053","9756","NA","390","2","legacy","1024","2","48000","-16","experiment","SSSSS","2","even","6087","190448","NA","150489","206264","NA","215670","214474","4032","180688","NA","215665","4025","215774","216169","215774","Flanker Task","90","59860","93","yes","1024"
"96.8085106383","96.8085106383","640.638297872","640.638297872","black","legacy","legacy","legacy","0","Congruent","uniform","1","undefined","1","s","0","0","0","93","93","0","93","93","0","0","0","93","0","93","93","93","09/25/20 20:53:33","600","The main experiment item","yes","FlankerTask.osexp","C:/Users/solom/Desktop","no","mono","no","18","no","white","no","yes","768","legacy","13","79","C:/Users/solom/Desktop/MW-subject-2.csv","legacy","Lentiform Loewenfeld","3.3.3","0","s","NA","h","h","NA","s","360","NA","2053","9756","NA","360","2","legacy","1024","2","48000","-16","experiment","SSSSS","2","even","6087","190448","NA","150489","206264","NA","217515","216320","4032","180688","NA","217510","4025","217620","217984","217620","Flanker Task","91","60220","94","yes","1024"
"96.8421052632","96.8421052632","641.284210526","641.284210526","black","legacy","legacy","legacy","0","Incongruent","uniform","1","undefined","1","s","0","0","0","94","94","0","94","94","0","0","0","94","0","94","94","94","09/25/20 20:53:33","600","The main experiment item","yes","FlankerTask.osexp","C:/Users/solom/Desktop","no","mono","no","18","no","white","no","yes","768","legacy","14","79","C:/Users/solom/Desktop/MW-subject-2.csv","legacy","Lentiform Loewenfeld","3.3.3","0","s","NA","h","h","NA","s","702","NA","2053","9756","NA","702","2","legacy","1024","2","48000","-16","experiment","HHSHH","2","even","6087","190448","NA","150489","206264","NA","219245","218026","4032","180688","NA","219240","4025","219350","220057","219350","Flanker Task","92","60922","95","yes","1024"
"96.875","96.875","639.875","639.875","black","legacy","legacy","legacy","0","Congruent","uniform","1","undefined","1","h","0","0","0","95","95","0","95","95","0","0","0","95","0","95","95","95","09/25/20 20:53:33","600","The main experiment item","yes","FlankerTask.osexp","C:/Users/solom/Desktop","no","mono","no","18","no","white","no","yes","768","legacy","15","79","C:/Users/solom/Desktop/MW-subject-2.csv","legacy","Lentiform Loewenfeld","3.3.3","0","h","NA","h","h","NA","h","506","NA","2053","9756","NA","506","2","legacy","1024","2","48000","-16","experiment","HHHHH","2","even","6087","190448","NA","150489","220151","NA","221882","220655","4032","180688","NA","221876","4025","221986","222496","221986","Flanker Task","93","61428","96","yes","1024"
"96.9072164948","96.9072164948","639.360824742","639.360824742","black","legacy","legacy","legacy","0","Incongruent","uniform","1","undefined","1","h","0","0","0","96","96","0","96","96","0","0","0","96","0","96","96","96","09/25/20 20:53:33","600","The main experiment item","yes","FlankerTask.osexp","C:/Users/solom/Desktop","no","mono","no","18","no","white","no","yes","768","legacy","16","79","C:/Users/solom/Desktop/MW-subject-2.csv","legacy","Lentiform Loewenfeld","3.3.3","0","h","NA","h","h","NA","h","590","NA","2053","9756","NA","590","2","legacy","1024","2","48000","-16","experiment","SSHSS","2","even","6087","190448","NA","150489","220151","NA","223758","222537","4032","180688","NA","223752","4025","223862","224459","223861","Flanker Task","94","62018","97","yes","1024"
"95.9183673469","95.9183673469","637.530612245","637.530612245","black","legacy","legacy","legacy","0","Incongruent","uniform","0","undefined","0","s","0","0","0","97","97","0","97","97","0","0","0","97","0","97","97","97","09/25/20 20:53:33","600","The main experiment item","yes","FlankerTask.osexp","C:/Users/solom/Desktop","no","mono","no","18","no","white","no","yes","768","legacy","17","79","C:/Users/solom/Desktop/MW-subject-2.csv","legacy","Lentiform Loewenfeld","3.3.3","0","h","NA","h","h","NA","h","460","NA","2053","9756","NA","460","2","legacy","1024","2","48000","-16","experiment","HHSHH","2","even","6087","190448","NA","150489","220151","NA","225720","224496","4032","180688","NA","225714","4025","225825","226289","225825","Flanker Task","94","62478","98","yes","1024"
"95.9595959596","95.9595959596","636.373737374","636.373737374","black","legacy","legacy","legacy","0","Congruent","uniform","1","undefined","1","h","0","0","0","98","98","0","98","98","0","0","0","98","0","98","98","98","09/25/20 20:53:33","600","The main experiment item","yes","FlankerTask.osexp","C:/Users/solom/Desktop","no","mono","no","18","no","white","no","yes","768","legacy","18","79","C:/Users/solom/Desktop/MW-subject-2.csv","legacy","Lentiform Loewenfeld","3.3.3","0","h","NA","h","h","NA","h","523","NA","2053","9756","NA","523","2","legacy","1024","2","48000","-16","experiment","HHHHH","2","even","6087","190448","NA","226377","220151","NA","228074","226883","4032","180688","NA","228069","4025","228178","228705","228177","Flanker Task","95","63001","99","yes","1024"
"96","96","634.04","634.04","black","legacy","legacy","legacy","0","Congruent","uniform","1","undefined","1","s","0","0","0","99","99","0","99","99","0","0","0","99","0","99","99","99","09/25/20 20:53:33","600","The main experiment item","yes","FlankerTask.osexp","C:/Users/solom/Desktop","no","mono","no","18","no","white","no","yes","768","legacy","19","79","C:/Users/solom/Desktop/MW-subject-2.csv","legacy","Lentiform Loewenfeld","3.3.3","0","s","NA","h","h","NA","s","403","NA","2053","9756","NA","403","2","legacy","1024","2","48000","-16","experiment","SSSSS","2","even","6087","190448","NA","226377","220151","NA","230080","228846","4032","180688","NA","230074","4025","230185","230593","230184","Flanker Task","96","63404","100","yes","1024"
"96.0396039604","96.0396039604","632.277227723","632.277227723","black","legacy","legacy","legacy","0","Congruent","uniform","1","undefined","1","s","0","0","0","100","100","0","100","100","0","0","0","100","0","100","100","100","09/25/20 20:53:33","600","The main experiment item","yes","FlankerTask.osexp","C:/Users/solom/Desktop","no","mono","no","18","no","white","no","yes","768","legacy","20","79","C:/Users/solom/Desktop/MW-subject-2.csv","legacy","Lentiform Loewenfeld","3.3.3","0","s","NA","h","h","NA","s","456","NA","2053","9756","NA","456","2","legacy","1024","2","48000","-16","experiment","SSSSS","2","even","6087","190448","NA","226377","220151","NA","231826","230622","4032","180688","NA","231821","4025","231932","232393","231931","Flanker Task","97","63860","101","yes","1024"
"96.0784313725","96.0784313725","630.558823529","630.558823529","black","legacy","legacy","legacy","0","Incongruent","uniform","1","undefined","1","s","0","0","0","101","101","0","101","101","0","0","0","101","0","101","101","101","09/25/20 20:53:33","600","The main experiment item","yes","FlankerTask.osexp","C:/Users/solom/Desktop","no","mono","no","18","no","white","no","yes","768","legacy","21","79","C:/Users/solom/Desktop/MW-subject-2.csv","legacy","Lentiform Loewenfeld","3.3.3","0","s","NA","h","h","NA","s","457","NA","2053","9756","NA","457","2","legacy","1024","2","48000","-16","experiment","HHSHH","2","even","6087","190448","NA","226377","220151","NA","233883","232645","4032","180688","NA","233877","4025","233988","234451","233988","Flanker Task","98","64317","102","yes","1024"
"96.1165048544","96.1165048544","629.427184466","629.427184466","black","legacy","legacy","legacy","0","Congruent","uniform","1","undefined","1","s","0","0","0","102","102","0","102","102","0","0","0","102","0","102","102","102","09/25/20 20:53:33","600","The main experiment item","yes","FlankerTask.osexp","C:/Users/solom/Desktop","no","mono","no","18","no","white","no","yes","768","legacy","22","79","C:/Users/solom/Desktop/MW-subject-2.csv","legacy","Lentiform Loewenfeld","3.3.3","0","s","NA","h","h","NA","s","514","NA","2053","9756","NA","514","2","legacy","1024","2","48000","-16","experiment","SSSSS","2","even","6087","190448","NA","226377","220151","NA","235673","234482","4032","180688","NA","235668","4025","235778","236296","235777","Flanker Task","99","64831","103","yes","1024"
"96.1538461538","96.1538461538","627.673076923","627.673076923","black","legacy","legacy","legacy","0","Congruent","uniform","1","undefined","1","s","0","0","0","103","103","0","103","103","0","0","0","103","0","103","103","103","09/25/20 20:53:33","600","The main experiment item","yes","FlankerTask.osexp","C:/Users/solom/Desktop","no","mono","no","18","no","white","no","yes","768","legacy","23","79","C:/Users/solom/Desktop/MW-subject-2.csv","legacy","Lentiform Loewenfeld","3.3.3","0","s","NA","h","h","NA","s","447","NA","2053","9756","NA","447","2","legacy","1024","2","48000","-16","experiment","SSSSS","2","even","6087","190448","NA","226377","220151","NA","237676","236474","4032","180688","NA","237671","4025","237781","238233","237781","Flanker Task","100","65278","104","yes","1024"
"96.1904761905","96.1904761905","628.114285714","628.114285714","black","legacy","legacy","legacy","0","Incongruent","uniform","1","undefined","1","s","0","0","0","104","104","0","104","104","0","0","0","104","0","104","104","104","09/25/20 20:53:33","600","The main experiment item","yes","FlankerTask.osexp","C:/Users/solom/Desktop","no","mono","no","18","no","white","no","yes","768","legacy","24","79","C:/Users/solom/Desktop/MW-subject-2.csv","legacy","Lentiform Loewenfeld","3.3.3","0","s","NA","h","h","NA","s","674","NA","2053","9756","NA","674","2","legacy","1024","2","48000","-16","experiment","HHSHH","2","even","6087","190448","NA","226377","220151","NA","239498","238283","4032","180688","NA","239492","4025","239602","240281","239602","Flanker Task","101","65952","105","yes","1024"
"96.2264150943","96.2264150943","627.075471698","627.075471698","black","legacy","legacy","legacy","0","Congruent","uniform","1","undefined","1","s","0","0","0","105","105","0","105","105","0","0","0","105","0","105","105","105","09/25/20 20:53:33","600","The main experiment item","yes","FlankerTask.osexp","C:/Users/solom/Desktop","no","mono","no","18","no","white","no","yes","768","legacy","25","79","C:/Users/solom/Desktop/MW-subject-2.csv","legacy","Lentiform Loewenfeld","3.3.3","0","s","NA","h","h","NA","s","518","NA","2053","9756","NA","518","2","legacy","1024","2","48000","-16","experiment","SSSSS","2","even","6087","190448","NA","226377","240325","NA","242031","240830","4032","180688","NA","242026","4025","242135","242658","242134","Flanker Task","102","66470","106","yes","1024"
"96.261682243","96.261682243","626.785046729","626.785046729","black","legacy","legacy","legacy","0","Congruent","uniform","1","undefined","1","h","0","0","0","106","106","0","106","106","0","0","0","106","0","106","106","106","09/25/20 20:53:33","600","The main experiment item","yes","FlankerTask.osexp","C:/Users/solom/Desktop","no","mono","no","18","no","white","no","yes","768","legacy","26","79","C:/Users/solom/Desktop/MW-subject-2.csv","legacy","Lentiform Loewenfeld","3.3.3","0","h","NA","h","h","NA","h","596","NA","2053","9756","NA","596","2","legacy","1024","2","48000","-16","experiment","HHHHH","2","even","6087","190448","NA","226377","240325","NA","244360","243139","4032","180688","NA","244354","4025","244464","245065","244464","Flanker Task","103","67066","107","yes","1024"
"96.2962962963","96.2962962963","625.314814815","625.314814815","black","legacy","legacy","legacy","0","Congruent","uniform","1","undefined","1","s","0","0","0","107","107","0","107","107","0","0","0","107","0","107","107","107","09/25/20 20:53:33","600","The main experiment item","yes","FlankerTask.osexp","C:/Users/solom/Desktop","no","mono","no","18","no","white","no","yes","768","legacy","27","79","C:/Users/solom/Desktop/MW-subject-2.csv","legacy","Lentiform Loewenfeld","3.3.3","0","s","NA","h","h","NA","s","468","NA","2053","9756","NA","468","2","legacy","1024","2","48000","-16","experiment","SSSSS","2","even","6087","190448","NA","226377","240325","NA","246319","245124","4032","180688","NA","246313","4025","246424","246896","246423","Flanker Task","104","67534","108","yes","1024"
"96.3302752294","96.3302752294","624.110091743","624.110091743","black","legacy","legacy","legacy","0","Congruent","uniform","1","undefined","1","s","0","0","0","108","108","0","108","108","0","0","0","108","0","108","108","108","09/25/20 20:53:33","600","The main experiment item","yes","FlankerTask.osexp","C:/Users/solom/Desktop","no","mono","no","18","no","white","no","yes","768","legacy","28","79","C:/Users/solom/Desktop/MW-subject-2.csv","legacy","Lentiform Loewenfeld","3.3.3","0","s","NA","h","h","NA","s","494","NA","2053","9756","NA","494","2","legacy","1024","2","48000","-16","experiment","SSSSS","2","even","6087","190448","NA","226377","240325","NA","248132","246944","4032","180688","NA","248127","4025","248238","248736","248237","Flanker Task","105","68028","109","yes","1024"
"96.3636363636","96.3636363636","623.627272727","623.627272727","black","legacy","legacy","legacy","0","Congruent","uniform","1","undefined","1","h","0","0","0","109","109","0","109","109","0","0","0","109","0","109","109","109","09/25/20 20:53:33","600","The main experiment item","yes","FlankerTask.osexp","C:/Users/solom/Desktop","no","mono","no","18","no","white","no","yes","768","legacy","29","79","C:/Users/solom/Desktop/MW-subject-2.csv","legacy","Lentiform Loewenfeld","3.3.3","0","h","NA","h","h","NA","h","571","NA","2053","9756","NA","571","2","legacy","1024","2","48000","-16","experiment","HHHHH","2","even","6087","190448","NA","226377","240325","NA","250016","248820","4032","180688","NA","250011","4025","250121","250697","250121","Flanker Task","106","68599","110","yes","1024"
"96.3963963964","96.3963963964","621.63963964","621.63963964","black","legacy","legacy","legacy","0","Incongruent","uniform","1","undefined","1","s","0","0","0","110","110","0","110","110","0","0","0","110","0","110","110","110","09/25/20 20:53:33","600","The main experiment item","yes","FlankerTask.osexp","C:/Users/solom/Desktop","no","mono","no","18","no","white","no","yes","768","legacy","30","79","C:/Users/solom/Desktop/MW-subject-2.csv","legacy","Lentiform Loewenfeld","3.3.3","0","s","NA","h","h","NA","s","403","NA","2053","9756","NA","403","2","legacy","1024","2","48000","-16","experiment","HHSHH","2","even","6087","190448","NA","226377","240325","NA","252033","250837","4032","180688","NA","252027","4025","252137","252545","252137","Flanker Task","107","69002","111","yes","1024"
"96.4285714286","96.4285714286","620.044642857","620.044642857","black","legacy","legacy","legacy","0","Congruent","uniform","1","undefined","1","s","0","0","0","111","111","0","111","111","0","0","0","111","0","111","111","111","09/25/20 20:53:33","600","The main experiment item","yes","FlankerTask.osexp","C:/Users/solom/Desktop","no","mono","no","18","no","white","no","yes","768","legacy","31","79","C:/Users/solom/Desktop/MW-subject-2.csv","legacy","Lentiform Loewenfeld","3.3.3","0","s","NA","h","h","NA","s","443","NA","2053","9756","NA","443","2","legacy","1024","2","48000","-16","experiment","SSSSS","2","even","6087","190448","NA","226377","240325","NA","253848","252660","4032","180688","NA","253843","4025","253954","254402","253954","Flanker Task","108","69445","112","yes","1024"
"96.4601769912","96.4601769912","619.504424779","619.504424779","black","legacy","legacy","legacy","0","Congruent","uniform","1","undefined","1","h","0","0","0","112","112","0","112","112","0","0","0","112","0","112","112","112","09/25/20 20:53:33","600","The main experiment item","yes","FlankerTask.osexp","C:/Users/solom/Desktop","no","mono","no","18","no","white","no","yes","768","legacy","32","79","C:/Users/solom/Desktop/MW-subject-2.csv","legacy","Lentiform Loewenfeld","3.3.3","0","h","NA","h","h","NA","h","559","NA","2053","9756","NA","559","2","legacy","1024","2","48000","-16","experiment","HHHHH","2","even","6087","190448","NA","226377","240325","NA","256094","254899","4032","180688","NA","256089","4025","256198","256767","256198","Flanker Task","109","70004","113","yes","1024"
"96.4912280702","96.4912280702","619.140350877","619.140350877","black","legacy","legacy","legacy","0","Congruent","uniform","1","undefined","1","h","0","0","0","113","113","0","113","113","0","0","0","113","0","113","113","113","09/25/20 20:53:33","600","The main experiment item","yes","FlankerTask.osexp","C:/Users/solom/Desktop","no","mono","no","18","no","white","no","yes","768","legacy","33","79","C:/Users/solom/Desktop/MW-subject-2.csv","legacy","Lentiform Loewenfeld","3.3.3","0","h","NA","h","h","NA","h","578","NA","2053","9756","NA","578","2","legacy","1024","2","48000","-16","experiment","HHHHH","2","even","6087","190448","NA","226377","240325","NA","258123","256925","4032","180688","NA","258118","4025","258227","258809","258226","Flanker Task","110","70582","114","yes","1024"
"96.5217391304","96.5217391304","617.860869565","617.860869565","black","legacy","legacy","legacy","0","Congruent","uniform","1","undefined","1","h","0","0","0","114","114","0","114","114","0","0","0","114","0","114","114","114","09/25/20 20:53:33","600","The main experiment item","yes","FlankerTask.osexp","C:/Users/solom/Desktop","no","mono","no","18","no","white","no","yes","768","legacy","34","79","C:/Users/solom/Desktop/MW-subject-2.csv","legacy","Lentiform Loewenfeld","3.3.3","0","h","NA","h","h","NA","h","472","NA","2053","9756","NA","472","2","legacy","1024","2","48000","-16","experiment","HHHHH","2","even","6087","190448","NA","226377","240325","NA","260147","258940","4032","180688","NA","260139","4025","260252","260728","260251","Flanker Task","111","71054","115","yes","1024"
"96.5517241379","96.5517241379","617.034482759","617.034482759","black","legacy","legacy","legacy","0","Congruent","uniform","1","undefined","1","s","0","0","0","115","115","0","115","115","0","0","0","115","0","115","115","115","09/25/20 20:53:33","600","The main experiment item","yes","FlankerTask.osexp","C:/Users/solom/Desktop","no","mono","no","18","no","white","no","yes","768","legacy","35","79","C:/Users/solom/Desktop/MW-subject-2.csv","legacy","Lentiform Loewenfeld","3.3.3","0","s","NA","h","h","NA","s","522","NA","2053","9756","NA","522","2","legacy","1024","2","48000","-16","experiment","SSSSS","2","even","6087","190448","NA","226377","240325","NA","262065","260840","4032","180688","NA","262056","4025","262171","262699","262171","Flanker Task","112","71576","116","yes","1024"
"96.5811965812","96.5811965812","616.581196581","616.581196581","black","legacy","legacy","legacy","0","Incongruent","uniform","1","undefined","1","s","0","0","0","116","116","0","116","116","0","0","0","116","0","116","116","116","09/25/20 20:53:33","600","The main experiment item","yes","FlankerTask.osexp","C:/Users/solom/Desktop","no","mono","no","18","no","white","no","yes","768","legacy","36","79","C:/Users/solom/Desktop/MW-subject-2.csv","legacy","Lentiform Loewenfeld","3.3.3","0","s","NA","h","h","NA","s","564","NA","2053","9756","NA","564","2","legacy","1024","2","48000","-16","experiment","HHSHH","2","even","6087","190448","NA","226377","240325","NA","264025","262816","4032","180688","NA","264020","4025","264128","264696","264128","Flanker Task","113","72140","117","yes","1024"
"96.6101694915","96.6101694915","616.355932203","616.355932203","black","legacy","legacy","legacy","0","Incongruent","uniform","1","undefined","1","h","0","0","0","117","117","0","117","117","0","0","0","117","0","117","117","117","09/25/20 20:53:33","600","The main experiment item","yes","FlankerTask.osexp","C:/Users/solom/Desktop","no","mono","no","18","no","white","no","yes","768","legacy","37","79","C:/Users/solom/Desktop/MW-subject-2.csv","legacy","Lentiform Loewenfeld","3.3.3","0","h","NA","h","h","NA","h","590","NA","2053","9756","NA","590","2","legacy","1024","2","48000","-16","experiment","SSHSS","2","even","6087","190448","NA","226377","240325","NA","266134","264933","4032","180688","NA","266128","4025","266238","266833","266238","Flanker Task","114","72730","118","yes","1024"
"96.6386554622","96.6386554622","617.168067227","617.168067227","black","legacy","legacy","legacy","0","Incongruent","uniform","1","undefined","1","s","0","0","0","118","118","0","118","118","0","0","0","118","0","118","118","118","09/25/20 20:53:33","600","The main experiment item","yes","FlankerTask.osexp","C:/Users/solom/Desktop","no","mono","no","18","no","white","no","yes","768","legacy","38","79","C:/Users/solom/Desktop/MW-subject-2.csv","legacy","Lentiform Loewenfeld","3.3.3","0","s","NA","h","h","NA","s","713","NA","2053","9756","NA","713","2","legacy","1024","2","48000","-16","experiment","HHSHH","2","even","6087","190448","NA","226377","240325","NA","268107","266919","4032","180688","NA","268102","4025","268211","268929","268211","Flanker Task","115","73443","119","yes","1024"
"96.6666666667","96.6666666667","617.241666667","617.241666667","black","legacy","legacy","legacy","0","Incongruent","uniform","1","undefined","1","s","0","0","0","119","119","0","119","119","0","0","0","119","0","119","119","119","09/25/20 20:53:33","600","The main experiment item","yes","FlankerTask.osexp","C:/Users/solom/Desktop","no","mono","no","18","no","white","no","yes","768","legacy","39","79","C:/Users/solom/Desktop/MW-subject-2.csv","legacy","Lentiform Loewenfeld","3.3.3","0","s","NA","h","h","NA","s","626","NA","2053","9756","NA","626","2","legacy","1024","2","48000","-16","experiment","HHSHH","2","even","6087","190448","NA","226377","269072","NA","270763","269577","4032","180688","NA","270758","4025","270867","271498","270867","Flanker Task","116","74069","120","yes","1024"
"96.694214876","96.694214876","615.545454545","615.545454545","black","legacy","legacy","legacy","0","Congruent","uniform","1","undefined","1","s","0","0","0","120","120","0","120","120","0","0","0","120","0","120","120","120","09/25/20 20:53:33","600","The main experiment item","yes","FlankerTask.osexp","C:/Users/solom/Desktop","no","mono","no","18","no","white","no","yes","768","legacy","40","79","C:/Users/solom/Desktop/MW-subject-2.csv","legacy","Lentiform Loewenfeld","3.3.3","0","s","NA","h","h","NA","s","412","NA","2053","9756","NA","412","2","legacy","1024","2","48000","-16","experiment","SSSSS","2","even","6087","190448","NA","226377","271586","NA","273272","272089","4032","180688","NA","273266","4025","273376","273792","273376","Flanker Task","117","74481","121","yes","1024"
"96.7213114754","96.7213114754","613.795081967","613.795081967","black","legacy","legacy","legacy","0","Congruent","uniform","1","undefined","1","s","0","0","0","121","121","0","121","121","0","0","0","121","0","121","121","121","09/25/20 20:53:33","600","The main experiment item","yes","FlankerTask.osexp","C:/Users/solom/Desktop","no","mono","no","18","no","white","no","yes","768","legacy","41","79","C:/Users/solom/Desktop/MW-subject-2.csv","legacy","Lentiform Loewenfeld","3.3.3","0","s","NA","h","h","NA","s","402","NA","2053","9756","NA","402","2","legacy","1024","2","48000","-16","experiment","SSSSS","2","even","6087","190448","NA","226377","271586","NA","275106","273917","4032","180688","NA","275100","4025","275210","275617","275210","Flanker Task","118","74883","122","yes","1024"
"96.7479674797","96.7479674797","613","613","black","legacy","legacy","legacy","0","Incongruent","uniform","1","undefined","1","s","0","0","0","122","122","0","122","122","0","0","0","122","0","122","122","122","09/25/20 20:53:33","600","The main experiment item","yes","FlankerTask.osexp","C:/Users/solom/Desktop","no","mono","no","18","no","white","no","yes","768","legacy","42","79","C:/Users/solom/Desktop/MW-subject-2.csv","legacy","Lentiform Loewenfeld","3.3.3","0","s","NA","h","h","NA","s","516","NA","2053","9756","NA","516","2","legacy","1024","2","48000","-16","experiment","HHSHH","2","even","6087","190448","NA","226377","271586","NA","276888","275694","4032","180688","NA","276883","4025","276992","277513","276991","Flanker Task","119","75399","123","yes","1024"
"96.7741935484","96.7741935484","612.201612903","612.201612903","black","legacy","legacy","legacy","0","Congruent","uniform","1","undefined","1","h","0","0","0","123","123","0","123","123","0","0","0","123","0","123","123","123","09/25/20 20:53:33","600","The main experiment item","yes","FlankerTask.osexp","C:/Users/solom/Desktop","no","mono","no","18","no","white","no","yes","768","legacy","43","79","C:/Users/solom/Desktop/MW-subject-2.csv","legacy","Lentiform Loewenfeld","3.3.3","0","h","NA","h","h","NA","h","514","NA","2053","9756","NA","514","2","legacy","1024","2","48000","-16","experiment","HHHHH","2","even","6087","190448","NA","226377","271586","NA","278728","277544","4032","180688","NA","278723","4025","278834","279355","278833","Flanker Task","120","75913","124","yes","1024"
"96.8","96.8","611.52","611.52","black","legacy","legacy","legacy","0","Incongruent","uniform","1","undefined","1","s","0","0","0","124","124","0","124","124","0","0","0","124","0","124","124","124","09/25/20 20:53:33","600","The main experiment item","yes","FlankerTask.osexp","C:/Users/solom/Desktop","no","mono","no","18","no","white","no","yes","768","legacy","44","79","C:/Users/solom/Desktop/MW-subject-2.csv","legacy","Lentiform Loewenfeld","3.3.3","0","s","NA","h","h","NA","s","527","NA","2053","9756","NA","527","2","legacy","1024","2","48000","-16","experiment","HHSHH","2","even","6087","190448","NA","226377","271586","NA","280597","279397","4032","180688","NA","280591","4025","280701","281233","280700","Flanker Task","121","76440","125","yes","1024"
"96.8253968254","96.8253968254","611.26984127","611.26984127","black","legacy","legacy","legacy","0","Incongruent","uniform","1","undefined","1","s","0","0","0","125","125","0","125","125","0","0","0","125","0","125","125","125","09/25/20 20:53:33","600","The main experiment item","yes","FlankerTask.osexp","C:/Users/solom/Desktop","no","mono","no","18","no","white","no","yes","768","legacy","45","79","C:/Users/solom/Desktop/MW-subject-2.csv","legacy","Lentiform Loewenfeld","3.3.3","0","s","NA","h","h","NA","s","580","NA","2053","9756","NA","580","2","legacy","1024","2","48000","-16","experiment","HHSHH","2","even","6087","190448","NA","226377","271586","NA","282473","281279","4032","180688","NA","282468","4025","282577","283168","282576","Flanker Task","122","77020","126","yes","1024"
"96.8503937008","96.8503937008","610.409448819","610.409448819","black","legacy","legacy","legacy","0","Congruent","uniform","1","undefined","1","h","0","0","0","126","126","0","126","126","0","0","0","126","0","126","126","126","09/25/20 20:53:33","600","The main experiment item","yes","FlankerTask.osexp","C:/Users/solom/Desktop","no","mono","no","18","no","white","no","yes","768","legacy","46","79","C:/Users/solom/Desktop/MW-subject-2.csv","legacy","Lentiform Loewenfeld","3.3.3","0","h","NA","h","h","NA","h","502","NA","2053","9756","NA","502","2","legacy","1024","2","48000","-16","experiment","HHHHH","2","even","6087","190448","NA","226377","271586","NA","284423","283212","4032","180688","NA","284417","4025","284527","285034","284527","Flanker Task","123","77522","127","yes","1024"
