Stimulus,acc,accuracy,average_response_time,avg_rt,background,canvas_backend,clock_backend,color_backend,compensation,condition,coordinates,correct,correct_instructions1,correct_keyboard_response,correct_response,count_Block3,count_ErrorFeedback,count_ISI,count_Logger,count_block1,count_block2,count_experiment,count_faster,count_finish,count_fixation,count_instruction2,count_instructions1,count_instructions3,count_keyboard_response,count_sequence,count_stimulus,datetime,deadline,description,disable_garbage_collection,experiment_file,experiment_path,font_bold,font_family,font_italic,font_size,font_underline,foreground,form_clicks,fullscreen,height,keyboard_backend,live_row,live_row_block1,logfile,mouse_backend,opensesame_codename,opensesame_version,repeat_cycle,response,response_finish,response_instruction2,response_instructions1,response_instructions3,response_keyboard_response,response_time,response_time_finish,response_time_instruction2,response_time_instructions1,response_time_instructions3,response_time_keyboard_response,round_decimals,sampler_backend,sound_buf_size,sound_channels,sound_freq,sound_sample_size,start,subject_nr,subject_parity,time_Block3,time_ErrorFeedback,time_ISI,time_Logger,time_block1,time_block2,time_experiment,time_faster,time_finish,time_fixation,time_instruction2,time_instructions1,time_instructions3,time_keyboard_response,time_sequence,time_stimulus,title,total_correct,total_response_time,total_responses,uniform_coordinates,width
HHSHH,0,0,529,529,black,legacy,legacy,legacy,0,incongruent,uniform,0,undefined,0,s,0,0,0,0,0,0,0,0,0,0,0,0,0,0,0,0,Sat Sep 19 00:41:41 2020,1500,The main experiment item,yes,FlankerTask.osexp,C:\Users\Owner\Documents,no,mono,no,18,no,white,no,yes,768,legacy,0,0,C:/Users/Owner/Documents/KTPsubject-3.csv,legacy,Lentiform Loewenfeld,3.3.3,0,h,NA,NA,s,NA,h,529,NA,NA,563,NA,529,2,legacy,1024,2,48000,-16,experiment,3,odd,NA,NA,NA,4921,4223,NA,3656,NA,NA,4288,NA,3660,NA,4392,4286,4392,Flanker Test,0,529,1,yes,1024
HHSHH,50,50,444,444,black,legacy,legacy,legacy,0,incongruent,uniform,1,undefined,1,s,0,1,1,1,0,0,0,1,0,1,0,0,0,1,1,1,Sat Sep 19 00:41:41 2020,1500,The main experiment item,yes,FlankerTask.osexp,C:\Users\Owner\Documents,no,mono,no,18,no,white,no,yes,768,legacy,1,1,C:/Users/Owner/Documents/KTPsubject-3.csv,legacy,Lentiform Loewenfeld,3.3.3,0,s,NA,NA,s,NA,s,359,NA,NA,563,NA,359,2,legacy,1024,2,48000,-16,experiment,3,odd,NA,4926,5431,7003,4223,NA,3656,NA,NA,6542,NA,3660,NA,6643,6540,6643,Flanker Test,1,888,2,yes,1024
SSSSS,66.66666667,66.66666667,435,435,black,legacy,legacy,legacy,0,congruent,uniform,1,undefined,1,s,0,2,2,2,0,0,0,2,0,2,0,0,0,2,2,2,Sat Sep 19 00:41:41 2020,1500,The main experiment item,yes,FlankerTask.osexp,C:\Users\Owner\Documents,no,mono,no,18,no,white,no,yes,768,legacy,2,2,C:/Users/Owner/Documents/KTPsubject-3.csv,legacy,Lentiform Loewenfeld,3.3.3,0,s,NA,NA,s,NA,s,417,NA,NA,563,NA,417,2,legacy,1024,2,48000,-16,experiment,3,odd,NA,4926,7007,8632,4223,NA,3656,NA,NA,8112,NA,3660,NA,8215,8110,8215,Flanker Test,2,1305,3,yes,1024
SSHSS,50,50,416,416,black,legacy,legacy,legacy,0,incongruent,uniform,0,undefined,0,h,0,3,3,3,0,0,0,3,0,3,0,0,0,3,3,3,Sat Sep 19 00:41:41 2020,1500,The main experiment item,yes,FlankerTask.osexp,C:\Users\Owner\Documents,no,mono,no,18,no,white,no,yes,768,legacy,3,3,C:/Users/Owner/Documents/KTPsubject-3.csv,legacy,Lentiform Loewenfeld,3.3.3,0,s,NA,NA,s,NA,s,359,NA,NA,563,NA,359,2,legacy,1024,2,48000,-16,experiment,3,odd,NA,4926,8634,10178,4223,NA,3656,NA,NA,9717,NA,3660,NA,9818,9715,9818,Flanker Test,2,1664,4,yes,1024
HHSHH,60,60,420.4,420.4,black,legacy,legacy,legacy,0,incongruent,uniform,1,undefined,1,s,0,4,4,4,0,0,0,4,0,4,0,0,0,4,4,4,Sat Sep 19 00:41:41 2020,1500,The main experiment item,yes,FlankerTask.osexp,C:\Users\Owner\Documents,no,mono,no,18,no,white,no,yes,768,legacy,4,4,C:/Users/Owner/Documents/KTPsubject-3.csv,legacy,Lentiform Loewenfeld,3.3.3,0,s,NA,NA,s,NA,s,438,NA,NA,563,NA,438,2,legacy,1024,2,48000,-16,experiment,3,odd,NA,10181,10685,12333,4223,NA,3656,NA,NA,11793,NA,3660,NA,11894,11790,11894,Flanker Test,3,2102,5,yes,1024
SSHSS,50,50,418,418,black,legacy,legacy,legacy,0,incongruent,uniform,0,undefined,0,h,0,5,5,5,0,0,0,5,0,5,0,0,0,5,5,5,Sat Sep 19 00:41:41 2020,1500,The main experiment item,yes,FlankerTask.osexp,C:\Users\Owner\Documents,no,mono,no,18,no,white,no,yes,768,legacy,5,5,C:/Users/Owner/Documents/KTPsubject-3.csv,legacy,Lentiform Loewenfeld,3.3.3,0,s,NA,NA,s,NA,s,406,NA,NA,563,NA,406,2,legacy,1024,2,48000,-16,experiment,3,odd,NA,10181,12336,13965,4223,NA,3656,NA,NA,13455,NA,3660,NA,13558,13453,13558,Flanker Test,3,2508,6,yes,1024
SSHSS,42.85714286,42.85714286,417.1428571,417.1428571,black,legacy,legacy,legacy,0,incongruent,uniform,0,undefined,0,h,0,6,6,6,0,0,0,6,0,6,0,0,0,6,6,6,Sat Sep 19 00:41:41 2020,1500,The main experiment item,yes,FlankerTask.osexp,C:\Users\Owner\Documents,no,mono,no,18,no,white,no,yes,768,legacy,6,6,C:/Users/Owner/Documents/KTPsubject-3.csv,legacy,Lentiform Loewenfeld,3.3.3,0,s,NA,NA,s,NA,s,412,NA,NA,563,NA,412,2,legacy,1024,2,48000,-16,experiment,3,odd,NA,13969,14471,16091,4223,NA,3656,NA,NA,15576,NA,3660,NA,15678,15574,15678,Flanker Test,3,2920,7,yes,1024
SSSSS,50,50,417.75,417.75,black,legacy,legacy,legacy,0,congruent,uniform,1,undefined,1,s,0,7,7,7,0,0,0,7,0,7,0,0,0,7,7,7,Sat Sep 19 00:41:41 2020,1500,The main experiment item,yes,FlankerTask.osexp,C:\Users\Owner\Documents,no,mono,no,18,no,white,no,yes,768,legacy,7,7,C:/Users/Owner/Documents/KTPsubject-3.csv,legacy,Lentiform Loewenfeld,3.3.3,0,s,NA,NA,s,NA,s,422,NA,NA,563,NA,422,2,legacy,1024,2,48000,-16,experiment,3,odd,NA,16094,16598,18182,4223,NA,3656,NA,NA,17655,NA,3660,NA,17759,17654,17759,Flanker Test,4,3342,8,yes,1024
HHHHH,55.55555556,55.55555556,414.4444444,414.4444444,black,legacy,legacy,legacy,0,congruent,uniform,1,undefined,1,h,0,8,8,8,0,0,0,8,0,8,0,0,0,8,8,8,Sat Sep 19 00:41:41 2020,1500,The main experiment item,yes,FlankerTask.osexp,C:\Users\Owner\Documents,no,mono,no,18,no,white,no,yes,768,legacy,8,8,C:/Users/Owner/Documents/KTPsubject-3.csv,legacy,Lentiform Loewenfeld,3.3.3,0,h,NA,NA,s,NA,h,388,NA,NA,563,NA,388,2,legacy,1024,2,48000,-16,experiment,3,odd,NA,16094,18185,19786,4223,NA,3656,NA,NA,19292,NA,3660,NA,19397,19291,19396,Flanker Test,5,3730,9,yes,1024
HHHHH,50,50,406.3,406.3,black,legacy,legacy,legacy,0,congruent,uniform,0,undefined,0,h,0,9,9,9,0,0,0,9,0,9,0,0,0,9,9,9,Sat Sep 19 00:41:41 2020,1500,The main experiment item,yes,FlankerTask.osexp,C:\Users\Owner\Documents,no,mono,no,18,no,white,no,yes,768,legacy,9,9,C:/Users/Owner/Documents/KTPsubject-3.csv,legacy,Lentiform Loewenfeld,3.3.3,0,s,NA,NA,s,NA,s,333,NA,NA,563,NA,333,2,legacy,1024,2,48000,-16,experiment,3,odd,NA,16094,19789,21288,4223,NA,3656,NA,NA,20850,NA,3660,NA,20954,20848,20954,Flanker Test,5,4063,10,yes,1024
SSHSS,45.45454545,45.45454545,401.0909091,401.0909091,black,legacy,legacy,legacy,0,incongruent,uniform,0,undefined,0,h,0,10,10,10,0,0,0,10,0,10,0,0,0,10,10,10,Sat Sep 19 00:41:41 2020,1500,The main experiment item,yes,FlankerTask.osexp,C:\Users\Owner\Documents,no,mono,no,18,no,white,no,yes,768,legacy,10,10,C:/Users/Owner/Documents/KTPsubject-3.csv,legacy,Lentiform Loewenfeld,3.3.3,0,s,NA,NA,s,NA,s,349,NA,NA,563,NA,349,2,legacy,1024,2,48000,-16,experiment,3,odd,NA,21291,21795,23358,4223,NA,3656,NA,NA,22904,NA,3660,NA,23008,22902,23008,Flanker Test,5,4412,11,yes,1024
SSSSS,50,50,398.75,398.75,black,legacy,legacy,legacy,0,congruent,uniform,1,undefined,1,s,0,11,11,11,0,0,0,11,0,11,0,0,0,11,11,11,Sat Sep 19 00:41:41 2020,1500,The main experiment item,yes,FlankerTask.osexp,C:\Users\Owner\Documents,no,mono,no,18,no,white,no,yes,768,legacy,11,11,C:/Users/Owner/Documents/KTPsubject-3.csv,legacy,Lentiform Loewenfeld,3.3.3,0,s,NA,NA,s,NA,s,373,NA,NA,563,NA,373,2,legacy,1024,2,48000,-16,experiment,3,odd,NA,23361,23865,25444,4223,NA,3656,NA,NA,24967,NA,3660,NA,25070,24965,25070,Flanker Test,6,4785,12,yes,1024
HHHHH,53.84615385,53.84615385,403,403,black,legacy,legacy,legacy,0,congruent,uniform,1,undefined,1,h,0,12,12,12,0,0,0,12,0,12,0,0,0,12,12,12,Sat Sep 19 00:41:41 2020,1500,The main experiment item,yes,FlankerTask.osexp,C:\Users\Owner\Documents,no,mono,no,18,no,white,no,yes,768,legacy,12,12,C:/Users/Owner/Documents/KTPsubject-3.csv,legacy,Lentiform Loewenfeld,3.3.3,0,h,NA,NA,s,NA,h,454,NA,NA,563,NA,454,2,legacy,1024,2,48000,-16,experiment,3,odd,NA,23361,25447,27113,4223,NA,3656,NA,NA,26555,NA,3660,NA,26658,26553,26658,Flanker Test,7,5239,13,yes,1024
HHHHH,57.14285714,57.14285714,413.0714286,413.0714286,black,legacy,legacy,legacy,0,congruent,uniform,1,undefined,1,h,0,13,13,13,0,0,0,13,0,13,0,0,0,13,13,13,Sat Sep 19 00:41:41 2020,1500,The main experiment item,yes,FlankerTask.osexp,C:\Users\Owner\Documents,no,mono,no,18,no,white,no,yes,768,legacy,13,13,C:/Users/Owner/Documents/KTPsubject-3.csv,legacy,Lentiform Loewenfeld,3.3.3,0,h,NA,NA,s,NA,h,544,NA,NA,563,NA,544,2,legacy,1024,2,48000,-16,experiment,3,odd,NA,23361,27119,28868,4223,NA,3656,NA,NA,28222,NA,3660,NA,28323,28220,28323,Flanker Test,8,5783,14,yes,1024
SSHSS,53.33333333,53.33333333,407.9333333,407.9333333,black,legacy,legacy,legacy,0,incongruent,uniform,0,undefined,0,h,0,14,14,14,0,0,0,14,0,14,0,0,0,14,14,14,Sat Sep 19 00:41:41 2020,1500,The main experiment item,yes,FlankerTask.osexp,C:\Users\Owner\Documents,no,mono,no,18,no,white,no,yes,768,legacy,14,14,C:/Users/Owner/Documents/KTPsubject-3.csv,legacy,Lentiform Loewenfeld,3.3.3,0,s,NA,NA,s,NA,s,336,NA,NA,563,NA,336,2,legacy,1024,2,48000,-16,experiment,3,odd,NA,23361,28871,30416,4223,NA,3656,NA,NA,29976,NA,3660,NA,30079,29974,30079,Flanker Test,8,6119,15,yes,1024
HHSHH,56.25,56.25,422,422,black,legacy,legacy,legacy,0,incongruent,uniform,1,undefined,1,s,0,15,15,15,0,0,0,15,0,15,0,0,0,15,15,15,Sat Sep 19 00:41:41 2020,1500,The main experiment item,yes,FlankerTask.osexp,C:\Users\Owner\Documents,no,mono,no,18,no,white,no,yes,768,legacy,15,15,C:/Users/Owner/Documents/KTPsubject-3.csv,legacy,Lentiform Loewenfeld,3.3.3,0,s,NA,NA,s,NA,s,633,NA,NA,563,NA,633,2,legacy,1024,2,48000,-16,experiment,3,odd,NA,30420,30924,32766,4223,NA,3656,NA,NA,32030,NA,3660,NA,32132,32029,32132,Flanker Test,9,6752,16,yes,1024
SSHSS,58.82352941,58.82352941,423.2941176,423.2941176,black,legacy,legacy,legacy,0,incongruent,uniform,1,undefined,1,h,0,16,16,16,0,0,0,16,0,16,0,0,0,16,16,16,Sat Sep 19 00:41:41 2020,1500,The main experiment item,yes,FlankerTask.osexp,C:\Users\Owner\Documents,no,mono,no,18,no,white,no,yes,768,legacy,16,16,C:/Users/Owner/Documents/KTPsubject-3.csv,legacy,Lentiform Loewenfeld,3.3.3,0,h,NA,NA,s,NA,h,444,NA,NA,563,NA,444,2,legacy,1024,2,48000,-16,experiment,3,odd,NA,30420,32769,34417,4223,NA,3656,NA,NA,33868,NA,3660,NA,33971,33867,33971,Flanker Test,10,7196,17,yes,1024
SSSSS,61.11111111,61.11111111,420.2777778,420.2777778,black,legacy,legacy,legacy,0,congruent,uniform,1,undefined,1,s,0,17,17,17,0,0,0,17,0,17,0,0,0,17,17,17,Sat Sep 19 00:41:41 2020,1500,The main experiment item,yes,FlankerTask.osexp,C:\Users\Owner\Documents,no,mono,no,18,no,white,no,yes,768,legacy,17,17,C:/Users/Owner/Documents/KTPsubject-3.csv,legacy,Lentiform Loewenfeld,3.3.3,0,s,NA,NA,s,NA,s,369,NA,NA,563,NA,369,2,legacy,1024,2,48000,-16,experiment,3,odd,NA,30420,34421,36000,4223,NA,3656,NA,NA,35529,NA,3660,NA,35630,35527,35630,Flanker Test,11,7565,18,yes,1024
HHSHH,57.89473684,57.89473684,423.1052632,423.1052632,black,legacy,legacy,legacy,0,incongruent,uniform,0,undefined,0,s,0,18,18,18,0,0,0,18,0,18,0,0,0,18,18,18,Sat Sep 19 00:41:41 2020,1500,The main experiment item,yes,FlankerTask.osexp,C:\Users\Owner\Documents,no,mono,no,18,no,white,no,yes,768,legacy,18,18,C:/Users/Owner/Documents/KTPsubject-3.csv,legacy,Lentiform Loewenfeld,3.3.3,0,h,NA,NA,s,NA,h,474,NA,NA,563,NA,474,2,legacy,1024,2,48000,-16,experiment,3,odd,NA,30420,36003,37688,4223,NA,3656,NA,NA,37110,NA,3660,NA,37213,37108,37213,Flanker Test,11,8039,19,yes,1024
HHHHH,60,60,424.25,424.25,black,legacy,legacy,legacy,0,congruent,uniform,1,undefined,1,h,0,19,19,19,0,0,0,19,0,19,0,0,0,19,19,19,Sat Sep 19 00:41:41 2020,1500,The main experiment item,yes,FlankerTask.osexp,C:\Users\Owner\Documents,no,mono,no,18,no,white,no,yes,768,legacy,19,19,C:/Users/Owner/Documents/KTPsubject-3.csv,legacy,Lentiform Loewenfeld,3.3.3,0,h,NA,NA,s,NA,h,446,NA,NA,563,NA,446,2,legacy,1024,2,48000,-16,experiment,3,odd,NA,37691,38195,39852,4223,NA,3656,NA,NA,39301,NA,3660,NA,39405,39299,39405,Flanker Test,12,8485,20,yes,1024
HHSHH,61.9047619,61.9047619,427.1428571,427.1428571,black,legacy,legacy,legacy,0,incongruent,uniform,1,undefined,1,s,0,20,20,20,0,0,0,20,0,20,0,0,0,20,20,20,Sat Sep 19 00:41:41 2020,1500,The main experiment item,yes,FlankerTask.osexp,C:\Users\Owner\Documents,no,mono,no,18,no,white,no,yes,768,legacy,20,20,C:/Users/Owner/Documents/KTPsubject-3.csv,legacy,Lentiform Loewenfeld,3.3.3,0,s,NA,NA,s,NA,s,485,NA,NA,563,NA,485,2,legacy,1024,2,48000,-16,experiment,3,odd,NA,37691,39858,41528,4223,NA,3656,NA,NA,40938,NA,3660,NA,41042,40937,41042,Flanker Test,13,8970,21,yes,1024
SSHSS,63.63636364,63.63636364,433.2272727,433.2272727,black,legacy,legacy,legacy,0,incongruent,uniform,1,undefined,1,h,0,21,21,21,0,0,0,21,0,21,0,0,0,21,21,21,Sat Sep 19 00:41:41 2020,1500,The main experiment item,yes,FlankerTask.osexp,C:\Users\Owner\Documents,no,mono,no,18,no,white,no,yes,768,legacy,21,21,C:/Users/Owner/Documents/KTPsubject-3.csv,legacy,Lentiform Loewenfeld,3.3.3,0,h,NA,NA,s,NA,h,561,NA,NA,563,NA,561,2,legacy,1024,2,48000,-16,experiment,3,odd,NA,37691,41532,43304,4223,NA,3656,NA,NA,42639,NA,3660,NA,42742,42637,42742,Flanker Test,14,9531,22,yes,1024
SSHSS,65.2173913,65.2173913,435.4347826,435.4347826,black,legacy,legacy,legacy,0,incongruent,uniform,1,undefined,1,h,0,22,22,22,0,0,0,22,0,22,0,0,0,22,22,22,Sat Sep 19 00:41:41 2020,1500,The main experiment item,yes,FlankerTask.osexp,C:\Users\Owner\Documents,no,mono,no,18,no,white,no,yes,768,legacy,22,22,C:/Users/Owner/Documents/KTPsubject-3.csv,legacy,Lentiform Loewenfeld,3.3.3,0,h,NA,NA,s,NA,h,484,NA,NA,563,NA,484,2,legacy,1024,2,48000,-16,experiment,3,odd,NA,37691,43308,45008,4223,NA,3656,NA,NA,44420,NA,3660,NA,44523,44418,44523,Flanker Test,15,10015,23,yes,1024
HHHHH,66.66666667,66.66666667,435.375,435.375,black,legacy,legacy,legacy,0,congruent,uniform,1,undefined,1,h,0,23,23,23,0,0,0,23,0,23,0,0,0,23,23,23,Sat Sep 19 00:41:41 2020,1500,The main experiment item,yes,FlankerTask.osexp,C:\Users\Owner\Documents,no,mono,no,18,no,white,no,yes,768,legacy,23,23,C:/Users/Owner/Documents/KTPsubject-3.csv,legacy,Lentiform Loewenfeld,3.3.3,0,h,NA,NA,s,NA,h,434,NA,NA,563,NA,434,2,legacy,1024,2,48000,-16,experiment,3,odd,NA,37691,45012,46602,4223,NA,3656,NA,NA,46066,NA,3660,NA,46167,46064,46167,Flanker Test,16,10449,24,yes,1024
SSSSS,68,68,434,434,black,legacy,legacy,legacy,0,congruent,uniform,1,undefined,1,s,0,24,24,24,0,0,0,24,0,24,0,0,0,24,24,24,Sat Sep 19 00:41:41 2020,1500,The main experiment item,yes,FlankerTask.osexp,C:\Users\Owner\Documents,no,mono,no,18,no,white,no,yes,768,legacy,24,24,C:/Users/Owner/Documents/KTPsubject-3.csv,legacy,Lentiform Loewenfeld,3.3.3,0,s,NA,NA,s,NA,s,401,NA,NA,563,NA,401,2,legacy,1024,2,48000,-16,experiment,3,odd,NA,37691,46606,48164,4223,NA,3656,NA,NA,47659,NA,3660,NA,47763,47657,47762,Flanker Test,17,10850,25,yes,1024
HHHHH,69.23076923,69.23076923,440.9230769,440.9230769,black,legacy,legacy,legacy,0,congruent,uniform,1,undefined,1,h,0,25,25,25,0,0,0,25,0,25,0,0,0,25,25,25,Sat Sep 19 00:41:41 2020,1500,The main experiment item,yes,FlankerTask.osexp,C:\Users\Owner\Documents,no,mono,no,18,no,white,no,yes,768,legacy,25,25,C:/Users/Owner/Documents/KTPsubject-3.csv,legacy,Lentiform Loewenfeld,3.3.3,0,h,NA,NA,s,NA,h,614,NA,NA,563,NA,614,2,legacy,1024,2,48000,-16,experiment,3,odd,NA,37691,48172,49999,4223,NA,3656,NA,NA,49281,NA,3660,NA,49384,49279,49384,Flanker Test,18,11464,26,yes,1024
SSSSS,70.37037037,70.37037037,443.5925926,443.5925926,black,legacy,legacy,legacy,0,congruent,uniform,1,undefined,1,s,0,26,26,26,0,0,0,26,0,26,0,0,0,26,26,26,Sat Sep 19 00:41:41 2020,1500,The main experiment item,yes,FlankerTask.osexp,C:\Users\Owner\Documents,no,mono,no,18,no,white,no,yes,768,legacy,26,26,C:/Users/Owner/Documents/KTPsubject-3.csv,legacy,Lentiform Loewenfeld,3.3.3,0,s,NA,NA,s,NA,s,513,NA,NA,563,NA,513,2,legacy,1024,2,48000,-16,experiment,3,odd,NA,37691,50003,51701,4223,NA,3656,NA,NA,51085,NA,3660,NA,51188,51083,51188,Flanker Test,19,11977,27,yes,1024
SSHSS,71.42857143,71.42857143,449.6428571,449.6428571,black,legacy,legacy,legacy,0,incongruent,uniform,1,undefined,1,h,0,27,27,27,0,0,0,27,0,27,0,0,0,27,27,27,Sat Sep 19 00:41:41 2020,1500,The main experiment item,yes,FlankerTask.osexp,C:\Users\Owner\Documents,no,mono,no,18,no,white,no,yes,768,legacy,27,27,C:/Users/Owner/Documents/KTPsubject-3.csv,legacy,Lentiform Loewenfeld,3.3.3,0,h,NA,NA,s,NA,h,613,NA,NA,563,NA,613,2,legacy,1024,2,48000,-16,experiment,3,odd,NA,37691,51704,53529,4223,NA,3656,NA,NA,52811,NA,3660,NA,52914,52810,52914,Flanker Test,20,12590,28,yes,1024
SSSSS,72.4137931,72.4137931,448.0689655,448.0689655,black,legacy,legacy,legacy,0,congruent,uniform,1,undefined,1,s,0,28,28,28,0,0,0,28,0,28,0,0,0,28,28,28,Sat Sep 19 00:41:41 2020,1500,The main experiment item,yes,FlankerTask.osexp,C:\Users\Owner\Documents,no,mono,no,18,no,white,no,yes,768,legacy,28,28,C:/Users/Owner/Documents/KTPsubject-3.csv,legacy,Lentiform Loewenfeld,3.3.3,0,s,NA,NA,s,NA,s,404,NA,NA,563,NA,404,2,legacy,1024,2,48000,-16,experiment,3,odd,NA,37691,53532,55138,4223,NA,3656,NA,NA,54629,NA,3660,NA,54732,54627,54732,Flanker Test,21,12994,29,yes,1024
SSHSS,73.33333333,73.33333333,471.1666667,471.1666667,black,legacy,legacy,legacy,0,incongruent,uniform,1,undefined,1,h,0,29,29,29,0,0,0,29,0,29,0,0,0,29,29,29,Sat Sep 19 00:41:41 2020,1500,The main experiment item,yes,FlankerTask.osexp,C:\Users\Owner\Documents,no,mono,no,18,no,white,no,yes,768,legacy,29,29,C:/Users/Owner/Documents/KTPsubject-3.csv,legacy,Lentiform Loewenfeld,3.3.3,0,h,NA,NA,s,NA,h,1141,NA,NA,563,NA,1141,2,legacy,1024,2,48000,-16,experiment,3,odd,NA,37691,55141,57493,4223,NA,3656,NA,NA,56248,NA,3660,NA,56351,56247,56351,Flanker Test,22,14135,30,yes,1024
SSSSS,74.19354839,74.19354839,471.8064516,471.8064516,black,legacy,legacy,legacy,0,congruent,uniform,1,undefined,1,s,0,30,30,30,0,0,0,30,0,30,0,0,0,30,30,30,Sat Sep 19 00:41:41 2020,1500,The main experiment item,yes,FlankerTask.osexp,C:\Users\Owner\Documents,no,mono,no,18,no,white,no,yes,768,legacy,30,30,C:/Users/Owner/Documents/KTPsubject-3.csv,legacy,Lentiform Loewenfeld,3.3.3,0,s,NA,NA,s,NA,s,491,NA,NA,563,NA,491,2,legacy,1024,2,48000,-16,experiment,3,odd,NA,37691,57496,59199,4223,NA,3656,NA,NA,58603,NA,3660,NA,58706,58602,58706,Flanker Test,23,14626,31,yes,1024
HHHHH,75,75,467.625,467.625,black,legacy,legacy,legacy,0,congruent,uniform,1,undefined,1,h,0,31,31,31,0,0,0,31,0,31,0,0,0,31,31,31,Sat Sep 19 00:41:41 2020,1500,The main experiment item,yes,FlankerTask.osexp,C:\Users\Owner\Documents,no,mono,no,18,no,white,no,yes,768,legacy,31,31,C:/Users/Owner/Documents/KTPsubject-3.csv,legacy,Lentiform Loewenfeld,3.3.3,0,h,NA,NA,s,NA,h,338,NA,NA,563,NA,338,2,legacy,1024,2,48000,-16,experiment,3,odd,NA,37691,59202,60748,4223,NA,3656,NA,NA,60306,NA,3660,NA,60409,60304,60409,Flanker Test,24,14964,32,yes,1024
HHHHH,75.75757576,75.75757576,467.0909091,467.0909091,black,legacy,legacy,legacy,0,congruent,uniform,1,undefined,1,h,0,32,32,32,0,0,0,32,0,32,0,0,0,32,32,32,Sat Sep 19 00:41:41 2020,1500,The main experiment item,yes,FlankerTask.osexp,C:\Users\Owner\Documents,no,mono,no,18,no,white,no,yes,768,legacy,32,32,C:/Users/Owner/Documents/KTPsubject-3.csv,legacy,Lentiform Loewenfeld,3.3.3,0,h,NA,NA,s,NA,h,450,NA,NA,563,NA,450,2,legacy,1024,2,48000,-16,experiment,3,odd,NA,37691,60751,62412,4223,NA,3656,NA,NA,61858,NA,3660,NA,61961,61857,61961,Flanker Test,25,15414,33,yes,1024
HHSHH,76.47058824,76.47058824,468.3823529,468.3823529,black,legacy,legacy,legacy,0,incongruent,uniform,1,undefined,1,s,0,33,33,33,0,0,0,33,0,33,0,0,0,33,33,33,Sat Sep 19 00:41:41 2020,1500,The main experiment item,yes,FlankerTask.osexp,C:\Users\Owner\Documents,no,mono,no,18,no,white,no,yes,768,legacy,33,33,C:/Users/Owner/Documents/KTPsubject-3.csv,legacy,Lentiform Loewenfeld,3.3.3,0,s,NA,NA,s,NA,s,511,NA,NA,563,NA,511,2,legacy,1024,2,48000,-16,experiment,3,odd,NA,37691,62415,64138,4223,NA,3656,NA,NA,63522,NA,3660,NA,63626,63520,63625,Flanker Test,26,15925,34,yes,1024
SSSSS,77.14285714,77.14285714,469,469,black,legacy,legacy,legacy,0,congruent,uniform,1,undefined,1,s,0,34,34,34,0,0,0,34,0,34,0,0,0,34,34,34,Sat Sep 19 00:41:41 2020,1500,The main experiment item,yes,FlankerTask.osexp,C:\Users\Owner\Documents,no,mono,no,18,no,white,no,yes,768,legacy,34,34,C:/Users/Owner/Documents/KTPsubject-3.csv,legacy,Lentiform Loewenfeld,3.3.3,0,s,NA,NA,s,NA,s,490,NA,NA,563,NA,490,2,legacy,1024,2,48000,-16,experiment,3,odd,NA,37691,64142,65839,4223,NA,3656,NA,NA,65245,NA,3660,NA,65348,65243,65348,Flanker Test,27,16415,35,yes,1024
HHHHH,77.77777778,77.77777778,466.5833333,466.5833333,black,legacy,legacy,legacy,0,congruent,uniform,1,undefined,1,h,0,35,35,35,0,0,0,35,0,35,0,0,0,35,35,35,Sat Sep 19 00:41:41 2020,1500,The main experiment item,yes,FlankerTask.osexp,C:\Users\Owner\Documents,no,mono,no,18,no,white,no,yes,768,legacy,35,35,C:/Users/Owner/Documents/KTPsubject-3.csv,legacy,Lentiform Loewenfeld,3.3.3,0,h,NA,NA,s,NA,h,382,NA,NA,563,NA,382,2,legacy,1024,2,48000,-16,experiment,3,odd,NA,37691,65842,67435,4223,NA,3656,NA,NA,66949,NA,3660,NA,67052,66948,67052,Flanker Test,28,16797,36,yes,1024
SSHSS,78.37837838,78.37837838,469,469,black,legacy,legacy,legacy,0,incongruent,uniform,1,undefined,1,h,0,36,36,36,0,0,0,36,0,36,0,0,0,36,36,36,Sat Sep 19 00:41:41 2020,1500,The main experiment item,yes,FlankerTask.osexp,C:\Users\Owner\Documents,no,mono,no,18,no,white,no,yes,768,legacy,36,36,C:/Users/Owner/Documents/KTPsubject-3.csv,legacy,Lentiform Loewenfeld,3.3.3,0,h,NA,NA,s,NA,h,556,NA,NA,563,NA,556,2,legacy,1024,2,48000,-16,experiment,3,odd,NA,37691,67437,69204,4223,NA,3656,NA,NA,68544,NA,3660,NA,68647,68543,68647,Flanker Test,29,17353,37,yes,1024
HHSHH,78.94736842,78.94736842,468.6315789,468.6315789,black,legacy,legacy,legacy,0,incongruent,uniform,1,undefined,1,s,0,37,37,37,0,0,0,37,0,37,0,0,0,37,37,37,Sat Sep 19 00:41:41 2020,1500,The main experiment item,yes,FlankerTask.osexp,C:\Users\Owner\Documents,no,mono,no,18,no,white,no,yes,768,legacy,37,37,C:/Users/Owner/Documents/KTPsubject-3.csv,legacy,Lentiform Loewenfeld,3.3.3,0,s,NA,NA,s,NA,s,455,NA,NA,563,NA,455,2,legacy,1024,2,48000,-16,experiment,3,odd,NA,37691,69208,70880,4223,NA,3656,NA,NA,70322,NA,3660,NA,70424,70320,70424,Flanker Test,30,17808,38,yes,1024
HHHHH,79.48717949,79.48717949,467.8461538,467.8461538,black,legacy,legacy,legacy,0,congruent,uniform,1,undefined,1,h,0,38,38,38,0,0,0,38,0,38,0,0,0,38,38,38,Sat Sep 19 00:41:41 2020,1500,The main experiment item,yes,FlankerTask.osexp,C:\Users\Owner\Documents,no,mono,no,18,no,white,no,yes,768,legacy,38,38,C:/Users/Owner/Documents/KTPsubject-3.csv,legacy,Lentiform Loewenfeld,3.3.3,0,h,NA,NA,s,NA,h,438,NA,NA,563,NA,438,2,legacy,1024,2,48000,-16,experiment,3,odd,NA,37691,70883,72534,4223,NA,3656,NA,NA,71992,NA,3660,NA,72095,71991,72095,Flanker Test,31,18246,39,yes,1024
SSSSS,80,80,468.35,468.35,black,legacy,legacy,legacy,0,congruent,uniform,1,undefined,1,s,0,39,39,39,0,0,0,39,0,39,0,0,0,39,39,39,Sat Sep 19 00:41:41 2020,1500,The main experiment item,yes,FlankerTask.osexp,C:\Users\Owner\Documents,no,mono,no,18,no,white,no,yes,768,legacy,39,39,C:/Users/Owner/Documents/KTPsubject-3.csv,legacy,Lentiform Loewenfeld,3.3.3,0,s,NA,NA,s,NA,s,488,NA,NA,563,NA,488,2,legacy,1024,2,48000,-16,experiment,3,odd,NA,37691,72538,74182,4223,NA,3656,NA,NA,73590,NA,3660,NA,73693,73588,73692,Flanker Test,32,18734,40,yes,1024
SSSSS,80.48780488,80.48780488,467.5609756,467.5609756,black,legacy,legacy,legacy,0,congruent,uniform,1,undefined,1,s,0,40,40,40,0,0,0,40,0,40,0,0,0,40,40,40,Sat Sep 19 00:41:41 2020,1500,The main experiment item,yes,FlankerTask.osexp,C:\Users\Owner\Documents,no,mono,no,18,no,white,no,yes,768,legacy,40,40,C:/Users/Owner/Documents/KTPsubject-3.csv,legacy,Lentiform Loewenfeld,3.3.3,0,s,NA,NA,s,NA,s,436,NA,NA,563,NA,436,2,legacy,1024,2,48000,-16,experiment,3,odd,NA,37691,74186,75785,4223,NA,3656,NA,NA,75245,NA,3660,NA,75348,75244,75348,Flanker Test,33,19170,41,yes,1024
SSHSS,80.95238095,80.95238095,465.5238095,465.5238095,black,legacy,legacy,legacy,0,incongruent,uniform,1,undefined,1,h,0,41,41,41,0,0,0,41,0,41,0,0,0,41,41,41,Sat Sep 19 00:41:41 2020,1500,The main experiment item,yes,FlankerTask.osexp,C:\Users\Owner\Documents,no,mono,no,18,no,white,no,yes,768,legacy,41,41,C:/Users/Owner/Documents/KTPsubject-3.csv,legacy,Lentiform Loewenfeld,3.3.3,0,h,NA,NA,s,NA,h,382,NA,NA,563,NA,382,2,legacy,1024,2,48000,-16,experiment,3,odd,NA,37691,75788,77370,4223,NA,3656,NA,NA,76884,NA,3660,NA,76987,76883,76987,Flanker Test,34,19552,42,yes,1024
SSHSS,81.39534884,81.39534884,466.6046512,466.6046512,black,legacy,legacy,legacy,0,incongruent,uniform,1,undefined,1,h,0,42,42,42,0,0,0,42,0,42,0,0,0,42,42,42,Sat Sep 19 00:41:41 2020,1500,The main experiment item,yes,FlankerTask.osexp,C:\Users\Owner\Documents,no,mono,no,18,no,white,no,yes,768,legacy,42,42,C:/Users/Owner/Documents/KTPsubject-3.csv,legacy,Lentiform Loewenfeld,3.3.3,0,h,NA,NA,s,NA,h,512,NA,NA,563,NA,512,2,legacy,1024,2,48000,-16,experiment,3,odd,NA,37691,77374,79098,4223,NA,3656,NA,NA,78482,NA,3660,NA,78586,78480,78586,Flanker Test,35,20064,43,yes,1024
SSSSS,81.81818182,81.81818182,464.75,464.75,black,legacy,legacy,legacy,0,congruent,uniform,1,undefined,1,s,0,43,43,43,0,0,0,43,0,43,0,0,0,43,43,43,Sat Sep 19 00:41:41 2020,1500,The main experiment item,yes,FlankerTask.osexp,C:\Users\Owner\Documents,no,mono,no,18,no,white,no,yes,768,legacy,43,43,C:/Users/Owner/Documents/KTPsubject-3.csv,legacy,Lentiform Loewenfeld,3.3.3,0,s,NA,NA,s,NA,s,385,NA,NA,563,NA,385,2,legacy,1024,2,48000,-16,experiment,3,odd,NA,37691,79104,80697,4223,NA,3656,NA,NA,80207,NA,3660,NA,80311,80206,80310,Flanker Test,36,20449,44,yes,1024
HHSHH,82.22222222,82.22222222,465.4444444,465.4444444,black,legacy,legacy,legacy,0,incongruent,uniform,1,undefined,1,s,0,44,44,44,0,0,0,44,0,44,0,0,0,44,44,44,Sat Sep 19 00:41:41 2020,1500,The main experiment item,yes,FlankerTask.osexp,C:\Users\Owner\Documents,no,mono,no,18,no,white,no,yes,768,legacy,44,44,C:/Users/Owner/Documents/KTPsubject-3.csv,legacy,Lentiform Loewenfeld,3.3.3,0,s,NA,NA,s,NA,s,496,NA,NA,563,NA,496,2,legacy,1024,2,48000,-16,experiment,3,odd,NA,37691,80701,82408,4223,NA,3656,NA,NA,81807,NA,3660,NA,81910,81805,81910,Flanker Test,37,20945,45,yes,1024
SSSSS,82.60869565,82.60869565,464.9347826,464.9347826,black,legacy,legacy,legacy,0,congruent,uniform,1,undefined,1,s,0,45,45,45,0,0,0,45,0,45,0,0,0,45,45,45,Sat Sep 19 00:41:41 2020,1500,The main experiment item,yes,FlankerTask.osexp,C:\Users\Owner\Documents,no,mono,no,18,no,white,no,yes,768,legacy,45,45,C:/Users/Owner/Documents/KTPsubject-3.csv,legacy,Lentiform Loewenfeld,3.3.3,0,s,NA,NA,s,NA,s,442,NA,NA,563,NA,442,2,legacy,1024,2,48000,-16,experiment,3,odd,NA,37691,82411,84063,4223,NA,3656,NA,NA,83517,NA,3660,NA,83620,83515,83620,Flanker Test,38,21387,46,yes,1024
HHHHH,82.9787234,82.9787234,464.6170213,464.6170213,black,legacy,legacy,legacy,0,congruent,uniform,1,undefined,1,h,0,46,46,46,0,0,0,46,0,46,0,0,0,46,46,46,Sat Sep 19 00:41:41 2020,1500,The main experiment item,yes,FlankerTask.osexp,C:\Users\Owner\Documents,no,mono,no,18,no,white,no,yes,768,legacy,46,46,C:/Users/Owner/Documents/KTPsubject-3.csv,legacy,Lentiform Loewenfeld,3.3.3,0,h,NA,NA,s,NA,h,450,NA,NA,563,NA,450,2,legacy,1024,2,48000,-16,experiment,3,odd,NA,37691,84066,85726,4223,NA,3656,NA,NA,85171,NA,3660,NA,85274,85169,85274,Flanker Test,39,21837,47,yes,1024
SSSSS,83.33333333,83.33333333,463.9166667,463.9166667,black,legacy,legacy,legacy,0,congruent,uniform,1,undefined,1,s,0,47,47,47,0,0,0,47,0,47,0,0,0,47,47,47,Sat Sep 19 00:41:41 2020,1500,The main experiment item,yes,FlankerTask.osexp,C:\Users\Owner\Documents,no,mono,no,18,no,white,no,yes,768,legacy,47,47,C:/Users/Owner/Documents/KTPsubject-3.csv,legacy,Lentiform Loewenfeld,3.3.3,0,s,NA,NA,s,NA,s,431,NA,NA,563,NA,431,2,legacy,1024,2,48000,-16,experiment,3,odd,NA,37691,85728,87366,4223,NA,3656,NA,NA,86831,NA,3660,NA,86934,86830,86934,Flanker Test,40,22268,48,yes,1024
HHSHH,83.67346939,83.67346939,465.4285714,465.4285714,black,legacy,legacy,legacy,0,incongruent,uniform,1,undefined,1,s,0,48,48,48,0,0,0,48,0,48,0,0,0,48,48,48,Sat Sep 19 00:41:41 2020,1500,The main experiment item,yes,FlankerTask.osexp,C:\Users\Owner\Documents,no,mono,no,18,no,white,no,yes,768,legacy,48,48,C:/Users/Owner/Documents/KTPsubject-3.csv,legacy,Lentiform Loewenfeld,3.3.3,0,s,NA,NA,s,NA,s,538,NA,NA,563,NA,538,2,legacy,1024,2,48000,-16,experiment,3,odd,NA,37691,87370,89118,4223,NA,3656,NA,NA,88477,NA,3660,NA,88580,88476,88580,Flanker Test,41,22806,49,yes,1024
SSHSS,84,84,466.92,466.92,black,legacy,legacy,legacy,0,incongruent,uniform,1,undefined,1,h,0,49,49,49,0,0,0,49,0,49,0,0,0,49,49,49,Sat Sep 19 00:41:41 2020,1500,The main experiment item,yes,FlankerTask.osexp,C:\Users\Owner\Documents,no,mono,no,18,no,white,no,yes,768,legacy,49,49,C:/Users/Owner/Documents/KTPsubject-3.csv,legacy,Lentiform Loewenfeld,3.3.3,0,h,NA,NA,s,NA,h,540,NA,NA,563,NA,540,2,legacy,1024,2,48000,-16,experiment,3,odd,NA,37691,89124,90872,4223,NA,3656,NA,NA,90228,NA,3660,NA,90332,90227,90332,Flanker Test,42,23346,50,yes,1024
HHSHH,84.31372549,84.31372549,468.1176471,468.1176471,black,legacy,legacy,legacy,0,incongruent,uniform,1,undefined,1,s,0,50,50,50,0,0,0,50,0,50,0,0,0,50,50,50,Sat Sep 19 00:41:41 2020,1500,The main experiment item,yes,FlankerTask.osexp,C:\Users\Owner\Documents,no,mono,no,18,no,white,no,yes,768,legacy,50,50,C:/Users/Owner/Documents/KTPsubject-3.csv,legacy,Lentiform Loewenfeld,3.3.3,0,s,NA,NA,s,NA,s,528,NA,NA,563,NA,528,2,legacy,1024,2,48000,-16,experiment,3,odd,NA,37691,90876,92587,4223,NA,3656,NA,NA,91954,NA,3660,NA,92057,91952,92057,Flanker Test,43,23874,51,yes,1024
HHSHH,84.61538462,84.61538462,468.6153846,468.6153846,black,legacy,legacy,legacy,0,incongruent,uniform,1,undefined,1,s,0,51,51,51,0,0,0,51,0,51,0,0,0,51,51,51,Sat Sep 19 00:41:41 2020,1500,The main experiment item,yes,FlankerTask.osexp,C:\Users\Owner\Documents,no,mono,no,18,no,white,no,yes,768,legacy,51,51,C:/Users/Owner/Documents/KTPsubject-3.csv,legacy,Lentiform Loewenfeld,3.3.3,0,s,NA,NA,s,NA,s,494,NA,NA,563,NA,494,2,legacy,1024,2,48000,-16,experiment,3,odd,NA,37691,92590,94277,4223,NA,3656,NA,NA,93679,NA,3660,NA,93782,93677,93782,Flanker Test,44,24368,52,yes,1024
SSHSS,84.90566038,84.90566038,469.0377358,469.0377358,black,legacy,legacy,legacy,0,incongruent,uniform,1,undefined,1,h,0,52,52,52,0,0,0,52,0,52,0,0,0,52,52,52,Sat Sep 19 00:41:41 2020,1500,The main experiment item,yes,FlankerTask.osexp,C:\Users\Owner\Documents,no,mono,no,18,no,white,no,yes,768,legacy,52,52,C:/Users/Owner/Documents/KTPsubject-3.csv,legacy,Lentiform Loewenfeld,3.3.3,0,h,NA,NA,s,NA,h,491,NA,NA,563,NA,491,2,legacy,1024,2,48000,-16,experiment,3,odd,NA,37691,94280,95982,4223,NA,3656,NA,NA,95387,NA,3660,NA,95490,95386,95490,Flanker Test,45,24859,53,yes,1024
HHSHH,85.18518519,85.18518519,467.8703704,467.8703704,black,legacy,legacy,legacy,0,incongruent,uniform,1,undefined,1,s,0,53,53,53,0,0,0,53,0,53,0,0,0,53,53,53,Sat Sep 19 00:41:41 2020,1500,The main experiment item,yes,FlankerTask.osexp,C:\Users\Owner\Documents,no,mono,no,18,no,white,no,yes,768,legacy,53,53,C:/Users/Owner/Documents/KTPsubject-3.csv,legacy,Lentiform Loewenfeld,3.3.3,0,s,NA,NA,s,NA,s,406,NA,NA,563,NA,406,2,legacy,1024,2,48000,-16,experiment,3,odd,NA,37691,95985,97601,4223,NA,3656,NA,NA,97091,NA,3660,NA,97194,97089,97194,Flanker Test,46,25265,54,yes,1024
SSSSS,85.45454545,85.45454545,467.6,467.6,black,legacy,legacy,legacy,0,congruent,uniform,1,undefined,1,s,0,54,54,54,0,0,0,54,0,54,0,0,0,54,54,54,Sat Sep 19 00:41:41 2020,1500,The main experiment item,yes,FlankerTask.osexp,C:\Users\Owner\Documents,no,mono,no,18,no,white,no,yes,768,legacy,54,54,C:/Users/Owner/Documents/KTPsubject-3.csv,legacy,Lentiform Loewenfeld,3.3.3,0,s,NA,NA,s,NA,s,453,NA,NA,563,NA,453,2,legacy,1024,2,48000,-16,experiment,3,odd,NA,37691,97604,99265,4223,NA,3656,NA,NA,98708,NA,3660,NA,98811,98706,98811,Flanker Test,47,25718,55,yes,1024
HHHHH,85.71428571,85.71428571,466.7142857,466.7142857,black,legacy,legacy,legacy,0,congruent,uniform,1,undefined,1,h,0,55,55,55,0,0,0,55,0,55,0,0,0,55,55,55,Sat Sep 19 00:41:41 2020,1500,The main experiment item,yes,FlankerTask.osexp,C:\Users\Owner\Documents,no,mono,no,18,no,white,no,yes,768,legacy,55,55,C:/Users/Owner/Documents/KTPsubject-3.csv,legacy,Lentiform Loewenfeld,3.3.3,0,h,NA,NA,s,NA,h,418,NA,NA,563,NA,418,2,legacy,1024,2,48000,-16,experiment,3,odd,NA,37691,99269,100892,4223,NA,3656,NA,NA,100370,NA,3660,NA,100473,100369,100473,Flanker Test,48,26136,56,yes,1024
SSHSS,85.96491228,85.96491228,466.6842105,466.6842105,black,legacy,legacy,legacy,0,incongruent,uniform,1,undefined,1,h,0,56,56,56,0,0,0,56,0,56,0,0,0,56,56,56,Sat Sep 19 00:41:41 2020,1500,The main experiment item,yes,FlankerTask.osexp,C:\Users\Owner\Documents,no,mono,no,18,no,white,no,yes,768,legacy,56,56,C:/Users/Owner/Documents/KTPsubject-3.csv,legacy,Lentiform Loewenfeld,3.3.3,0,h,NA,NA,s,NA,h,465,NA,NA,563,NA,465,2,legacy,1024,2,48000,-16,experiment,3,odd,NA,37691,100896,102566,4223,NA,3656,NA,NA,101998,NA,3660,NA,102101,101996,102101,Flanker Test,49,26601,57,yes,1024
HHHHH,86.20689655,86.20689655,467.0517241,467.0517241,black,legacy,legacy,legacy,0,congruent,uniform,1,undefined,1,h,0,57,57,57,0,0,0,57,0,57,0,0,0,57,57,57,Sat Sep 19 00:41:41 2020,1500,The main experiment item,yes,FlankerTask.osexp,C:\Users\Owner\Documents,no,mono,no,18,no,white,no,yes,768,legacy,57,57,C:/Users/Owner/Documents/KTPsubject-3.csv,legacy,Lentiform Loewenfeld,3.3.3,0,h,NA,NA,s,NA,h,488,NA,NA,563,NA,488,2,legacy,1024,2,48000,-16,experiment,3,odd,NA,37691,102570,104271,4223,NA,3656,NA,NA,103679,NA,3660,NA,103781,103677,103781,Flanker Test,50,27089,58,yes,1024
HHSHH,86.44067797,86.44067797,466.5254237,466.5254237,black,legacy,legacy,legacy,0,incongruent,uniform,1,undefined,1,s,0,58,58,58,0,0,0,58,0,58,0,0,0,58,58,58,Sat Sep 19 00:41:41 2020,1500,The main experiment item,yes,FlankerTask.osexp,C:\Users\Owner\Documents,no,mono,no,18,no,white,no,yes,768,legacy,58,58,C:/Users/Owner/Documents/KTPsubject-3.csv,legacy,Lentiform Loewenfeld,3.3.3,0,s,NA,NA,s,NA,s,436,NA,NA,563,NA,436,2,legacy,1024,2,48000,-16,experiment,3,odd,NA,37691,104274,105920,4223,NA,3656,NA,NA,105381,NA,3660,NA,105483,105380,105483,Flanker Test,51,27525,59,yes,1024
HHSHH,86.66666667,86.66666667,467.7333333,467.7333333,black,legacy,legacy,legacy,0,incongruent,uniform,1,undefined,1,s,0,59,59,59,0,0,0,59,0,59,0,0,0,59,59,59,Sat Sep 19 00:41:41 2020,1500,The main experiment item,yes,FlankerTask.osexp,C:\Users\Owner\Documents,no,mono,no,18,no,white,no,yes,768,legacy,59,59,C:/Users/Owner/Documents/KTPsubject-3.csv,legacy,Lentiform Loewenfeld,3.3.3,0,s,NA,NA,s,NA,s,539,NA,NA,563,NA,539,2,legacy,1024,2,48000,-16,experiment,3,odd,NA,37691,105924,107648,4223,NA,3656,NA,NA,107004,NA,3660,NA,107108,107002,107107,Flanker Test,52,28064,60,yes,1024
HHSHH,86.8852459,86.8852459,470.0819672,470.0819672,black,legacy,legacy,legacy,0,incongruent,uniform,1,undefined,1,s,0,60,60,60,0,0,0,60,0,60,0,0,0,60,60,60,Sat Sep 19 00:41:41 2020,1500,The main experiment item,yes,FlankerTask.osexp,C:\Users\Owner\Documents,no,mono,no,18,no,white,no,yes,768,legacy,60,60,C:/Users/Owner/Documents/KTPsubject-3.csv,legacy,Lentiform Loewenfeld,3.3.3,0,s,NA,NA,s,NA,s,611,NA,NA,563,NA,611,2,legacy,1024,2,48000,-16,experiment,3,odd,NA,37691,107652,109473,4223,NA,3656,NA,NA,108758,NA,3660,NA,108861,108757,108861,Flanker Test,53,28675,61,yes,1024
HHHHH,87.09677419,87.09677419,471.4677419,471.4677419,black,legacy,legacy,legacy,0,congruent,uniform,1,undefined,1,h,0,61,61,61,0,0,0,61,0,61,0,0,0,61,61,61,Sat Sep 19 00:41:41 2020,1500,The main experiment item,yes,FlankerTask.osexp,C:\Users\Owner\Documents,no,mono,no,18,no,white,no,yes,768,legacy,61,61,C:/Users/Owner/Documents/KTPsubject-3.csv,legacy,Lentiform Loewenfeld,3.3.3,0,h,NA,NA,s,NA,h,556,NA,NA,563,NA,556,2,legacy,1024,2,48000,-16,experiment,3,odd,NA,37691,109477,111238,4223,NA,3656,NA,NA,110578,NA,3660,NA,110681,110577,110681,Flanker Test,54,29231,62,yes,1024
HHHHH,87.3015873,87.3015873,472.5396825,472.5396825,black,legacy,legacy,legacy,0,congruent,uniform,1,undefined,1,h,0,62,62,62,0,0,0,62,0,62,0,0,0,62,62,62,Sat Sep 19 00:41:41 2020,1500,The main experiment item,yes,FlankerTask.osexp,C:\Users\Owner\Documents,no,mono,no,18,no,white,no,yes,768,legacy,62,62,C:/Users/Owner/Documents/KTPsubject-3.csv,legacy,Lentiform Loewenfeld,3.3.3,0,h,NA,NA,s,NA,h,539,NA,NA,563,NA,539,2,legacy,1024,2,48000,-16,experiment,3,odd,NA,37691,111242,112958,4223,NA,3656,NA,NA,112314,NA,3660,NA,112418,112313,112417,Flanker Test,55,29770,63,yes,1024
SSHSS,87.5,87.5,474.28125,474.28125,black,legacy,legacy,legacy,0,incongruent,uniform,1,undefined,1,h,0,63,63,63,0,0,0,63,0,63,0,0,0,63,63,63,Sat Sep 19 00:41:41 2020,1500,The main experiment item,yes,FlankerTask.osexp,C:\Users\Owner\Documents,no,mono,no,18,no,white,no,yes,768,legacy,63,63,C:/Users/Owner/Documents/KTPsubject-3.csv,legacy,Lentiform Loewenfeld,3.3.3,0,h,NA,NA,s,NA,h,584,NA,NA,563,NA,584,2,legacy,1024,2,48000,-16,experiment,3,odd,NA,37691,112962,114754,4223,NA,3656,NA,NA,114065,NA,3660,NA,114168,114064,114168,Flanker Test,56,30354,64,yes,1024
SSSSS,87.69230769,87.69230769,473.5692308,473.5692308,black,legacy,legacy,legacy,0,congruent,uniform,1,undefined,1,s,0,64,64,64,0,0,0,64,0,64,0,0,0,64,64,64,Sat Sep 19 00:41:41 2020,1500,The main experiment item,yes,FlankerTask.osexp,C:\Users\Owner\Documents,no,mono,no,18,no,white,no,yes,768,legacy,64,64,C:/Users/Owner/Documents/KTPsubject-3.csv,legacy,Lentiform Loewenfeld,3.3.3,0,s,NA,NA,s,NA,s,428,NA,NA,563,NA,428,2,legacy,1024,2,48000,-16,experiment,3,odd,NA,37691,114757,116397,4223,NA,3656,NA,NA,115865,NA,3660,NA,115968,115863,115968,Flanker Test,57,30782,65,yes,1024
SSSSS,87.87878788,87.87878788,472.9545455,472.9545455,black,legacy,legacy,legacy,0,congruent,uniform,1,undefined,1,s,0,65,65,65,0,0,0,65,0,65,0,0,0,65,65,65,Sat Sep 19 00:41:41 2020,1500,The main experiment item,yes,FlankerTask.osexp,C:\Users\Owner\Documents,no,mono,no,18,no,white,no,yes,768,legacy,65,65,C:/Users/Owner/Documents/KTPsubject-3.csv,legacy,Lentiform Loewenfeld,3.3.3,0,s,NA,NA,s,NA,s,433,NA,NA,563,NA,433,2,legacy,1024,2,48000,-16,experiment,3,odd,NA,37691,116400,118050,4223,NA,3656,NA,NA,117513,NA,3660,NA,117616,117511,117616,Flanker Test,58,31215,66,yes,1024
HHHHH,88.05970149,88.05970149,472.4776119,472.4776119,black,legacy,legacy,legacy,0,congruent,uniform,1,undefined,1,h,0,66,66,66,0,0,0,66,0,66,0,0,0,66,66,66,Sat Sep 19 00:41:41 2020,1500,The main experiment item,yes,FlankerTask.osexp,C:\Users\Owner\Documents,no,mono,no,18,no,white,no,yes,768,legacy,66,66,C:/Users/Owner/Documents/KTPsubject-3.csv,legacy,Lentiform Loewenfeld,3.3.3,0,h,NA,NA,s,NA,h,441,NA,NA,563,NA,441,2,legacy,1024,2,48000,-16,experiment,3,odd,NA,37691,118054,119707,4223,NA,3656,NA,NA,119160,NA,3660,NA,119264,119158,119264,Flanker Test,59,31656,67,yes,1024
SSSSS,88.23529412,88.23529412,472.9117647,472.9117647,black,legacy,legacy,legacy,0,congruent,uniform,1,undefined,1,s,0,67,67,67,0,0,0,67,0,67,0,0,0,67,67,67,Sat Sep 19 00:41:41 2020,1500,The main experiment item,yes,FlankerTask.osexp,C:\Users\Owner\Documents,no,mono,no,18,no,white,no,yes,768,legacy,67,67,C:/Users/Owner/Documents/KTPsubject-3.csv,legacy,Lentiform Loewenfeld,3.3.3,0,s,NA,NA,s,NA,s,502,NA,NA,563,NA,502,2,legacy,1024,2,48000,-16,experiment,3,odd,NA,37691,119710,121422,4223,NA,3656,NA,NA,120816,NA,3660,NA,120918,120814,120918,Flanker Test,60,32158,68,yes,1024
SSSSS,88.4057971,88.4057971,472.0724638,472.0724638,black,legacy,legacy,legacy,0,congruent,uniform,1,undefined,1,s,0,68,68,68,0,0,0,68,0,68,0,0,0,68,68,68,Sat Sep 19 00:41:41 2020,1500,The main experiment item,yes,FlankerTask.osexp,C:\Users\Owner\Documents,no,mono,no,18,no,white,no,yes,768,legacy,68,68,C:/Users/Owner/Documents/KTPsubject-3.csv,legacy,Lentiform Loewenfeld,3.3.3,0,s,NA,NA,s,NA,s,415,NA,NA,563,NA,415,2,legacy,1024,2,48000,-16,experiment,3,odd,NA,37691,121425,123047,4223,NA,3656,NA,NA,122528,NA,3660,NA,122631,122527,122631,Flanker Test,61,32573,69,yes,1024
SSSSS,88.57142857,88.57142857,471.5857143,471.5857143,black,legacy,legacy,legacy,0,congruent,uniform,1,undefined,1,s,0,69,69,69,0,0,0,69,0,69,0,0,0,69,69,69,Sat Sep 19 00:41:41 2020,1500,The main experiment item,yes,FlankerTask.osexp,C:\Users\Owner\Documents,no,mono,no,18,no,white,no,yes,768,legacy,69,69,C:/Users/Owner/Documents/KTPsubject-3.csv,legacy,Lentiform Loewenfeld,3.3.3,0,s,NA,NA,s,NA,s,438,NA,NA,563,NA,438,2,legacy,1024,2,48000,-16,experiment,3,odd,NA,37691,123051,124703,4223,NA,3656,NA,NA,124161,NA,3660,NA,124264,124159,124264,Flanker Test,62,33011,70,yes,1024
SSHSS,88.73239437,88.73239437,472.1830986,472.1830986,black,legacy,legacy,legacy,0,incongruent,uniform,1,undefined,1,h,0,70,70,70,0,0,0,70,0,70,0,0,0,70,70,70,Sat Sep 19 00:41:41 2020,1500,The main experiment item,yes,FlankerTask.osexp,C:\Users\Owner\Documents,no,mono,no,18,no,white,no,yes,768,legacy,70,70,C:/Users/Owner/Documents/KTPsubject-3.csv,legacy,Lentiform Loewenfeld,3.3.3,0,h,NA,NA,s,NA,h,514,NA,NA,563,NA,514,2,legacy,1024,2,48000,-16,experiment,3,odd,NA,37691,124707,126383,4223,NA,3656,NA,NA,125764,NA,3660,NA,125868,125763,125867,Flanker Test,63,33525,71,yes,1024
HHHHH,88.88888889,88.88888889,471.8333333,471.8333333,black,legacy,legacy,legacy,0,congruent,uniform,1,undefined,1,h,0,71,71,71,0,0,0,71,0,71,0,0,0,71,71,71,Sat Sep 19 00:41:41 2020,1500,The main experiment item,yes,FlankerTask.osexp,C:\Users\Owner\Documents,no,mono,no,18,no,white,no,yes,768,legacy,71,71,C:/Users/Owner/Documents/KTPsubject-3.csv,legacy,Lentiform Loewenfeld,3.3.3,0,h,NA,NA,s,NA,h,447,NA,NA,563,NA,447,2,legacy,1024,2,48000,-16,experiment,3,odd,NA,37691,126386,128035,4223,NA,3656,NA,NA,127483,NA,3660,NA,127586,127482,127585,Flanker Test,64,33972,72,yes,1024
HHSHH,89.04109589,89.04109589,473.6575342,473.6575342,black,legacy,legacy,legacy,0,incongruent,uniform,1,undefined,1,s,0,72,72,72,0,0,0,72,0,72,0,0,0,72,72,72,Sat Sep 19 00:41:41 2020,1500,The main experiment item,yes,FlankerTask.osexp,C:\Users\Owner\Documents,no,mono,no,18,no,white,no,yes,768,legacy,72,72,C:/Users/Owner/Documents/KTPsubject-3.csv,legacy,Lentiform Loewenfeld,3.3.3,0,s,NA,NA,s,NA,s,605,NA,NA,563,NA,605,2,legacy,1024,2,48000,-16,experiment,3,odd,NA,37691,128038,129853,4223,NA,3656,NA,NA,129144,NA,3660,NA,129247,129142,129247,Flanker Test,65,34577,73,yes,1024
HHSHH,89.18918919,89.18918919,475.3918919,475.3918919,black,legacy,legacy,legacy,0,incongruent,uniform,1,undefined,1,s,0,73,73,73,0,0,0,73,0,73,0,0,0,73,73,73,Sat Sep 19 00:41:41 2020,1500,The main experiment item,yes,FlankerTask.osexp,C:\Users\Owner\Documents,no,mono,no,18,no,white,no,yes,768,legacy,73,73,C:/Users/Owner/Documents/KTPsubject-3.csv,legacy,Lentiform Loewenfeld,3.3.3,0,s,NA,NA,s,NA,s,602,NA,NA,563,NA,602,2,legacy,1024,2,48000,-16,experiment,3,odd,NA,37691,129857,131621,4223,NA,3656,NA,NA,130914,NA,3660,NA,131018,130912,131017,Flanker Test,66,35179,74,yes,1024
HHSHH,89.33333333,89.33333333,474.9733333,474.9733333,black,legacy,legacy,legacy,0,incongruent,uniform,1,undefined,1,s,0,74,74,74,0,0,0,74,0,74,0,0,0,74,74,74,Sat Sep 19 00:41:41 2020,1500,The main experiment item,yes,FlankerTask.osexp,C:\Users\Owner\Documents,no,mono,no,18,no,white,no,yes,768,legacy,74,74,C:/Users/Owner/Documents/KTPsubject-3.csv,legacy,Lentiform Loewenfeld,3.3.3,0,s,NA,NA,s,NA,s,444,NA,NA,563,NA,444,2,legacy,1024,2,48000,-16,experiment,3,odd,NA,37691,131625,133279,4223,NA,3656,NA,NA,132733,NA,3660,NA,132834,132732,132834,Flanker Test,67,35623,75,yes,1024
SSHSS,89.47368421,89.47368421,475.9210526,475.9210526,black,legacy,legacy,legacy,0,incongruent,uniform,1,undefined,1,h,0,75,75,75,0,0,0,75,0,75,0,0,0,75,75,75,Sat Sep 19 00:41:41 2020,1500,The main experiment item,yes,FlankerTask.osexp,C:\Users\Owner\Documents,no,mono,no,18,no,white,no,yes,768,legacy,75,75,C:/Users/Owner/Documents/KTPsubject-3.csv,legacy,Lentiform Loewenfeld,3.3.3,0,h,NA,NA,s,NA,h,547,NA,NA,563,NA,547,2,legacy,1024,2,48000,-16,experiment,3,odd,NA,37691,133283,135054,4223,NA,3656,NA,NA,134402,NA,3660,NA,134506,134400,134506,Flanker Test,68,36170,76,yes,1024
HHSHH,89.61038961,89.61038961,477.6883117,477.6883117,black,legacy,legacy,legacy,0,incongruent,uniform,1,undefined,1,s,0,76,76,76,0,0,0,76,0,76,0,0,0,76,76,76,Sat Sep 19 00:41:41 2020,1500,The main experiment item,yes,FlankerTask.osexp,C:\Users\Owner\Documents,no,mono,no,18,no,white,no,yes,768,legacy,76,76,C:/Users/Owner/Documents/KTPsubject-3.csv,legacy,Lentiform Loewenfeld,3.3.3,0,s,NA,NA,s,NA,s,612,NA,NA,563,NA,612,2,legacy,1024,2,48000,-16,experiment,3,odd,NA,37691,135060,136880,4223,NA,3656,NA,NA,136164,NA,3660,NA,136267,136162,136267,Flanker Test,69,36782,77,yes,1024
HHHHH,89.74358974,89.74358974,477.2307692,477.2307692,black,legacy,legacy,legacy,0,congruent,uniform,1,undefined,1,h,0,77,77,77,0,0,0,77,0,77,0,0,0,77,77,77,Sat Sep 19 00:41:41 2020,1500,The main experiment item,yes,FlankerTask.osexp,C:\Users\Owner\Documents,no,mono,no,18,no,white,no,yes,768,legacy,77,77,C:/Users/Owner/Documents/KTPsubject-3.csv,legacy,Lentiform Loewenfeld,3.3.3,0,h,NA,NA,s,NA,h,442,NA,NA,563,NA,442,2,legacy,1024,2,48000,-16,experiment,3,odd,NA,37691,136884,138541,4223,NA,3656,NA,NA,137994,NA,3660,NA,138097,137992,138097,Flanker Test,70,37224,78,yes,1024
SSHSS,89.87341772,89.87341772,478.4810127,478.4810127,black,legacy,legacy,legacy,0,incongruent,uniform,1,undefined,1,h,0,78,78,78,0,0,0,78,0,78,0,0,0,78,78,78,Sat Sep 19 00:41:41 2020,1500,The main experiment item,yes,FlankerTask.osexp,C:\Users\Owner\Documents,no,mono,no,18,no,white,no,yes,768,legacy,78,78,C:/Users/Owner/Documents/KTPsubject-3.csv,legacy,Lentiform Loewenfeld,3.3.3,0,h,NA,NA,s,NA,h,576,NA,NA,563,NA,576,2,legacy,1024,2,48000,-16,experiment,3,odd,NA,37691,138544,140338,4223,NA,3656,NA,NA,139657,NA,3660,NA,139759,139655,139759,Flanker Test,71,37800,79,yes,1024
HHHHH,90,90,478.3375,478.3375,black,legacy,legacy,legacy,0,congruent,uniform,1,undefined,1,h,0,79,79,79,0,0,0,79,0,79,0,0,0,79,79,79,Sat Sep 19 00:41:41 2020,1500,The main experiment item,yes,FlankerTask.osexp,C:\Users\Owner\Documents,no,mono,no,18,no,white,no,yes,768,legacy,79,79,C:/Users/Owner/Documents/KTPsubject-3.csv,legacy,Lentiform Loewenfeld,3.3.3,0,h,NA,NA,s,NA,h,467,NA,NA,563,NA,467,2,legacy,1024,2,48000,-16,experiment,3,odd,NA,37691,140341,141998,4223,NA,3656,NA,NA,141427,NA,3660,NA,141530,141425,141530,Flanker Test,72,38267,80,yes,1024
HHHHH,90.12345679,90.12345679,478.5432099,478.5432099,black,legacy,legacy,legacy,0,congruent,uniform,1,undefined,1,h,0,80,80,80,0,0,0,80,0,80,0,0,0,80,80,80,Sat Sep 19 00:41:41 2020,600,The main experiment item,yes,FlankerTask.osexp,C:\Users\Owner\Documents,no,mono,no,18,no,white,no,yes,768,legacy,0,79,C:/Users/Owner/Documents/KTPsubject-3.csv,legacy,Lentiform Loewenfeld,3.3.3,0,h,NA,h,s,NA,h,495,NA,3168,563,NA,495,2,legacy,1024,2,48000,-16,experiment,3,odd,NA,37691,142001,146855,4223,146215,3656,NA,NA,146255,143046,3660,NA,146359,146254,146358,Flanker Test,73,38762,81,yes,1024
HHHHH,90.24390244,90.24390244,477.8292683,477.8292683,black,legacy,legacy,legacy,0,congruent,uniform,1,undefined,1,h,0,81,81,81,0,0,0,81,0,81,0,0,0,81,81,81,Sat Sep 19 00:41:41 2020,600,The main experiment item,yes,FlankerTask.osexp,C:\Users\Owner\Documents,no,mono,no,18,no,white,no,yes,768,legacy,1,79,C:/Users/Owner/Documents/KTPsubject-3.csv,legacy,Lentiform Loewenfeld,3.3.3,0,h,NA,h,s,NA,h,420,NA,3168,563,NA,420,2,legacy,1024,2,48000,-16,experiment,3,odd,NA,37691,146859,148489,4223,146215,3656,NA,NA,147964,143046,3660,NA,148067,147962,148067,Flanker Test,74,39182,82,yes,1024
HHSHH,90.36144578,90.36144578,476.9879518,476.9879518,black,legacy,legacy,legacy,0,incongruent,uniform,1,undefined,1,s,0,82,82,82,0,0,0,82,0,82,0,0,0,82,82,82,Sat Sep 19 00:41:41 2020,600,The main experiment item,yes,FlankerTask.osexp,C:\Users\Owner\Documents,no,mono,no,18,no,white,no,yes,768,legacy,2,79,C:/Users/Owner/Documents/KTPsubject-3.csv,legacy,Lentiform Loewenfeld,3.3.3,0,s,NA,h,s,NA,s,408,NA,3168,563,NA,408,2,legacy,1024,2,48000,-16,experiment,3,odd,NA,37691,148493,150108,4223,146215,3656,NA,NA,149596,143046,3660,NA,149699,149594,149699,Flanker Test,75,39590,83,yes,1024
HHSHH,90.47619048,90.47619048,476.4166667,476.4166667,black,legacy,legacy,legacy,0,incongruent,uniform,1,undefined,1,s,0,83,83,83,0,0,0,83,0,83,0,0,0,83,83,83,Sat Sep 19 00:41:41 2020,600,The main experiment item,yes,FlankerTask.osexp,C:\Users\Owner\Documents,no,mono,no,18,no,white,no,yes,768,legacy,3,79,C:/Users/Owner/Documents/KTPsubject-3.csv,legacy,Lentiform Loewenfeld,3.3.3,0,s,NA,h,s,NA,s,429,NA,3168,563,NA,429,2,legacy,1024,2,48000,-16,experiment,3,odd,NA,37691,150111,151753,4223,146215,3656,NA,NA,151220,143046,3660,NA,151323,151218,151323,Flanker Test,76,40019,84,yes,1024
SSSSS,90.58823529,90.58823529,475.8117647,475.8117647,black,legacy,legacy,legacy,0,congruent,uniform,1,undefined,1,s,0,84,84,84,0,0,0,84,0,84,0,0,0,84,84,84,Sat Sep 19 00:41:41 2020,600,The main experiment item,yes,FlankerTask.osexp,C:\Users\Owner\Documents,no,mono,no,18,no,white,no,yes,768,legacy,4,79,C:/Users/Owner/Documents/KTPsubject-3.csv,legacy,Lentiform Loewenfeld,3.3.3,0,s,NA,h,s,NA,s,425,NA,3168,563,NA,425,2,legacy,1024,2,48000,-16,experiment,3,odd,NA,37691,151756,153394,4223,146215,3656,NA,NA,152862,143046,3660,NA,152966,152861,152965,Flanker Test,77,40444,85,yes,1024
HHHHH,90.69767442,90.69767442,475.1046512,475.1046512,black,legacy,legacy,legacy,0,congruent,uniform,1,undefined,1,h,0,85,85,85,0,0,0,85,0,85,0,0,0,85,85,85,Sat Sep 19 00:41:41 2020,600,The main experiment item,yes,FlankerTask.osexp,C:\Users\Owner\Documents,no,mono,no,18,no,white,no,yes,768,legacy,5,79,C:/Users/Owner/Documents/KTPsubject-3.csv,legacy,Lentiform Loewenfeld,3.3.3,0,h,NA,h,s,NA,h,415,NA,3168,563,NA,415,2,legacy,1024,2,48000,-16,experiment,3,odd,NA,37691,153397,155008,4223,146215,3656,NA,NA,154488,143046,3660,NA,154592,154486,154592,Flanker Test,78,40859,86,yes,1024
HHSHH,90.8045977,90.8045977,475.4252874,475.4252874,black,legacy,legacy,legacy,0,incongruent,uniform,1,undefined,1,s,0,86,86,86,0,0,0,86,0,86,0,0,0,86,86,86,Sat Sep 19 00:41:41 2020,600,The main experiment item,yes,FlankerTask.osexp,C:\Users\Owner\Documents,no,mono,no,18,no,white,no,yes,768,legacy,6,79,C:/Users/Owner/Documents/KTPsubject-3.csv,legacy,Lentiform Loewenfeld,3.3.3,0,s,NA,h,s,NA,s,503,NA,3168,563,NA,503,2,legacy,1024,2,48000,-16,experiment,3,odd,NA,37691,155012,156726,4223,146215,3656,NA,NA,156119,143046,3660,NA,156222,156117,156222,Flanker Test,79,41362,87,yes,1024
SSSSS,89.77272727,89.77272727,475.5113636,475.5113636,black,legacy,legacy,legacy,0,congruent,uniform,0,undefined,0,s,0,87,87,87,0,0,0,87,0,87,0,0,0,87,87,87,Sat Sep 19 00:41:41 2020,600,The main experiment item,yes,FlankerTask.osexp,C:\Users\Owner\Documents,no,mono,no,18,no,white,no,yes,768,legacy,7,79,C:/Users/Owner/Documents/KTPsubject-3.csv,legacy,Lentiform Loewenfeld,3.3.3,0,h,NA,h,s,NA,h,483,NA,3168,563,NA,483,2,legacy,1024,2,48000,-16,experiment,3,odd,NA,37691,156729,158381,4223,146215,3656,NA,NA,157792,143046,3660,NA,157896,157790,157896,Flanker Test,79,41845,88,yes,1024
SSHSS,89.88764045,89.88764045,477.5168539,477.5168539,black,legacy,legacy,legacy,0,incongruent,uniform,1,undefined,1,h,0,88,88,88,0,0,0,88,0,88,0,0,0,88,88,88,Sat Sep 19 00:41:41 2020,600,The main experiment item,yes,FlankerTask.osexp,C:\Users\Owner\Documents,no,mono,no,18,no,white,no,yes,768,legacy,8,79,C:/Users/Owner/Documents/KTPsubject-3.csv,legacy,Lentiform Loewenfeld,3.3.3,0,h,NA,h,s,NA,h,654,NA,3168,563,NA,654,2,legacy,1024,2,48000,-16,experiment,3,odd,NA,158385,158889,160756,4223,146215,3656,NA,NA,159998,143046,3660,NA,160101,159996,160101,Flanker Test,80,42499,89,yes,1024
HHHHH,90,90,477.8444444,477.8444444,black,legacy,legacy,legacy,0,congruent,uniform,1,undefined,1,h,0,89,89,89,0,0,0,89,0,89,0,0,0,89,89,89,Sat Sep 19 00:41:41 2020,600,The main experiment item,yes,FlankerTask.osexp,C:\Users\Owner\Documents,no,mono,no,18,no,white,no,yes,768,legacy,9,79,C:/Users/Owner/Documents/KTPsubject-3.csv,legacy,Lentiform Loewenfeld,3.3.3,0,h,NA,h,s,NA,h,507,NA,3168,563,NA,507,2,legacy,1024,2,48000,-16,experiment,3,odd,NA,158385,161263,162985,4223,146215,3656,160759,NA,162373,143046,3660,NA,162476,162372,162476,Flanker Test,81,43006,90,yes,1024
SSHSS,89.01098901,89.01098901,476.7252747,476.7252747,black,legacy,legacy,legacy,0,incongruent,uniform,0,undefined,0,h,0,90,90,90,0,0,0,90,0,90,0,0,0,90,90,90,Sat Sep 19 00:41:41 2020,600,The main experiment item,yes,FlankerTask.osexp,C:\Users\Owner\Documents,no,mono,no,18,no,white,no,yes,768,legacy,10,79,C:/Users/Owner/Documents/KTPsubject-3.csv,legacy,Lentiform Loewenfeld,3.3.3,0,s,NA,h,s,NA,s,376,NA,3168,563,NA,376,2,legacy,1024,2,48000,-16,experiment,3,odd,NA,158385,162989,164576,4223,146215,3656,160759,NA,164094,143046,3660,NA,164197,164092,164197,Flanker Test,81,43382,91,yes,1024
HHHHH,89.13043478,89.13043478,476.4021739,476.4021739,black,legacy,legacy,legacy,0,congruent,uniform,1,undefined,1,h,0,91,91,91,0,0,0,91,0,91,0,0,0,91,91,91,Sat Sep 19 00:41:41 2020,600,The main experiment item,yes,FlankerTask.osexp,C:\Users\Owner\Documents,no,mono,no,18,no,white,no,yes,768,legacy,11,79,C:/Users/Owner/Documents/KTPsubject-3.csv,legacy,Lentiform Loewenfeld,3.3.3,0,h,NA,h,s,NA,h,447,NA,3168,563,NA,447,2,legacy,1024,2,48000,-16,experiment,3,odd,NA,164581,165085,166739,4223,146215,3656,160759,NA,166189,143046,3660,NA,166291,166187,166291,Flanker Test,82,43829,92,yes,1024
SSSSS,89.24731183,89.24731183,475.5376344,475.5376344,black,legacy,legacy,legacy,0,congruent,uniform,1,undefined,1,s,0,92,92,92,0,0,0,92,0,92,0,0,0,92,92,92,Sat Sep 19 00:41:41 2020,600,The main experiment item,yes,FlankerTask.osexp,C:\Users\Owner\Documents,no,mono,no,18,no,white,no,yes,768,legacy,12,79,C:/Users/Owner/Documents/KTPsubject-3.csv,legacy,Lentiform Loewenfeld,3.3.3,0,s,NA,h,s,NA,s,396,NA,3168,563,NA,396,2,legacy,1024,2,48000,-16,experiment,3,odd,NA,164581,166743,168306,4223,146215,3656,160759,NA,167805,143046,3660,NA,167909,167804,167909,Flanker Test,83,44225,93,yes,1024
HHSHH,89.36170213,89.36170213,475.0638298,475.0638298,black,legacy,legacy,legacy,0,incongruent,uniform,1,undefined,1,s,0,93,93,93,0,0,0,93,0,93,0,0,0,93,93,93,Sat Sep 19 00:41:41 2020,600,The main experiment item,yes,FlankerTask.osexp,C:\Users\Owner\Documents,no,mono,no,18,no,white,no,yes,768,legacy,13,79,C:/Users/Owner/Documents/KTPsubject-3.csv,legacy,Lentiform Loewenfeld,3.3.3,0,s,NA,h,s,NA,s,431,NA,3168,563,NA,431,2,legacy,1024,2,48000,-16,experiment,3,odd,NA,164581,168309,169947,4223,146215,3656,160759,NA,169413,143046,3660,NA,169515,169412,169515,Flanker Test,84,44656,94,yes,1024
HHHHH,89.47368421,89.47368421,473.8421053,473.8421053,black,legacy,legacy,legacy,0,congruent,uniform,1,undefined,1,h,0,94,94,94,0,0,0,94,0,94,0,0,0,94,94,94,Sat Sep 19 00:41:41 2020,600,The main experiment item,yes,FlankerTask.osexp,C:\Users\Owner\Documents,no,mono,no,18,no,white,no,yes,768,legacy,14,79,C:/Users/Owner/Documents/KTPsubject-3.csv,legacy,Lentiform Loewenfeld,3.3.3,0,h,NA,h,s,NA,h,359,NA,3168,563,NA,359,2,legacy,1024,2,48000,-16,experiment,3,odd,NA,164581,169951,171520,4223,146215,3656,160759,NA,171056,143046,3660,NA,171159,171055,171159,Flanker Test,85,45015,95,yes,1024
SSSSS,89.58333333,89.58333333,473.1354167,473.1354167,black,legacy,legacy,legacy,0,congruent,uniform,1,undefined,1,s,0,95,95,95,0,0,0,95,0,95,0,0,0,95,95,95,Sat Sep 19 00:41:41 2020,600,The main experiment item,yes,FlankerTask.osexp,C:\Users\Owner\Documents,no,mono,no,18,no,white,no,yes,768,legacy,15,79,C:/Users/Owner/Documents/KTPsubject-3.csv,legacy,Lentiform Loewenfeld,3.3.3,0,s,NA,h,s,NA,s,406,NA,3168,563,NA,406,2,legacy,1024,2,48000,-16,experiment,3,odd,NA,164581,171523,173136,4223,146215,3656,160759,NA,172625,143046,3660,NA,172728,172624,172728,Flanker Test,86,45421,96,yes,1024
SSSSS,89.69072165,89.69072165,472.1237113,472.1237113,black,legacy,legacy,legacy,0,congruent,uniform,1,undefined,1,s,0,96,96,96,0,0,0,96,0,96,0,0,0,96,96,96,Sat Sep 19 00:41:41 2020,600,The main experiment item,yes,FlankerTask.osexp,C:\Users\Owner\Documents,no,mono,no,18,no,white,no,yes,768,legacy,16,79,C:/Users/Owner/Documents/KTPsubject-3.csv,legacy,Lentiform Loewenfeld,3.3.3,0,s,NA,h,s,NA,s,375,NA,3168,563,NA,375,2,legacy,1024,2,48000,-16,experiment,3,odd,NA,164581,173139,174726,4223,146215,3656,160759,NA,174247,143046,3660,NA,174350,174245,174350,Flanker Test,87,45796,97,yes,1024
SSSSS,89.79591837,89.79591837,471.6020408,471.6020408,black,legacy,legacy,legacy,0,congruent,uniform,1,undefined,1,s,0,97,97,97,0,0,0,97,0,97,0,0,0,97,97,97,Sat Sep 19 00:41:41 2020,600,The main experiment item,yes,FlankerTask.osexp,C:\Users\Owner\Documents,no,mono,no,18,no,white,no,yes,768,legacy,17,79,C:/Users/Owner/Documents/KTPsubject-3.csv,legacy,Lentiform Loewenfeld,3.3.3,0,s,NA,h,s,NA,s,421,NA,3168,563,NA,421,2,legacy,1024,2,48000,-16,experiment,3,odd,NA,164581,174729,176345,4223,146215,3656,160759,NA,175819,143046,3660,NA,175923,175817,175923,Flanker Test,88,46217,98,yes,1024
HHSHH,89.8989899,89.8989899,470.7878788,470.7878788,black,legacy,legacy,legacy,0,incongruent,uniform,1,undefined,1,s,0,98,98,98,0,0,0,98,0,98,0,0,0,98,98,98,Sat Sep 19 00:41:41 2020,600,The main experiment item,yes,FlankerTask.osexp,C:\Users\Owner\Documents,no,mono,no,18,no,white,no,yes,768,legacy,18,79,C:/Users/Owner/Documents/KTPsubject-3.csv,legacy,Lentiform Loewenfeld,3.3.3,0,s,NA,h,s,NA,s,391,NA,3168,563,NA,391,2,legacy,1024,2,48000,-16,experiment,3,odd,NA,164581,176349,177951,4223,146215,3656,160759,NA,177456,143046,3660,NA,177559,177455,177559,Flanker Test,89,46608,99,yes,1024
HHSHH,90,90,470.21,470.21,black,legacy,legacy,legacy,0,incongruent,uniform,1,undefined,1,s,0,99,99,99,0,0,0,99,0,99,0,0,0,99,99,99,Sat Sep 19 00:41:41 2020,600,The main experiment item,yes,FlankerTask.osexp,C:\Users\Owner\Documents,no,mono,no,18,no,white,no,yes,768,legacy,19,79,C:/Users/Owner/Documents/KTPsubject-3.csv,legacy,Lentiform Loewenfeld,3.3.3,0,s,NA,h,s,NA,s,413,NA,3168,563,NA,413,2,legacy,1024,2,48000,-16,experiment,3,odd,NA,164581,177954,179559,4223,146215,3656,160759,NA,179042,143046,3660,NA,179145,179040,179145,Flanker Test,90,47021,100,yes,1024
HHHHH,90.0990099,90.0990099,470,470,black,legacy,legacy,legacy,0,congruent,uniform,1,undefined,1,h,0,100,100,100,0,0,0,100,0,100,0,0,0,100,100,100,Sat Sep 19 00:41:41 2020,600,The main experiment item,yes,FlankerTask.osexp,C:\Users\Owner\Documents,no,mono,no,18,no,white,no,yes,768,legacy,20,79,C:/Users/Owner/Documents/KTPsubject-3.csv,legacy,Lentiform Loewenfeld,3.3.3,0,h,NA,h,s,NA,h,449,NA,3168,563,NA,449,2,legacy,1024,2,48000,-16,experiment,3,odd,NA,164581,179563,181221,4223,146215,3656,160759,NA,180668,143046,3660,NA,180770,180667,180770,Flanker Test,91,47470,101,yes,1024
HHHHH,90.19607843,90.19607843,470.372549,470.372549,black,legacy,legacy,legacy,0,congruent,uniform,1,undefined,1,h,0,101,101,101,0,0,0,101,0,101,0,0,0,101,101,101,Sat Sep 19 00:41:41 2020,600,The main experiment item,yes,FlankerTask.osexp,C:\Users\Owner\Documents,no,mono,no,18,no,white,no,yes,768,legacy,21,79,C:/Users/Owner/Documents/KTPsubject-3.csv,legacy,Lentiform Loewenfeld,3.3.3,0,h,NA,h,s,NA,h,508,NA,3168,563,NA,508,2,legacy,1024,2,48000,-16,experiment,3,odd,NA,164581,181224,182912,4223,146215,3656,160759,NA,182300,143046,3660,NA,182403,182298,182403,Flanker Test,92,47978,102,yes,1024
HHSHH,90.29126214,90.29126214,470.0776699,470.0776699,black,legacy,legacy,legacy,0,incongruent,uniform,1,undefined,1,s,0,102,102,102,0,0,0,102,0,102,0,0,0,102,102,102,Sat Sep 19 00:41:41 2020,600,The main experiment item,yes,FlankerTask.osexp,C:\Users\Owner\Documents,no,mono,no,18,no,white,no,yes,768,legacy,22,79,C:/Users/Owner/Documents/KTPsubject-3.csv,legacy,Lentiform Loewenfeld,3.3.3,0,s,NA,h,s,NA,s,440,NA,3168,563,NA,440,2,legacy,1024,2,48000,-16,experiment,3,odd,NA,164581,182916,184565,4223,146215,3656,160759,NA,184021,143046,3660,NA,184124,184019,184124,Flanker Test,93,48418,103,yes,1024
SSHSS,89.42307692,89.42307692,469.0865385,469.0865385,black,legacy,legacy,legacy,0,incongruent,uniform,0,undefined,0,h,0,103,103,103,0,0,0,103,0,103,0,0,0,103,103,103,Sat Sep 19 00:41:41 2020,600,The main experiment item,yes,FlankerTask.osexp,C:\Users\Owner\Documents,no,mono,no,18,no,white,no,yes,768,legacy,23,79,C:/Users/Owner/Documents/KTPsubject-3.csv,legacy,Lentiform Loewenfeld,3.3.3,0,s,NA,h,s,NA,s,367,NA,3168,563,NA,367,2,legacy,1024,2,48000,-16,experiment,3,odd,NA,164581,184568,186144,4223,146215,3656,160759,NA,185673,143046,3660,NA,185776,185672,185776,Flanker Test,93,48785,104,yes,1024
HHSHH,89.52380952,89.52380952,468.3047619,468.3047619,black,legacy,legacy,legacy,0,incongruent,uniform,1,undefined,1,s,0,104,104,104,0,0,0,104,0,104,0,0,0,104,104,104,Sat Sep 19 00:41:41 2020,600,The main experiment item,yes,FlankerTask.osexp,C:\Users\Owner\Documents,no,mono,no,18,no,white,no,yes,768,legacy,24,79,C:/Users/Owner/Documents/KTPsubject-3.csv,legacy,Lentiform Loewenfeld,3.3.3,0,s,NA,h,s,NA,s,387,NA,3168,563,NA,387,2,legacy,1024,2,48000,-16,experiment,3,odd,NA,186148,186652,188249,4223,146215,3656,160759,NA,187759,143046,3660,NA,187861,187757,187861,Flanker Test,94,49172,105,yes,1024
SSSSS,89.62264151,89.62264151,467.4528302,467.4528302,black,legacy,legacy,legacy,0,congruent,uniform,1,undefined,1,s,0,105,105,105,0,0,0,105,0,105,0,0,0,105,105,105,Sat Sep 19 00:41:41 2020,600,The main experiment item,yes,FlankerTask.osexp,C:\Users\Owner\Documents,no,mono,no,18,no,white,no,yes,768,legacy,25,79,C:/Users/Owner/Documents/KTPsubject-3.csv,legacy,Lentiform Loewenfeld,3.3.3,0,s,NA,h,s,NA,s,378,NA,3168,563,NA,378,2,legacy,1024,2,48000,-16,experiment,3,odd,NA,186148,188253,189840,4223,146215,3656,160759,NA,189358,143046,3660,NA,189461,189357,189461,Flanker Test,95,49550,106,yes,1024
SSHSS,89.71962617,89.71962617,467.8224299,467.8224299,black,legacy,legacy,legacy,0,incongruent,uniform,1,undefined,1,h,0,106,106,106,0,0,0,106,0,106,0,0,0,106,106,106,Sat Sep 19 00:41:41 2020,600,The main experiment item,yes,FlankerTask.osexp,C:\Users\Owner\Documents,no,mono,no,18,no,white,no,yes,768,legacy,26,79,C:/Users/Owner/Documents/KTPsubject-3.csv,legacy,Lentiform Loewenfeld,3.3.3,0,h,NA,h,s,NA,h,507,NA,3168,563,NA,507,2,legacy,1024,2,48000,-16,experiment,3,odd,NA,186148,189843,191558,4223,146215,3656,160759,NA,190948,143046,3660,NA,191050,190947,191050,Flanker Test,96,50057,107,yes,1024
HHHHH,89.81481481,89.81481481,468.0555556,468.0555556,black,legacy,legacy,legacy,0,congruent,uniform,1,undefined,1,h,0,107,107,107,0,0,0,107,0,107,0,0,0,107,107,107,Sat Sep 19 00:41:41 2020,600,The main experiment item,yes,FlankerTask.osexp,C:\Users\Owner\Documents,no,mono,no,18,no,white,no,yes,768,legacy,27,79,C:/Users/Owner/Documents/KTPsubject-3.csv,legacy,Lentiform Loewenfeld,3.3.3,0,h,NA,h,s,NA,h,493,NA,3168,563,NA,493,2,legacy,1024,2,48000,-16,experiment,3,odd,NA,186148,191562,193266,4223,146215,3656,160759,NA,192669,143046,3660,NA,192772,192667,192772,Flanker Test,97,50550,108,yes,1024
HHSHH,89.90825688,89.90825688,468.7431193,468.7431193,black,legacy,legacy,legacy,0,incongruent,uniform,1,undefined,1,s,0,108,108,108,0,0,0,108,0,108,0,0,0,108,108,108,Sat Sep 19 00:41:41 2020,600,The main experiment item,yes,FlankerTask.osexp,C:\Users\Owner\Documents,no,mono,no,18,no,white,no,yes,768,legacy,28,79,C:/Users/Owner/Documents/KTPsubject-3.csv,legacy,Lentiform Loewenfeld,3.3.3,0,s,NA,h,s,NA,s,543,NA,3168,563,NA,543,2,legacy,1024,2,48000,-16,experiment,3,odd,NA,186148,193269,195023,4223,146215,3656,160759,NA,194375,143046,3660,NA,194478,194373,194478,Flanker Test,98,51093,109,yes,1024
SSHSS,90,90,468.9,468.9,black,legacy,legacy,legacy,0,incongruent,uniform,1,undefined,1,h,0,109,109,109,0,0,0,109,0,109,0,0,0,109,109,109,Sat Sep 19 00:41:41 2020,600,The main experiment item,yes,FlankerTask.osexp,C:\Users\Owner\Documents,no,mono,no,18,no,white,no,yes,768,legacy,29,79,C:/Users/Owner/Documents/KTPsubject-3.csv,legacy,Lentiform Loewenfeld,3.3.3,0,h,NA,h,s,NA,h,486,NA,3168,563,NA,486,2,legacy,1024,2,48000,-16,experiment,3,odd,NA,186148,195026,196677,4223,146215,3656,160759,NA,196086,143046,3660,NA,196190,196085,196189,Flanker Test,99,51579,110,yes,1024
SSHSS,90.09009009,90.09009009,470.2882883,470.2882883,black,legacy,legacy,legacy,0,incongruent,uniform,1,undefined,1,h,0,110,110,110,0,0,0,110,0,110,0,0,0,110,110,110,Sat Sep 19 00:41:41 2020,600,The main experiment item,yes,FlankerTask.osexp,C:\Users\Owner\Documents,no,mono,no,18,no,white,no,yes,768,legacy,30,79,C:/Users/Owner/Documents/KTPsubject-3.csv,legacy,Lentiform Loewenfeld,3.3.3,0,h,NA,h,s,NA,h,623,NA,3168,563,NA,623,2,legacy,1024,2,48000,-16,experiment,3,odd,NA,186148,196681,198504,4223,146215,3656,160759,NA,197776,143046,3660,NA,197880,197774,197880,Flanker Test,100,52202,111,yes,1024
SSHSS,89.28571429,89.28571429,470.4732143,470.4732143,black,legacy,legacy,legacy,0,incongruent,uniform,0,undefined,0,h,0,111,111,111,0,0,0,111,0,111,0,0,0,111,111,111,Sat Sep 19 00:41:41 2020,600,The main experiment item,yes,FlankerTask.osexp,C:\Users\Owner\Documents,no,mono,no,18,no,white,no,yes,768,legacy,31,79,C:/Users/Owner/Documents/KTPsubject-3.csv,legacy,Lentiform Loewenfeld,3.3.3,0,s,NA,h,s,NA,s,491,NA,3168,563,NA,491,2,legacy,1024,2,48000,-16,experiment,3,odd,NA,186148,199011,200711,4223,146215,3656,198507,NA,200115,143046,3660,NA,200218,200114,200218,Flanker Test,100,52693,112,yes,1024
HHSHH,89.38053097,89.38053097,471.539823,471.539823,black,legacy,legacy,legacy,0,incongruent,uniform,1,undefined,1,s,0,112,112,112,0,0,0,112,0,112,0,0,0,112,112,112,Sat Sep 19 00:41:41 2020,600,The main experiment item,yes,FlankerTask.osexp,C:\Users\Owner\Documents,no,mono,no,18,no,white,no,yes,768,legacy,32,79,C:/Users/Owner/Documents/KTPsubject-3.csv,legacy,Lentiform Loewenfeld,3.3.3,0,s,NA,h,s,NA,s,591,NA,3168,563,NA,591,2,legacy,1024,2,48000,-16,experiment,3,odd,NA,200716,201220,203022,4223,146215,3656,198507,NA,202327,143046,3660,NA,202430,202325,202430,Flanker Test,101,53284,113,yes,1024
SSHSS,89.47368421,89.47368421,471.9122807,471.9122807,black,legacy,legacy,legacy,0,incongruent,uniform,1,undefined,1,h,0,113,113,113,0,0,0,113,0,113,0,0,0,113,113,113,Sat Sep 19 00:41:41 2020,600,The main experiment item,yes,FlankerTask.osexp,C:\Users\Owner\Documents,no,mono,no,18,no,white,no,yes,768,legacy,33,79,C:/Users/Owner/Documents/KTPsubject-3.csv,legacy,Lentiform Loewenfeld,3.3.3,0,h,NA,h,s,NA,h,514,NA,3168,563,NA,514,2,legacy,1024,2,48000,-16,experiment,3,odd,NA,200716,203025,204747,4223,146215,3656,198507,NA,204127,143046,3660,NA,204231,204126,204231,Flanker Test,102,53798,114,yes,1024
HHHHH,89.56521739,89.56521739,472.026087,472.026087,black,legacy,legacy,legacy,0,congruent,uniform,1,undefined,1,h,0,114,114,114,0,0,0,114,0,114,0,0,0,114,114,114,Sat Sep 19 00:41:41 2020,600,The main experiment item,yes,FlankerTask.osexp,C:\Users\Owner\Documents,no,mono,no,18,no,white,no,yes,768,legacy,34,79,C:/Users/Owner/Documents/KTPsubject-3.csv,legacy,Lentiform Loewenfeld,3.3.3,0,h,NA,h,s,NA,h,485,NA,3168,563,NA,485,2,legacy,1024,2,48000,-16,experiment,3,odd,NA,200716,204750,206439,4223,146215,3656,198507,NA,205848,143046,3660,NA,205952,205846,205952,Flanker Test,103,54283,115,yes,1024
SSSSS,89.65517241,89.65517241,472.4310345,472.4310345,black,legacy,legacy,legacy,0,congruent,uniform,1,undefined,1,s,0,115,115,115,0,0,0,115,0,115,0,0,0,115,115,115,Sat Sep 19 00:41:41 2020,600,The main experiment item,yes,FlankerTask.osexp,C:\Users\Owner\Documents,no,mono,no,18,no,white,no,yes,768,legacy,35,79,C:/Users/Owner/Documents/KTPsubject-3.csv,legacy,Lentiform Loewenfeld,3.3.3,0,s,NA,h,s,NA,s,519,NA,3168,563,NA,519,2,legacy,1024,2,48000,-16,experiment,3,odd,NA,200716,206443,208152,4223,146215,3656,198507,NA,207529,143046,3660,NA,207632,207527,207632,Flanker Test,104,54802,116,yes,1024
HHSHH,89.74358974,89.74358974,472.8461538,472.8461538,black,legacy,legacy,legacy,0,incongruent,uniform,1,undefined,1,s,0,116,116,116,0,0,0,116,0,116,0,0,0,116,116,116,Sat Sep 19 00:41:41 2020,600,The main experiment item,yes,FlankerTask.osexp,C:\Users\Owner\Documents,no,mono,no,18,no,white,no,yes,768,legacy,36,79,C:/Users/Owner/Documents/KTPsubject-3.csv,legacy,Lentiform Loewenfeld,3.3.3,0,s,NA,h,s,NA,s,521,NA,3168,563,NA,521,2,legacy,1024,2,48000,-16,experiment,3,odd,NA,200716,208156,209889,4223,146215,3656,198507,NA,209263,143046,3660,NA,209366,209262,209366,Flanker Test,105,55323,117,yes,1024
HHHHH,89.83050847,89.83050847,472.440678,472.440678,black,legacy,legacy,legacy,0,congruent,uniform,1,undefined,1,h,0,117,117,117,0,0,0,117,0,117,0,0,0,117,117,117,Sat Sep 19 00:41:41 2020,600,The main experiment item,yes,FlankerTask.osexp,C:\Users\Owner\Documents,no,mono,no,18,no,white,no,yes,768,legacy,37,79,C:/Users/Owner/Documents/KTPsubject-3.csv,legacy,Lentiform Loewenfeld,3.3.3,0,h,NA,h,s,NA,h,425,NA,3168,563,NA,425,2,legacy,1024,2,48000,-16,experiment,3,odd,NA,200716,209893,211531,4223,146215,3656,198507,NA,211000,143046,3660,NA,211104,210999,211104,Flanker Test,106,55748,118,yes,1024
SSHSS,89.91596639,89.91596639,472.8487395,472.8487395,black,legacy,legacy,legacy,0,incongruent,uniform,1,undefined,1,h,0,118,118,118,0,0,0,118,0,118,0,0,0,118,118,118,Sat Sep 19 00:41:41 2020,600,The main experiment item,yes,FlankerTask.osexp,C:\Users\Owner\Documents,no,mono,no,18,no,white,no,yes,768,legacy,38,79,C:/Users/Owner/Documents/KTPsubject-3.csv,legacy,Lentiform Loewenfeld,3.3.3,0,h,NA,h,s,NA,h,521,NA,3168,563,NA,521,2,legacy,1024,2,48000,-16,experiment,3,odd,NA,200716,211536,213267,4223,146215,3656,198507,NA,212641,143046,3660,NA,212744,212639,212744,Flanker Test,107,56269,119,yes,1024
SSHSS,90,90,477.2083333,477.2083333,black,legacy,legacy,legacy,0,incongruent,uniform,1,undefined,1,h,0,119,119,119,0,0,0,119,0,119,0,0,0,119,119,119,Sat Sep 19 00:41:41 2020,600,The main experiment item,yes,FlankerTask.osexp,C:\Users\Owner\Documents,no,mono,no,18,no,white,no,yes,768,legacy,39,79,C:/Users/Owner/Documents/KTPsubject-3.csv,legacy,Lentiform Loewenfeld,3.3.3,0,h,NA,h,s,NA,h,996,NA,3168,563,NA,996,2,legacy,1024,2,48000,-16,experiment,3,odd,NA,200716,213271,215473,4223,146215,3656,198507,NA,214374,143046,3660,NA,214476,214374,214476,Flanker Test,108,57265,120,yes,1024
HHHHH,90.08264463,90.08264463,476.9421488,476.9421488,black,legacy,legacy,legacy,0,congruent,uniform,1,undefined,1,h,0,120,120,120,0,0,0,120,0,120,0,0,0,120,120,120,Sat Sep 19 00:41:41 2020,600,The main experiment item,yes,FlankerTask.osexp,C:\Users\Owner\Documents,no,mono,no,18,no,white,no,yes,768,legacy,40,79,C:/Users/Owner/Documents/KTPsubject-3.csv,legacy,Lentiform Loewenfeld,3.3.3,0,h,NA,h,s,NA,h,445,NA,3168,563,NA,445,2,legacy,1024,2,48000,-16,experiment,3,odd,NA,200716,215981,217635,4223,146215,3656,215477,NA,217085,143046,3660,NA,217188,217084,217187,Flanker Test,109,57710,121,yes,1024
SSHSS,90.16393443,90.16393443,476.8360656,476.8360656,black,legacy,legacy,legacy,0,incongruent,uniform,1,undefined,1,h,0,121,121,121,0,0,0,121,0,121,0,0,0,121,121,121,Sat Sep 19 00:41:41 2020,600,The main experiment item,yes,FlankerTask.osexp,C:\Users\Owner\Documents,no,mono,no,18,no,white,no,yes,768,legacy,41,79,C:/Users/Owner/Documents/KTPsubject-3.csv,legacy,Lentiform Loewenfeld,3.3.3,0,h,NA,h,s,NA,h,464,NA,3168,563,NA,464,2,legacy,1024,2,48000,-16,experiment,3,odd,NA,200716,217638,219259,4223,146215,3656,215477,NA,218690,143046,3660,NA,218793,218688,218793,Flanker Test,110,58174,122,yes,1024
SSSSS,90.24390244,90.24390244,476.6341463,476.6341463,black,legacy,legacy,legacy,0,congruent,uniform,1,undefined,1,s,0,122,122,122,0,0,0,122,0,122,0,0,0,122,122,122,Sat Sep 19 00:41:41 2020,600,The main experiment item,yes,FlankerTask.osexp,C:\Users\Owner\Documents,no,mono,no,18,no,white,no,yes,768,legacy,42,79,C:/Users/Owner/Documents/KTPsubject-3.csv,legacy,Lentiform Loewenfeld,3.3.3,0,s,NA,h,s,NA,s,452,NA,3168,563,NA,452,2,legacy,1024,2,48000,-16,experiment,3,odd,NA,200716,219262,220927,4223,146215,3656,215477,NA,220371,143046,3660,NA,220474,220369,220474,Flanker Test,111,58626,123,yes,1024
SSSSS,90.32258065,90.32258065,476.3387097,476.3387097,black,legacy,legacy,legacy,0,congruent,uniform,1,undefined,1,s,0,123,123,123,0,0,0,123,0,123,0,0,0,123,123,123,Sat Sep 19 00:41:41 2020,600,The main experiment item,yes,FlankerTask.osexp,C:\Users\Owner\Documents,no,mono,no,18,no,white,no,yes,768,legacy,43,79,C:/Users/Owner/Documents/KTPsubject-3.csv,legacy,Lentiform Loewenfeld,3.3.3,0,s,NA,h,s,NA,s,440,NA,3168,563,NA,440,2,legacy,1024,2,48000,-16,experiment,3,odd,NA,200716,220931,222553,4223,146215,3656,215477,NA,222008,143046,3660,NA,222111,222006,222111,Flanker Test,112,59066,124,yes,1024
SSSSS,90.4,90.4,476.24,476.24,black,legacy,legacy,legacy,0,congruent,uniform,1,undefined,1,s,0,124,124,124,0,0,0,124,0,124,0,0,0,124,124,124,Sat Sep 19 00:41:41 2020,600,The main experiment item,yes,FlankerTask.osexp,C:\Users\Owner\Documents,no,mono,no,18,no,white,no,yes,768,legacy,44,79,C:/Users/Owner/Documents/KTPsubject-3.csv,legacy,Lentiform Loewenfeld,3.3.3,0,s,NA,h,s,NA,s,464,NA,3168,563,NA,464,2,legacy,1024,2,48000,-16,experiment,3,odd,NA,200716,222557,224210,4223,146215,3656,215477,NA,223642,143046,3660,NA,223745,223640,223745,Flanker Test,113,59530,125,yes,1024
SSHSS,90.47619048,90.47619048,477.0079365,477.0079365,black,legacy,legacy,legacy,0,incongruent,uniform,1,undefined,1,h,0,125,125,125,0,0,0,125,0,125,0,0,0,125,125,125,Sat Sep 19 00:41:41 2020,600,The main experiment item,yes,FlankerTask.osexp,C:\Users\Owner\Documents,no,mono,no,18,no,white,no,yes,768,legacy,45,79,C:/Users/Owner/Documents/KTPsubject-3.csv,legacy,Lentiform Loewenfeld,3.3.3,0,h,NA,h,s,NA,h,573,NA,3168,563,NA,573,2,legacy,1024,2,48000,-16,experiment,3,odd,NA,200716,224215,225949,4223,146215,3656,215477,NA,225274,143046,3660,NA,225375,225272,225375,Flanker Test,114,60103,126,yes,1024
SSSSS,90.5511811,90.5511811,476.5590551,476.5590551,black,legacy,legacy,legacy,0,congruent,uniform,1,undefined,1,s,0,126,126,126,0,0,0,126,0,126,0,0,0,126,126,126,Sat Sep 19 00:41:41 2020,600,The main experiment item,yes,FlankerTask.osexp,C:\Users\Owner\Documents,no,mono,no,18,no,white,no,yes,768,legacy,46,79,C:/Users/Owner/Documents/KTPsubject-3.csv,legacy,Lentiform Loewenfeld,3.3.3,0,s,NA,h,s,NA,s,420,NA,3168,563,NA,420,2,legacy,1024,2,48000,-16,experiment,3,odd,NA,200716,225953,227583,4223,146215,3656,215477,NA,227061,143046,3660,NA,227162,227060,227162,Flanker Test,115,60523,127,yes,1024
SSSSS,90.625,90.625,476.1640625,476.1640625,black,legacy,legacy,legacy,0,congruent,uniform,1,undefined,1,s,0,127,127,127,0,0,0,127,0,127,0,0,0,127,127,127,Sat Sep 19 00:41:41 2020,600,The main experiment item,yes,FlankerTask.osexp,C:\Users\Owner\Documents,no,mono,no,18,no,white,no,yes,768,legacy,47,79,C:/Users/Owner/Documents/KTPsubject-3.csv,legacy,Lentiform Loewenfeld,3.3.3,0,s,NA,h,s,NA,s,426,NA,3168,563,NA,426,2,legacy,1024,2,48000,-16,experiment,3,odd,NA,200716,227587,229224,4223,146215,3656,215477,NA,228693,143046,3660,NA,228796,228691,228796,Flanker Test,116,60949,128,yes,1024
SSSSS,90.69767442,90.69767442,475.4806202,475.4806202,black,legacy,legacy,legacy,0,congruent,uniform,1,undefined,1,s,0,128,128,128,0,0,0,128,0,128,0,0,0,128,128,128,Sat Sep 19 00:41:41 2020,600,The main experiment item,yes,FlankerTask.osexp,C:\Users\Owner\Documents,no,mono,no,18,no,white,no,yes,768,legacy,48,79,C:/Users/Owner/Documents/KTPsubject-3.csv,legacy,Lentiform Loewenfeld,3.3.3,0,s,NA,h,s,NA,s,388,NA,3168,563,NA,388,2,legacy,1024,2,48000,-16,experiment,3,odd,NA,200716,229228,230823,4223,146215,3656,215477,NA,230331,143046,3660,NA,230433,230329,230432,Flanker Test,117,61337,129,yes,1024
SSHSS,90.76923077,90.76923077,475.9846154,475.9846154,black,legacy,legacy,legacy,0,incongruent,uniform,1,undefined,1,h,0,129,129,129,0,0,0,129,0,129,0,0,0,129,129,129,Sat Sep 19 00:41:41 2020,600,The main experiment item,yes,FlankerTask.osexp,C:\Users\Owner\Documents,no,mono,no,18,no,white,no,yes,768,legacy,49,79,C:/Users/Owner/Documents/KTPsubject-3.csv,legacy,Lentiform Loewenfeld,3.3.3,0,h,NA,h,s,NA,h,541,NA,3168,563,NA,541,2,legacy,1024,2,48000,-16,experiment,3,odd,NA,200716,230826,232567,4223,146215,3656,215477,NA,231921,143046,3660,NA,232025,231919,232025,Flanker Test,118,61878,130,yes,1024
SSHSS,90.83969466,90.83969466,476.0458015,476.0458015,black,legacy,legacy,legacy,0,incongruent,uniform,1,undefined,1,h,0,130,130,130,0,0,0,130,0,130,0,0,0,130,130,130,Sat Sep 19 00:41:41 2020,600,The main experiment item,yes,FlankerTask.osexp,C:\Users\Owner\Documents,no,mono,no,18,no,white,no,yes,768,legacy,50,79,C:/Users/Owner/Documents/KTPsubject-3.csv,legacy,Lentiform Loewenfeld,3.3.3,0,h,NA,h,s,NA,h,484,NA,3168,563,NA,484,2,legacy,1024,2,48000,-16,experiment,3,odd,NA,200716,232571,234226,4223,146215,3656,215477,NA,233638,143046,3660,NA,233741,233637,233741,Flanker Test,119,62362,131,yes,1024
HHSHH,90.90909091,90.90909091,476.4318182,476.4318182,black,legacy,legacy,legacy,0,incongruent,uniform,1,undefined,1,s,0,131,131,131,0,0,0,131,0,131,0,0,0,131,131,131,Sat Sep 19 00:41:41 2020,600,The main experiment item,yes,FlankerTask.osexp,C:\Users\Owner\Documents,no,mono,no,18,no,white,no,yes,768,legacy,51,79,C:/Users/Owner/Documents/KTPsubject-3.csv,legacy,Lentiform Loewenfeld,3.3.3,0,s,NA,h,s,NA,s,527,NA,3168,563,NA,527,2,legacy,1024,2,48000,-16,experiment,3,odd,NA,200716,234230,235968,4223,146215,3656,215477,NA,235336,143046,3660,NA,235439,235334,235439,Flanker Test,120,62889,132,yes,1024
HHSHH,90.97744361,90.97744361,476.3233083,476.3233083,black,legacy,legacy,legacy,0,incongruent,uniform,1,undefined,1,s,0,132,132,132,0,0,0,132,0,132,0,0,0,132,132,132,Sat Sep 19 00:41:41 2020,600,The main experiment item,yes,FlankerTask.osexp,C:\Users\Owner\Documents,no,mono,no,18,no,white,no,yes,768,legacy,52,79,C:/Users/Owner/Documents/KTPsubject-3.csv,legacy,Lentiform Loewenfeld,3.3.3,0,s,NA,h,s,NA,s,462,NA,3168,563,NA,462,2,legacy,1024,2,48000,-16,experiment,3,odd,NA,200716,235971,237646,4223,146215,3656,215477,NA,237080,143046,3660,NA,237183,237078,237183,Flanker Test,121,63351,133,yes,1024
SSHSS,91.04477612,91.04477612,476.8283582,476.8283582,black,legacy,legacy,legacy,0,incongruent,uniform,1,undefined,1,h,0,133,133,133,0,0,0,133,0,133,0,0,0,133,133,133,Sat Sep 19 00:41:41 2020,600,The main experiment item,yes,FlankerTask.osexp,C:\Users\Owner\Documents,no,mono,no,18,no,white,no,yes,768,legacy,53,79,C:/Users/Owner/Documents/KTPsubject-3.csv,legacy,Lentiform Loewenfeld,3.3.3,0,h,NA,h,s,NA,h,544,NA,3168,563,NA,544,2,legacy,1024,2,48000,-16,experiment,3,odd,NA,200716,237650,239404,4223,146215,3656,215477,NA,238756,143046,3660,NA,238859,238755,238858,Flanker Test,122,63895,134,yes,1024
HHSHH,91.11111111,91.11111111,477.7407407,477.7407407,black,legacy,legacy,legacy,0,incongruent,uniform,1,undefined,1,s,0,134,134,134,0,0,0,134,0,134,0,0,0,134,134,134,Sat Sep 19 00:41:41 2020,600,The main experiment item,yes,FlankerTask.osexp,C:\Users\Owner\Documents,no,mono,no,18,no,white,no,yes,768,legacy,54,79,C:/Users/Owner/Documents/KTPsubject-3.csv,legacy,Lentiform Loewenfeld,3.3.3,0,s,NA,h,s,NA,s,600,NA,3168,563,NA,600,2,legacy,1024,2,48000,-16,experiment,3,odd,NA,200716,239408,241216,4223,146215,3656,215477,NA,240512,143046,3660,NA,240615,240510,240615,Flanker Test,123,64495,135,yes,1024
HHSHH,91.17647059,91.17647059,477.5147059,477.5147059,black,legacy,legacy,legacy,0,incongruent,uniform,1,undefined,1,s,0,135,135,135,0,0,0,135,0,135,0,0,0,135,135,135,Sat Sep 19 00:41:41 2020,600,The main experiment item,yes,FlankerTask.osexp,C:\Users\Owner\Documents,no,mono,no,18,no,white,no,yes,768,legacy,55,79,C:/Users/Owner/Documents/KTPsubject-3.csv,legacy,Lentiform Loewenfeld,3.3.3,0,s,NA,h,s,NA,s,447,NA,3168,563,NA,447,2,legacy,1024,2,48000,-16,experiment,3,odd,NA,200716,241218,242841,4223,146215,3656,215477,NA,242291,143046,3660,NA,242393,242290,242393,Flanker Test,124,64942,136,yes,1024
SSHSS,91.24087591,91.24087591,478.2554745,478.2554745,black,legacy,legacy,legacy,0,incongruent,uniform,1,undefined,1,h,0,136,136,136,0,0,0,136,0,136,0,0,0,136,136,136,Sat Sep 19 00:41:41 2020,600,The main experiment item,yes,FlankerTask.osexp,C:\Users\Owner\Documents,no,mono,no,18,no,white,no,yes,768,legacy,56,79,C:/Users/Owner/Documents/KTPsubject-3.csv,legacy,Lentiform Loewenfeld,3.3.3,0,h,NA,h,s,NA,h,579,NA,3168,563,NA,579,2,legacy,1024,2,48000,-16,experiment,3,odd,NA,200716,242845,244601,4223,146215,3656,215477,NA,243917,143046,3660,NA,244021,243914,244021,Flanker Test,125,65521,137,yes,1024
SSHSS,91.30434783,91.30434783,478.7826087,478.7826087,black,legacy,legacy,legacy,0,incongruent,uniform,1,undefined,1,h,0,137,137,137,0,0,0,137,0,137,0,0,0,137,137,137,Sat Sep 19 00:41:41 2020,600,The main experiment item,yes,FlankerTask.osexp,C:\Users\Owner\Documents,no,mono,no,18,no,white,no,yes,768,legacy,57,79,C:/Users/Owner/Documents/KTPsubject-3.csv,legacy,Lentiform Loewenfeld,3.3.3,0,h,NA,h,s,NA,h,551,NA,3168,563,NA,551,2,legacy,1024,2,48000,-16,experiment,3,odd,NA,200716,244607,246361,4223,146215,3656,215477,NA,245705,143046,3660,NA,245808,245704,245807,Flanker Test,126,66072,138,yes,1024
SSSSS,91.36690647,91.36690647,478.5467626,478.5467626,black,legacy,legacy,legacy,0,congruent,uniform,1,undefined,1,s,0,138,138,138,0,0,0,138,0,138,0,0,0,138,138,138,Sat Sep 19 00:41:41 2020,600,The main experiment item,yes,FlankerTask.osexp,C:\Users\Owner\Documents,no,mono,no,18,no,white,no,yes,768,legacy,58,79,C:/Users/Owner/Documents/KTPsubject-3.csv,legacy,Lentiform Loewenfeld,3.3.3,0,s,NA,h,s,NA,s,446,NA,3168,563,NA,446,2,legacy,1024,2,48000,-16,experiment,3,odd,NA,200716,246364,248022,4223,146215,3656,215477,NA,247471,143046,3660,NA,247574,247470,247574,Flanker Test,127,66518,139,yes,1024
HHSHH,91.42857143,91.42857143,479.6,479.6,black,legacy,legacy,legacy,0,incongruent,uniform,1,undefined,1,s,0,139,139,139,0,0,0,139,0,139,0,0,0,139,139,139,Sat Sep 19 00:41:41 2020,600,The main experiment item,yes,FlankerTask.osexp,C:\Users\Owner\Documents,no,mono,no,18,no,white,no,yes,768,legacy,59,79,C:/Users/Owner/Documents/KTPsubject-3.csv,legacy,Lentiform Loewenfeld,3.3.3,0,s,NA,h,s,NA,s,626,NA,3168,563,NA,626,2,legacy,1024,2,48000,-16,experiment,3,odd,NA,200716,248026,249862,4223,146215,3656,215477,NA,249132,143046,3660,NA,249235,249131,249235,Flanker Test,128,67144,140,yes,1024
HHSHH,91.4893617,91.4893617,479.6879433,479.6879433,black,legacy,legacy,legacy,0,incongruent,uniform,1,undefined,1,s,0,140,140,140,0,0,0,140,0,140,0,0,0,140,140,140,Sat Sep 19 00:41:41 2020,600,The main experiment item,yes,FlankerTask.osexp,C:\Users\Owner\Documents,no,mono,no,18,no,white,no,yes,768,legacy,60,79,C:/Users/Owner/Documents/KTPsubject-3.csv,legacy,Lentiform Loewenfeld,3.3.3,0,s,NA,h,s,NA,s,492,NA,3168,563,NA,492,2,legacy,1024,2,48000,-16,experiment,3,odd,NA,200716,250369,252067,4223,146215,3656,249865,NA,251470,143046,3660,NA,251574,251468,251574,Flanker Test,129,67636,141,yes,1024
HHHHH,91.54929577,91.54929577,482.7746479,482.7746479,black,legacy,legacy,legacy,0,congruent,uniform,1,undefined,1,h,0,141,141,141,0,0,0,141,0,141,0,0,0,141,141,141,Sat Sep 19 00:41:41 2020,600,The main experiment item,yes,FlankerTask.osexp,C:\Users\Owner\Documents,no,mono,no,18,no,white,no,yes,768,legacy,61,79,C:/Users/Owner/Documents/KTPsubject-3.csv,legacy,Lentiform Loewenfeld,3.3.3,0,h,NA,h,s,NA,h,918,NA,3168,563,NA,918,2,legacy,1024,2,48000,-16,experiment,3,odd,NA,200716,252069,254194,4223,146215,3656,249865,NA,253173,143046,3660,NA,253274,253172,253274,Flanker Test,130,68554,142,yes,1024
HHHHH,91.60839161,91.60839161,483.2097902,483.2097902,black,legacy,legacy,legacy,0,congruent,uniform,1,undefined,1,h,0,142,142,142,0,0,0,142,0,142,0,0,0,142,142,142,Sat Sep 19 00:41:41 2020,600,The main experiment item,yes,FlankerTask.osexp,C:\Users\Owner\Documents,no,mono,no,18,no,white,no,yes,768,legacy,62,79,C:/Users/Owner/Documents/KTPsubject-3.csv,legacy,Lentiform Loewenfeld,3.3.3,0,h,NA,h,s,NA,h,545,NA,3168,563,NA,545,2,legacy,1024,2,48000,-16,experiment,3,odd,NA,200716,254701,256447,4223,146215,3656,254197,NA,255799,143046,3660,NA,255900,255798,255900,Flanker Test,131,69099,143,yes,1024
HHHHH,91.66666667,91.66666667,483.0347222,483.0347222,black,legacy,legacy,legacy,0,congruent,uniform,1,undefined,1,h,0,143,143,143,0,0,0,143,0,143,0,0,0,143,143,143,Sat Sep 19 00:41:41 2020,600,The main experiment item,yes,FlankerTask.osexp,C:\Users\Owner\Documents,no,mono,no,18,no,white,no,yes,768,legacy,63,79,C:/Users/Owner/Documents/KTPsubject-3.csv,legacy,Lentiform Loewenfeld,3.3.3,0,h,NA,h,s,NA,h,458,NA,3168,563,NA,458,2,legacy,1024,2,48000,-16,experiment,3,odd,NA,200716,256450,258069,4223,146215,3656,254197,NA,257505,143046,3660,NA,257609,257504,257609,Flanker Test,132,69557,144,yes,1024
SSHSS,91.03448276,91.03448276,482,482,black,legacy,legacy,legacy,0,incongruent,uniform,0,undefined,0,h,0,144,144,144,0,0,0,144,0,144,0,0,0,144,144,144,Sat Sep 19 00:41:41 2020,600,The main experiment item,yes,FlankerTask.osexp,C:\Users\Owner\Documents,no,mono,no,18,no,white,no,yes,768,legacy,64,79,C:/Users/Owner/Documents/KTPsubject-3.csv,legacy,Lentiform Loewenfeld,3.3.3,0,s,NA,h,s,NA,s,333,NA,3168,563,NA,333,2,legacy,1024,2,48000,-16,experiment,3,odd,NA,200716,258073,259620,4223,146215,3656,254197,NA,259182,143046,3660,NA,259285,259180,259285,Flanker Test,132,69890,145,yes,1024
HHHHH,91.09589041,91.09589041,481.1712329,481.1712329,black,legacy,legacy,legacy,0,congruent,uniform,1,undefined,1,h,0,145,145,145,0,0,0,145,0,145,0,0,0,145,145,145,Sat Sep 19 00:41:41 2020,600,The main experiment item,yes,FlankerTask.osexp,C:\Users\Owner\Documents,no,mono,no,18,no,white,no,yes,768,legacy,65,79,C:/Users/Owner/Documents/KTPsubject-3.csv,legacy,Lentiform Loewenfeld,3.3.3,0,h,NA,h,s,NA,h,361,NA,3168,563,NA,361,2,legacy,1024,2,48000,-16,experiment,3,odd,NA,259623,260128,261698,4223,146215,3656,254197,NA,261233,143046,3660,NA,261336,261232,261336,Flanker Test,133,70251,146,yes,1024
HHSHH,91.15646259,91.15646259,481.537415,481.537415,black,legacy,legacy,legacy,0,incongruent,uniform,1,undefined,1,s,0,146,146,146,0,0,0,146,0,146,0,0,0,146,146,146,Sat Sep 19 00:41:41 2020,600,The main experiment item,yes,FlankerTask.osexp,C:\Users\Owner\Documents,no,mono,no,18,no,white,no,yes,768,legacy,66,79,C:/Users/Owner/Documents/KTPsubject-3.csv,legacy,Lentiform Loewenfeld,3.3.3,0,s,NA,h,s,NA,s,535,NA,3168,563,NA,535,2,legacy,1024,2,48000,-16,experiment,3,odd,NA,259623,261702,263410,4223,146215,3656,254197,NA,262771,143046,3660,NA,262874,262769,262874,Flanker Test,134,70786,147,yes,1024
SSSSS,91.21621622,91.21621622,481.0945946,481.0945946,black,legacy,legacy,legacy,0,congruent,uniform,1,undefined,1,s,0,147,147,147,0,0,0,147,0,147,0,0,0,147,147,147,Sat Sep 19 00:41:41 2020,600,The main experiment item,yes,FlankerTask.osexp,C:\Users\Owner\Documents,no,mono,no,18,no,white,no,yes,768,legacy,67,79,C:/Users/Owner/Documents/KTPsubject-3.csv,legacy,Lentiform Loewenfeld,3.3.3,0,s,NA,h,s,NA,s,416,NA,3168,563,NA,416,2,legacy,1024,2,48000,-16,experiment,3,odd,NA,259623,263413,265049,4223,146215,3656,254197,NA,264528,143046,3660,NA,264631,264526,264631,Flanker Test,135,71202,148,yes,1024
SSHSS,91.27516779,91.27516779,481.0402685,481.0402685,black,legacy,legacy,legacy,0,incongruent,uniform,1,undefined,1,h,0,148,148,148,0,0,0,148,0,148,0,0,0,148,148,148,Sat Sep 19 00:41:41 2020,600,The main experiment item,yes,FlankerTask.osexp,C:\Users\Owner\Documents,no,mono,no,18,no,white,no,yes,768,legacy,68,79,C:/Users/Owner/Documents/KTPsubject-3.csv,legacy,Lentiform Loewenfeld,3.3.3,0,h,NA,h,s,NA,h,473,NA,3168,563,NA,473,2,legacy,1024,2,48000,-16,experiment,3,odd,NA,259623,265051,266728,4223,146215,3656,254197,NA,266151,143046,3660,NA,266254,266149,266254,Flanker Test,136,71675,149,yes,1024
HHHHH,91.33333333,91.33333333,481.1133333,481.1133333,black,legacy,legacy,legacy,0,congruent,uniform,1,undefined,1,h,0,149,149,149,0,0,0,149,0,149,0,0,0,149,149,149,Sat Sep 19 00:41:41 2020,600,The main experiment item,yes,FlankerTask.osexp,C:\Users\Owner\Documents,no,mono,no,18,no,white,no,yes,768,legacy,69,79,C:/Users/Owner/Documents/KTPsubject-3.csv,legacy,Lentiform Loewenfeld,3.3.3,0,h,NA,h,s,NA,h,492,NA,3168,563,NA,492,2,legacy,1024,2,48000,-16,experiment,3,odd,NA,259623,266734,268437,4223,146215,3656,254197,NA,267840,143046,3660,NA,267944,267839,267944,Flanker Test,137,72167,150,yes,1024
HHHHH,91.39072848,91.39072848,480.8609272,480.8609272,black,legacy,legacy,legacy,0,congruent,uniform,1,undefined,1,h,0,150,150,150,0,0,0,150,0,150,0,0,0,150,150,150,Sat Sep 19 00:41:41 2020,600,The main experiment item,yes,FlankerTask.osexp,C:\Users\Owner\Documents,no,mono,no,18,no,white,no,yes,768,legacy,70,79,C:/Users/Owner/Documents/KTPsubject-3.csv,legacy,Lentiform Loewenfeld,3.3.3,0,h,NA,h,s,NA,h,443,NA,3168,563,NA,443,2,legacy,1024,2,48000,-16,experiment,3,odd,NA,259623,268439,270091,4223,146215,3656,254197,NA,269544,143046,3660,NA,269646,269543,269646,Flanker Test,138,72610,151,yes,1024
HHHHH,91.44736842,91.44736842,480.4473684,480.4473684,black,legacy,legacy,legacy,0,congruent,uniform,1,undefined,1,h,0,151,151,151,0,0,0,151,0,151,0,0,0,151,151,151,Sat Sep 19 00:41:41 2020,600,The main experiment item,yes,FlankerTask.osexp,C:\Users\Owner\Documents,no,mono,no,18,no,white,no,yes,768,legacy,71,79,C:/Users/Owner/Documents/KTPsubject-3.csv,legacy,Lentiform Loewenfeld,3.3.3,0,h,NA,h,s,NA,h,418,NA,3168,563,NA,418,2,legacy,1024,2,48000,-16,experiment,3,odd,NA,259623,270095,271724,4223,146215,3656,254197,NA,271201,143046,3660,NA,271304,271199,271304,Flanker Test,139,73028,152,yes,1024
SSSSS,91.50326797,91.50326797,480.3202614,480.3202614,black,legacy,legacy,legacy,0,congruent,uniform,1,undefined,1,s,0,152,152,152,0,0,0,152,0,152,0,0,0,152,152,152,Sat Sep 19 00:41:41 2020,600,The main experiment item,yes,FlankerTask.osexp,C:\Users\Owner\Documents,no,mono,no,18,no,white,no,yes,768,legacy,72,79,C:/Users/Owner/Documents/KTPsubject-3.csv,legacy,Lentiform Loewenfeld,3.3.3,0,s,NA,h,s,NA,s,461,NA,3168,563,NA,461,2,legacy,1024,2,48000,-16,experiment,3,odd,NA,259623,271727,273401,4223,146215,3656,254197,NA,272835,143046,3660,NA,272938,272833,272938,Flanker Test,140,73489,153,yes,1024
HHHHH,91.55844156,91.55844156,479.5324675,479.5324675,black,legacy,legacy,legacy,0,congruent,uniform,1,undefined,1,h,0,153,153,153,0,0,0,153,0,153,0,0,0,153,153,153,Sat Sep 19 00:41:41 2020,600,The main experiment item,yes,FlankerTask.osexp,C:\Users\Owner\Documents,no,mono,no,18,no,white,no,yes,768,legacy,73,79,C:/Users/Owner/Documents/KTPsubject-3.csv,legacy,Lentiform Loewenfeld,3.3.3,0,h,NA,h,s,NA,h,359,NA,3168,563,NA,359,2,legacy,1024,2,48000,-16,experiment,3,odd,NA,259623,273404,274972,4223,146215,3656,254197,NA,274510,143046,3660,NA,274611,274509,274611,Flanker Test,141,73848,154,yes,1024
HHSHH,91.61290323,91.61290323,480.6516129,480.6516129,black,legacy,legacy,legacy,0,incongruent,uniform,1,undefined,1,s,0,154,154,154,0,0,0,154,0,154,0,0,0,154,154,154,Sat Sep 19 00:41:41 2020,600,The main experiment item,yes,FlankerTask.osexp,C:\Users\Owner\Documents,no,mono,no,18,no,white,no,yes,768,legacy,74,79,C:/Users/Owner/Documents/KTPsubject-3.csv,legacy,Lentiform Loewenfeld,3.3.3,0,s,NA,h,s,NA,s,653,NA,3168,563,NA,653,2,legacy,1024,2,48000,-16,experiment,3,odd,NA,259623,274976,276805,4223,146215,3656,254197,NA,276048,143046,3660,NA,276151,276047,276151,Flanker Test,142,74501,155,yes,1024
SSHSS,91.66666667,91.66666667,480.4423077,480.4423077,black,legacy,legacy,legacy,0,incongruent,uniform,1,undefined,1,h,0,155,155,155,0,0,0,155,0,155,0,0,0,155,155,155,Sat Sep 19 00:41:41 2020,600,The main experiment item,yes,FlankerTask.osexp,C:\Users\Owner\Documents,no,mono,no,18,no,white,no,yes,768,legacy,75,79,C:/Users/Owner/Documents/KTPsubject-3.csv,legacy,Lentiform Loewenfeld,3.3.3,0,h,NA,h,s,NA,h,448,NA,3168,563,NA,448,2,legacy,1024,2,48000,-16,experiment,3,odd,NA,259623,277312,278973,4223,146215,3656,276808,NA,278420,143046,3660,NA,278523,278419,278523,Flanker Test,143,74949,156,yes,1024
HHSHH,91.71974522,91.71974522,479.7770701,479.7770701,black,legacy,legacy,legacy,0,incongruent,uniform,1,undefined,1,s,0,156,156,156,0,0,0,156,0,156,0,0,0,156,156,156,Sat Sep 19 00:41:41 2020,600,The main experiment item,yes,FlankerTask.osexp,C:\Users\Owner\Documents,no,mono,no,18,no,white,no,yes,768,legacy,76,79,C:/Users/Owner/Documents/KTPsubject-3.csv,legacy,Lentiform Loewenfeld,3.3.3,0,s,NA,h,s,NA,s,376,NA,3168,563,NA,376,2,legacy,1024,2,48000,-16,experiment,3,odd,NA,259623,278976,280536,4223,146215,3656,276808,NA,280056,143046,3660,NA,280159,280055,280159,Flanker Test,144,75325,157,yes,1024
SSSSS,91.7721519,91.7721519,479.4050633,479.4050633,black,legacy,legacy,legacy,0,congruent,uniform,1,undefined,1,s,0,157,157,157,0,0,0,157,0,157,0,0,0,157,157,157,Sat Sep 19 00:41:41 2020,600,The main experiment item,yes,FlankerTask.osexp,C:\Users\Owner\Documents,no,mono,no,18,no,white,no,yes,768,legacy,77,79,C:/Users/Owner/Documents/KTPsubject-3.csv,legacy,Lentiform Loewenfeld,3.3.3,0,s,NA,h,s,NA,s,421,NA,3168,563,NA,421,2,legacy,1024,2,48000,-16,experiment,3,odd,NA,259623,280539,282172,4223,146215,3656,276808,NA,281646,143046,3660,NA,281750,281644,281750,Flanker Test,145,75746,158,yes,1024
SSSSS,91.82389937,91.82389937,479.1383648,479.1383648,black,legacy,legacy,legacy,0,congruent,uniform,1,undefined,1,s,0,158,158,158,0,0,0,158,0,158,0,0,0,158,158,158,Sat Sep 19 00:41:41 2020,600,The main experiment item,yes,FlankerTask.osexp,C:\Users\Owner\Documents,no,mono,no,18,no,white,no,yes,768,legacy,78,79,C:/Users/Owner/Documents/KTPsubject-3.csv,legacy,Lentiform Loewenfeld,3.3.3,0,s,NA,h,s,NA,s,437,NA,3168,563,NA,437,2,legacy,1024,2,48000,-16,experiment,3,odd,NA,259623,282176,283793,4223,146215,3656,276808,NA,283251,143046,3660,NA,283354,283249,283354,Flanker Test,146,76183,159,yes,1024
SSSSS,91.875,91.875,478.20625,478.20625,black,legacy,legacy,legacy,0,congruent,uniform,1,undefined,1,s,0,159,159,159,0,0,0,159,0,159,0,0,0,159,159,159,Sat Sep 19 00:41:41 2020,600,The main experiment item,yes,FlankerTask.osexp,C:\Users\Owner\Documents,no,mono,no,18,no,white,no,yes,768,legacy,79,79,C:/Users/Owner/Documents/KTPsubject-3.csv,legacy,Lentiform Loewenfeld,3.3.3,0,s,NA,h,s,NA,s,330,NA,3168,563,NA,330,2,legacy,1024,2,48000,-16,experiment,3,odd,NA,259623,283796,285320,4223,146215,3656,276808,NA,284886,143046,3660,NA,284988,284884,284988,Flanker Test,147,76513,160,yes,1024
HHSHH,91.30434783,91.30434783,477.8136646,477.8136646,black,legacy,legacy,legacy,0,incongruent,uniform,0,undefined,0,s,0,160,160,160,0,0,0,160,0,160,0,0,0,160,160,160,Sat Sep 19 00:41:41 2020,300,The main experiment item,yes,FlankerTask.osexp,C:\Users\Owner\Documents,no,mono,no,18,no,white,no,yes,768,legacy,0,79,C:/Users/Owner/Documents/KTPsubject-3.csv,legacy,Lentiform Loewenfeld,3.3.3,0,h,NA,h,s,h,h,415,NA,3168,563,2025,415,2,legacy,1024,2,48000,-16,experiment,3,odd,288368,259623,285323,288931,4223,146215,3656,276808,NA,288410,143046,3660,286341,288514,288409,288514,Flanker Test,147,76928,161,yes,1024
SSHSS,91.35802469,91.35802469,476.5246914,476.5246914,black,legacy,legacy,legacy,0,incongruent,uniform,1,undefined,1,h,0,161,161,161,0,0,0,161,0,161,0,0,0,161,161,161,Sat Sep 19 00:41:41 2020,300,The main experiment item,yes,FlankerTask.osexp,C:\Users\Owner\Documents,no,mono,no,18,no,white,no,yes,768,legacy,1,79,C:/Users/Owner/Documents/KTPsubject-3.csv,legacy,Lentiform Loewenfeld,3.3.3,0,h,NA,h,s,h,h,269,NA,3168,563,2025,269,2,legacy,1024,2,48000,-16,experiment,3,odd,288368,288936,289945,291429,4223,146215,3656,289440,NA,291052,143046,3660,286341,291155,291050,291155,Flanker Test,148,77197,162,yes,1024
HHHHH,90.79754601,90.79754601,474.595092,474.595092,black,legacy,legacy,legacy,0,congruent,uniform,0,undefined,0,h,0,162,162,162,0,0,0,162,0,162,0,0,0,162,162,162,Sat Sep 19 00:41:41 2020,300,The main experiment item,yes,FlankerTask.osexp,C:\Users\Owner\Documents,no,mono,no,18,no,white,no,yes,768,legacy,2,79,C:/Users/Owner/Documents/KTPsubject-3.csv,legacy,Lentiform Loewenfeld,3.3.3,0,s,NA,h,s,h,s,162,NA,3168,563,2025,162,2,legacy,1024,2,48000,-16,experiment,3,odd,288368,288936,291438,292811,4223,146215,3656,289440,NA,292544,143046,3660,286341,292647,292543,292647,Flanker Test,148,77359,163,yes,1024
HHSHH,90.85365854,90.85365854,473.5670732,473.5670732,black,legacy,legacy,legacy,0,incongruent,uniform,1,undefined,1,s,0,163,163,163,0,0,0,163,0,163,0,0,0,163,163,163,Sat Sep 19 00:41:41 2020,300,The main experiment item,yes,FlankerTask.osexp,C:\Users\Owner\Documents,no,mono,no,18,no,white,no,yes,768,legacy,3,79,C:/Users/Owner/Documents/KTPsubject-3.csv,legacy,Lentiform Loewenfeld,3.3.3,0,s,NA,h,s,h,s,306,NA,3168,563,2025,306,2,legacy,1024,2,48000,-16,experiment,3,odd,288368,292814,293318,294835,4223,146215,3656,289440,NA,294426,143046,3660,286341,294528,294424,294528,Flanker Test,149,77665,164,yes,1024
HHHHH,90.90909091,90.90909091,471.9939394,471.9939394,black,legacy,legacy,legacy,0,congruent,uniform,1,undefined,1,h,0,164,164,164,0,0,0,164,0,164,0,0,0,164,164,164,Sat Sep 19 00:41:41 2020,300,The main experiment item,yes,FlankerTask.osexp,C:\Users\Owner\Documents,no,mono,no,18,no,white,no,yes,768,legacy,4,79,C:/Users/Owner/Documents/KTPsubject-3.csv,legacy,Lentiform Loewenfeld,3.3.3,0,h,NA,h,s,h,h,214,NA,3168,563,2025,214,2,legacy,1024,2,48000,-16,experiment,3,odd,288368,292814,295342,296762,4223,146215,3656,294838,NA,296443,143046,3660,286341,296546,296441,296546,Flanker Test,150,77879,165,yes,1024
SSSSS,90.96385542,90.96385542,471.0662651,471.0662651,black,legacy,legacy,legacy,0,congruent,uniform,1,undefined,1,s,0,165,165,165,0,0,0,165,0,165,0,0,0,165,165,165,Sat Sep 19 00:41:41 2020,300,The main experiment item,yes,FlankerTask.osexp,C:\Users\Owner\Documents,no,mono,no,18,no,white,no,yes,768,legacy,5,79,C:/Users/Owner/Documents/KTPsubject-3.csv,legacy,Lentiform Loewenfeld,3.3.3,0,s,NA,h,s,h,s,318,NA,3168,563,2025,318,2,legacy,1024,2,48000,-16,experiment,3,odd,288368,292814,296767,298296,4223,146215,3656,294838,NA,297873,143046,3660,286341,297976,297871,297976,Flanker Test,151,78197,166,yes,1024
HHSHH,90.41916168,90.41916168,469.1796407,469.1796407,black,legacy,legacy,legacy,0,incongruent,uniform,0,undefined,0,s,0,166,166,166,0,0,0,166,0,166,0,0,0,166,166,166,Sat Sep 19 00:41:41 2020,300,The main experiment item,yes,FlankerTask.osexp,C:\Users\Owner\Documents,no,mono,no,18,no,white,no,yes,768,legacy,6,79,C:/Users/Owner/Documents/KTPsubject-3.csv,legacy,Lentiform Loewenfeld,3.3.3,0,h,NA,h,s,h,h,156,NA,3168,563,2025,156,2,legacy,1024,2,48000,-16,experiment,3,odd,288368,292814,298803,300171,4223,146215,3656,298299,NA,299911,143046,3660,286341,300014,299909,300014,Flanker Test,151,78353,167,yes,1024
HHSHH,90.47619048,90.47619048,468.2261905,468.2261905,black,legacy,legacy,legacy,0,incongruent,uniform,1,undefined,1,s,0,167,167,167,0,0,0,167,0,167,0,0,0,167,167,167,Sat Sep 19 00:41:41 2020,300,The main experiment item,yes,FlankerTask.osexp,C:\Users\Owner\Documents,no,mono,no,18,no,white,no,yes,768,legacy,7,79,C:/Users/Owner/Documents/KTPsubject-3.csv,legacy,Lentiform Loewenfeld,3.3.3,0,s,NA,h,s,h,s,309,NA,3168,563,2025,309,2,legacy,1024,2,48000,-16,experiment,3,odd,288368,300174,300677,302199,4223,146215,3656,298299,NA,301785,143046,3660,286341,301888,301783,301888,Flanker Test,152,78662,168,yes,1024
