"acc","accuracy","average_response_time","avg_rt","background","canvas_backend","clock_backend","color_backend","compensation","condition","coordinates","correct","correct_instructions1","correct_keyboard_response","correct_response","count_ISI","count_block1","count_block2","count_block3","count_errorFeedback","count_experiment","count_faster","count_fixation","count_instructions1","count_instructions2","count_instructions3","count_keyboard_response","count_logger","count_sequence","count_stimulus","datetime","deadline","description","disable_garbage_collection","experiment_file","experiment_path","font_bold","font_family","font_italic","font_size","font_underline","foreground","form_clicks","fullscreen","height","keyboard_backend","live_row","live_row_block1","logfile","mouse_backend","opensesame_codename","opensesame_version","repeat_cycle","response","response_instructions1","response_instructions2","response_instructions3","response_keyboard_response","response_time","response_time_instructions1","response_time_instructions2","response_time_instructions3","response_time_keyboard_response","round_decimals","sampler_backend","sound_buf_size","sound_channels","sound_freq","sound_sample_size","start","stimulus","subject_nr","subject_parity","time_ISI","time_block1","time_block2","time_block3","time_errorFeedback","time_experiment","time_faster","time_fixation","time_instructions1","time_instructions2","time_instructions3","time_keyboard_response","time_logger","time_sequence","time_stimulus","title","total_correct","total_response_time","total_responses","uniform_coordinates","width"
"100","100","547","547","black","legacy","legacy","legacy","0","congruent","uniform","1","undefined","1","h","0","0","0","0","0","0","0","0","0","0","0","0","0","0","0","Sun Sep 27 17:17:30 2020","1500","The main experiment item","yes","FlankerTask.osexp","C:\Users\chris\OneDrive\Desktop\lab","no","mono","no","18","no","white","no","yes","768","legacy","0","0","C:/Users/chris/OneDrive/Desktop/lab/CM-subject-4.csv","legacy","Lentiform Loewenfeld","3.3.3","0","h","h","NA","NA","h","547","20928","NA","NA","547","2","legacy","1024","2","48000","-16","experiment","HHHHH","4","even","NA","23301","NA","NA","NA","2368","NA","23390","2372","NA","NA","23491","24039","23388","23491","Flanker Task","1","547","1","yes","1024"
"100","100","525","525","black","legacy","legacy","legacy","0","congruent","uniform","1","undefined","1","s","1","0","0","0","1","0","1","1","0","0","0","1","1","1","1","Sun Sep 27 17:17:30 2020","1500","The main experiment item","yes","FlankerTask.osexp","C:\Users\chris\OneDrive\Desktop\lab","no","mono","no","18","no","white","no","yes","768","legacy","1","1","C:/Users/chris/OneDrive/Desktop/lab/CM-subject-4.csv","legacy","Lentiform Loewenfeld","3.3.3","0","s","h","NA","NA","s","503","20928","NA","NA","503","2","legacy","1024","2","48000","-16","experiment","SSSSS","4","even","24051","23301","NA","NA","NA","2368","NA","25150","2372","NA","NA","25252","25755","25148","25252","Flanker Task","2","1050","2","yes","1024"
"100","100","548.6666666666666","548.6666666666666","black","legacy","legacy","legacy","0","incongruent","uniform","1","undefined","1","s","2","0","0","0","2","0","2","2","0","0","0","2","2","2","2","Sun Sep 27 17:17:30 2020","1500","The main experiment item","yes","FlankerTask.osexp","C:\Users\chris\OneDrive\Desktop\lab","no","mono","no","18","no","white","no","yes","768","legacy","2","2","C:/Users/chris/OneDrive/Desktop/lab/CM-subject-4.csv","legacy","Lentiform Loewenfeld","3.3.3","0","s","h","NA","NA","s","596","20928","NA","NA","596","2","legacy","1024","2","48000","-16","experiment","HHSHH","4","even","25764","23301","NA","NA","NA","2368","NA","26863","2372","NA","NA","26965","27561","26860","26965","Flanker Task","3","1646","3","yes","1024"
"100","100","540.25","540.25","black","legacy","legacy","legacy","0","incongruent","uniform","1","undefined","1","s","3","0","0","0","3","0","3","3","0","0","0","3","3","3","3","Sun Sep 27 17:17:30 2020","1500","The main experiment item","yes","FlankerTask.osexp","C:\Users\chris\OneDrive\Desktop\lab","no","mono","no","18","no","white","no","yes","768","legacy","3","3","C:/Users/chris/OneDrive/Desktop/lab/CM-subject-4.csv","legacy","Lentiform Loewenfeld","3.3.3","0","s","h","NA","NA","s","515","20928","NA","NA","515","2","legacy","1024","2","48000","-16","experiment","HHSHH","4","even","27571","23301","NA","NA","NA","2368","NA","28662","2372","NA","NA","28764","29280","28660","28764","Flanker Task","4","2161","4","yes","1024"
"100","100","573","573","black","legacy","legacy","legacy","0","incongruent","uniform","1","undefined","1","h","4","0","0","0","4","0","4","4","0","0","0","4","4","4","4","Sun Sep 27 17:17:30 2020","1500","The main experiment item","yes","FlankerTask.osexp","C:\Users\chris\OneDrive\Desktop\lab","no","mono","no","18","no","white","no","yes","768","legacy","4","4","C:/Users/chris/OneDrive/Desktop/lab/CM-subject-4.csv","legacy","Lentiform Loewenfeld","3.3.3","0","h","h","NA","NA","h","704","20928","NA","NA","704","2","legacy","1024","2","48000","-16","experiment","SSHSS","4","even","29289","23301","NA","NA","NA","2368","NA","30385","2372","NA","NA","30487","31191","30382","30487","Flanker Task","5","2865","5","yes","1024"
"100","100","556.8333333333334","556.8333333333334","black","legacy","legacy","legacy","0","incongruent","uniform","1","undefined","1","s","5","0","0","0","5","0","5","5","0","0","0","5","5","5","5","Sun Sep 27 17:17:30 2020","1500","The main experiment item","yes","FlankerTask.osexp","C:\Users\chris\OneDrive\Desktop\lab","no","mono","no","18","no","white","no","yes","768","legacy","5","5","C:/Users/chris/OneDrive/Desktop/lab/CM-subject-4.csv","legacy","Lentiform Loewenfeld","3.3.3","0","s","h","NA","NA","s","476","20928","NA","NA","476","2","legacy","1024","2","48000","-16","experiment","HHSHH","4","even","31200","23301","NA","NA","NA","2368","NA","32298","2372","NA","NA","32400","32876","32294","32400","Flanker Task","6","3341","6","yes","1024"
"100","100","554.8571428571429","554.8571428571429","black","legacy","legacy","legacy","0","congruent","uniform","1","undefined","1","s","6","0","0","0","6","0","6","6","0","0","0","6","6","6","6","Sun Sep 27 17:17:30 2020","1500","The main experiment item","yes","FlankerTask.osexp","C:\Users\chris\OneDrive\Desktop\lab","no","mono","no","18","no","white","no","yes","768","legacy","6","6","C:/Users/chris/OneDrive/Desktop/lab/CM-subject-4.csv","legacy","Lentiform Loewenfeld","3.3.3","0","s","h","NA","NA","s","543","20928","NA","NA","543","2","legacy","1024","2","48000","-16","experiment","SSSSS","4","even","32885","23301","NA","NA","NA","2368","NA","33988","2372","NA","NA","34090","34633","33985","34090","Flanker Task","7","3884","7","yes","1024"
"100","100","544.375","544.375","black","legacy","legacy","legacy","0","congruent","uniform","1","undefined","1","s","7","0","0","0","7","0","7","7","0","0","0","7","7","7","7","Sun Sep 27 17:17:30 2020","1500","The main experiment item","yes","FlankerTask.osexp","C:\Users\chris\OneDrive\Desktop\lab","no","mono","no","18","no","white","no","yes","768","legacy","7","7","C:/Users/chris/OneDrive/Desktop/lab/CM-subject-4.csv","legacy","Lentiform Loewenfeld","3.3.3","0","s","h","NA","NA","s","471","20928","NA","NA","471","2","legacy","1024","2","48000","-16","experiment","SSSSS","4","even","34644","23301","NA","NA","NA","2368","NA","35739","2372","NA","NA","35841","36312","35736","35841","Flanker Task","8","4355","8","yes","1024"
"100","100","550.2222222222222","550.2222222222222","black","legacy","legacy","legacy","0","incongruent","uniform","1","undefined","1","h","8","0","0","0","8","0","8","8","0","0","0","8","8","8","8","Sun Sep 27 17:17:30 2020","1500","The main experiment item","yes","FlankerTask.osexp","C:\Users\chris\OneDrive\Desktop\lab","no","mono","no","18","no","white","no","yes","768","legacy","8","8","C:/Users/chris/OneDrive/Desktop/lab/CM-subject-4.csv","legacy","Lentiform Loewenfeld","3.3.3","0","h","h","NA","NA","h","597","20928","NA","NA","597","2","legacy","1024","2","48000","-16","experiment","SSHSS","4","even","36323","23301","NA","NA","NA","2368","NA","37421","2372","NA","NA","37523","38120","37418","37523","Flanker Task","9","4952","9","yes","1024"
"100","100","543.3","543.3","black","legacy","legacy","legacy","0","congruent","uniform","1","undefined","1","s","9","0","0","0","9","0","9","9","0","0","0","9","9","9","9","Sun Sep 27 17:17:30 2020","1500","The main experiment item","yes","FlankerTask.osexp","C:\Users\chris\OneDrive\Desktop\lab","no","mono","no","18","no","white","no","yes","768","legacy","9","9","C:/Users/chris/OneDrive/Desktop/lab/CM-subject-4.csv","legacy","Lentiform Loewenfeld","3.3.3","0","s","h","NA","NA","s","481","20928","NA","NA","481","2","legacy","1024","2","48000","-16","experiment","SSSSS","4","even","38125","23301","NA","NA","NA","2368","NA","39221","2372","NA","NA","39323","39805","39219","39323","Flanker Task","10","5433","10","yes","1024"
"100","100","538.9090909090909","538.9090909090909","black","legacy","legacy","legacy","0","congruent","uniform","1","undefined","1","h","10","0","0","0","10","0","10","10","0","0","0","10","10","10","10","Sun Sep 27 17:17:30 2020","1500","The main experiment item","yes","FlankerTask.osexp","C:\Users\chris\OneDrive\Desktop\lab","no","mono","no","18","no","white","no","yes","768","legacy","10","10","C:/Users/chris/OneDrive/Desktop/lab/CM-subject-4.csv","legacy","Lentiform Loewenfeld","3.3.3","0","h","h","NA","NA","h","495","20928","NA","NA","495","2","legacy","1024","2","48000","-16","experiment","HHHHH","4","even","39814","23301","NA","NA","NA","2368","NA","40911","2372","NA","NA","41014","41509","40909","41014","Flanker Task","11","5928","11","yes","1024"
"100","100","539.3333333333334","539.3333333333334","black","legacy","legacy","legacy","0","incongruent","uniform","1","undefined","1","s","11","0","0","0","11","0","11","11","0","0","0","11","11","11","11","Sun Sep 27 17:17:30 2020","1500","The main experiment item","yes","FlankerTask.osexp","C:\Users\chris\OneDrive\Desktop\lab","no","mono","no","18","no","white","no","yes","768","legacy","11","11","C:/Users/chris/OneDrive/Desktop/lab/CM-subject-4.csv","legacy","Lentiform Loewenfeld","3.3.3","0","s","h","NA","NA","s","544","20928","NA","NA","544","2","legacy","1024","2","48000","-16","experiment","HHSHH","4","even","41518","23301","NA","NA","NA","2368","NA","42619","2372","NA","NA","42721","43266","42616","42721","Flanker Task","12","6472","12","yes","1024"
"100","100","533.4615384615385","533.4615384615385","black","legacy","legacy","legacy","0","congruent","uniform","1","undefined","1","s","12","0","0","0","12","0","12","12","0","0","0","12","12","12","12","Sun Sep 27 17:17:30 2020","1500","The main experiment item","yes","FlankerTask.osexp","C:\Users\chris\OneDrive\Desktop\lab","no","mono","no","18","no","white","no","yes","768","legacy","12","12","C:/Users/chris/OneDrive/Desktop/lab/CM-subject-4.csv","legacy","Lentiform Loewenfeld","3.3.3","0","s","h","NA","NA","s","463","20928","NA","NA","463","2","legacy","1024","2","48000","-16","experiment","SSSSS","4","even","43275","23301","NA","NA","NA","2368","NA","44371","2372","NA","NA","44473","44937","44368","44473","Flanker Task","13","6935","13","yes","1024"
"100","100","527.1428571428571","527.1428571428571","black","legacy","legacy","legacy","0","congruent","uniform","1","undefined","1","s","13","0","0","0","13","0","13","13","0","0","0","13","13","13","13","Sun Sep 27 17:17:30 2020","1500","The main experiment item","yes","FlankerTask.osexp","C:\Users\chris\OneDrive\Desktop\lab","no","mono","no","18","no","white","no","yes","768","legacy","13","13","C:/Users/chris/OneDrive/Desktop/lab/CM-subject-4.csv","legacy","Lentiform Loewenfeld","3.3.3","0","s","h","NA","NA","s","445","20928","NA","NA","445","2","legacy","1024","2","48000","-16","experiment","SSSSS","4","even","44942","23301","NA","NA","NA","2368","NA","46037","2372","NA","NA","46139","46584","46034","46139","Flanker Task","14","7380","14","yes","1024"
"100","100","519.3333333333334","519.3333333333334","black","legacy","legacy","legacy","0","congruent","uniform","1","undefined","1","s","14","0","0","0","14","0","14","14","0","0","0","14","14","14","14","Sun Sep 27 17:17:30 2020","1500","The main experiment item","yes","FlankerTask.osexp","C:\Users\chris\OneDrive\Desktop\lab","no","mono","no","18","no","white","no","yes","768","legacy","14","14","C:/Users/chris/OneDrive/Desktop/lab/CM-subject-4.csv","legacy","Lentiform Loewenfeld","3.3.3","0","s","h","NA","NA","s","410","20928","NA","NA","410","2","legacy","1024","2","48000","-16","experiment","SSSSS","4","even","46588","23301","NA","NA","NA","2368","NA","47686","2372","NA","NA","47788","48198","47682","47788","Flanker Task","15","7790","15","yes","1024"
"93.75","93.75","517.75","517.75","black","legacy","legacy","legacy","0","incongruent","uniform","0","undefined","0","s","15","0","0","0","15","0","15","15","0","0","0","15","15","15","15","Sun Sep 27 17:17:30 2020","1500","The main experiment item","yes","FlankerTask.osexp","C:\Users\chris\OneDrive\Desktop\lab","no","mono","no","18","no","white","no","yes","768","legacy","15","15","C:/Users/chris/OneDrive/Desktop/lab/CM-subject-4.csv","legacy","Lentiform Loewenfeld","3.3.3","0","h","h","NA","NA","h","494","20928","NA","NA","494","2","legacy","1024","2","48000","-16","experiment","HHSHH","4","even","48209","23301","NA","NA","NA","2368","NA","49306","2372","NA","NA","49408","49903","49303","49408","Flanker Task","15","8284","16","yes","1024"
"94.11764705882354","94.11764705882354","518.7058823529412","518.7058823529412","black","legacy","legacy","legacy","0","incongruent","uniform","1","undefined","1","h","16","0","0","0","16","0","16","16","0","0","0","16","16","16","16","Sun Sep 27 17:17:30 2020","1500","The main experiment item","yes","FlankerTask.osexp","C:\Users\chris\OneDrive\Desktop\lab","no","mono","no","18","no","white","no","yes","768","legacy","16","16","C:/Users/chris/OneDrive/Desktop/lab/CM-subject-4.csv","legacy","Lentiform Loewenfeld","3.3.3","0","h","h","NA","NA","h","534","20928","NA","NA","534","2","legacy","1024","2","48000","-16","experiment","SSHSS","4","even","50414","23301","NA","NA","49912","2368","NA","51503","2372","NA","NA","51605","52140","51500","51605","Flanker Task","16","8818","17","yes","1024"
"94.44444444444444","94.44444444444444","530.1666666666666","530.1666666666666","black","legacy","legacy","legacy","0","congruent","uniform","1","undefined","1","h","17","0","0","0","17","0","17","17","0","0","0","17","17","17","17","Sun Sep 27 17:17:30 2020","1500","The main experiment item","yes","FlankerTask.osexp","C:\Users\chris\OneDrive\Desktop\lab","no","mono","no","18","no","white","no","yes","768","legacy","17","17","C:/Users/chris/OneDrive/Desktop/lab/CM-subject-4.csv","legacy","Lentiform Loewenfeld","3.3.3","0","h","h","NA","NA","h","725","20928","NA","NA","725","2","legacy","1024","2","48000","-16","experiment","HHHHH","4","even","52149","23301","NA","NA","49912","2368","NA","53246","2372","NA","NA","53348","54073","53244","53348","Flanker Task","17","9543","18","yes","1024"
"94.73684210526316","94.73684210526316","527.2631578947369","527.2631578947369","black","legacy","legacy","legacy","0","incongruent","uniform","1","undefined","1","s","18","0","0","0","18","0","18","18","0","0","0","18","18","18","18","Sun Sep 27 17:17:30 2020","1500","The main experiment item","yes","FlankerTask.osexp","C:\Users\chris\OneDrive\Desktop\lab","no","mono","no","18","no","white","no","yes","768","legacy","18","18","C:/Users/chris/OneDrive/Desktop/lab/CM-subject-4.csv","legacy","Lentiform Loewenfeld","3.3.3","0","s","h","NA","NA","s","475","20928","NA","NA","475","2","legacy","1024","2","48000","-16","experiment","HHSHH","4","even","54083","23301","NA","NA","49912","2368","NA","55181","2372","NA","NA","55283","55758","55178","55283","Flanker Task","18","10018","19","yes","1024"
"95","95","526.7","526.7","black","legacy","legacy","legacy","0","incongruent","uniform","1","undefined","1","s","19","0","0","0","19","0","19","19","0","0","0","19","19","19","19","Sun Sep 27 17:17:30 2020","1500","The main experiment item","yes","FlankerTask.osexp","C:\Users\chris\OneDrive\Desktop\lab","no","mono","no","18","no","white","no","yes","768","legacy","19","19","C:/Users/chris/OneDrive/Desktop/lab/CM-subject-4.csv","legacy","Lentiform Loewenfeld","3.3.3","0","s","h","NA","NA","s","516","20928","NA","NA","516","2","legacy","1024","2","48000","-16","experiment","HHSHH","4","even","55768","23301","NA","NA","49912","2368","NA","56866","2372","NA","NA","56968","57485","56863","56968","Flanker Task","19","10534","20","yes","1024"
"95.23809523809524","95.23809523809524","521.1428571428571","521.1428571428571","black","legacy","legacy","legacy","0","congruent","uniform","1","undefined","1","s","20","0","0","0","20","0","20","20","0","0","0","20","20","20","20","Sun Sep 27 17:17:30 2020","1500","The main experiment item","yes","FlankerTask.osexp","C:\Users\chris\OneDrive\Desktop\lab","no","mono","no","18","no","white","no","yes","768","legacy","20","20","C:/Users/chris/OneDrive/Desktop/lab/CM-subject-4.csv","legacy","Lentiform Loewenfeld","3.3.3","0","s","h","NA","NA","s","410","20928","NA","NA","410","2","legacy","1024","2","48000","-16","experiment","SSSSS","4","even","57494","23301","NA","NA","49912","2368","NA","58647","2372","NA","NA","58753","59164","58644","58753","Flanker Task","20","10944","21","yes","1024"
"95.45454545454545","95.45454545454545","524.4545454545455","524.4545454545455","black","legacy","legacy","legacy","0","incongruent","uniform","1","undefined","1","h","21","0","0","0","21","0","21","21","0","0","0","21","21","21","21","Sun Sep 27 17:17:30 2020","1500","The main experiment item","yes","FlankerTask.osexp","C:\Users\chris\OneDrive\Desktop\lab","no","mono","no","18","no","white","no","yes","768","legacy","21","21","C:/Users/chris/OneDrive/Desktop/lab/CM-subject-4.csv","legacy","Lentiform Loewenfeld","3.3.3","0","h","h","NA","NA","h","594","20928","NA","NA","594","2","legacy","1024","2","48000","-16","experiment","SSHSS","4","even","59176","23301","NA","NA","49912","2368","NA","60319","2372","NA","NA","60424","61019","60316","60424","Flanker Task","21","11538","22","yes","1024"
"91.30434782608695","91.30434782608695","521.4782608695652","521.4782608695652","black","legacy","legacy","legacy","0","incongruent","uniform","0","undefined","0","h","22","0","0","0","22","0","22","22","0","0","0","22","22","22","22","Sun Sep 27 17:17:30 2020","1500","The main experiment item","yes","FlankerTask.osexp","C:\Users\chris\OneDrive\Desktop\lab","no","mono","no","18","no","white","no","yes","768","legacy","22","22","C:/Users/chris/OneDrive/Desktop/lab/CM-subject-4.csv","legacy","Lentiform Loewenfeld","3.3.3","0","s","h","NA","NA","s","456","20928","NA","NA","456","2","legacy","1024","2","48000","-16","experiment","SSHSS","4","even","61032","23301","NA","NA","49912","2368","NA","62213","2372","NA","NA","62318","62777","62210","62318","Flanker Task","21","11994","23","yes","1024"
"91.66666666666667","91.66666666666667","523.6666666666666","523.6666666666666","black","legacy","legacy","legacy","0","congruent","uniform","1","undefined","1","h","23","0","0","0","23","0","23","23","0","0","0","23","23","23","23","Sun Sep 27 17:17:30 2020","1500","The main experiment item","yes","FlankerTask.osexp","C:\Users\chris\OneDrive\Desktop\lab","no","mono","no","18","no","white","no","yes","768","legacy","23","23","C:/Users/chris/OneDrive/Desktop/lab/CM-subject-4.csv","legacy","Lentiform Loewenfeld","3.3.3","0","h","h","NA","NA","h","574","20928","NA","NA","574","2","legacy","1024","2","48000","-16","experiment","HHHHH","4","even","63297","23301","NA","NA","62792","2368","NA","64412","2372","NA","NA","64518","65094","64410","64518","Flanker Task","22","12568","24","yes","1024"
"92","92","521.2","521.2","black","legacy","legacy","legacy","0","incongruent","uniform","1","undefined","1","h","24","0","0","0","24","0","24","24","0","0","0","24","24","24","24","Sun Sep 27 17:17:30 2020","1500","The main experiment item","yes","FlankerTask.osexp","C:\Users\chris\OneDrive\Desktop\lab","no","mono","no","18","no","white","no","yes","768","legacy","24","24","C:/Users/chris/OneDrive/Desktop/lab/CM-subject-4.csv","legacy","Lentiform Loewenfeld","3.3.3","0","h","h","NA","NA","h","462","20928","NA","NA","462","2","legacy","1024","2","48000","-16","experiment","SSHSS","4","even","65110","23301","NA","NA","62792","2368","NA","66267","2372","NA","NA","66372","66835","66264","66372","Flanker Task","23","13030","25","yes","1024"
"92.3076923076923","92.3076923076923","519.0384615384615","519.0384615384615","black","legacy","legacy","legacy","0","congruent","uniform","1","undefined","1","h","25","0","0","0","25","0","25","25","0","0","0","25","25","25","25","Sun Sep 27 17:17:30 2020","1500","The main experiment item","yes","FlankerTask.osexp","C:\Users\chris\OneDrive\Desktop\lab","no","mono","no","18","no","white","no","yes","768","legacy","25","25","C:/Users/chris/OneDrive/Desktop/lab/CM-subject-4.csv","legacy","Lentiform Loewenfeld","3.3.3","0","h","h","NA","NA","h","465","20928","NA","NA","465","2","legacy","1024","2","48000","-16","experiment","HHHHH","4","even","66844","23301","NA","NA","62792","2368","NA","67990","2372","NA","NA","68095","68562","67987","68095","Flanker Task","24","13495","26","yes","1024"
"92.5925925925926","92.5925925925926","522.7037037037037","522.7037037037037","black","legacy","legacy","legacy","0","congruent","uniform","1","undefined","1","s","26","0","0","0","26","0","26","26","0","0","0","26","26","26","26","Sun Sep 27 17:17:30 2020","1500","The main experiment item","yes","FlankerTask.osexp","C:\Users\chris\OneDrive\Desktop\lab","no","mono","no","18","no","white","no","yes","768","legacy","26","26","C:/Users/chris/OneDrive/Desktop/lab/CM-subject-4.csv","legacy","Lentiform Loewenfeld","3.3.3","0","s","h","NA","NA","s","618","20928","NA","NA","618","2","legacy","1024","2","48000","-16","experiment","SSSSS","4","even","68577","23301","NA","NA","62792","2368","NA","69753","2372","NA","NA","69858","70477","69749","69858","Flanker Task","25","14113","27","yes","1024"
"92.85714285714286","92.85714285714286","523.4642857142857","523.4642857142857","black","legacy","legacy","legacy","0","congruent","uniform","1","undefined","1","h","27","0","0","0","27","0","27","27","0","0","0","27","27","27","27","Sun Sep 27 17:17:30 2020","1500","The main experiment item","yes","FlankerTask.osexp","C:\Users\chris\OneDrive\Desktop\lab","no","mono","no","18","no","white","no","yes","768","legacy","27","27","C:/Users/chris/OneDrive/Desktop/lab/CM-subject-4.csv","legacy","Lentiform Loewenfeld","3.3.3","0","h","h","NA","NA","h","544","20928","NA","NA","544","2","legacy","1024","2","48000","-16","experiment","HHHHH","4","even","70489","23301","NA","NA","62792","2368","NA","71634","2372","NA","NA","71740","72285","71632","71740","Flanker Task","26","14657","28","yes","1024"
"93.10344827586206","93.10344827586206","523.8965517241379","523.8965517241379","black","legacy","legacy","legacy","0","congruent","uniform","1","undefined","1","h","28","0","0","0","28","0","28","28","0","0","0","28","28","28","28","Sun Sep 27 17:17:30 2020","1500","The main experiment item","yes","FlankerTask.osexp","C:\Users\chris\OneDrive\Desktop\lab","no","mono","no","18","no","white","no","yes","768","legacy","28","28","C:/Users/chris/OneDrive/Desktop/lab/CM-subject-4.csv","legacy","Lentiform Loewenfeld","3.3.3","0","h","h","NA","NA","h","536","20928","NA","NA","536","2","legacy","1024","2","48000","-16","experiment","HHHHH","4","even","72298","23301","NA","NA","62792","2368","NA","73480","2372","NA","NA","73586","74124","73477","73586","Flanker Task","27","15193","29","yes","1024"
"93.33333333333333","93.33333333333333","526.9666666666667","526.9666666666667","black","legacy","legacy","legacy","0","incongruent","uniform","1","undefined","1","h","29","0","0","0","29","0","29","29","0","0","0","29","29","29","29","Sun Sep 27 17:17:30 2020","1500","The main experiment item","yes","FlankerTask.osexp","C:\Users\chris\OneDrive\Desktop\lab","no","mono","no","18","no","white","no","yes","768","legacy","29","29","C:/Users/chris/OneDrive/Desktop/lab/CM-subject-4.csv","legacy","Lentiform Loewenfeld","3.3.3","0","h","h","NA","NA","h","616","20928","NA","NA","616","2","legacy","1024","2","48000","-16","experiment","SSHSS","4","even","74137","23301","NA","NA","62792","2368","NA","75286","2372","NA","NA","75391","76008","75284","75391","Flanker Task","28","15809","30","yes","1024"
"93.54838709677419","93.54838709677419","526.8709677419355","526.8709677419355","black","legacy","legacy","legacy","0","congruent","uniform","1","undefined","1","h","30","0","0","0","30","0","30","30","0","0","0","30","30","30","30","Sun Sep 27 17:17:30 2020","1500","The main experiment item","yes","FlankerTask.osexp","C:\Users\chris\OneDrive\Desktop\lab","no","mono","no","18","no","white","no","yes","768","legacy","30","30","C:/Users/chris/OneDrive/Desktop/lab/CM-subject-4.csv","legacy","Lentiform Loewenfeld","3.3.3","0","h","h","NA","NA","h","524","20928","NA","NA","524","2","legacy","1024","2","48000","-16","experiment","HHHHH","4","even","76024","23301","NA","NA","62792","2368","NA","77183","2372","NA","NA","77288","77812","77180","77288","Flanker Task","29","16333","31","yes","1024"
"93.75","93.75","526.1875","526.1875","black","legacy","legacy","legacy","0","incongruent","uniform","1","undefined","1","s","31","0","0","0","31","0","31","31","0","0","0","31","31","31","31","Sun Sep 27 17:17:30 2020","1500","The main experiment item","yes","FlankerTask.osexp","C:\Users\chris\OneDrive\Desktop\lab","no","mono","no","18","no","white","no","yes","768","legacy","31","31","C:/Users/chris/OneDrive/Desktop/lab/CM-subject-4.csv","legacy","Lentiform Loewenfeld","3.3.3","0","s","h","NA","NA","s","505","20928","NA","NA","505","2","legacy","1024","2","48000","-16","experiment","HHSHH","4","even","77822","23301","NA","NA","62792","2368","NA","78958","2372","NA","NA","79063","79569","78955","79063","Flanker Task","30","16838","32","yes","1024"
"93.93939393939394","93.93939393939394","525.030303030303","525.030303030303","black","legacy","legacy","legacy","0","congruent","uniform","1","undefined","1","h","32","0","0","0","32","0","32","32","0","0","0","32","32","32","32","Sun Sep 27 17:17:30 2020","1500","The main experiment item","yes","FlankerTask.osexp","C:\Users\chris\OneDrive\Desktop\lab","no","mono","no","18","no","white","no","yes","768","legacy","32","32","C:/Users/chris/OneDrive/Desktop/lab/CM-subject-4.csv","legacy","Lentiform Loewenfeld","3.3.3","0","h","h","NA","NA","h","488","20928","NA","NA","488","2","legacy","1024","2","48000","-16","experiment","HHHHH","4","even","79581","23301","NA","NA","62792","2368","NA","80711","2372","NA","NA","80816","81305","80709","80816","Flanker Task","31","17326","33","yes","1024"
"94.11764705882354","94.11764705882354","526.9705882352941","526.9705882352941","black","legacy","legacy","legacy","0","incongruent","uniform","1","undefined","1","h","33","0","0","0","33","0","33","33","0","0","0","33","33","33","33","Sun Sep 27 17:17:30 2020","1500","The main experiment item","yes","FlankerTask.osexp","C:\Users\chris\OneDrive\Desktop\lab","no","mono","no","18","no","white","no","yes","768","legacy","33","33","C:/Users/chris/OneDrive/Desktop/lab/CM-subject-4.csv","legacy","Lentiform Loewenfeld","3.3.3","0","h","h","NA","NA","h","591","20928","NA","NA","591","2","legacy","1024","2","48000","-16","experiment","SSHSS","4","even","81317","23301","NA","NA","62792","2368","NA","82462","2372","NA","NA","82567","83159","82459","82567","Flanker Task","32","17917","34","yes","1024"
"94.28571428571429","94.28571428571429","525.8","525.8","black","legacy","legacy","legacy","0","incongruent","uniform","1","undefined","1","h","34","0","0","0","34","0","34","34","0","0","0","34","34","34","34","Sun Sep 27 17:17:30 2020","1500","The main experiment item","yes","FlankerTask.osexp","C:\Users\chris\OneDrive\Desktop\lab","no","mono","no","18","no","white","no","yes","768","legacy","34","34","C:/Users/chris/OneDrive/Desktop/lab/CM-subject-4.csv","legacy","Lentiform Loewenfeld","3.3.3","0","h","h","NA","NA","h","486","20928","NA","NA","486","2","legacy","1024","2","48000","-16","experiment","SSHSS","4","even","83164","23301","NA","NA","62792","2368","NA","84323","2372","NA","NA","84429","84916","84320","84429","Flanker Task","33","18403","35","yes","1024"
"91.66666666666667","91.66666666666667","524.1388888888889","524.1388888888889","black","legacy","legacy","legacy","0","incongruent","uniform","0","undefined","0","s","35","0","0","0","35","0","35","35","0","0","0","35","35","35","35","Sun Sep 27 17:17:30 2020","1500","The main experiment item","yes","FlankerTask.osexp","C:\Users\chris\OneDrive\Desktop\lab","no","mono","no","18","no","white","no","yes","768","legacy","35","35","C:/Users/chris/OneDrive/Desktop/lab/CM-subject-4.csv","legacy","Lentiform Loewenfeld","3.3.3","0","h","h","NA","NA","h","466","20928","NA","NA","466","2","legacy","1024","2","48000","-16","experiment","HHSHH","4","even","84928","23301","NA","NA","62792","2368","NA","86142","2372","NA","NA","86247","86714","86138","86247","Flanker Task","33","18869","36","yes","1024"
"91.89189189189189","91.89189189189189","522.4864864864865","522.4864864864865","black","legacy","legacy","legacy","0","congruent","uniform","1","undefined","1","s","36","0","0","0","36","0","36","36","0","0","0","36","36","36","36","Sun Sep 27 17:17:30 2020","1500","The main experiment item","yes","FlankerTask.osexp","C:\Users\chris\OneDrive\Desktop\lab","no","mono","no","18","no","white","no","yes","768","legacy","36","36","C:/Users/chris/OneDrive/Desktop/lab/CM-subject-4.csv","legacy","Lentiform Loewenfeld","3.3.3","0","s","h","NA","NA","s","463","20928","NA","NA","463","2","legacy","1024","2","48000","-16","experiment","SSSSS","4","even","87231","23301","NA","NA","86726","2368","NA","88364","2372","NA","NA","88469","88933","88361","88469","Flanker Task","34","19332","37","yes","1024"
"92.10526315789474","92.10526315789474","520.5263157894736","520.5263157894736","black","legacy","legacy","legacy","0","congruent","uniform","1","undefined","1","s","37","0","0","0","37","0","37","37","0","0","0","37","37","37","37","Sun Sep 27 17:17:30 2020","1500","The main experiment item","yes","FlankerTask.osexp","C:\Users\chris\OneDrive\Desktop\lab","no","mono","no","18","no","white","no","yes","768","legacy","37","37","C:/Users/chris/OneDrive/Desktop/lab/CM-subject-4.csv","legacy","Lentiform Loewenfeld","3.3.3","0","s","h","NA","NA","s","448","20928","NA","NA","448","2","legacy","1024","2","48000","-16","experiment","SSSSS","4","even","88947","23301","NA","NA","86726","2368","NA","90081","2372","NA","NA","90186","90636","90078","90186","Flanker Task","35","19780","38","yes","1024"
"92.3076923076923","92.3076923076923","520.1538461538462","520.1538461538462","black","legacy","legacy","legacy","0","congruent","uniform","1","undefined","1","h","38","0","0","0","38","0","38","38","0","0","0","38","38","38","38","Sun Sep 27 17:17:30 2020","1500","The main experiment item","yes","FlankerTask.osexp","C:\Users\chris\OneDrive\Desktop\lab","no","mono","no","18","no","white","no","yes","768","legacy","38","38","C:/Users/chris/OneDrive/Desktop/lab/CM-subject-4.csv","legacy","Lentiform Loewenfeld","3.3.3","0","h","h","NA","NA","h","506","20928","NA","NA","506","2","legacy","1024","2","48000","-16","experiment","HHHHH","4","even","90651","23301","NA","NA","86726","2368","NA","91775","2372","NA","NA","91880","92387","91773","91880","Flanker Task","36","20286","39","yes","1024"
"92.5","92.5","521.575","521.575","black","legacy","legacy","legacy","0","congruent","uniform","1","undefined","1","h","39","0","0","0","39","0","39","39","0","0","0","39","39","39","39","Sun Sep 27 17:17:30 2020","1500","The main experiment item","yes","FlankerTask.osexp","C:\Users\chris\OneDrive\Desktop\lab","no","mono","no","18","no","white","no","yes","768","legacy","39","39","C:/Users/chris/OneDrive/Desktop/lab/CM-subject-4.csv","legacy","Lentiform Loewenfeld","3.3.3","0","h","h","NA","NA","h","577","20928","NA","NA","577","2","legacy","1024","2","48000","-16","experiment","HHHHH","4","even","92398","23301","NA","NA","86726","2368","NA","93533","2372","NA","NA","93638","94216","93530","93638","Flanker Task","37","20863","40","yes","1024"
"92.6829268292683","92.6829268292683","522.390243902439","522.390243902439","black","legacy","legacy","legacy","0","incongruent","uniform","1","undefined","1","s","40","0","0","0","40","0","40","40","0","0","0","40","40","40","40","Sun Sep 27 17:17:30 2020","1500","The main experiment item","yes","FlankerTask.osexp","C:\Users\chris\OneDrive\Desktop\lab","no","mono","no","18","no","white","no","yes","768","legacy","40","40","C:/Users/chris/OneDrive/Desktop/lab/CM-subject-4.csv","legacy","Lentiform Loewenfeld","3.3.3","0","s","h","NA","NA","s","555","20928","NA","NA","555","2","legacy","1024","2","48000","-16","experiment","HHSHH","4","even","94227","23301","NA","NA","86726","2368","NA","95352","2372","NA","NA","95457","96013","95350","95457","Flanker Task","38","21418","41","yes","1024"
"92.85714285714286","92.85714285714286","521.4761904761905","521.4761904761905","black","legacy","legacy","legacy","0","congruent","uniform","1","undefined","1","h","41","0","0","0","41","0","41","41","0","0","0","41","41","41","41","Sun Sep 27 17:17:30 2020","1500","The main experiment item","yes","FlankerTask.osexp","C:\Users\chris\OneDrive\Desktop\lab","no","mono","no","18","no","white","no","yes","768","legacy","41","41","C:/Users/chris/OneDrive/Desktop/lab/CM-subject-4.csv","legacy","Lentiform Loewenfeld","3.3.3","0","h","h","NA","NA","h","484","20928","NA","NA","484","2","legacy","1024","2","48000","-16","experiment","HHHHH","4","even","96026","23301","NA","NA","86726","2368","NA","97151","2372","NA","NA","97256","97742","97148","97256","Flanker Task","39","21902","42","yes","1024"
"93.02325581395348","93.02325581395348","519.1860465116279","519.1860465116279","black","legacy","legacy","legacy","0","congruent","uniform","1","undefined","1","s","42","0","0","0","42","0","42","42","0","0","0","42","42","42","42","Sun Sep 27 17:17:30 2020","1500","The main experiment item","yes","FlankerTask.osexp","C:\Users\chris\OneDrive\Desktop\lab","no","mono","no","18","no","white","no","yes","768","legacy","42","42","C:/Users/chris/OneDrive/Desktop/lab/CM-subject-4.csv","legacy","Lentiform Loewenfeld","3.3.3","0","s","h","NA","NA","s","423","20928","NA","NA","423","2","legacy","1024","2","48000","-16","experiment","SSSSS","4","even","97757","23301","NA","NA","86726","2368","NA","98880","2372","NA","NA","98985","99409","98877","98985","Flanker Task","40","22325","43","yes","1024"
"93.18181818181819","93.18181818181819","516.75","516.75","black","legacy","legacy","legacy","0","congruent","uniform","1","undefined","1","s","43","0","0","0","43","0","43","43","0","0","0","43","43","43","43","Sun Sep 27 17:17:30 2020","1500","The main experiment item","yes","FlankerTask.osexp","C:\Users\chris\OneDrive\Desktop\lab","no","mono","no","18","no","white","no","yes","768","legacy","43","43","C:/Users/chris/OneDrive/Desktop/lab/CM-subject-4.csv","legacy","Lentiform Loewenfeld","3.3.3","0","s","h","NA","NA","s","412","20928","NA","NA","412","2","legacy","1024","2","48000","-16","experiment","SSSSS","4","even","99423","23301","NA","NA","86726","2368","NA","100562","2372","NA","NA","100667","101079","100560","100667","Flanker Task","41","22737","44","yes","1024"
"93.33333333333333","93.33333333333333","516.5555555555555","516.5555555555555","black","legacy","legacy","legacy","0","incongruent","uniform","1","undefined","1","h","44","0","0","0","44","0","44","44","0","0","0","44","44","44","44","Sun Sep 27 17:17:30 2020","1500","The main experiment item","yes","FlankerTask.osexp","C:\Users\chris\OneDrive\Desktop\lab","no","mono","no","18","no","white","no","yes","768","legacy","44","44","C:/Users/chris/OneDrive/Desktop/lab/CM-subject-4.csv","legacy","Lentiform Loewenfeld","3.3.3","0","h","h","NA","NA","h","508","20928","NA","NA","508","2","legacy","1024","2","48000","-16","experiment","SSHSS","4","even","101088","23301","NA","NA","86726","2368","NA","102240","2372","NA","NA","102346","102855","102237","102346","Flanker Task","42","23245","45","yes","1024"
"93.47826086956522","93.47826086956522","525.7608695652174","525.7608695652174","black","legacy","legacy","legacy","0","incongruent","uniform","1","undefined","1","h","45","0","0","0","45","0","45","45","0","0","0","45","45","45","45","Sun Sep 27 17:17:30 2020","1500","The main experiment item","yes","FlankerTask.osexp","C:\Users\chris\OneDrive\Desktop\lab","no","mono","no","18","no","white","no","yes","768","legacy","45","45","C:/Users/chris/OneDrive/Desktop/lab/CM-subject-4.csv","legacy","Lentiform Loewenfeld","3.3.3","0","h","h","NA","NA","h","940","20928","NA","NA","940","2","legacy","1024","2","48000","-16","experiment","SSHSS","4","even","102865","23301","NA","NA","86726","2368","NA","104029","2372","NA","NA","104134","105075","104026","104134","Flanker Task","43","24185","46","yes","1024"
"93.61702127659575","93.61702127659575","525.7021276595744","525.7021276595744","black","legacy","legacy","legacy","0","incongruent","uniform","1","undefined","1","h","46","0","0","0","46","0","46","46","0","0","0","46","46","46","46","Sun Sep 27 17:17:30 2020","1500","The main experiment item","yes","FlankerTask.osexp","C:\Users\chris\OneDrive\Desktop\lab","no","mono","no","18","no","white","no","yes","768","legacy","46","46","C:/Users/chris/OneDrive/Desktop/lab/CM-subject-4.csv","legacy","Lentiform Loewenfeld","3.3.3","0","h","h","NA","NA","h","523","20928","NA","NA","523","2","legacy","1024","2","48000","-16","experiment","SSHSS","4","even","105084","23301","NA","NA","86726","2368","NA","106221","2372","NA","NA","106326","106850","106218","106326","Flanker Task","44","24708","47","yes","1024"
"93.75","93.75","525.6458333333334","525.6458333333334","black","legacy","legacy","legacy","0","incongruent","uniform","1","undefined","1","s","47","0","0","0","47","0","47","47","0","0","0","47","47","47","47","Sun Sep 27 17:17:30 2020","1500","The main experiment item","yes","FlankerTask.osexp","C:\Users\chris\OneDrive\Desktop\lab","no","mono","no","18","no","white","no","yes","768","legacy","47","47","C:/Users/chris/OneDrive/Desktop/lab/CM-subject-4.csv","legacy","Lentiform Loewenfeld","3.3.3","0","s","h","NA","NA","s","523","20928","NA","NA","523","2","legacy","1024","2","48000","-16","experiment","HHSHH","4","even","106856","23301","NA","NA","86726","2368","NA","107977","2372","NA","NA","108082","108607","107974","108082","Flanker Task","45","25231","48","yes","1024"
"93.87755102040816","93.87755102040816","527.4897959183673","527.4897959183673","black","legacy","legacy","legacy","0","congruent","uniform","1","undefined","1","s","48","0","0","0","48","0","48","48","0","0","0","48","48","48","48","Sun Sep 27 17:17:30 2020","1500","The main experiment item","yes","FlankerTask.osexp","C:\Users\chris\OneDrive\Desktop\lab","no","mono","no","18","no","white","no","yes","768","legacy","48","48","C:/Users/chris/OneDrive/Desktop/lab/CM-subject-4.csv","legacy","Lentiform Loewenfeld","3.3.3","0","s","h","NA","NA","s","616","20928","NA","NA","616","2","legacy","1024","2","48000","-16","experiment","SSSSS","4","even","108623","23301","NA","NA","86726","2368","NA","109770","2372","NA","NA","109875","110494","109767","109875","Flanker Task","46","25847","49","yes","1024"
"94","94","527.3","527.3","black","legacy","legacy","legacy","0","incongruent","uniform","1","undefined","1","h","49","0","0","0","49","0","49","49","0","0","0","49","49","49","49","Sun Sep 27 17:17:30 2020","1500","The main experiment item","yes","FlankerTask.osexp","C:\Users\chris\OneDrive\Desktop\lab","no","mono","no","18","no","white","no","yes","768","legacy","49","49","C:/Users/chris/OneDrive/Desktop/lab/CM-subject-4.csv","legacy","Lentiform Loewenfeld","3.3.3","0","h","h","NA","NA","h","518","20928","NA","NA","518","2","legacy","1024","2","48000","-16","experiment","SSHSS","4","even","110509","23301","NA","NA","86726","2368","NA","111636","2372","NA","NA","111741","112261","111634","111741","Flanker Task","47","26365","50","yes","1024"
"94.11764705882354","94.11764705882354","528.1176470588235","528.1176470588235","black","legacy","legacy","legacy","0","incongruent","uniform","1","undefined","1","h","50","0","0","0","50","0","50","50","0","0","0","50","50","50","50","Sun Sep 27 17:17:30 2020","1500","The main experiment item","yes","FlankerTask.osexp","C:\Users\chris\OneDrive\Desktop\lab","no","mono","no","18","no","white","no","yes","768","legacy","50","50","C:/Users/chris/OneDrive/Desktop/lab/CM-subject-4.csv","legacy","Lentiform Loewenfeld","3.3.3","0","h","h","NA","NA","h","569","20928","NA","NA","569","2","legacy","1024","2","48000","-16","experiment","SSHSS","4","even","112271","23301","NA","NA","86726","2368","NA","113407","2372","NA","NA","113512","114083","113404","113512","Flanker Task","48","26934","51","yes","1024"
"94.23076923076923","94.23076923076923","532.6538461538462","532.6538461538462","black","legacy","legacy","legacy","0","congruent","uniform","1","undefined","1","s","51","0","0","0","51","0","51","51","0","0","0","51","51","51","51","Sun Sep 27 17:17:30 2020","1500","The main experiment item","yes","FlankerTask.osexp","C:\Users\chris\OneDrive\Desktop\lab","no","mono","no","18","no","white","no","yes","768","legacy","51","51","C:/Users/chris/OneDrive/Desktop/lab/CM-subject-4.csv","legacy","Lentiform Loewenfeld","3.3.3","0","s","h","NA","NA","s","764","20928","NA","NA","764","2","legacy","1024","2","48000","-16","experiment","SSSSS","4","even","114104","23301","NA","NA","86726","2368","NA","115247","2372","NA","NA","115352","116119","115244","115352","Flanker Task","49","27698","52","yes","1024"
"94.33962264150944","94.33962264150944","536.8867924528302","536.8867924528302","black","legacy","legacy","legacy","0","congruent","uniform","1","undefined","1","h","52","0","0","0","52","0","52","52","0","0","0","52","52","52","52","Sun Sep 27 17:17:30 2020","1500","The main experiment item","yes","FlankerTask.osexp","C:\Users\chris\OneDrive\Desktop\lab","no","mono","no","18","no","white","no","yes","768","legacy","52","52","C:/Users/chris/OneDrive/Desktop/lab/CM-subject-4.csv","legacy","Lentiform Loewenfeld","3.3.3","0","h","h","NA","NA","h","757","20928","NA","NA","757","2","legacy","1024","2","48000","-16","experiment","HHHHH","4","even","116135","23301","NA","NA","86726","2368","NA","117292","2372","NA","NA","117397","118154","117289","117397","Flanker Task","50","28455","53","yes","1024"
"94.44444444444444","94.44444444444444","537.9074074074074","537.9074074074074","black","legacy","legacy","legacy","0","congruent","uniform","1","undefined","1","h","53","0","0","0","53","0","53","53","0","0","0","53","53","53","53","Sun Sep 27 17:17:30 2020","1500","The main experiment item","yes","FlankerTask.osexp","C:\Users\chris\OneDrive\Desktop\lab","no","mono","no","18","no","white","no","yes","768","legacy","53","53","C:/Users/chris/OneDrive/Desktop/lab/CM-subject-4.csv","legacy","Lentiform Loewenfeld","3.3.3","0","h","h","NA","NA","h","592","20928","NA","NA","592","2","legacy","1024","2","48000","-16","experiment","HHHHH","4","even","118163","23301","NA","NA","86726","2368","NA","119287","2372","NA","NA","119392","119985","119284","119392","Flanker Task","51","29047","54","yes","1024"
"94.54545454545455","94.54545454545455","539.1454545454545","539.1454545454545","black","legacy","legacy","legacy","0","incongruent","uniform","1","undefined","1","h","54","0","0","0","54","0","54","54","0","0","0","54","54","54","54","Sun Sep 27 17:17:30 2020","1500","The main experiment item","yes","FlankerTask.osexp","C:\Users\chris\OneDrive\Desktop\lab","no","mono","no","18","no","white","no","yes","768","legacy","54","54","C:/Users/chris/OneDrive/Desktop/lab/CM-subject-4.csv","legacy","Lentiform Loewenfeld","3.3.3","0","h","h","NA","NA","h","606","20928","NA","NA","606","2","legacy","1024","2","48000","-16","experiment","SSHSS","4","even","119998","23301","NA","NA","86726","2368","NA","121142","2372","NA","NA","121248","121855","121139","121247","Flanker Task","52","29653","55","yes","1024"
"94.64285714285714","94.64285714285714","538.5357142857143","538.5357142857143","black","legacy","legacy","legacy","0","incongruent","uniform","1","undefined","1","s","55","0","0","0","55","0","55","55","0","0","0","55","55","55","55","Sun Sep 27 17:17:30 2020","1500","The main experiment item","yes","FlankerTask.osexp","C:\Users\chris\OneDrive\Desktop\lab","no","mono","no","18","no","white","no","yes","768","legacy","55","55","C:/Users/chris/OneDrive/Desktop/lab/CM-subject-4.csv","legacy","Lentiform Loewenfeld","3.3.3","0","s","h","NA","NA","s","505","20928","NA","NA","505","2","legacy","1024","2","48000","-16","experiment","HHSHH","4","even","121867","23301","NA","NA","86726","2368","NA","122999","2372","NA","NA","123105","123611","122997","123105","Flanker Task","53","30158","56","yes","1024"
"92.98245614035088","92.98245614035088","555.4035087719299","555.4035087719299","black","legacy","legacy","legacy","0","incongruent","uniform","0","undefined","0","h","56","0","0","0","56","0","56","56","0","0","0","56","56","56","56","Sun Sep 27 17:17:30 2020","1500","The main experiment item","yes","FlankerTask.osexp","C:\Users\chris\OneDrive\Desktop\lab","no","mono","no","18","no","white","no","yes","768","legacy","56","56","C:/Users/chris/OneDrive/Desktop/lab/CM-subject-4.csv","legacy","Lentiform Loewenfeld","3.3.3","0","None","h","NA","NA","None","1500","20928","NA","NA","1500","2","legacy","1024","2","48000","-16","experiment","SSHSS","4","even","123623","23301","NA","NA","86726","2368","NA","124751","2372","NA","NA","124856","126356","124749","124856","Flanker Task","53","31658","57","yes","1024"
"93.10344827586206","93.10344827586206","555.3275862068965","555.3275862068965","black","legacy","legacy","legacy","0","incongruent","uniform","1","undefined","1","h","57","0","0","0","57","0","57","57","0","0","0","57","57","57","57","Sun Sep 27 17:17:30 2020","1500","The main experiment item","yes","FlankerTask.osexp","C:\Users\chris\OneDrive\Desktop\lab","no","mono","no","18","no","white","no","yes","768","legacy","57","57","C:/Users/chris/OneDrive/Desktop/lab/CM-subject-4.csv","legacy","Lentiform Loewenfeld","3.3.3","0","h","h","NA","NA","h","551","20928","NA","NA","551","2","legacy","1024","2","48000","-16","experiment","SSHSS","4","even","126872","23301","NA","NA","126367","2368","NA","128106","2372","NA","NA","128211","128763","128099","128211","Flanker Task","54","32209","58","yes","1024"
"93.22033898305085","93.22033898305085","554.1016949152543","554.1016949152543","black","legacy","legacy","legacy","0","incongruent","uniform","1","undefined","1","s","58","0","0","0","58","0","58","58","0","0","0","58","58","58","58","Sun Sep 27 17:17:30 2020","1500","The main experiment item","yes","FlankerTask.osexp","C:\Users\chris\OneDrive\Desktop\lab","no","mono","no","18","no","white","no","yes","768","legacy","58","58","C:/Users/chris/OneDrive/Desktop/lab/CM-subject-4.csv","legacy","Lentiform Loewenfeld","3.3.3","0","s","h","NA","NA","s","483","20928","NA","NA","483","2","legacy","1024","2","48000","-16","experiment","HHSHH","4","even","128773","23301","NA","NA","126367","2368","NA","129923","2372","NA","NA","130028","130512","129920","130028","Flanker Task","55","32692","59","yes","1024"
"93.33333333333333","93.33333333333333","553.7","553.7","black","legacy","legacy","legacy","0","congruent","uniform","1","undefined","1","h","59","0","0","0","59","0","59","59","0","0","0","59","59","59","59","Sun Sep 27 17:17:30 2020","1500","The main experiment item","yes","FlankerTask.osexp","C:\Users\chris\OneDrive\Desktop\lab","no","mono","no","18","no","white","no","yes","768","legacy","59","59","C:/Users/chris/OneDrive/Desktop/lab/CM-subject-4.csv","legacy","Lentiform Loewenfeld","3.3.3","0","h","h","NA","NA","h","530","20928","NA","NA","530","2","legacy","1024","2","48000","-16","experiment","HHHHH","4","even","130523","23301","NA","NA","126367","2368","NA","131683","2372","NA","NA","131789","132321","131681","131789","Flanker Task","56","33222","60","yes","1024"
"93.44262295081967","93.44262295081967","552.5245901639345","552.5245901639345","black","legacy","legacy","legacy","0","congruent","uniform","1","undefined","1","s","60","0","0","0","60","0","60","60","0","0","0","60","60","60","60","Sun Sep 27 17:17:30 2020","1500","The main experiment item","yes","FlankerTask.osexp","C:\Users\chris\OneDrive\Desktop\lab","no","mono","no","18","no","white","no","yes","768","legacy","60","60","C:/Users/chris/OneDrive/Desktop/lab/CM-subject-4.csv","legacy","Lentiform Loewenfeld","3.3.3","0","s","h","NA","NA","s","482","20928","NA","NA","482","2","legacy","1024","2","48000","-16","experiment","SSSSS","4","even","132337","23301","NA","NA","126367","2368","NA","133465","2372","NA","NA","133570","134054","133461","133570","Flanker Task","57","33704","61","yes","1024"
"93.54838709677419","93.54838709677419","551.1290322580645","551.1290322580645","black","legacy","legacy","legacy","0","congruent","uniform","1","undefined","1","h","61","0","0","0","61","0","61","61","0","0","0","61","61","61","61","Sun Sep 27 17:17:30 2020","1500","The main experiment item","yes","FlankerTask.osexp","C:\Users\chris\OneDrive\Desktop\lab","no","mono","no","18","no","white","no","yes","768","legacy","61","61","C:/Users/chris/OneDrive/Desktop/lab/CM-subject-4.csv","legacy","Lentiform Loewenfeld","3.3.3","0","h","h","NA","NA","h","466","20928","NA","NA","466","2","legacy","1024","2","48000","-16","experiment","HHHHH","4","even","134070","23301","NA","NA","126367","2368","NA","135232","2372","NA","NA","135337","135806","135229","135337","Flanker Task","58","34170","62","yes","1024"
"93.65079365079364","93.65079365079364","550.2539682539683","550.2539682539683","black","legacy","legacy","legacy","0","congruent","uniform","1","undefined","1","h","62","0","0","0","62","0","62","62","0","0","0","62","62","62","62","Sun Sep 27 17:17:30 2020","1500","The main experiment item","yes","FlankerTask.osexp","C:\Users\chris\OneDrive\Desktop\lab","no","mono","no","18","no","white","no","yes","768","legacy","62","62","C:/Users/chris/OneDrive/Desktop/lab/CM-subject-4.csv","legacy","Lentiform Loewenfeld","3.3.3","0","h","h","NA","NA","h","496","20928","NA","NA","496","2","legacy","1024","2","48000","-16","experiment","HHHHH","4","even","135822","23301","NA","NA","126367","2368","NA","136952","2372","NA","NA","137057","137555","136949","137057","Flanker Task","59","34666","63","yes","1024"
"93.75","93.75","548.328125","548.328125","black","legacy","legacy","legacy","0","congruent","uniform","1","undefined","1","s","63","0","0","0","63","0","63","63","0","0","0","63","63","63","63","Sun Sep 27 17:17:30 2020","1500","The main experiment item","yes","FlankerTask.osexp","C:\Users\chris\OneDrive\Desktop\lab","no","mono","no","18","no","white","no","yes","768","legacy","63","63","C:/Users/chris/OneDrive/Desktop/lab/CM-subject-4.csv","legacy","Lentiform Loewenfeld","3.3.3","0","s","h","NA","NA","s","427","20928","NA","NA","427","2","legacy","1024","2","48000","-16","experiment","SSSSS","4","even","137571","23301","NA","NA","126367","2368","NA","138738","2372","NA","NA","138843","139272","138735","138843","Flanker Task","60","35093","64","yes","1024"
"93.84615384615384","93.84615384615384","547.0923076923077","547.0923076923077","black","legacy","legacy","legacy","0","incongruent","uniform","1","undefined","1","s","64","0","0","0","64","0","64","64","0","0","0","64","64","64","64","Sun Sep 27 17:17:30 2020","1500","The main experiment item","yes","FlankerTask.osexp","C:\Users\chris\OneDrive\Desktop\lab","no","mono","no","18","no","white","no","yes","768","legacy","64","64","C:/Users/chris/OneDrive/Desktop/lab/CM-subject-4.csv","legacy","Lentiform Loewenfeld","3.3.3","0","s","h","NA","NA","s","468","20928","NA","NA","468","2","legacy","1024","2","48000","-16","experiment","HHSHH","4","even","139286","23301","NA","NA","126367","2368","NA","140408","2372","NA","NA","140513","140984","140406","140513","Flanker Task","61","35561","65","yes","1024"
"93.93939393939394","93.93939393939394","546.1212121212121","546.1212121212121","black","legacy","legacy","legacy","0","incongruent","uniform","1","undefined","1","s","65","0","0","0","65","0","65","65","0","0","0","65","65","65","65","Sun Sep 27 17:17:30 2020","1500","The main experiment item","yes","FlankerTask.osexp","C:\Users\chris\OneDrive\Desktop\lab","no","mono","no","18","no","white","no","yes","768","legacy","65","65","C:/Users/chris/OneDrive/Desktop/lab/CM-subject-4.csv","legacy","Lentiform Loewenfeld","3.3.3","0","s","h","NA","NA","s","483","20928","NA","NA","483","2","legacy","1024","2","48000","-16","experiment","HHSHH","4","even","140999","23301","NA","NA","126367","2368","NA","142143","2372","NA","NA","142248","142734","142140","142248","Flanker Task","62","36044","66","yes","1024"
"94.02985074626865","94.02985074626865","544.1641791044776","544.1641791044776","black","legacy","legacy","legacy","0","incongruent","uniform","1","undefined","1","s","66","0","0","0","66","0","66","66","0","0","0","66","66","66","66","Sun Sep 27 17:17:30 2020","1500","The main experiment item","yes","FlankerTask.osexp","C:\Users\chris\OneDrive\Desktop\lab","no","mono","no","18","no","white","no","yes","768","legacy","66","66","C:/Users/chris/OneDrive/Desktop/lab/CM-subject-4.csv","legacy","Lentiform Loewenfeld","3.3.3","0","s","h","NA","NA","s","415","20928","NA","NA","415","2","legacy","1024","2","48000","-16","experiment","HHSHH","4","even","142747","23301","NA","NA","126367","2368","NA","143904","2372","NA","NA","144010","144428","143901","144010","Flanker Task","63","36459","67","yes","1024"
"94.11764705882354","94.11764705882354","544.2647058823529","544.2647058823529","black","legacy","legacy","legacy","0","congruent","uniform","1","undefined","1","h","67","0","0","0","67","0","67","67","0","0","0","67","67","67","67","Sun Sep 27 17:17:30 2020","1500","The main experiment item","yes","FlankerTask.osexp","C:\Users\chris\OneDrive\Desktop\lab","no","mono","no","18","no","white","no","yes","768","legacy","67","67","C:/Users/chris/OneDrive/Desktop/lab/CM-subject-4.csv","legacy","Lentiform Loewenfeld","3.3.3","0","h","h","NA","NA","h","551","20928","NA","NA","551","2","legacy","1024","2","48000","-16","experiment","HHHHH","4","even","144441","23301","NA","NA","126367","2368","NA","145568","2372","NA","NA","145673","146226","145565","145673","Flanker Task","64","37010","68","yes","1024"
"94.20289855072464","94.20289855072464","543.5217391304348","543.5217391304348","black","legacy","legacy","legacy","0","congruent","uniform","1","undefined","1","s","68","0","0","0","68","0","68","68","0","0","0","68","68","68","68","Sun Sep 27 17:17:30 2020","1500","The main experiment item","yes","FlankerTask.osexp","C:\Users\chris\OneDrive\Desktop\lab","no","mono","no","18","no","white","no","yes","768","legacy","68","68","C:/Users/chris/OneDrive/Desktop/lab/CM-subject-4.csv","legacy","Lentiform Loewenfeld","3.3.3","0","s","h","NA","NA","s","493","20928","NA","NA","493","2","legacy","1024","2","48000","-16","experiment","SSSSS","4","even","146237","23301","NA","NA","126367","2368","NA","147381","2372","NA","NA","147488","147982","147377","147487","Flanker Task","65","37503","69","yes","1024"
"94.28571428571429","94.28571428571429","543.7857142857143","543.7857142857143","black","legacy","legacy","legacy","0","incongruent","uniform","1","undefined","1","s","69","0","0","0","69","0","69","69","0","0","0","69","69","69","69","Sun Sep 27 17:17:30 2020","1500","The main experiment item","yes","FlankerTask.osexp","C:\Users\chris\OneDrive\Desktop\lab","no","mono","no","18","no","white","no","yes","768","legacy","69","69","C:/Users/chris/OneDrive/Desktop/lab/CM-subject-4.csv","legacy","Lentiform Loewenfeld","3.3.3","0","s","h","NA","NA","s","562","20928","NA","NA","562","2","legacy","1024","2","48000","-16","experiment","HHSHH","4","even","147992","23301","NA","NA","126367","2368","NA","149152","2372","NA","NA","149257","149824","149149","149257","Flanker Task","66","38065","70","yes","1024"
"94.36619718309859","94.36619718309859","542.0985915492957","542.0985915492957","black","legacy","legacy","legacy","0","incongruent","uniform","1","undefined","1","s","70","0","0","0","70","0","70","70","0","0","0","70","70","70","70","Sun Sep 27 17:17:30 2020","1500","The main experiment item","yes","FlankerTask.osexp","C:\Users\chris\OneDrive\Desktop\lab","no","mono","no","18","no","white","no","yes","768","legacy","70","70","C:/Users/chris/OneDrive/Desktop/lab/CM-subject-4.csv","legacy","Lentiform Loewenfeld","3.3.3","0","s","h","NA","NA","s","424","20928","NA","NA","424","2","legacy","1024","2","48000","-16","experiment","HHSHH","4","even","149839","23301","NA","NA","126367","2368","NA","151009","2372","NA","NA","151114","151540","151006","151114","Flanker Task","67","38489","71","yes","1024"
"94.44444444444444","94.44444444444444","540.4027777777778","540.4027777777778","black","legacy","legacy","legacy","0","congruent","uniform","1","undefined","1","s","71","0","0","0","71","0","71","71","0","0","0","71","71","71","71","Sun Sep 27 17:17:30 2020","1500","The main experiment item","yes","FlankerTask.osexp","C:\Users\chris\OneDrive\Desktop\lab","no","mono","no","18","no","white","no","yes","768","legacy","71","71","C:/Users/chris/OneDrive/Desktop/lab/CM-subject-4.csv","legacy","Lentiform Loewenfeld","3.3.3","0","s","h","NA","NA","s","420","20928","NA","NA","420","2","legacy","1024","2","48000","-16","experiment","SSSSS","4","even","151554","23301","NA","NA","126367","2368","NA","152699","2372","NA","NA","152804","153225","152695","152804","Flanker Task","68","38909","72","yes","1024"
"94.52054794520548","94.52054794520548","540.1643835616438","540.1643835616438","black","legacy","legacy","legacy","0","congruent","uniform","1","undefined","1","h","72","0","0","0","72","0","72","72","0","0","0","72","72","72","72","Sun Sep 27 17:17:30 2020","1500","The main experiment item","yes","FlankerTask.osexp","C:\Users\chris\OneDrive\Desktop\lab","no","mono","no","18","no","white","no","yes","768","legacy","72","72","C:/Users/chris/OneDrive/Desktop/lab/CM-subject-4.csv","legacy","Lentiform Loewenfeld","3.3.3","0","h","h","NA","NA","h","523","20928","NA","NA","523","2","legacy","1024","2","48000","-16","experiment","HHHHH","4","even","153235","23301","NA","NA","126367","2368","NA","154356","2372","NA","NA","154462","154988","154354","154462","Flanker Task","69","39432","73","yes","1024"
"94.5945945945946","94.5945945945946","539.8648648648649","539.8648648648649","black","legacy","legacy","legacy","0","incongruent","uniform","1","undefined","1","s","73","0","0","0","73","0","73","73","0","0","0","73","73","73","73","Sun Sep 27 17:17:30 2020","1500","The main experiment item","yes","FlankerTask.osexp","C:\Users\chris\OneDrive\Desktop\lab","no","mono","no","18","no","white","no","yes","768","legacy","73","73","C:/Users/chris/OneDrive/Desktop/lab/CM-subject-4.csv","legacy","Lentiform Loewenfeld","3.3.3","0","s","h","NA","NA","s","518","20928","NA","NA","518","2","legacy","1024","2","48000","-16","experiment","HHSHH","4","even","155003","23301","NA","NA","126367","2368","NA","156125","2372","NA","NA","156231","156751","156123","156231","Flanker Task","70","39950","74","yes","1024"
"94.66666666666667","94.66666666666667","540.2133333333334","540.2133333333334","black","legacy","legacy","legacy","0","congruent","uniform","1","undefined","1","h","74","0","0","0","74","0","74","74","0","0","0","74","74","74","74","Sun Sep 27 17:17:30 2020","1500","The main experiment item","yes","FlankerTask.osexp","C:\Users\chris\OneDrive\Desktop\lab","no","mono","no","18","no","white","no","yes","768","legacy","74","74","C:/Users/chris/OneDrive/Desktop/lab/CM-subject-4.csv","legacy","Lentiform Loewenfeld","3.3.3","0","h","h","NA","NA","h","566","20928","NA","NA","566","2","legacy","1024","2","48000","-16","experiment","HHHHH","4","even","156757","23301","NA","NA","126367","2368","NA","157902","2372","NA","NA","158007","158575","157898","158007","Flanker Task","71","40516","75","yes","1024"
"94.73684210526316","94.73684210526316","539.8947368421053","539.8947368421053","black","legacy","legacy","legacy","0","incongruent","uniform","1","undefined","1","s","75","0","0","0","75","0","75","75","0","0","0","75","75","75","75","Sun Sep 27 17:17:30 2020","1500","The main experiment item","yes","FlankerTask.osexp","C:\Users\chris\OneDrive\Desktop\lab","no","mono","no","18","no","white","no","yes","768","legacy","75","75","C:/Users/chris/OneDrive/Desktop/lab/CM-subject-4.csv","legacy","Lentiform Loewenfeld","3.3.3","0","s","h","NA","NA","s","516","20928","NA","NA","516","2","legacy","1024","2","48000","-16","experiment","HHSHH","4","even","158588","23301","NA","NA","126367","2368","NA","159725","2372","NA","NA","159830","160348","159722","159830","Flanker Task","72","41032","76","yes","1024"
"94.8051948051948","94.8051948051948","538.0909090909091","538.0909090909091","black","legacy","legacy","legacy","0","congruent","uniform","1","undefined","1","s","76","0","0","0","76","0","76","76","0","0","0","76","76","76","76","Sun Sep 27 17:17:30 2020","1500","The main experiment item","yes","FlankerTask.osexp","C:\Users\chris\OneDrive\Desktop\lab","no","mono","no","18","no","white","no","yes","768","legacy","76","76","C:/Users/chris/OneDrive/Desktop/lab/CM-subject-4.csv","legacy","Lentiform Loewenfeld","3.3.3","0","s","h","NA","NA","s","401","20928","NA","NA","401","2","legacy","1024","2","48000","-16","experiment","SSSSS","4","even","160359","23301","NA","NA","126367","2368","NA","161504","2372","NA","NA","161609","162012","161501","161609","Flanker Task","73","41433","77","yes","1024"
"94.87179487179488","94.87179487179488","538.4615384615385","538.4615384615385","black","legacy","legacy","legacy","0","incongruent","uniform","1","undefined","1","h","77","0","0","0","77","0","77","77","0","0","0","77","77","77","77","Sun Sep 27 17:17:30 2020","1500","The main experiment item","yes","FlankerTask.osexp","C:\Users\chris\OneDrive\Desktop\lab","no","mono","no","18","no","white","no","yes","768","legacy","77","77","C:/Users/chris/OneDrive/Desktop/lab/CM-subject-4.csv","legacy","Lentiform Loewenfeld","3.3.3","0","h","h","NA","NA","h","567","20928","NA","NA","567","2","legacy","1024","2","48000","-16","experiment","SSHSS","4","even","162028","23301","NA","NA","126367","2368","NA","163164","2372","NA","NA","163266","163836","163161","163266","Flanker Task","74","42000","78","yes","1024"
"93.67088607594937","93.67088607594937","537.9240506329114","537.9240506329114","black","legacy","legacy","legacy","0","incongruent","uniform","0","undefined","0","h","78","0","0","0","78","0","78","78","0","0","0","78","78","78","78","Sun Sep 27 17:17:30 2020","1500","The main experiment item","yes","FlankerTask.osexp","C:\Users\chris\OneDrive\Desktop\lab","no","mono","no","18","no","white","no","yes","768","legacy","78","78","C:/Users/chris/OneDrive/Desktop/lab/CM-subject-4.csv","legacy","Lentiform Loewenfeld","3.3.3","0","s","h","NA","NA","s","496","20928","NA","NA","496","2","legacy","1024","2","48000","-16","experiment","SSHSS","4","even","163852","23301","NA","NA","126367","2368","NA","164997","2372","NA","NA","165102","165599","164994","165102","Flanker Task","74","42496","79","yes","1024"
"92.5","92.5","537.3375","537.3375","black","legacy","legacy","legacy","0","incongruent","uniform","0","undefined","0","h","79","0","0","0","79","0","79","79","0","0","0","79","79","79","79","Sun Sep 27 17:17:30 2020","1500","The main experiment item","yes","FlankerTask.osexp","C:\Users\chris\OneDrive\Desktop\lab","no","mono","no","18","no","white","no","yes","768","legacy","79","79","C:/Users/chris/OneDrive/Desktop/lab/CM-subject-4.csv","legacy","Lentiform Loewenfeld","3.3.3","0","s","h","NA","NA","s","491","20928","NA","NA","491","2","legacy","1024","2","48000","-16","experiment","SSHSS","4","even","166114","23301","NA","NA","165609","2368","NA","167246","2372","NA","NA","167351","167843","167243","167351","Flanker Task","74","42987","80","yes","1024"
"92.5925925925926","92.5925925925926","539.9506172839506","539.9506172839506","black","legacy","legacy","legacy","0","congruent","uniform","1","undefined","1","h","80","0","0","0","80","0","80","80","0","0","0","80","80","80","80","Sun Sep 27 17:17:30 2020","600","The main experiment item","yes","FlankerTask.osexp","C:\Users\chris\OneDrive\Desktop\lab","no","mono","no","18","no","white","no","yes","768","legacy","0","79","C:/Users/chris/OneDrive/Desktop/lab/CM-subject-4.csv","legacy","Lentiform Loewenfeld","3.3.3","0","h","h","h","NA","h","749","20928","18046","NA","749","2","legacy","1024","2","48000","-16","experiment","HHHHH","4","even","168360","23301","187464","NA","167854","2368","NA","187609","2372","169416","NA","187714","188465","187606","187714","Flanker Task","75","43736","81","yes","1024"
"92.6829268292683","92.6829268292683","539.0365853658536","539.0365853658536","black","legacy","legacy","legacy","0","congruent","uniform","1","undefined","1","h","81","0","0","0","81","0","81","81","0","0","0","81","81","81","81","Sun Sep 27 17:17:30 2020","600","The main experiment item","yes","FlankerTask.osexp","C:\Users\chris\OneDrive\Desktop\lab","no","mono","no","18","no","white","no","yes","768","legacy","1","79","C:/Users/chris/OneDrive/Desktop/lab/CM-subject-4.csv","legacy","Lentiform Loewenfeld","3.3.3","0","h","h","h","NA","h","465","20928","18046","NA","465","2","legacy","1024","2","48000","-16","experiment","HHHHH","4","even","188982","23301","187464","NA","167854","2368","188477","190114","2372","169416","NA","190219","190687","190112","190219","Flanker Task","76","44201","82","yes","1024"
"91.56626506024097","91.56626506024097","537.4939759036145","537.4939759036145","black","legacy","legacy","legacy","0","incongruent","uniform","0","undefined","0","s","82","0","0","0","82","0","82","82","0","0","0","82","82","82","82","Sun Sep 27 17:17:30 2020","600","The main experiment item","yes","FlankerTask.osexp","C:\Users\chris\OneDrive\Desktop\lab","no","mono","no","18","no","white","no","yes","768","legacy","2","79","C:/Users/chris/OneDrive/Desktop/lab/CM-subject-4.csv","legacy","Lentiform Loewenfeld","3.3.3","0","h","h","h","NA","h","411","20928","18046","NA","411","2","legacy","1024","2","48000","-16","experiment","HHSHH","4","even","190700","23301","187464","NA","167854","2368","188477","191870","2372","169416","NA","191975","192387","191868","191975","Flanker Task","76","44612","83","yes","1024"
"91.66666666666667","91.66666666666667","536.5357142857143","536.5357142857143","black","legacy","legacy","legacy","0","congruent","uniform","1","undefined","1","h","83","0","0","0","83","0","83","83","0","0","0","83","83","83","83","Sun Sep 27 17:17:30 2020","600","The main experiment item","yes","FlankerTask.osexp","C:\Users\chris\OneDrive\Desktop\lab","no","mono","no","18","no","white","no","yes","768","legacy","3","79","C:/Users/chris/OneDrive/Desktop/lab/CM-subject-4.csv","legacy","Lentiform Loewenfeld","3.3.3","0","h","h","h","NA","h","457","20928","18046","NA","457","2","legacy","1024","2","48000","-16","experiment","HHHHH","4","even","192901","23301","187464","NA","192396","2368","188477","194034","2372","169416","NA","194140","194600","194031","194139","Flanker Task","77","45069","84","yes","1024"
"91.76470588235294","91.76470588235294","534.7058823529412","534.7058823529412","black","legacy","legacy","legacy","0","incongruent","uniform","1","undefined","1","s","84","0","0","0","84","0","84","84","0","0","0","84","84","84","84","Sun Sep 27 17:17:30 2020","600","The main experiment item","yes","FlankerTask.osexp","C:\Users\chris\OneDrive\Desktop\lab","no","mono","no","18","no","white","no","yes","768","legacy","4","79","C:/Users/chris/OneDrive/Desktop/lab/CM-subject-4.csv","legacy","Lentiform Loewenfeld","3.3.3","0","s","h","h","NA","s","381","20928","18046","NA","381","2","legacy","1024","2","48000","-16","experiment","HHSHH","4","even","194616","23301","187464","NA","192396","2368","188477","195749","2372","169416","NA","195854","196239","195746","195854","Flanker Task","78","45450","85","yes","1024"
"90.69767441860465","90.69767441860465","532.8604651162791","532.8604651162791","black","legacy","legacy","legacy","0","incongruent","uniform","0","undefined","0","h","85","0","0","0","85","0","85","85","0","0","0","85","85","85","85","Sun Sep 27 17:17:30 2020","600","The main experiment item","yes","FlankerTask.osexp","C:\Users\chris\OneDrive\Desktop\lab","no","mono","no","18","no","white","no","yes","768","legacy","5","79","C:/Users/chris/OneDrive/Desktop/lab/CM-subject-4.csv","legacy","Lentiform Loewenfeld","3.3.3","0","s","h","h","NA","s","376","20928","18046","NA","376","2","legacy","1024","2","48000","-16","experiment","SSHSS","4","even","196258","23301","187464","NA","192396","2368","188477","197401","2372","169416","NA","197506","197885","197398","197506","Flanker Task","78","45826","86","yes","1024"
"90.80459770114942","90.80459770114942","532.1724137931035","532.1724137931035","black","legacy","legacy","legacy","0","incongruent","uniform","1","undefined","1","h","86","0","0","0","86","0","86","86","0","0","0","86","86","86","86","Sun Sep 27 17:17:30 2020","600","The main experiment item","yes","FlankerTask.osexp","C:\Users\chris\OneDrive\Desktop\lab","no","mono","no","18","no","white","no","yes","768","legacy","6","79","C:/Users/chris/OneDrive/Desktop/lab/CM-subject-4.csv","legacy","Lentiform Loewenfeld","3.3.3","0","h","h","h","NA","h","473","20928","18046","NA","473","2","legacy","1024","2","48000","-16","experiment","SSHSS","4","even","198403","23301","187464","NA","197897","2368","188477","199527","2372","169416","NA","199632","200108","199525","199632","Flanker Task","79","46299","87","yes","1024"
"90.9090909090909","90.9090909090909","531.125","531.125","black","legacy","legacy","legacy","0","congruent","uniform","1","undefined","1","s","87","0","0","0","87","0","87","87","0","0","0","87","87","87","87","Sun Sep 27 17:17:30 2020","600","The main experiment item","yes","FlankerTask.osexp","C:\Users\chris\OneDrive\Desktop\lab","no","mono","no","18","no","white","no","yes","768","legacy","7","79","C:/Users/chris/OneDrive/Desktop/lab/CM-subject-4.csv","legacy","Lentiform Loewenfeld","3.3.3","0","s","h","h","NA","s","440","20928","18046","NA","440","2","legacy","1024","2","48000","-16","experiment","SSSSS","4","even","200124","23301","187464","NA","197897","2368","188477","201269","2372","169416","NA","201374","201817","201265","201374","Flanker Task","80","46739","88","yes","1024"
"91.01123595505618","91.01123595505618","530.3595505617977","530.3595505617977","black","legacy","legacy","legacy","0","congruent","uniform","1","undefined","1","h","88","0","0","0","88","0","88","88","0","0","0","88","88","88","88","Sun Sep 27 17:17:30 2020","600","The main experiment item","yes","FlankerTask.osexp","C:\Users\chris\OneDrive\Desktop\lab","no","mono","no","18","no","white","no","yes","768","legacy","8","79","C:/Users/chris/OneDrive/Desktop/lab/CM-subject-4.csv","legacy","Lentiform Loewenfeld","3.3.3","0","h","h","h","NA","h","463","20928","18046","NA","463","2","legacy","1024","2","48000","-16","experiment","HHHHH","4","even","201832","23301","187464","NA","197897","2368","188477","202958","2372","169416","NA","203063","203529","202955","203063","Flanker Task","81","47202","89","yes","1024"
"91.11111111111111","91.11111111111111","529.7111111111111","529.7111111111111","black","legacy","legacy","legacy","0","congruent","uniform","1","undefined","1","h","89","0","0","0","89","0","89","89","0","0","0","89","89","89","89","Sun Sep 27 17:17:30 2020","600","The main experiment item","yes","FlankerTask.osexp","C:\Users\chris\OneDrive\Desktop\lab","no","mono","no","18","no","white","no","yes","768","legacy","9","79","C:/Users/chris/OneDrive/Desktop/lab/CM-subject-4.csv","legacy","Lentiform Loewenfeld","3.3.3","0","h","h","h","NA","h","472","20928","18046","NA","472","2","legacy","1024","2","48000","-16","experiment","HHHHH","4","even","203544","23301","187464","NA","197897","2368","188477","204682","2372","169416","NA","204788","205262","204679","204787","Flanker Task","82","47674","90","yes","1024"
"91.20879120879121","91.20879120879121","529.032967032967","529.032967032967","black","legacy","legacy","legacy","0","congruent","uniform","1","undefined","1","s","90","0","0","0","90","0","90","90","0","0","0","90","90","90","90","Sun Sep 27 17:17:30 2020","600","The main experiment item","yes","FlankerTask.osexp","C:\Users\chris\OneDrive\Desktop\lab","no","mono","no","18","no","white","no","yes","768","legacy","10","79","C:/Users/chris/OneDrive/Desktop/lab/CM-subject-4.csv","legacy","Lentiform Loewenfeld","3.3.3","0","s","h","h","NA","s","468","20928","18046","NA","468","2","legacy","1024","2","48000","-16","experiment","SSSSS","4","even","205272","23301","187464","NA","197897","2368","188477","206413","2372","169416","NA","206518","206989","206410","206518","Flanker Task","83","48142","91","yes","1024"
"91.30434782608695","91.30434782608695","528.4782608695652","528.4782608695652","black","legacy","legacy","legacy","0","incongruent","uniform","1","undefined","1","h","91","0","0","0","91","0","91","91","0","0","0","91","91","91","91","Sun Sep 27 17:17:30 2020","600","The main experiment item","yes","FlankerTask.osexp","C:\Users\chris\OneDrive\Desktop\lab","no","mono","no","18","no","white","no","yes","768","legacy","11","79","C:/Users/chris/OneDrive/Desktop/lab/CM-subject-4.csv","legacy","Lentiform Loewenfeld","3.3.3","0","h","h","h","NA","h","478","20928","18046","NA","478","2","legacy","1024","2","48000","-16","experiment","SSHSS","4","even","207005","23301","187464","NA","197897","2368","188477","208147","2372","169416","NA","208253","208739","208142","208252","Flanker Task","84","48620","92","yes","1024"
"91.39784946236558","91.39784946236558","528.0645161290323","528.0645161290323","black","legacy","legacy","legacy","0","incongruent","uniform","1","undefined","1","s","92","0","0","0","92","0","92","92","0","0","0","92","92","92","92","Sun Sep 27 17:17:30 2020","600","The main experiment item","yes","FlankerTask.osexp","C:\Users\chris\OneDrive\Desktop\lab","no","mono","no","18","no","white","no","yes","768","legacy","12","79","C:/Users/chris/OneDrive/Desktop/lab/CM-subject-4.csv","legacy","Lentiform Loewenfeld","3.3.3","0","s","h","h","NA","s","490","20928","18046","NA","490","2","legacy","1024","2","48000","-16","experiment","HHSHH","4","even","208753","23301","187464","NA","197897","2368","188477","209890","2372","169416","NA","209995","210487","209888","209995","Flanker Task","85","49110","93","yes","1024"
"91.48936170212765","91.48936170212765","527.5212765957447","527.5212765957447","black","legacy","legacy","legacy","0","incongruent","uniform","1","undefined","1","s","93","0","0","0","93","0","93","93","0","0","0","93","93","93","93","Sun Sep 27 17:17:30 2020","600","The main experiment item","yes","FlankerTask.osexp","C:\Users\chris\OneDrive\Desktop\lab","no","mono","no","18","no","white","no","yes","768","legacy","13","79","C:/Users/chris/OneDrive/Desktop/lab/CM-subject-4.csv","legacy","Lentiform Loewenfeld","3.3.3","0","s","h","h","NA","s","477","20928","18046","NA","477","2","legacy","1024","2","48000","-16","experiment","HHSHH","4","even","210496","23301","187464","NA","197897","2368","188477","211645","2372","169416","NA","211750","212231","211642","211750","Flanker Task","86","49587","94","yes","1024"
"90.52631578947368","90.52631578947368","526.2526315789473","526.2526315789473","black","legacy","legacy","legacy","0","incongruent","uniform","0","undefined","0","h","94","0","0","0","94","0","94","94","0","0","0","94","94","94","94","Sun Sep 27 17:17:30 2020","600","The main experiment item","yes","FlankerTask.osexp","C:\Users\chris\OneDrive\Desktop\lab","no","mono","no","18","no","white","no","yes","768","legacy","14","79","C:/Users/chris/OneDrive/Desktop/lab/CM-subject-4.csv","legacy","Lentiform Loewenfeld","3.3.3","0","s","h","h","NA","s","407","20928","18046","NA","407","2","legacy","1024","2","48000","-16","experiment","SSHSS","4","even","212246","23301","187464","NA","197897","2368","188477","213370","2372","169416","NA","213476","213886","213367","213475","Flanker Task","86","49994","95","yes","1024"
"90.625","90.625","525.7916666666666","525.7916666666666","black","legacy","legacy","legacy","0","congruent","uniform","1","undefined","1","s","95","0","0","0","95","0","95","95","0","0","0","95","95","95","95","Sun Sep 27 17:17:30 2020","600","The main experiment item","yes","FlankerTask.osexp","C:\Users\chris\OneDrive\Desktop\lab","no","mono","no","18","no","white","no","yes","768","legacy","15","79","C:/Users/chris/OneDrive/Desktop/lab/CM-subject-4.csv","legacy","Lentiform Loewenfeld","3.3.3","0","s","h","h","NA","s","482","20928","18046","NA","482","2","legacy","1024","2","48000","-16","experiment","SSSSS","4","even","214407","23301","187464","NA","213902","2368","188477","215524","2372","169416","NA","215629","216114","215521","215629","Flanker Task","87","50476","96","yes","1024"
"90.72164948453609","90.72164948453609","525.4536082474227","525.4536082474227","black","legacy","legacy","legacy","0","incongruent","uniform","1","undefined","1","h","96","0","0","0","96","0","96","96","0","0","0","96","96","96","96","Sun Sep 27 17:17:30 2020","600","The main experiment item","yes","FlankerTask.osexp","C:\Users\chris\OneDrive\Desktop\lab","no","mono","no","18","no","white","no","yes","768","legacy","16","79","C:/Users/chris/OneDrive/Desktop/lab/CM-subject-4.csv","legacy","Lentiform Loewenfeld","3.3.3","0","h","h","h","NA","h","493","20928","18046","NA","493","2","legacy","1024","2","48000","-16","experiment","SSHSS","4","even","216129","23301","187464","NA","213902","2368","188477","217273","2372","169416","NA","217378","217874","217270","217378","Flanker Task","88","50969","97","yes","1024"
"90.81632653061224","90.81632653061224","525.2755102040817","525.2755102040817","black","legacy","legacy","legacy","0","incongruent","uniform","1","undefined","1","h","97","0","0","0","97","0","97","97","0","0","0","97","97","97","97","Sun Sep 27 17:17:30 2020","600","The main experiment item","yes","FlankerTask.osexp","C:\Users\chris\OneDrive\Desktop\lab","no","mono","no","18","no","white","no","yes","768","legacy","17","79","C:/Users/chris/OneDrive/Desktop/lab/CM-subject-4.csv","legacy","Lentiform Loewenfeld","3.3.3","0","h","h","h","NA","h","508","20928","18046","NA","508","2","legacy","1024","2","48000","-16","experiment","SSHSS","4","even","217890","23301","187464","NA","213902","2368","188477","219081","2372","169416","NA","219186","219697","219077","219186","Flanker Task","89","51477","98","yes","1024"
"90.9090909090909","90.9090909090909","524.6767676767677","524.6767676767677","black","legacy","legacy","legacy","0","congruent","uniform","1","undefined","1","h","98","0","0","0","98","0","98","98","0","0","0","98","98","98","98","Sun Sep 27 17:17:30 2020","600","The main experiment item","yes","FlankerTask.osexp","C:\Users\chris\OneDrive\Desktop\lab","no","mono","no","18","no","white","no","yes","768","legacy","18","79","C:/Users/chris/OneDrive/Desktop/lab/CM-subject-4.csv","legacy","Lentiform Loewenfeld","3.3.3","0","h","h","h","NA","h","466","20928","18046","NA","466","2","legacy","1024","2","48000","-16","experiment","HHHHH","4","even","219710","23301","187464","NA","213902","2368","188477","220857","2372","169416","NA","220962","221430","220854","220962","Flanker Task","90","51943","99","yes","1024"
"91","91","525.27","525.27","black","legacy","legacy","legacy","0","incongruent","uniform","1","undefined","1","s","99","0","0","0","99","0","99","99","0","0","0","99","99","99","99","Sun Sep 27 17:17:30 2020","600","The main experiment item","yes","FlankerTask.osexp","C:\Users\chris\OneDrive\Desktop\lab","no","mono","no","18","no","white","no","yes","768","legacy","19","79","C:/Users/chris/OneDrive/Desktop/lab/CM-subject-4.csv","legacy","Lentiform Loewenfeld","3.3.3","0","s","h","h","NA","s","584","20928","18046","NA","584","2","legacy","1024","2","48000","-16","experiment","HHSHH","4","even","221439","23301","187464","NA","213902","2368","188477","222584","2372","169416","NA","222690","223277","222581","222689","Flanker Task","91","52527","100","yes","1024"
"91.08910891089108","91.08910891089108","524.950495049505","524.950495049505","black","legacy","legacy","legacy","0","congruent","uniform","1","undefined","1","s","100","0","0","0","100","0","100","100","0","0","0","100","100","100","100","Sun Sep 27 17:17:30 2020","600","The main experiment item","yes","FlankerTask.osexp","C:\Users\chris\OneDrive\Desktop\lab","no","mono","no","18","no","white","no","yes","768","legacy","20","79","C:/Users/chris/OneDrive/Desktop/lab/CM-subject-4.csv","legacy","Lentiform Loewenfeld","3.3.3","0","s","h","h","NA","s","493","20928","18046","NA","493","2","legacy","1024","2","48000","-16","experiment","SSSSS","4","even","223293","23301","187464","NA","213902","2368","188477","224442","2372","169416","NA","224547","225041","224439","224547","Flanker Task","92","53020","101","yes","1024"
"91.17647058823529","91.17647058823529","524.8823529411765","524.8823529411765","black","legacy","legacy","legacy","0","incongruent","uniform","1","undefined","1","h","101","0","0","0","101","0","101","101","0","0","0","101","101","101","101","Sun Sep 27 17:17:30 2020","600","The main experiment item","yes","FlankerTask.osexp","C:\Users\chris\OneDrive\Desktop\lab","no","mono","no","18","no","white","no","yes","768","legacy","21","79","C:/Users/chris/OneDrive/Desktop/lab/CM-subject-4.csv","legacy","Lentiform Loewenfeld","3.3.3","0","h","h","h","NA","h","518","20928","18046","NA","518","2","legacy","1024","2","48000","-16","experiment","SSHSS","4","even","225050","23301","187464","NA","213902","2368","188477","226192","2372","169416","NA","226298","226817","226190","226298","Flanker Task","93","53538","102","yes","1024"
"91.2621359223301","91.2621359223301","524.7961165048544","524.7961165048544","black","legacy","legacy","legacy","0","incongruent","uniform","1","undefined","1","h","102","0","0","0","102","0","102","102","0","0","0","102","102","102","102","Sun Sep 27 17:17:30 2020","600","The main experiment item","yes","FlankerTask.osexp","C:\Users\chris\OneDrive\Desktop\lab","no","mono","no","18","no","white","no","yes","768","legacy","22","79","C:/Users/chris/OneDrive/Desktop/lab/CM-subject-4.csv","legacy","Lentiform Loewenfeld","3.3.3","0","h","h","h","NA","h","516","20928","18046","NA","516","2","legacy","1024","2","48000","-16","experiment","SSHSS","4","even","226826","23301","187464","NA","213902","2368","188477","227962","2372","169416","NA","228067","228585","227960","228067","Flanker Task","94","54054","103","yes","1024"
"90.38461538461539","90.38461538461539","524.3653846153846","524.3653846153846","black","legacy","legacy","legacy","0","incongruent","uniform","0","undefined","0","h","103","0","0","0","103","0","103","103","0","0","0","103","103","103","103","Sun Sep 27 17:17:30 2020","600","The main experiment item","yes","FlankerTask.osexp","C:\Users\chris\OneDrive\Desktop\lab","no","mono","no","18","no","white","no","yes","768","legacy","23","79","C:/Users/chris/OneDrive/Desktop/lab/CM-subject-4.csv","legacy","Lentiform Loewenfeld","3.3.3","0","s","h","h","NA","s","480","20928","18046","NA","480","2","legacy","1024","2","48000","-16","experiment","SSHSS","4","even","228596","23301","187464","NA","213902","2368","188477","229739","2372","169416","NA","229844","230325","229736","229844","Flanker Task","94","54534","104","yes","1024"
"90.47619047619048","90.47619047619048","524.0190476190476","524.0190476190476","black","legacy","legacy","legacy","0","incongruent","uniform","1","undefined","1","s","104","0","0","0","104","0","104","104","0","0","0","104","104","104","104","Sun Sep 27 17:17:30 2020","600","The main experiment item","yes","FlankerTask.osexp","C:\Users\chris\OneDrive\Desktop\lab","no","mono","no","18","no","white","no","yes","768","legacy","24","79","C:/Users/chris/OneDrive/Desktop/lab/CM-subject-4.csv","legacy","Lentiform Loewenfeld","3.3.3","0","s","h","h","NA","s","488","20928","18046","NA","488","2","legacy","1024","2","48000","-16","experiment","HHSHH","4","even","230835","23301","187464","NA","230330","2368","188477","231968","2372","169416","NA","232073","232562","231964","232073","Flanker Task","95","55022","105","yes","1024"
"90.56603773584905","90.56603773584905","523.3679245283018","523.3679245283018","black","legacy","legacy","legacy","0","incongruent","uniform","1","undefined","1","h","105","0","0","0","105","0","105","105","0","0","0","105","105","105","105","Sun Sep 27 17:17:30 2020","600","The main experiment item","yes","FlankerTask.osexp","C:\Users\chris\OneDrive\Desktop\lab","no","mono","no","18","no","white","no","yes","768","legacy","25","79","C:/Users/chris/OneDrive/Desktop/lab/CM-subject-4.csv","legacy","Lentiform Loewenfeld","3.3.3","0","h","h","h","NA","h","455","20928","18046","NA","455","2","legacy","1024","2","48000","-16","experiment","SSHSS","4","even","232571","23301","187464","NA","230330","2368","188477","233752","2372","169416","NA","233857","234316","233749","233857","Flanker Task","96","55477","106","yes","1024"
"90.65420560747664","90.65420560747664","522.8785046728972","522.8785046728972","black","legacy","legacy","legacy","0","congruent","uniform","1","undefined","1","h","106","0","0","0","106","0","106","106","0","0","0","106","106","106","106","Sun Sep 27 17:17:30 2020","600","The main experiment item","yes","FlankerTask.osexp","C:\Users\chris\OneDrive\Desktop\lab","no","mono","no","18","no","white","no","yes","768","legacy","26","79","C:/Users/chris/OneDrive/Desktop/lab/CM-subject-4.csv","legacy","Lentiform Loewenfeld","3.3.3","0","h","h","h","NA","h","471","20928","18046","NA","471","2","legacy","1024","2","48000","-16","experiment","HHHHH","4","even","234333","23301","187464","NA","230330","2368","188477","235471","2372","169416","NA","235576","236048","235468","235576","Flanker Task","97","55948","107","yes","1024"
"90.74074074074075","90.74074074074075","522.8611111111111","522.8611111111111","black","legacy","legacy","legacy","0","incongruent","uniform","1","undefined","1","s","107","0","0","0","107","0","107","107","0","0","0","107","107","107","107","Sun Sep 27 17:17:30 2020","600","The main experiment item","yes","FlankerTask.osexp","C:\Users\chris\OneDrive\Desktop\lab","no","mono","no","18","no","white","no","yes","768","legacy","27","79","C:/Users/chris/OneDrive/Desktop/lab/CM-subject-4.csv","legacy","Lentiform Loewenfeld","3.3.3","0","s","h","h","NA","s","521","20928","18046","NA","521","2","legacy","1024","2","48000","-16","experiment","HHSHH","4","even","236057","23301","187464","NA","230330","2368","188477","237185","2372","169416","NA","237291","237813","237183","237291","Flanker Task","98","56469","108","yes","1024"
"90.8256880733945","90.8256880733945","522.7981651376147","522.7981651376147","black","legacy","legacy","legacy","0","incongruent","uniform","1","undefined","1","h","108","0","0","0","108","0","108","108","0","0","0","108","108","108","108","Sun Sep 27 17:17:30 2020","600","The main experiment item","yes","FlankerTask.osexp","C:\Users\chris\OneDrive\Desktop\lab","no","mono","no","18","no","white","no","yes","768","legacy","28","79","C:/Users/chris/OneDrive/Desktop/lab/CM-subject-4.csv","legacy","Lentiform Loewenfeld","3.3.3","0","h","h","h","NA","h","516","20928","18046","NA","516","2","legacy","1024","2","48000","-16","experiment","SSHSS","4","even","237823","23301","187464","NA","230330","2368","188477","238939","2372","169416","NA","239040","239559","238936","239040","Flanker Task","99","56985","109","yes","1024"
"90.9090909090909","90.9090909090909","522.2545454545455","522.2545454545455","black","legacy","legacy","legacy","0","congruent","uniform","1","undefined","1","s","109","0","0","0","109","0","109","109","0","0","0","109","109","109","109","Sun Sep 27 17:17:30 2020","600","The main experiment item","yes","FlankerTask.osexp","C:\Users\chris\OneDrive\Desktop\lab","no","mono","no","18","no","white","no","yes","768","legacy","29","79","C:/Users/chris/OneDrive/Desktop/lab/CM-subject-4.csv","legacy","Lentiform Loewenfeld","3.3.3","0","s","h","h","NA","s","463","20928","18046","NA","463","2","legacy","1024","2","48000","-16","experiment","SSSSS","4","even","239571","23301","187464","NA","230330","2368","188477","240721","2372","169416","NA","240826","241291","240717","240826","Flanker Task","100","57448","110","yes","1024"
"90.990990990991","90.990990990991","521.6396396396397","521.6396396396397","black","legacy","legacy","legacy","0","congruent","uniform","1","undefined","1","s","110","0","0","0","110","0","110","110","0","0","0","110","110","110","110","Sun Sep 27 17:17:30 2020","600","The main experiment item","yes","FlankerTask.osexp","C:\Users\chris\OneDrive\Desktop\lab","no","mono","no","18","no","white","no","yes","768","legacy","30","79","C:/Users/chris/OneDrive/Desktop/lab/CM-subject-4.csv","legacy","Lentiform Loewenfeld","3.3.3","0","s","h","h","NA","s","454","20928","18046","NA","454","2","legacy","1024","2","48000","-16","experiment","SSSSS","4","even","241304","23301","187464","NA","230330","2368","188477","242441","2372","169416","NA","242547","243006","242438","242546","Flanker Task","101","57902","111","yes","1024"
"91.07142857142857","91.07142857142857","521.7767857142857","521.7767857142857","black","legacy","legacy","legacy","0","incongruent","uniform","1","undefined","1","s","111","0","0","0","111","0","111","111","0","0","0","111","111","111","111","Sun Sep 27 17:17:30 2020","600","The main experiment item","yes","FlankerTask.osexp","C:\Users\chris\OneDrive\Desktop\lab","no","mono","no","18","no","white","no","yes","768","legacy","31","79","C:/Users/chris/OneDrive/Desktop/lab/CM-subject-4.csv","legacy","Lentiform Loewenfeld","3.3.3","0","s","h","h","NA","s","537","20928","18046","NA","537","2","legacy","1024","2","48000","-16","experiment","HHSHH","4","even","243021","23301","187464","NA","230330","2368","188477","244148","2372","169416","NA","244254","244792","244146","244254","Flanker Task","102","58439","112","yes","1024"
"91.15044247787611","91.15044247787611","521.7610619469026","521.7610619469026","black","legacy","legacy","legacy","0","incongruent","uniform","1","undefined","1","h","112","0","0","0","112","0","112","112","0","0","0","112","112","112","112","Sun Sep 27 17:17:30 2020","600","The main experiment item","yes","FlankerTask.osexp","C:\Users\chris\OneDrive\Desktop\lab","no","mono","no","18","no","white","no","yes","768","legacy","32","79","C:/Users/chris/OneDrive/Desktop/lab/CM-subject-4.csv","legacy","Lentiform Loewenfeld","3.3.3","0","h","h","h","NA","h","520","20928","18046","NA","520","2","legacy","1024","2","48000","-16","experiment","SSHSS","4","even","244802","23301","187464","NA","230330","2368","188477","245941","2372","169416","NA","246047","246570","245938","246047","Flanker Task","103","58959","113","yes","1024"
"90.35087719298245","90.35087719298245","521.5087719298245","521.5087719298245","black","legacy","legacy","legacy","0","incongruent","uniform","0","undefined","0","h","113","0","0","0","113","0","113","113","0","0","0","113","113","113","113","Sun Sep 27 17:17:30 2020","600","The main experiment item","yes","FlankerTask.osexp","C:\Users\chris\OneDrive\Desktop\lab","no","mono","no","18","no","white","no","yes","768","legacy","33","79","C:/Users/chris/OneDrive/Desktop/lab/CM-subject-4.csv","legacy","Lentiform Loewenfeld","3.3.3","0","s","h","h","NA","s","493","20928","18046","NA","493","2","legacy","1024","2","48000","-16","experiment","SSHSS","4","even","246585","23301","187464","NA","230330","2368","188477","247742","2372","169416","NA","247847","248344","247740","247847","Flanker Task","103","59452","114","yes","1024"
"90.43478260869566","90.43478260869566","521.7913043478261","521.7913043478261","black","legacy","legacy","legacy","0","incongruent","uniform","1","undefined","1","s","114","0","0","0","114","0","114","114","0","0","0","114","114","114","114","Sun Sep 27 17:17:30 2020","600","The main experiment item","yes","FlankerTask.osexp","C:\Users\chris\OneDrive\Desktop\lab","no","mono","no","18","no","white","no","yes","768","legacy","34","79","C:/Users/chris/OneDrive/Desktop/lab/CM-subject-4.csv","legacy","Lentiform Loewenfeld","3.3.3","0","s","h","h","NA","s","554","20928","18046","NA","554","2","legacy","1024","2","48000","-16","experiment","HHSHH","4","even","248865","23301","187464","NA","248359","2368","188477","249989","2372","169416","NA","250094","250650","249987","250094","Flanker Task","104","60006","115","yes","1024"
"90.51724137931035","90.51724137931035","521.3189655172414","521.3189655172414","black","legacy","legacy","legacy","0","incongruent","uniform","1","undefined","1","s","115","0","0","0","115","0","115","115","0","0","0","115","115","115","115","Sun Sep 27 17:17:30 2020","600","The main experiment item","yes","FlankerTask.osexp","C:\Users\chris\OneDrive\Desktop\lab","no","mono","no","18","no","white","no","yes","768","legacy","35","79","C:/Users/chris/OneDrive/Desktop/lab/CM-subject-4.csv","legacy","Lentiform Loewenfeld","3.3.3","0","s","h","h","NA","s","467","20928","18046","NA","467","2","legacy","1024","2","48000","-16","experiment","HHSHH","4","even","250663","23301","187464","NA","248359","2368","188477","251819","2372","169416","NA","251924","252392","251816","251924","Flanker Task","105","60473","116","yes","1024"
"90.5982905982906","90.5982905982906","520.2393162393163","520.2393162393163","black","legacy","legacy","legacy","0","congruent","uniform","1","undefined","1","s","116","0","0","0","116","0","116","116","0","0","0","116","116","116","116","Sun Sep 27 17:17:30 2020","600","The main experiment item","yes","FlankerTask.osexp","C:\Users\chris\OneDrive\Desktop\lab","no","mono","no","18","no","white","no","yes","768","legacy","36","79","C:/Users/chris/OneDrive/Desktop/lab/CM-subject-4.csv","legacy","Lentiform Loewenfeld","3.3.3","0","s","h","h","NA","s","395","20928","18046","NA","395","2","legacy","1024","2","48000","-16","experiment","SSSSS","4","even","252402","23301","187464","NA","248359","2368","188477","253546","2372","169416","NA","253651","254047","253543","253651","Flanker Task","106","60868","117","yes","1024"
"89.83050847457628","89.83050847457628","518.4745762711865","518.4745762711865","black","legacy","legacy","legacy","0","incongruent","uniform","0","undefined","0","h","117","0","0","0","117","0","117","117","0","0","0","117","117","117","117","Sun Sep 27 17:17:30 2020","600","The main experiment item","yes","FlankerTask.osexp","C:\Users\chris\OneDrive\Desktop\lab","no","mono","no","18","no","white","no","yes","768","legacy","37","79","C:/Users/chris/OneDrive/Desktop/lab/CM-subject-4.csv","legacy","Lentiform Loewenfeld","3.3.3","0","s","h","h","NA","s","312","20928","18046","NA","312","2","legacy","1024","2","48000","-16","experiment","SSHSS","4","even","254056","23301","187464","NA","248359","2368","188477","255205","2372","169416","NA","255310","255623","255202","255310","Flanker Task","106","61180","118","yes","1024"
"89.91596638655462","89.91596638655462","517.890756302521","517.890756302521","black","legacy","legacy","legacy","0","incongruent","uniform","1","undefined","1","s","118","0","0","0","118","0","118","118","0","0","0","118","118","118","118","Sun Sep 27 17:17:30 2020","600","The main experiment item","yes","FlankerTask.osexp","C:\Users\chris\OneDrive\Desktop\lab","no","mono","no","18","no","white","no","yes","768","legacy","38","79","C:/Users/chris/OneDrive/Desktop/lab/CM-subject-4.csv","legacy","Lentiform Loewenfeld","3.3.3","0","s","h","h","NA","s","449","20928","18046","NA","449","2","legacy","1024","2","48000","-16","experiment","HHSHH","4","even","256141","23301","187464","NA","255634","2368","188477","257321","2372","169416","NA","257426","257880","257317","257426","Flanker Task","107","61629","119","yes","1024"
"90","90","517.1166666666667","517.1166666666667","black","legacy","legacy","legacy","0","congruent","uniform","1","undefined","1","s","119","0","0","0","119","0","119","119","0","0","0","119","119","119","119","Sun Sep 27 17:17:30 2020","600","The main experiment item","yes","FlankerTask.osexp","C:\Users\chris\OneDrive\Desktop\lab","no","mono","no","18","no","white","no","yes","768","legacy","39","79","C:/Users/chris/OneDrive/Desktop/lab/CM-subject-4.csv","legacy","Lentiform Loewenfeld","3.3.3","0","s","h","h","NA","s","425","20928","18046","NA","425","2","legacy","1024","2","48000","-16","experiment","SSSSS","4","even","257896","23301","187464","NA","255634","2368","188477","259088","2372","169416","NA","259193","259622","259084","259193","Flanker Task","108","62054","120","yes","1024"
"90.08264462809917","90.08264462809917","516.6776859504132","516.6776859504132","black","legacy","legacy","legacy","0","congruent","uniform","1","undefined","1","h","120","0","0","0","120","0","120","120","0","0","0","120","120","120","120","Sun Sep 27 17:17:30 2020","600","The main experiment item","yes","FlankerTask.osexp","C:\Users\chris\OneDrive\Desktop\lab","no","mono","no","18","no","white","no","yes","768","legacy","40","79","C:/Users/chris/OneDrive/Desktop/lab/CM-subject-4.csv","legacy","Lentiform Loewenfeld","3.3.3","0","h","h","h","NA","h","464","20928","18046","NA","464","2","legacy","1024","2","48000","-16","experiment","HHHHH","4","even","259637","23301","187464","NA","255634","2368","188477","260778","2372","169416","NA","260884","261404","260775","260884","Flanker Task","109","62518","121","yes","1024"
"90.1639344262295","90.1639344262295","516.5327868852459","516.5327868852459","black","legacy","legacy","legacy","0","incongruent","uniform","1","undefined","1","s","121","0","0","0","121","0","121","121","0","0","0","121","121","121","121","Sun Sep 27 17:17:30 2020","600","The main experiment item","yes","FlankerTask.osexp","C:\Users\chris\OneDrive\Desktop\lab","no","mono","no","18","no","white","no","yes","768","legacy","41","79","C:/Users/chris/OneDrive/Desktop/lab/CM-subject-4.csv","legacy","Lentiform Loewenfeld","3.3.3","0","s","h","h","NA","s","499","20928","18046","NA","499","2","legacy","1024","2","48000","-16","experiment","HHSHH","4","even","261411","23301","187464","NA","255634","2368","188477","262546","2372","169416","NA","262651","263152","262543","262651","Flanker Task","110","63017","122","yes","1024"
