"acc","accuracy","average_response_time","avg_rt","background","canvas_backend","clock_backend","color_backend","compensation","condition","coordinates","correct","correct_instructions1","correct_keyboard_response","correct_response","count_ISI","count_block1","count_block2","count_block3","count_errorFeedback","count_experiment","count_faster","count_finish","count_fixation","count_instructions1","count_instructions2","count_instructions3","count_keyboard_response","count_logger","count_sequence","count_stimulus","datetime","deadline","description","disable_garbage_collection","experiment_file","experiment_path","font_bold","font_family","font_italic","font_size","font_underline","foreground","form_clicks","fullscreen","height","keyboard_backend","live_row","live_row_block1","logfile","mouse_backend","opensesame_codename","opensesame_version","repeat_cycle","response","response_finish","response_instructions1","response_instructions2","response_instructions3","response_keyboard_response","response_time","response_time_finish","response_time_instructions1","response_time_instructions2","response_time_instructions3","response_time_keyboard_response","round_decimals","sampler_backend","sound_buf_size","sound_channels","sound_freq","sound_sample_size","start","stimulus","subject_nr","subject_parity","time_ISI","time_block1","time_block2","time_block3","time_errorFeedback","time_experiment","time_faster","time_finish","time_fixation","time_instructions1","time_instructions2","time_instructions3","time_keyboard_response","time_logger","time_sequence","time_stimulus","title","total_correct","total_response_time","total_responses","uniform_coordinates","width"
"100","100","621.2016998324543","621.2016998324543","black","psycho","psycho","psycho","0","congruent","uniform","1","undefined","1","s","0","0","0","0","0","0","0","0","0","0","0","0","0","0","0","0","Sun Sep 20 12:44:37 2020","1500","The main experiment item","yes","FlankerTask21.osexp","C:/Users/Colton/Desktop","no","mono","no","18","no","white","no","yes","768","psycho","0","0","C:/Users/Colton/Desktop/CS-subject-1.csv","psycho","Lentiform Loewenfeld","3.3.3","0","s","NA","s","NA","NA","s","621.2016998324543","NA","10505.749200005084","NA","NA","621.2016998324543","2","psycho","1024","2","48000","-16","experiment","SSSSS","1","odd","NA","23371.380500029773","NA","NA","NA","12834.953000070527","NA","NA","23601.170000154525","12862.06499999389","NA","NA","23709.453500108793","24332.75720011443","23589.26030015573","23709.024399984628","Flanker Task 2.1","1","621.2016998324543","1","yes","1024"
"100","100","538.5274499421939","538.5274499421939","black","psycho","psycho","psycho","0","congruent","uniform","1","undefined","1","h","1","0","0","0","1","0","1","0","1","0","0","0","1","1","1","1","Sun Sep 20 12:44:37 2020","1500","The main experiment item","yes","FlankerTask21.osexp","C:/Users/Colton/Desktop","no","mono","no","18","no","white","no","yes","768","psycho","1","1","C:/Users/Colton/Desktop/CS-subject-1.csv","psycho","Lentiform Loewenfeld","3.3.3","0","h","NA","s","NA","NA","h","455.8532000519335","NA","10505.749200005084","NA","NA","455.8532000519335","2","psycho","1024","2","48000","-16","experiment","HHHHH","1","odd","24421.57300002873","23371.380500029773","NA","NA","NA","12834.953000070527","NA","NA","25707.923999987543","12862.06499999389","NA","NA","25816.14420004189","26274.557300144807","25699.735600035638","25815.539200091735","Flanker Task 2.1","2","1077.0548998843879","2","yes","1024"
"100","100","532.4469999565432","532.4469999565432","black","psycho","psycho","psycho","0","incongruent","uniform","1","undefined","1","s","2","0","0","0","2","0","2","0","2","0","0","0","2","2","2","2","Sun Sep 20 12:44:37 2020","1500","The main experiment item","yes","FlankerTask21.osexp","C:/Users/Colton/Desktop","no","mono","no","18","no","white","no","yes","768","psycho","2","2","C:/Users/Colton/Desktop/CS-subject-1.csv","psycho","Lentiform Loewenfeld","3.3.3","0","s","NA","s","NA","NA","s","520.2860999852419","NA","10505.749200005084","NA","NA","520.2860999852419","2","psycho","1024","2","48000","-16","experiment","HHSHH","1","odd","26327.099699992687","23371.380500029773","NA","NA","NA","12834.953000070527","NA","NA","27628.338100155815","12862.06499999389","NA","NA","27736.24710016884","28258.747600018978","27620.354500133544","27735.71759997867","Flanker Task 2.1","3","1597.3409998696297","3","yes","1024"
"75","75","505.49827492795885","505.49827492795885","black","psycho","psycho","psycho","0","incongruent","uniform","0","undefined","0","h","3","0","0","0","3","0","3","0","3","0","0","0","3","3","3","3","Sun Sep 20 12:44:37 2020","1500","The main experiment item","yes","FlankerTask21.osexp","C:/Users/Colton/Desktop","no","mono","no","18","no","white","no","yes","768","psycho","3","3","C:/Users/Colton/Desktop/CS-subject-1.csv","psycho","Lentiform Loewenfeld","3.3.3","0","s","NA","s","NA","NA","s","424.65209984220564","NA","10505.749200005084","NA","NA","424.65209984220564","2","psycho","1024","2","48000","-16","experiment","SSHSS","1","odd","28314.20120014809","23371.380500029773","NA","NA","NA","12834.953000070527","NA","NA","29609.318000031635","12862.06499999389","NA","NA","29717.343300115317","30144.32610012591","29600.760699948296","29716.836899984628","Flanker Task 2.1","3","2021.9930997118354","4","yes","1024"
"80","80","482.77265997603536","482.77265997603536","black","psycho","psycho","psycho","0","incongruent","uniform","1","undefined","1","s","4","0","0","0","4","0","4","0","4","0","0","0","4","4","4","4","Sun Sep 20 12:44:37 2020","1500","The main experiment item","yes","FlankerTask21.osexp","C:/Users/Colton/Desktop","no","mono","no","18","no","white","no","yes","768","psycho","4","4","C:/Users/Colton/Desktop/CS-subject-1.csv","psycho","Lentiform Loewenfeld","3.3.3","0","s","NA","s","NA","NA","s","391.8702001683414","NA","10505.749200005084","NA","NA","391.8702001683414","2","psycho","1024","2","48000","-16","experiment","HHSHH","1","odd","30688.860800117254","23371.380500029773","NA","NA","30179.99600013718","12834.953000070527","NA","NA","31970.317600062117","12862.06499999389","NA","NA","32077.557899989188","32471.929399995133","31962.52669999376","32077.136100037023","Flanker Task 2.1","4","2413.863299880177","5","yes","1024"
"83.33333333333333","83.33333333333333","468.26374996453524","468.26374996453524","black","psycho","psycho","psycho","0","congruent","uniform","1","undefined","1","h","5","0","0","0","5","0","5","0","5","0","0","0","5","5","5","5","Sun Sep 20 12:44:37 2020","1500","The main experiment item","yes","FlankerTask21.osexp","C:/Users/Colton/Desktop","no","mono","no","18","no","white","no","yes","768","psycho","5","5","C:/Users/Colton/Desktop/CS-subject-1.csv","psycho","Lentiform Loewenfeld","3.3.3","0","h","NA","s","NA","NA","h","395.71919990703464","NA","10505.749200005084","NA","NA","395.71919990703464","2","psycho","1024","2","48000","-16","experiment","HHHHH","1","odd","32527.217800030485","23371.380500029773","NA","NA","30179.99600013718","12834.953000070527","NA","NA","33825.353200081736","12862.06499999389","NA","NA","33932.9798000399","34331.708800047636","33817.02299998142","33932.49409995042","Flanker Task 2.1","5","2809.5824997872114","6","yes","1024"
"85.71428571428571","85.71428571428571","461.9725571413125","461.9725571413125","black","psycho","psycho","psycho","0","congruent","uniform","1","undefined","1","s","6","0","0","0","6","0","6","0","6","0","0","0","6","6","6","6","Sun Sep 20 12:44:37 2020","1500","The main experiment item","yes","FlankerTask21.osexp","C:/Users/Colton/Desktop","no","mono","no","18","no","white","no","yes","768","psycho","6","6","C:/Users/Colton/Desktop/CS-subject-1.csv","psycho","Lentiform Loewenfeld","3.3.3","0","s","NA","s","NA","NA","s","424.2254002019763","NA","10505.749200005084","NA","NA","424.2254002019763","2","psycho","1024","2","48000","-16","experiment","SSSSS","1","odd","34371.029400033876","23371.380500029773","NA","NA","30179.99600013718","12834.953000070527","NA","NA","35654.14380002767","12862.06499999389","NA","NA","35761.873699957505","36188.63680004142","35645.64410015009","35761.44270016812","Flanker Task 2.1","6","3233.8078999891877","7","yes","1024"
"87.5","87.5","455.43982498929836","455.43982498929836","black","psycho","psycho","psycho","0","congruent","uniform","1","undefined","1","s","7","0","0","0","7","0","7","0","7","0","0","0","7","7","7","7","Sun Sep 20 12:44:37 2020","1500","The main experiment item","yes","FlankerTask21.osexp","C:/Users/Colton/Desktop","no","mono","no","18","no","white","no","yes","768","psycho","7","7","C:/Users/Colton/Desktop/CS-subject-1.csv","psycho","Lentiform Loewenfeld","3.3.3","0","s","NA","s","NA","NA","s","409.71069992519915","NA","10505.749200005084","NA","NA","409.71069992519915","2","psycho","1024","2","48000","-16","experiment","SSSSS","1","odd","36240.02739996649","23371.380500029773","NA","NA","30179.99600013718","12834.953000070527","NA","NA","37540.51570012234","12862.06499999389","NA","NA","37648.54510012083","38060.947000049055","37532.22900000401","37648.06909998879","Flanker Task 2.1","7","3643.518599914387","8","yes","1024"
"88.88888888888889","88.88888888888889","452.0364888788511","452.0364888788511","black","psycho","psycho","psycho","0","congruent","uniform","1","undefined","1","s","8","0","0","0","8","0","8","0","8","0","0","0","8","8","8","8","Sun Sep 20 12:44:37 2020","1500","The main experiment item","yes","FlankerTask21.osexp","C:/Users/Colton/Desktop","no","mono","no","18","no","white","no","yes","768","psycho","8","8","C:/Users/Colton/Desktop/CS-subject-1.csv","psycho","Lentiform Loewenfeld","3.3.3","0","s","NA","s","NA","NA","s","424.80979999527335","NA","10505.749200005084","NA","NA","424.80979999527335","2","psycho","1024","2","48000","-16","experiment","SSSSS","1","odd","38092.47130015865","23371.380500029773","NA","NA","30179.99600013718","12834.953000070527","NA","NA","39359.48600014672","12862.06499999389","NA","NA","39467.51410001889","39894.67340009287","39351.48139996454","39467.09579997696","Flanker Task 2.1","8","4068.32839990966","9","yes","1024"
"90","90","450.5979500012472","450.5979500012472","black","psycho","psycho","psycho","0","congruent","uniform","1","undefined","1","h","9","0","0","0","9","0","9","0","9","0","0","0","9","9","9","9","Sun Sep 20 12:44:37 2020","1500","The main experiment item","yes","FlankerTask21.osexp","C:/Users/Colton/Desktop","no","mono","no","18","no","white","no","yes","768","psycho","9","9","C:/Users/Colton/Desktop/CS-subject-1.csv","psycho","Lentiform Loewenfeld","3.3.3","0","h","NA","s","NA","NA","h","437.65110010281205","NA","10505.749200005084","NA","NA","437.65110010281205","2","psycho","1024","2","48000","-16","experiment","HHHHH","1","odd","40024.161000037566","23371.380500029773","NA","NA","30179.99600013718","12834.953000070527","NA","NA","41289.811599999666","12862.06499999389","NA","NA","41396.880300017074","41836.67580015026","41282.37000014633","41396.47230016999","Flanker Task 2.1","9","4505.979500012472","10","yes","1024"
"90.9090909090909","90.9090909090909","459.9206909029321","459.9206909029321","black","psycho","psycho","psycho","0","incongruent","uniform","1","undefined","1","h","10","0","0","0","10","0","10","0","10","0","0","0","10","10","10","10","Sun Sep 20 12:44:37 2020","1500","The main experiment item","yes","FlankerTask21.osexp","C:/Users/Colton/Desktop","no","mono","no","18","no","white","no","yes","768","psycho","10","10","C:/Users/Colton/Desktop/CS-subject-1.csv","psycho","Lentiform Loewenfeld","3.3.3","0","h","NA","s","NA","NA","h","553.1480999197811","NA","10505.749200005084","NA","NA","553.1480999197811","2","psycho","1024","2","48000","-16","experiment","SSHSS","1","odd","41923.35449997336","23371.380500029773","NA","NA","30179.99600013718","12834.953000070527","NA","NA","43200.76290005818","12862.06499999389","NA","NA","43308.410400059074","43863.72989998199","43192.52309994772","43308.0150000751","Flanker Task 2.1","10","5059.127599932253","11","yes","1024"
"91.66666666666667","91.66666666666667","457.23906667747843","457.23906667747843","black","psycho","psycho","psycho","0","congruent","uniform","1","undefined","1","s","11","0","0","0","11","0","11","0","11","0","0","0","11","11","11","11","Sun Sep 20 12:44:37 2020","1500","The main experiment item","yes","FlankerTask21.osexp","C:/Users/Colton/Desktop","no","mono","no","18","no","white","no","yes","768","psycho","11","11","C:/Users/Colton/Desktop/CS-subject-1.csv","psycho","Lentiform Loewenfeld","3.3.3","0","s","NA","s","NA","NA","s","427.74120019748807","NA","10505.749200005084","NA","NA","427.74120019748807","2","psycho","1024","2","48000","-16","experiment","SSSSS","1","odd","43932.91410012171","23371.380500029773","NA","NA","30179.99600013718","12834.953000070527","NA","NA","45203.50810000673","12862.06499999389","NA","NA","45311.364999972284","45741.25410011038","45195.63360000029","45310.80209999345","Flanker Task 2.1","11","5486.868800129741","12","yes","1024"
"92.3076923076923","92.3076923076923","460.6486384649403","460.6486384649403","black","psycho","psycho","psycho","0","incongruent","uniform","1","undefined","1","s","12","0","0","0","12","0","12","0","12","0","0","0","12","12","12","12","Sun Sep 20 12:44:37 2020","1500","The main experiment item","yes","FlankerTask21.osexp","C:/Users/Colton/Desktop","no","mono","no","18","no","white","no","yes","768","psycho","12","12","C:/Users/Colton/Desktop/CS-subject-1.csv","psycho","Lentiform Loewenfeld","3.3.3","0","s","NA","s","NA","NA","s","501.56349991448224","NA","10505.749200005084","NA","NA","501.56349991448224","2","psycho","1024","2","48000","-16","experiment","HHSHH","1","odd","45768.21560016833","23371.380500029773","NA","NA","30179.99600013718","12834.953000070527","NA","NA","47021.08950004913","12862.06499999389","NA","NA","47129.06210008077","47633.13360000029","47013.08530010283","47128.606599988416","Flanker Task 2.1","12","5988.432300044224","13","yes","1024"
"92.85714285714286","92.85714285714286","458.22303570873504","458.22303570873504","black","psycho","psycho","psycho","0","congruent","uniform","1","undefined","1","h","13","0","0","0","13","0","13","0","13","0","0","0","13","13","13","13","Sun Sep 20 12:44:37 2020","1500","The main experiment item","yes","FlankerTask21.osexp","C:/Users/Colton/Desktop","no","mono","no","18","no","white","no","yes","768","psycho","13","13","C:/Users/Colton/Desktop/CS-subject-1.csv","psycho","Lentiform Loewenfeld","3.3.3","0","h","NA","s","NA","NA","h","426.6901998780668","NA","10505.749200005084","NA","NA","426.6901998780668","2","psycho","1024","2","48000","-16","experiment","HHHHH","1","odd","47668.76729996875","23371.380500029773","NA","NA","30179.99600013718","12834.953000070527","NA","NA","48926.470400067046","12862.06499999389","NA","NA","49033.28620013781","49462.45130011812","48918.59270003624","49032.84210013226","Flanker Task 2.1","13","6415.12249992229","14","yes","1024"
"93.33333333333333","93.33333333333333","455.133846666043","455.133846666043","black","psycho","psycho","psycho","0","incongruent","uniform","1","undefined","1","s","14","0","0","0","14","0","14","0","14","0","0","0","14","14","14","14","Sun Sep 20 12:44:37 2020","1500","The main experiment item","yes","FlankerTask21.osexp","C:/Users/Colton/Desktop","no","mono","no","18","no","white","no","yes","768","psycho","14","14","C:/Users/Colton/Desktop/CS-subject-1.csv","psycho","Lentiform Loewenfeld","3.3.3","0","s","NA","s","NA","NA","s","411.8852000683546","NA","10505.749200005084","NA","NA","411.8852000683546","2","psycho","1024","2","48000","-16","experiment","HHSHH","1","odd","49515.484099974856","23371.380500029773","NA","NA","30179.99600013718","12834.953000070527","NA","NA","50781.93560009822","12862.06499999389","NA","NA","50889.17650002986","51303.61960013397","50774.10289994441","50888.76749994233","Flanker Task 2.1","14","6827.007699990645","15","yes","1024"
"93.75","93.75","451.14389999071136","451.14389999071136","black","psycho","psycho","psycho","0","incongruent","uniform","1","undefined","1","h","15","0","0","0","15","0","15","0","15","0","0","0","15","15","15","15","Sun Sep 20 12:44:37 2020","1500","The main experiment item","yes","FlankerTask21.osexp","C:/Users/Colton/Desktop","no","mono","no","18","no","white","no","yes","768","psycho","15","15","C:/Users/Colton/Desktop/CS-subject-1.csv","psycho","Lentiform Loewenfeld","3.3.3","0","h","NA","s","NA","NA","h","391.2946998607367","NA","10505.749200005084","NA","NA","391.2946998607367","2","psycho","1024","2","48000","-16","experiment","SSHSS","1","odd","51369.846099987626","23371.380500029773","NA","NA","30179.99600013718","12834.953000070527","NA","NA","52645.461100153625","12862.06499999389","NA","NA","52753.20630008355","53147.88469998166","52637.384200003","52752.77550006285","Flanker Task 2.1","15","7218.302399851382","16","yes","1024"
"94.11764705882354","94.11764705882354","445.5558705718859","445.5558705718859","black","psycho","psycho","psycho","0","incongruent","uniform","1","undefined","1","h","16","0","0","0","16","0","16","0","16","0","0","0","16","16","16","16","Sun Sep 20 12:44:37 2020","1500","The main experiment item","yes","FlankerTask21.osexp","C:/Users/Colton/Desktop","no","mono","no","18","no","white","no","yes","768","psycho","16","16","C:/Users/Colton/Desktop/CS-subject-1.csv","psycho","Lentiform Loewenfeld","3.3.3","0","h","NA","s","NA","NA","h","356.1473998706788","NA","10505.749200005084","NA","NA","356.1473998706788","2","psycho","1024","2","48000","-16","experiment","SSHSS","1","odd","53192.174799973145","23371.380500029773","NA","NA","30179.99600013718","12834.953000070527","NA","NA","54475.996599998325","12862.06499999389","NA","NA","54583.94780009985","54942.45079997927","54468.15249999054","54583.534700097516","Flanker Task 2.1","16","7574.449799722061","17","yes","1024"
"94.44444444444444","94.44444444444444","445.39435553209233","445.39435553209233","black","psycho","psycho","psycho","0","incongruent","uniform","1","undefined","1","s","17","0","0","0","17","0","17","0","17","0","0","0","17","17","17","17","Sun Sep 20 12:44:37 2020","1500","The main experiment item","yes","FlankerTask21.osexp","C:/Users/Colton/Desktop","no","mono","no","18","no","white","no","yes","768","psycho","17","17","C:/Users/Colton/Desktop/CS-subject-1.csv","psycho","Lentiform Loewenfeld","3.3.3","0","s","NA","s","NA","NA","s","442.6485998556018","NA","10505.749200005084","NA","NA","442.6485998556018","2","psycho","1024","2","48000","-16","experiment","HHSHH","1","odd","54993.136800127104","23371.380500029773","NA","NA","30179.99600013718","12834.953000070527","NA","NA","56264.162900159135","12862.06499999389","NA","NA","56371.67350016534","56816.63000001572","56255.71639998816","56371.214900165796","Flanker Task 2.1","17","8017.098399577662","18","yes","1024"
"94.73684210526316","94.73684210526316","440.1185999771482","440.1185999771482","black","psycho","psycho","psycho","0","congruent","uniform","1","undefined","1","h","18","0","0","0","18","0","18","0","18","0","0","0","18","18","18","18","Sun Sep 20 12:44:37 2020","1500","The main experiment item","yes","FlankerTask21.osexp","C:/Users/Colton/Desktop","no","mono","no","18","no","white","no","yes","768","psycho","18","18","C:/Users/Colton/Desktop/CS-subject-1.csv","psycho","Lentiform Loewenfeld","3.3.3","0","h","NA","s","NA","NA","h","345.1549999881536","NA","10505.749200005084","NA","NA","345.1549999881536","2","psycho","1024","2","48000","-16","experiment","HHHHH","1","odd","56947.8778000921","23371.380500029773","NA","NA","30179.99600013718","12834.953000070527","NA","NA","58226.247700164095","12862.06499999389","NA","NA","58333.11240002513","58680.825100047514","58218.509800033644","58332.61050004512","Flanker Task 2.1","18","8362.253399565816","19","yes","1024"
"95","95","439.05845497502014","439.05845497502014","black","psycho","psycho","psycho","0","congruent","uniform","1","undefined","1","s","19","0","0","0","19","0","19","0","19","0","0","0","19","19","19","19","Sun Sep 20 12:44:37 2020","1500","The main experiment item","yes","FlankerTask21.osexp","C:/Users/Colton/Desktop","no","mono","no","18","no","white","no","yes","768","psycho","19","19","C:/Users/Colton/Desktop/CS-subject-1.csv","psycho","Lentiform Loewenfeld","3.3.3","0","s","NA","s","NA","NA","s","418.9156999345869","NA","10505.749200005084","NA","NA","418.9156999345869","2","psycho","1024","2","48000","-16","experiment","SSSSS","1","odd","58731.21740017086","23371.380500029773","NA","NA","30179.99600013718","12834.953000070527","NA","NA","60011.10060000792","12862.06499999389","NA","NA","60118.327300064266","60540.02090007998","60003.06320004165","60117.912400048226","Flanker Task 2.1","19","8781.169099500403","20","yes","1024"
"95.23809523809524","95.23809523809524","435.51044759251886","435.51044759251886","black","psycho","psycho","psycho","0","congruent","uniform","1","undefined","1","s","20","0","0","0","20","0","20","0","20","0","0","0","20","20","20","20","Sun Sep 20 12:44:37 2020","1500","The main experiment item","yes","FlankerTask21.osexp","C:/Users/Colton/Desktop","no","mono","no","18","no","white","no","yes","768","psycho","20","20","C:/Users/Colton/Desktop/CS-subject-1.csv","psycho","Lentiform Loewenfeld","3.3.3","0","s","NA","s","NA","NA","s","364.55029994249344","NA","10505.749200005084","NA","NA","364.55029994249344","2","psycho","1024","2","48000","-16","experiment","SSSSS","1","odd","60619.30959997699","23371.380500029773","NA","NA","30179.99600013718","12834.953000070527","NA","NA","61918.29179995693","12862.06499999389","NA","NA","62026.87530010007","62393.81960011087","61907.183200120926","62026.44070005044","Flanker Task 2.1","20","9145.719399442896","21","yes","1024"
"90.9090909090909","90.9090909090909","435.09980451992965","435.09980451992965","black","psycho","psycho","psycho","0","incongruent","uniform","0","undefined","0","s","21","0","0","0","21","0","21","0","21","0","0","0","21","21","21","21","Sun Sep 20 12:44:37 2020","1500","The main experiment item","yes","FlankerTask21.osexp","C:/Users/Colton/Desktop","no","mono","no","18","no","white","no","yes","768","psycho","21","21","C:/Users/Colton/Desktop/CS-subject-1.csv","psycho","Lentiform Loewenfeld","3.3.3","0","h","NA","s","NA","NA","h","426.4762999955565","NA","10505.749200005084","NA","NA","426.4762999955565","2","psycho","1024","2","48000","-16","experiment","HHSHH","1","odd","62436.23029999435","23371.380500029773","NA","NA","30179.99600013718","12834.953000070527","NA","NA","63743.77020006068","12862.06499999389","NA","NA","63852.239600149915","64281.390300020576","63734.047200065106","63851.80200007744","Flanker Task 2.1","20","9572.195699438453","22","yes","1024"
"91.30434782608695","91.30434782608695","431.87365649551475","431.87365649551475","black","psycho","psycho","psycho","0","congruent","uniform","1","undefined","1","h","22","0","0","0","22","0","22","0","22","0","0","0","22","22","22","22","Sun Sep 20 12:44:37 2020","1500","The main experiment item","yes","FlankerTask21.osexp","C:/Users/Colton/Desktop","no","mono","no","18","no","white","no","yes","768","psycho","22","22","C:/Users/Colton/Desktop/CS-subject-1.csv","psycho","Lentiform Loewenfeld","3.3.3","0","h","NA","s","NA","NA","h","360.898399958387","NA","10505.749200005084","NA","NA","360.898399958387","2","psycho","1024","2","48000","-16","experiment","HHHHH","1","odd","64835.74669994414","23371.380500029773","NA","NA","64327.00269995257","12834.953000070527","NA","NA","66097.245400073","12862.06499999389","NA","NA","66204.3364001438","66567.81539996155","66089.37770011835","66203.91379995272","Flanker Task 2.1","21","9933.09409939684","23","yes","1024"
"91.66666666666667","91.66666666666667","434.0376333081319","434.0376333081319","black","psycho","psycho","psycho","0","incongruent","uniform","1","undefined","1","h","23","0","0","0","23","0","23","0","23","0","0","0","23","23","23","23","Sun Sep 20 12:44:37 2020","1500","The main experiment item","yes","FlankerTask21.osexp","C:/Users/Colton/Desktop","no","mono","no","18","no","white","no","yes","768","psycho","23","23","C:/Users/Colton/Desktop/CS-subject-1.csv","psycho","Lentiform Loewenfeld","3.3.3","0","h","NA","s","NA","NA","h","483.8090999983251","NA","10505.749200005084","NA","NA","483.8090999983251","2","psycho","1024","2","48000","-16","experiment","SSHSS","1","odd","66625.76990015805","23371.380500029773","NA","NA","64327.00269995257","12834.953000070527","NA","NA","67902.67090010457","12862.06499999389","NA","NA","68009.48160002008","68495.85820012726","67895.6456000451","68009.03129996732","Flanker Task 2.1","22","10416.903199395165","24","yes","1024"
"92","92","434.1764239780605","434.1764239780605","black","psycho","psycho","psycho","0","congruent","uniform","1","undefined","1","s","24","0","0","0","24","0","24","0","24","0","0","0","24","24","24","24","Sun Sep 20 12:44:37 2020","1500","The main experiment item","yes","FlankerTask21.osexp","C:/Users/Colton/Desktop","no","mono","no","18","no","white","no","yes","768","psycho","24","24","C:/Users/Colton/Desktop/CS-subject-1.csv","psycho","Lentiform Loewenfeld","3.3.3","0","s","NA","s","NA","NA","s","437.50740005634725","NA","10505.749200005084","NA","NA","437.50740005634725","2","psycho","1024","2","48000","-16","experiment","SSSSS","1","odd","68544.99780014157","23371.380500029773","NA","NA","64327.00269995257","12834.953000070527","NA","NA","69830.5283000227","12862.06499999389","NA","NA","69938.1784000434","70378.29919997603","69822.10090011358","69937.64420016669","Flanker Task 2.1","23","10854.410599451512","25","yes","1024"
"92.3076923076923","92.3076923076923","431.59618459713573","431.59618459713573","black","psycho","psycho","psycho","0","congruent","uniform","1","undefined","1","s","25","0","0","0","25","0","25","0","25","0","0","0","25","25","25","25","Sun Sep 20 12:44:37 2020","1500","The main experiment item","yes","FlankerTask21.osexp","C:/Users/Colton/Desktop","no","mono","no","18","no","white","no","yes","768","psycho","25","25","C:/Users/Colton/Desktop/CS-subject-1.csv","psycho","Lentiform Loewenfeld","3.3.3","0","s","NA","s","NA","NA","s","367.09020007401705","NA","10505.749200005084","NA","NA","367.09020007401705","2","psycho","1024","2","48000","-16","experiment","SSSSS","1","odd","70433.08610003442","23371.380500029773","NA","NA","64327.00269995257","12834.953000070527","NA","NA","71700.42799995281","12862.06499999389","NA","NA","71807.14639998041","72176.47980013862","71693.45230003819","71806.76960013807","Flanker Task 2.1","24","11221.50079952553","26","yes","1024"
"92.5925925925926","92.5925925925926","429.46954072384096","429.46954072384096","black","psycho","psycho","psycho","0","incongruent","uniform","1","undefined","1","h","26","0","0","0","26","0","26","0","26","0","0","0","26","26","26","26","Sun Sep 20 12:44:37 2020","1500","The main experiment item","yes","FlankerTask21.osexp","C:/Users/Colton/Desktop","no","mono","no","18","no","white","no","yes","768","psycho","26","26","C:/Users/Colton/Desktop/CS-subject-1.csv","psycho","Lentiform Loewenfeld","3.3.3","0","h","NA","s","NA","NA","h","374.17680001817644","NA","10505.749200005084","NA","NA","374.17680001817644","2","psycho","1024","2","48000","-16","experiment","SSHSS","1","odd","72291.44109995104","23371.380500029773","NA","NA","64327.00269995257","12834.953000070527","NA","NA","73562.79970007017","12862.06499999389","NA","NA","73669.76650012657","74046.80540016852","73553.93270007335","73669.39399996772","Flanker Task 2.1","25","11595.677599543706","27","yes","1024"
"92.85714285714286","92.85714285714286","429.8450535612314","429.8450535612314","black","psycho","psycho","psycho","0","incongruent","uniform","1","undefined","1","s","27","0","0","0","27","0","27","0","27","0","0","0","27","27","27","27","Sun Sep 20 12:44:37 2020","1500","The main experiment item","yes","FlankerTask21.osexp","C:/Users/Colton/Desktop","no","mono","no","18","no","white","no","yes","768","psycho","27","27","C:/Users/Colton/Desktop/CS-subject-1.csv","psycho","Lentiform Loewenfeld","3.3.3","0","s","NA","s","NA","NA","s","439.98390017077327","NA","10505.749200005084","NA","NA","439.98390017077327","2","psycho","1024","2","48000","-16","experiment","HHSHH","1","odd","74093.16430008039","23371.380500029773","NA","NA","64327.00269995257","12834.953000070527","NA","NA","75390.77900000848","12862.06499999389","NA","NA","75499.20039996505","75941.87850016169","75381.78779999726","75498.79260011949","Flanker Task 2.1","26","12035.661499714479","28","yes","1024"
"93.10344827586206","93.10344827586206","431.47902067847036","431.47902067847036","black","psycho","psycho","psycho","0","incongruent","uniform","1","undefined","1","h","28","0","0","0","28","0","28","0","28","0","0","0","28","28","28","28","Sun Sep 20 12:44:37 2020","1500","The main experiment item","yes","FlankerTask21.osexp","C:/Users/Colton/Desktop","no","mono","no","18","no","white","no","yes","768","psycho","28","28","C:/Users/Colton/Desktop/CS-subject-1.csv","psycho","Lentiform Loewenfeld","3.3.3","0","h","NA","s","NA","NA","h","477.2300999611616","NA","10505.749200005084","NA","NA","477.2300999611616","2","psycho","1024","2","48000","-16","experiment","SSHSS","1","odd","76004.22720005736","23371.380500029773","NA","NA","64327.00269995257","12834.953000070527","NA","NA","77302.32900008559","12862.06499999389","NA","NA","77410.65130010247","77890.83350007422","77293.02170011215","77410.20649997517","Flanker Task 2.1","27","12512.89159967564","29","yes","1024"
"93.33333333333333","93.33333333333333","429.1188166554396","429.1188166554396","black","psycho","psycho","psycho","0","congruent","uniform","1","undefined","1","h","29","0","0","0","29","0","29","0","29","0","0","0","29","29","29","29","Sun Sep 20 12:44:37 2020","1500","The main experiment item","yes","FlankerTask21.osexp","C:/Users/Colton/Desktop","no","mono","no","18","no","white","no","yes","768","psycho","29","29","C:/Users/Colton/Desktop/CS-subject-1.csv","psycho","Lentiform Loewenfeld","3.3.3","0","h","NA","s","NA","NA","h","360.6728999875486","NA","10505.749200005084","NA","NA","360.6728999875486","2","psycho","1024","2","48000","-16","experiment","HHHHH","1","odd","78015.07090008818","23371.380500029773","NA","NA","64327.00269995257","12834.953000070527","NA","NA","79327.41030002944","12862.06499999389","NA","NA","79436.38109997846","79799.81520003639","79317.79520004056","79435.91200001538","Flanker Task 2.1","28","12873.564499663189","30","yes","1024"
"93.54838709677419","93.54838709677419","429.2865741787659","429.2865741787659","black","psycho","psycho","psycho","0","congruent","uniform","1","undefined","1","s","30","0","0","0","30","0","30","0","30","0","0","0","30","30","30","30","Sun Sep 20 12:44:37 2020","1500","The main experiment item","yes","FlankerTask21.osexp","C:/Users/Colton/Desktop","no","mono","no","18","no","white","no","yes","768","psycho","30","30","C:/Users/Colton/Desktop/CS-subject-1.csv","psycho","Lentiform Loewenfeld","3.3.3","0","s","NA","s","NA","NA","s","434.31929987855256","NA","10505.749200005084","NA","NA","434.31929987855256","2","psycho","1024","2","48000","-16","experiment","SSSSS","1","odd","79844.0650999546","23371.380500029773","NA","NA","64327.00269995257","12834.953000070527","NA","NA","81146.5672000777","12862.06499999389","NA","NA","81255.92260016128","81693.20290000178","81137.2321001254","81255.46719995327","Flanker Task 2.1","29","13307.883799541742","31","yes","1024"
"93.75","93.75","427.3126874832087","427.3126874832087","black","psycho","psycho","psycho","0","congruent","uniform","1","undefined","1","h","31","0","0","0","31","0","31","0","31","0","0","0","31","31","31","31","Sun Sep 20 12:44:37 2020","1500","The main experiment item","yes","FlankerTask21.osexp","C:/Users/Colton/Desktop","no","mono","no","18","no","white","no","yes","768","psycho","31","31","C:/Users/Colton/Desktop/CS-subject-1.csv","psycho","Lentiform Loewenfeld","3.3.3","0","h","NA","s","NA","NA","h","366.1221999209374","NA","10505.749200005084","NA","NA","366.1221999209374","2","psycho","1024","2","48000","-16","experiment","HHHHH","1","odd","81770.18869994208","23371.380500029773","NA","NA","64327.00269995257","12834.953000070527","NA","NA","83072.84600008279","12862.06499999389","NA","NA","83180.61190005392","83549.6012000367","83061.83580006473","83180.20800012164","Flanker Task 2.1","30","13674.005999462679","32","yes","1024"
"93.93939393939394","93.93939393939394","428.209927257602","428.209927257602","black","psycho","psycho","psycho","0","incongruent","uniform","1","undefined","1","s","32","0","0","0","32","0","32","0","32","0","0","0","32","32","32","32","Sun Sep 20 12:44:37 2020","1500","The main experiment item","yes","FlankerTask21.osexp","C:/Users/Colton/Desktop","no","mono","no","18","no","white","no","yes","768","psycho","32","32","C:/Users/Colton/Desktop/CS-subject-1.csv","psycho","Lentiform Loewenfeld","3.3.3","0","s","NA","s","NA","NA","s","456.9216000381857","NA","10505.749200005084","NA","NA","456.9216000381857","2","psycho","1024","2","48000","-16","experiment","HHSHH","1","odd","83609.79790007696","23371.380500029773","NA","NA","64327.00269995257","12834.953000070527","NA","NA","84952.97450013459","12862.06499999389","NA","NA","85061.80100003257","85521.66109997779","84941.29110011272","85061.36570009403","Flanker Task 2.1","31","14130.927599500865","33","yes","1024"
"94.11764705882354","94.11764705882354","425.42748527793105","425.42748527793105","black","psycho","psycho","psycho","0","incongruent","uniform","1","undefined","1","h","33","0","0","0","33","0","33","0","33","0","0","0","33","33","33","33","Sun Sep 20 12:44:37 2020","1500","The main experiment item","yes","FlankerTask21.osexp","C:/Users/Colton/Desktop","no","mono","no","18","no","white","no","yes","768","psycho","33","33","C:/Users/Colton/Desktop/CS-subject-1.csv","psycho","Lentiform Loewenfeld","3.3.3","0","h","NA","s","NA","NA","h","333.60689994879067","NA","10505.749200005084","NA","NA","333.60689994879067","2","psycho","1024","2","48000","-16","experiment","SSHSS","1","odd","85626.26910000108","23371.380500029773","NA","NA","64327.00269995257","12834.953000070527","NA","NA","86941.13430008292","12862.06499999389","NA","NA","87049.3743000552","87385.8619001694","86931.8947000429","87048.94230002537","Flanker Task 2.1","32","14464.534499449655","34","yes","1024"
"94.28571428571429","94.28571428571429","421.7238571228726","421.7238571228726","black","psycho","psycho","psycho","0","incongruent","uniform","1","undefined","1","s","34","0","0","0","34","0","34","0","34","0","0","0","34","34","34","34","Sun Sep 20 12:44:37 2020","1500","The main experiment item","yes","FlankerTask21.osexp","C:/Users/Colton/Desktop","no","mono","no","18","no","white","no","yes","768","psycho","34","34","C:/Users/Colton/Desktop/CS-subject-1.csv","psycho","Lentiform Loewenfeld","3.3.3","0","s","NA","s","NA","NA","s","295.8004998508841","NA","10505.749200005084","NA","NA","295.8004998508841","2","psycho","1024","2","48000","-16","experiment","HHSHH","1","odd","87449.14140016772","23371.380500029773","NA","NA","64327.00269995257","12834.953000070527","NA","NA","88756.73340004869","12862.06499999389","NA","NA","88864.82030013576","89164.27320009097","88747.25500005297","88864.36900007538","Flanker Task 2.1","33","14760.33499930054","35","yes","1024"
"94.44444444444444","94.44444444444444","417.3726888709805","417.3726888709805","black","psycho","psycho","psycho","0","congruent","uniform","1","undefined","1","h","35","0","0","0","35","0","35","0","35","0","0","0","35","35","35","35","Sun Sep 20 12:44:37 2020","1500","The main experiment item","yes","FlankerTask21.osexp","C:/Users/Colton/Desktop","no","mono","no","18","no","white","no","yes","768","psycho","35","35","C:/Users/Colton/Desktop/CS-subject-1.csv","psycho","Lentiform Loewenfeld","3.3.3","0","h","NA","s","NA","NA","h","265.0818000547588","NA","10505.749200005084","NA","NA","265.0818000547588","2","psycho","1024","2","48000","-16","experiment","HHHHH","1","odd","89205.1987000741","23371.380500029773","NA","NA","64327.00269995257","12834.953000070527","NA","NA","90552.35849996097","12862.06499999389","NA","NA","90662.37280005589","90931.05180002749","90541.34250013158","90661.88540006988","Flanker Task 2.1","34","15025.416799355298","36","yes","1024"
"94.5945945945946","94.5945945945946","414.9727243112048","414.9727243112048","black","psycho","psycho","psycho","0","congruent","uniform","1","undefined","1","h","36","0","0","0","36","0","36","0","36","0","0","0","36","36","36","36","Sun Sep 20 12:44:37 2020","1500","The main experiment item","yes","FlankerTask21.osexp","C:/Users/Colton/Desktop","no","mono","no","18","no","white","no","yes","768","psycho","36","36","C:/Users/Colton/Desktop/CS-subject-1.csv","psycho","Lentiform Loewenfeld","3.3.3","0","h","NA","s","NA","NA","h","328.5740001592785","NA","10505.749200005084","NA","NA","328.5740001592785","2","psycho","1024","2","48000","-16","experiment","HHHHH","1","odd","90971.01460001431","23371.380500029773","NA","NA","64327.00269995257","12834.953000070527","NA","NA","92314.52280003577","12862.06499999389","NA","NA","92423.3574999962","92755.39930001833","92304.80880010873","92422.93490003794","Flanker Task 2.1","35","15353.990799514577","37","yes","1024"
"94.73684210526316","94.73684210526316","413.0206341965516","413.0206341965516","black","psycho","psycho","psycho","0","congruent","uniform","1","undefined","1","h","37","0","0","0","37","0","37","0","37","0","0","0","37","37","37","37","Sun Sep 20 12:44:37 2020","1500","The main experiment item","yes","FlankerTask21.osexp","C:/Users/Colton/Desktop","no","mono","no","18","no","white","no","yes","768","psycho","37","37","C:/Users/Colton/Desktop/CS-subject-1.csv","psycho","Lentiform Loewenfeld","3.3.3","0","h","NA","s","NA","NA","h","340.79329995438457","NA","10505.749200005084","NA","NA","340.79329995438457","2","psycho","1024","2","48000","-16","experiment","HHHHH","1","odd","92793.28400013037","23371.380500029773","NA","NA","64327.00269995257","12834.953000070527","NA","NA","94110.16850010492","12862.06499999389","NA","NA","94219.02230009437","94562.62550014071","94102.44240006432","94218.5305999592","Flanker Task 2.1","36","15694.784099468961","38","yes","1024"
"92.3076923076923","92.3076923076923","410.28553332226016","410.28553332226016","black","psycho","psycho","psycho","0","incongruent","uniform","0","undefined","0","h","38","0","0","0","38","0","38","0","38","0","0","0","38","38","38","38","Sun Sep 20 12:44:37 2020","1500","The main experiment item","yes","FlankerTask21.osexp","C:/Users/Colton/Desktop","no","mono","no","18","no","white","no","yes","768","psycho","38","38","C:/Users/Colton/Desktop/CS-subject-1.csv","psycho","Lentiform Loewenfeld","3.3.3","0","s","NA","s","NA","NA","s","306.3517000991851","NA","10505.749200005084","NA","NA","306.3517000991851","2","psycho","1024","2","48000","-16","experiment","SSHSS","1","odd","94659.86240003258","23371.380500029773","NA","NA","64327.00269995257","12834.953000070527","NA","NA","95986.39170010574","12862.06499999389","NA","NA","96097.03569998965","96406.5450001508","95976.67729994282","96096.56279999763","Flanker Task 2.1","36","16001.135799568146","39","yes","1024"
"92.5","92.5","410.2255324891303","410.2255324891303","black","psycho","psycho","psycho","0","incongruent","uniform","1","undefined","1","s","39","0","0","0","39","0","39","0","39","0","0","0","39","39","39","39","Sun Sep 20 12:44:37 2020","1500","The main experiment item","yes","FlankerTask21.osexp","C:/Users/Colton/Desktop","no","mono","no","18","no","white","no","yes","768","psycho","39","39","C:/Users/Colton/Desktop/CS-subject-1.csv","psycho","Lentiform Loewenfeld","3.3.3","0","s","NA","s","NA","NA","s","407.88549999706447","NA","10505.749200005084","NA","NA","407.88549999706447","2","psycho","1024","2","48000","-16","experiment","HHSHH","1","odd","96968.02720008418","23371.380500029773","NA","NA","96448.44890013337","12834.953000070527","NA","NA","98288.20560011081","12862.06499999389","NA","NA","98397.29280001484","98808.18510008976","98277.85810013302","98396.81720011868","Flanker Task 2.1","37","16409.02129956521","40","yes","1024"
"92.6829268292683","92.6829268292683","411.35721950133035","411.35721950133035","black","psycho","psycho","psycho","0","incongruent","uniform","1","undefined","1","h","40","0","0","0","40","0","40","0","40","0","0","0","40","40","40","40","Sun Sep 20 12:44:37 2020","1500","The main experiment item","yes","FlankerTask21.osexp","C:/Users/Colton/Desktop","no","mono","no","18","no","white","no","yes","768","psycho","40","40","C:/Users/Colton/Desktop/CS-subject-1.csv","psycho","Lentiform Loewenfeld","3.3.3","0","h","NA","s","NA","NA","h","456.62469998933375","NA","10505.749200005084","NA","NA","456.62469998933375","2","psycho","1024","2","48000","-16","experiment","SSHSS","1","odd","98849.77680002339","23371.380500029773","NA","NA","96448.44890013337","12834.953000070527","NA","NA","100147.55410002545","12862.06499999389","NA","NA","100255.31579996459","100715.21000005305","100139.02440015227","100254.8938000109","Flanker Task 2.1","38","16865.645999554545","41","yes","1024"
"92.85714285714286","92.85714285714286","409.3350452271157","409.3350452271157","black","psycho","psycho","psycho","0","congruent","uniform","1","undefined","1","h","41","0","0","0","41","0","41","0","41","0","0","0","41","41","41","41","Sun Sep 20 12:44:37 2020","1500","The main experiment item","yes","FlankerTask21.osexp","C:/Users/Colton/Desktop","no","mono","no","18","no","white","no","yes","768","psycho","41","41","C:/Users/Colton/Desktop/CS-subject-1.csv","psycho","Lentiform Loewenfeld","3.3.3","0","h","NA","s","NA","NA","h","326.42589998431504","NA","10505.749200005084","NA","NA","326.42589998431504","2","psycho","1024","2","48000","-16","experiment","HHHHH","1","odd","100793.03980013356","23371.380500029773","NA","NA","96448.44890013337","12834.953000070527","NA","NA","102080.4034001194","12862.06499999389","NA","NA","102188.55229998007","102517.83350016922","102072.33400014229","102188.13770008273","Flanker Task 2.1","39","17192.07189953886","42","yes","1024"
"93.02325581395348","93.02325581395348","411.75679998948823","411.75679998948823","black","psycho","psycho","psycho","0","incongruent","uniform","1","undefined","1","h","42","0","0","0","42","0","42","0","42","0","0","0","42","42","42","42","Sun Sep 20 12:44:37 2020","1500","The main experiment item","yes","FlankerTask21.osexp","C:/Users/Colton/Desktop","no","mono","no","18","no","white","no","yes","768","psycho","42","42","C:/Users/Colton/Desktop/CS-subject-1.csv","psycho","Lentiform Loewenfeld","3.3.3","0","h","NA","s","NA","NA","h","513.4705000091344","NA","10505.749200005084","NA","NA","513.4705000091344","2","psycho","1024","2","48000","-16","experiment","SSHSS","1","odd","102559.02389995754","23371.380500029773","NA","NA","96448.44890013337","12834.953000070527","NA","NA","103820.03329996951","12862.06499999389","NA","NA","103928.24580008164","104444.41130012274","103811.9876999408","103927.84330016002","Flanker Task 2.1","40","17705.542399547994","43","yes","1024"
"93.18181818181819","93.18181818181819","410.9323727157475","410.9323727157475","black","psycho","psycho","psycho","0","incongruent","uniform","1","undefined","1","s","43","0","0","0","43","0","43","0","43","0","0","0","43","43","43","43","Sun Sep 20 12:44:37 2020","1500","The main experiment item","yes","FlankerTask21.osexp","C:/Users/Colton/Desktop","no","mono","no","18","no","white","no","yes","768","psycho","43","43","C:/Users/Colton/Desktop/CS-subject-1.csv","psycho","Lentiform Loewenfeld","3.3.3","0","s","NA","s","NA","NA","s","375.4819999448955","NA","10505.749200005084","NA","NA","375.4819999448955","2","psycho","1024","2","48000","-16","experiment","HHSHH","1","odd","104481.17769998498","23371.380500029773","NA","NA","96448.44890013337","12834.953000070527","NA","NA","105745.29920006171","12862.06499999389","NA","NA","105851.98540007696","106230.66600016318","105737.2963000089","105851.5224000439","Flanker Task 2.1","41","18081.02439949289","44","yes","1024"
"93.33333333333333","93.33333333333333","413.9795044333571","413.9795044333571","black","psycho","psycho","psycho","0","congruent","uniform","1","undefined","1","s","44","0","0","0","44","0","44","0","44","0","0","0","44","44","44","44","Sun Sep 20 12:44:37 2020","1500","The main experiment item","yes","FlankerTask21.osexp","C:/Users/Colton/Desktop","no","mono","no","18","no","white","no","yes","768","psycho","44","44","C:/Users/Colton/Desktop/CS-subject-1.csv","psycho","Lentiform Loewenfeld","3.3.3","0","s","NA","s","NA","NA","s","548.0533000081778","NA","10505.749200005084","NA","NA","548.0533000081778","2","psycho","1024","2","48000","-16","experiment","SSSSS","1","odd","106270.82890016027","23371.380500029773","NA","NA","96448.44890013337","12834.953000070527","NA","NA","107521.90329995938","12862.06499999389","NA","NA","107628.39660001919","108179.66180015355","107514.48750006966","107627.92930006981","Flanker Task 2.1","42","18629.077699501067","45","yes","1024"
"93.47826086956522","93.47826086956522","413.42847390383804","413.42847390383804","black","psycho","psycho","psycho","0","congruent","uniform","1","undefined","1","h","45","0","0","0","45","0","45","0","45","0","0","0","45","45","45","45","Sun Sep 20 12:44:37 2020","1500","The main experiment item","yes","FlankerTask21.osexp","C:/Users/Colton/Desktop","no","mono","no","18","no","white","no","yes","768","psycho","45","45","C:/Users/Colton/Desktop/CS-subject-1.csv","psycho","Lentiform Loewenfeld","3.3.3","0","h","NA","s","NA","NA","h","388.6321000754833","NA","10505.749200005084","NA","NA","388.6321000754833","2","psycho","1024","2","48000","-16","experiment","HHHHH","1","odd","108214.14500009269","23371.380500029773","NA","NA","96448.44890013337","12834.953000070527","NA","NA","109471.04310011491","12862.06499999389","NA","NA","109577.39059999585","109968.97820010781","109462.91540004313","109576.99560001493","Flanker Task 2.1","43","19017.70979957655","46","yes","1024"
"93.61702127659575","93.61702127659575","411.91625530692806","411.91625530692806","black","psycho","psycho","psycho","0","congruent","uniform","1","undefined","1","h","46","0","0","0","46","0","46","0","46","0","0","0","46","46","46","46","Sun Sep 20 12:44:37 2020","1500","The main experiment item","yes","FlankerTask21.osexp","C:/Users/Colton/Desktop","no","mono","no","18","no","white","no","yes","768","psycho","46","46","C:/Users/Colton/Desktop/CS-subject-1.csv","psycho","Lentiform Loewenfeld","3.3.3","0","h","NA","s","NA","NA","h","342.3541998490691","NA","10505.749200005084","NA","NA","342.3541998490691","2","psycho","1024","2","48000","-16","experiment","HHHHH","1","odd","110003.25209996663","23371.380500029773","NA","NA","96448.44890013337","12834.953000070527","NA","NA","111282.13740000501","12862.06499999389","NA","NA","111388.84280016646","111734.13560003974","111273.31810002215","111388.46120005473","Flanker Task 2.1","44","19360.06399942562","47","yes","1024"
"93.75","93.75","411.4256770699285","411.4256770699285","black","psycho","psycho","psycho","0","incongruent","uniform","1","undefined","1","h","47","0","0","0","47","0","47","0","47","0","0","0","47","47","47","47","Sun Sep 20 12:44:37 2020","1500","The main experiment item","yes","FlankerTask21.osexp","C:/Users/Colton/Desktop","no","mono","no","18","no","white","no","yes","768","psycho","47","47","C:/Users/Colton/Desktop/CS-subject-1.csv","psycho","Lentiform Loewenfeld","3.3.3","0","h","NA","s","NA","NA","h","388.368499930948","NA","10505.749200005084","NA","NA","388.368499930948","2","psycho","1024","2","48000","-16","experiment","SSHSS","1","odd","111770.02350008115","23371.380500029773","NA","NA","96448.44890013337","12834.953000070527","NA","NA","113017.2717999667","12862.06499999389","NA","NA","113123.79910005257","113515.58440015651","113010.02559997141","113123.34790010937","Flanker Task 2.1","45","19748.432499356568","48","yes","1024"
"93.87755102040816","93.87755102040816","410.88947549709405","410.88947549709405","black","psycho","psycho","psycho","0","incongruent","uniform","1","undefined","1","h","48","0","0","0","48","0","48","0","48","0","0","0","48","48","48","48","Sun Sep 20 12:44:37 2020","1500","The main experiment item","yes","FlankerTask21.osexp","C:/Users/Colton/Desktop","no","mono","no","18","no","white","no","yes","768","psycho","48","48","C:/Users/Colton/Desktop/CS-subject-1.csv","psycho","Lentiform Loewenfeld","3.3.3","0","h","NA","s","NA","NA","h","385.1518000010401","NA","10505.749200005084","NA","NA","385.1518000010401","2","psycho","1024","2","48000","-16","experiment","SSHSS","1","odd","113547.87670006044","23371.380500029773","NA","NA","96448.44890013337","12834.953000070527","NA","NA","114809.71579998732","12862.06499999389","NA","NA","114916.99380008504","115305.40419998579","114801.55310011469","114916.54699994251","Flanker Task 2.1","46","20133.584299357608","49","yes","1024"
"94","94","411.5217059850693","411.5217059850693","black","psycho","psycho","psycho","0","incongruent","uniform","1","undefined","1","s","49","0","0","0","49","0","49","0","49","0","0","0","49","49","49","49","Sun Sep 20 12:44:37 2020","1500","The main experiment item","yes","FlankerTask21.osexp","C:/Users/Colton/Desktop","no","mono","no","18","no","white","no","yes","768","psycho","49","49","C:/Users/Colton/Desktop/CS-subject-1.csv","psycho","Lentiform Loewenfeld","3.3.3","0","s","NA","s","NA","NA","s","442.5009998958558","NA","10505.749200005084","NA","NA","442.5009998958558","2","psycho","1024","2","48000","-16","experiment","HHSHH","1","odd","115365.73960003443","23371.380500029773","NA","NA","96448.44890013337","12834.953000070527","NA","NA","116626.49739999324","12862.06499999389","NA","NA","116734.45200012065","117180.16420002095","116618.71469998732","116734.04440004379","Flanker Task 2.1","47","20576.085299253464","50","yes","1024"
"94.11764705882354","94.11764705882354","412.11751763088006","412.11751763088006","black","psycho","psycho","psycho","0","incongruent","uniform","1","undefined","1","h","50","0","0","0","50","0","50","0","50","0","0","0","50","50","50","50","Sun Sep 20 12:44:37 2020","1500","The main experiment item","yes","FlankerTask21.osexp","C:/Users/Colton/Desktop","no","mono","no","18","no","white","no","yes","768","psycho","50","50","C:/Users/Colton/Desktop/CS-subject-1.csv","psycho","Lentiform Loewenfeld","3.3.3","0","h","NA","s","NA","NA","h","441.9080999214202","NA","10505.749200005084","NA","NA","441.9080999214202","2","psycho","1024","2","48000","-16","experiment","SSHSS","1","odd","117221.4770000428","23371.380500029773","NA","NA","96448.44890013337","12834.953000070527","NA","NA","118488.84330014698","12862.06499999389","NA","NA","118595.41040007025","119040.22720013745","118480.4720999673","118595.0448999647","Flanker Task 2.1","48","21017.993399174884","51","yes","1024"
"94.23076923076923","94.23076923076923","412.9573230613739","412.9573230613739","black","psycho","psycho","psycho","0","incongruent","uniform","1","undefined","1","s","51","0","0","0","51","0","51","0","51","0","0","0","51","51","51","51","Sun Sep 20 12:44:37 2020","1500","The main experiment item","yes","FlankerTask21.osexp","C:/Users/Colton/Desktop","no","mono","no","18","no","white","no","yes","768","psycho","51","51","C:/Users/Colton/Desktop/CS-subject-1.csv","psycho","Lentiform Loewenfeld","3.3.3","0","s","NA","s","NA","NA","s","455.78740001656115","NA","10505.749200005084","NA","NA","455.78740001656115","2","psycho","1024","2","48000","-16","experiment","HHSHH","1","odd","119156.41580009833","23371.380500029773","NA","NA","96448.44890013337","12834.953000070527","NA","NA","120418.95389999263","12862.06499999389","NA","NA","120527.11330004968","120985.89819995686","120410.00000014901","120526.64589998312","Flanker Task 2.1","49","21473.780799191445","52","yes","1024"
"94.33962264150944","94.33962264150944","413.8253905529262","413.8253905529262","black","psycho","psycho","psycho","0","incongruent","uniform","1","undefined","1","s","52","0","0","0","52","0","52","0","52","0","0","0","52","52","52","52","Sun Sep 20 12:44:37 2020","1500","The main experiment item","yes","FlankerTask21.osexp","C:/Users/Colton/Desktop","no","mono","no","18","no","white","no","yes","768","psycho","52","52","C:/Users/Colton/Desktop/CS-subject-1.csv","psycho","Lentiform Loewenfeld","3.3.3","0","s","NA","s","NA","NA","s","458.9649001136422","NA","10505.749200005084","NA","NA","458.9649001136422","2","psycho","1024","2","48000","-16","experiment","HHSHH","1","odd","121077.5210999418","23371.380500029773","NA","NA","96448.44890013337","12834.953000070527","NA","NA","122351.43070016056","12862.06499999389","NA","NA","122458.29740003683","122920.49379996024","122342.92710013688","122457.8693001531","Flanker Task 2.1","50","21932.745699305087","53","yes","1024"
"94.44444444444444","94.44444444444444","414.06620368878873","414.06620368878873","black","psycho","psycho","psycho","0","incongruent","uniform","1","undefined","1","h","53","0","0","0","53","0","53","0","53","0","0","0","53","53","53","53","Sun Sep 20 12:44:37 2020","1500","The main experiment item","yes","FlankerTask21.osexp","C:/Users/Colton/Desktop","no","mono","no","18","no","white","no","yes","768","psycho","53","53","C:/Users/Colton/Desktop/CS-subject-1.csv","psycho","Lentiform Loewenfeld","3.3.3","0","h","NA","s","NA","NA","h","426.8292998895049","NA","10505.749200005084","NA","NA","426.8292998895049","2","psycho","1024","2","48000","-16","experiment","SSHSS","1","odd","122982.69500001334","23371.380500029773","NA","NA","96448.44890013337","12834.953000070527","NA","NA","124244.96409995481","12862.06499999389","NA","NA","124352.93100005947","124783.16300013103","124236.1010001041","124352.4625999853","Flanker Task 2.1","51","22359.574999194592","54","yes","1024"
"92.72727272727273","92.72727272727273","417.5542108926245","417.5542108926245","black","psycho","psycho","psycho","0","congruent","uniform","0","undefined","0","h","54","0","0","0","54","0","54","0","54","0","0","0","54","54","54","54","Sun Sep 20 12:44:37 2020","1500","The main experiment item","yes","FlankerTask21.osexp","C:/Users/Colton/Desktop","no","mono","no","18","no","white","no","yes","768","psycho","54","54","C:/Users/Colton/Desktop/CS-subject-1.csv","psycho","Lentiform Loewenfeld","3.3.3","0","s","NA","s","NA","NA","s","605.9065998997539","NA","10505.749200005084","NA","NA","605.9065998997539","2","psycho","1024","2","48000","-16","experiment","HHHHH","1","odd","124838.73039996251","23371.380500029773","NA","NA","96448.44890013337","12834.953000070527","NA","NA","126116.7040001601","12862.06499999389","NA","NA","126224.69320008531","126834.30039999075","126108.14000014216","126224.22850015573","Flanker Task 2.1","51","22965.481599094346","55","yes","1024"
"92.85714285714286","92.85714285714286","418.922280339757","418.922280339757","black","psycho","psycho","psycho","0","congruent","uniform","1","undefined","1","h","55","0","0","0","55","0","55","0","55","0","0","0","55","55","55","55","Sun Sep 20 12:44:37 2020","1500","The main experiment item","yes","FlankerTask21.osexp","C:/Users/Colton/Desktop","no","mono","no","18","no","white","no","yes","768","psycho","55","55","C:/Users/Colton/Desktop/CS-subject-1.csv","psycho","Lentiform Loewenfeld","3.3.3","0","h","NA","s","NA","NA","h","494.16609993204474","NA","10505.749200005084","NA","NA","494.16609993204474","2","psycho","1024","2","48000","-16","experiment","HHHHH","1","odd","127382.70519999787","23371.380500029773","NA","NA","126871.38130003586","12834.953000070527","NA","NA","128667.45289997198","12862.06499999389","NA","NA","128774.55330011435","129272.23230013624","128657.93949994259","128774.17160011828","Flanker Task 2.1","52","23459.64769902639","56","yes","1024"
"92.98245614035088","92.98245614035088","417.5881420899379","417.5881420899379","black","psycho","psycho","psycho","0","incongruent","uniform","1","undefined","1","h","56","0","0","0","56","0","56","0","56","0","0","0","56","56","56","56","Sun Sep 20 12:44:37 2020","1500","The main experiment item","yes","FlankerTask21.osexp","C:/Users/Colton/Desktop","no","mono","no","18","no","white","no","yes","768","psycho","56","56","C:/Users/Colton/Desktop/CS-subject-1.csv","psycho","Lentiform Loewenfeld","3.3.3","0","h","NA","s","NA","NA","h","342.87640010006726","NA","10505.749200005084","NA","NA","342.87640010006726","2","psycho","1024","2","48000","-16","experiment","SSHSS","1","odd","129314.39840001985","23371.380500029773","NA","NA","126871.38130003586","12834.953000070527","NA","NA","130590.34650004469","12862.06499999389","NA","NA","130698.41399998404","131045.01749994233","130582.71720004268","130698.03840015084","Flanker Task 2.1","53","23802.524099126458","57","yes","1024"
"93.10344827586206","93.10344827586206","415.7014155021772","415.7014155021772","black","psycho","psycho","psycho","0","congruent","uniform","1","undefined","1","s","57","0","0","0","57","0","57","0","57","0","0","0","57","57","57","57","Sun Sep 20 12:44:37 2020","1500","The main experiment item","yes","FlankerTask21.osexp","C:/Users/Colton/Desktop","no","mono","no","18","no","white","no","yes","768","psycho","57","57","C:/Users/Colton/Desktop/CS-subject-1.csv","psycho","Lentiform Loewenfeld","3.3.3","0","s","NA","s","NA","NA","s","308.1579999998212","NA","10505.749200005084","NA","NA","308.1579999998212","2","psycho","1024","2","48000","-16","experiment","SSSSS","1","odd","131077.79780006967","23371.380500029773","NA","NA","126871.38130003586","12834.953000070527","NA","NA","132337.12100004777","12862.06499999389","NA","NA","132444.3056001328","132756.40950002708","132328.71330017224","132443.9308999572","Flanker Task 2.1","54","24110.68209912628","58","yes","1024"
"93.22033898305085","93.22033898305085","414.8932898148768","414.8932898148768","black","psycho","psycho","psycho","0","congruent","uniform","1","undefined","1","s","58","0","0","0","58","0","58","0","58","0","0","0","58","58","58","58","Sun Sep 20 12:44:37 2020","1500","The main experiment item","yes","FlankerTask21.osexp","C:/Users/Colton/Desktop","no","mono","no","18","no","white","no","yes","768","psycho","58","58","C:/Users/Colton/Desktop/CS-subject-1.csv","psycho","Lentiform Loewenfeld","3.3.3","0","s","NA","s","NA","NA","s","368.021999951452","NA","10505.749200005084","NA","NA","368.021999951452","2","psycho","1024","2","48000","-16","experiment","SSSSS","1","odd","132792.30349999852","23371.380500029773","NA","NA","126871.38130003586","12834.953000070527","NA","NA","134076.7147000879","12862.06499999389","NA","NA","134184.0639000293","134555.82430004142","134068.45240015537","134183.67490009405","Flanker Task 2.1","55","24478.70409907773","59","yes","1024"
"93.33333333333333","93.33333333333333","413.50638831888017","413.50638831888017","black","psycho","psycho","psycho","0","congruent","uniform","1","undefined","1","s","59","0","0","0","59","0","59","0","59","0","0","0","59","59","59","59","Sun Sep 20 12:44:37 2020","1500","The main experiment item","yes","FlankerTask21.osexp","C:/Users/Colton/Desktop","no","mono","no","18","no","white","no","yes","768","psycho","59","59","C:/Users/Colton/Desktop/CS-subject-1.csv","psycho","Lentiform Loewenfeld","3.3.3","0","s","NA","s","NA","NA","s","331.6792000550777","NA","10505.749200005084","NA","NA","331.6792000550777","2","psycho","1024","2","48000","-16","experiment","SSSSS","1","odd","134594.19169998728","23371.380500029773","NA","NA","126871.38130003586","12834.953000070527","NA","NA","135842.99260005355","12862.06499999389","NA","NA","135950.34960005432","136285.4090000037","135835.28470015153","135949.89940011874","Flanker Task 2.1","56","24810.38329913281","60","yes","1024"
"93.44262295081967","93.44262295081967","411.2558147381441","411.2558147381441","black","psycho","psycho","psycho","0","congruent","uniform","1","undefined","1","s","60","0","0","0","60","0","60","0","60","0","0","0","60","60","60","60","Sun Sep 20 12:44:37 2020","1500","The main experiment item","yes","FlankerTask21.osexp","C:/Users/Colton/Desktop","no","mono","no","18","no","white","no","yes","768","psycho","60","60","C:/Users/Colton/Desktop/CS-subject-1.csv","psycho","Lentiform Loewenfeld","3.3.3","0","s","NA","s","NA","NA","s","276.2213998939842","NA","10505.749200005084","NA","NA","276.2213998939842","2","psycho","1024","2","48000","-16","experiment","SSSSS","1","odd","136325.52800001577","23371.380500029773","NA","NA","126871.38130003586","12834.953000070527","NA","NA","137589.0596001409","12862.06499999389","NA","NA","137696.64690014906","137977.11800015531","137581.16649999283","137696.16229995154","Flanker Task 2.1","57","25086.604699026793","61","yes","1024"
"93.54838709677419","93.54838709677419","409.5269499849829","409.5269499849829","black","psycho","psycho","psycho","0","congruent","uniform","1","undefined","1","s","61","0","0","0","61","0","61","0","61","0","0","0","61","61","61","61","Sun Sep 20 12:44:37 2020","1500","The main experiment item","yes","FlankerTask21.osexp","C:/Users/Colton/Desktop","no","mono","no","18","no","white","no","yes","768","psycho","61","61","C:/Users/Colton/Desktop/CS-subject-1.csv","psycho","Lentiform Loewenfeld","3.3.3","0","s","NA","s","NA","NA","s","304.06620004214346","NA","10505.749200005084","NA","NA","304.06620004214346","2","psycho","1024","2","48000","-16","experiment","SSSSS","1","odd","138158.61200005747","23371.380500029773","NA","NA","126871.38130003586","12834.953000070527","NA","NA","139442.98600009643","12862.06499999389","NA","NA","139550.92910001986","139858.59710001387","139434.57760009915","139550.4597001709","Flanker Task 2.1","58","25390.670899068937","62","yes","1024"
"92.06349206349206","92.06349206349206","408.20993331541854","408.20993331541854","black","psycho","psycho","psycho","0","congruent","uniform","0","undefined","0","h","62","0","0","0","62","0","62","0","62","0","0","0","62","62","62","62","Sun Sep 20 12:44:37 2020","1500","The main experiment item","yes","FlankerTask21.osexp","C:/Users/Colton/Desktop","no","mono","no","18","no","white","no","yes","768","psycho","62","62","C:/Users/Colton/Desktop/CS-subject-1.csv","psycho","Lentiform Loewenfeld","3.3.3","0","s","NA","s","NA","NA","s","326.55489980243146","NA","10505.749200005084","NA","NA","326.55489980243146","2","psycho","1024","2","48000","-16","experiment","HHHHH","1","odd","139920.00299994834","23371.380500029773","NA","NA","126871.38130003586","12834.953000070527","NA","NA","141186.67510012165","12862.06499999389","NA","NA","141293.76070015132","141624.1073999554","141178.69359999895","141293.3672000654","Flanker Task 2.1","58","25717.225798871368","63","yes","1024"
"92.1875","92.1875","408.37212498445297","408.37212498445297","black","psycho","psycho","psycho","0","congruent","uniform","1","undefined","1","s","63","0","0","0","63","0","63","0","63","0","0","0","63","63","63","63","Sun Sep 20 12:44:37 2020","1500","The main experiment item","yes","FlankerTask21.osexp","C:/Users/Colton/Desktop","no","mono","no","18","no","white","no","yes","768","psycho","63","63","C:/Users/Colton/Desktop/CS-subject-1.csv","psycho","Lentiform Loewenfeld","3.3.3","0","s","NA","s","NA","NA","s","418.5902001336217","NA","10505.749200005084","NA","NA","418.5902001336217","2","psycho","1024","2","48000","-16","experiment","SSSSS","1","odd","142206.65480010211","23371.380500029773","NA","NA","141685.12050015852","12834.953000070527","NA","NA","143467.08160010166","12862.06499999389","NA","NA","143575.26229997166","143997.5455000531","143458.66550016217","143574.8568000272","Flanker Task 2.1","59","26135.81599900499","64","yes","1024"
"92.3076923076923","92.3076923076923","408.30983844800636","408.30983844800636","black","psycho","psycho","psycho","0","congruent","uniform","1","undefined","1","h","64","0","0","0","64","0","64","0","64","0","0","0","64","64","64","64","Sun Sep 20 12:44:37 2020","1500","The main experiment item","yes","FlankerTask21.osexp","C:/Users/Colton/Desktop","no","mono","no","18","no","white","no","yes","768","psycho","64","64","C:/Users/Colton/Desktop/CS-subject-1.csv","psycho","Lentiform Loewenfeld","3.3.3","0","h","NA","s","NA","NA","h","404.3235001154244","NA","10505.749200005084","NA","NA","404.3235001154244","2","psycho","1024","2","48000","-16","experiment","HHHHH","1","odd","144059.9932000041","23371.380500029773","NA","NA","141685.12050015852","12834.953000070527","NA","NA","145323.29010008834","12862.06499999389","NA","NA","145430.6991000194","145838.29700015485","145316.03129999712","145430.2368001081","Flanker Task 2.1","60","26540.139499120414","65","yes","1024"
"92.42424242424242","92.42424242424242","408.9774166509001","408.9774166509001","black","psycho","psycho","psycho","0","incongruent","uniform","1","undefined","1","h","65","0","0","0","65","0","65","0","65","0","0","0","65","65","65","65","Sun Sep 20 12:44:37 2020","1500","The main experiment item","yes","FlankerTask21.osexp","C:/Users/Colton/Desktop","no","mono","no","18","no","white","no","yes","768","psycho","65","65","C:/Users/Colton/Desktop/CS-subject-1.csv","psycho","Lentiform Loewenfeld","3.3.3","0","h","NA","s","NA","NA","h","452.36999983899295","NA","10505.749200005084","NA","NA","452.36999983899295","2","psycho","1024","2","48000","-16","experiment","SSHSS","1","odd","147766.60339999944","23371.380500029773","NA","NA","141685.12050015852","12834.953000070527","NA","NA","149035.1214001421","12862.06499999389","NA","NA","149142.58530014195","149598.65580010228","149027.49420003965","149142.15940004215","Flanker Task 2.1","61","26992.509498959407","66","yes","1024"
"92.53731343283582","92.53731343283582","408.4720955084342","408.4720955084342","black","psycho","psycho","psycho","0","incongruent","uniform","1","undefined","1","h","66","0","0","0","66","0","66","0","66","0","0","0","66","66","66","66","Sun Sep 20 12:44:37 2020","1500","The main experiment item","yes","FlankerTask21.osexp","C:/Users/Colton/Desktop","no","mono","no","18","no","white","no","yes","768","psycho","66","66","C:/Users/Colton/Desktop/CS-subject-1.csv","psycho","Lentiform Loewenfeld","3.3.3","0","h","NA","s","NA","NA","h","375.120900105685","NA","10505.749200005084","NA","NA","375.120900105685","2","psycho","1024","2","48000","-16","experiment","SSHSS","1","odd","149666.61710012704","23371.380500029773","NA","NA","141685.12050015852","12834.953000070527","NA","NA","150933.7079001125","12862.06499999389","NA","NA","151041.0547000356","151419.82470010407","150925.56839995086","151040.60070007108","Flanker Task 2.1","62","27367.630399065092","67","yes","1024"
"92.6470588235294","92.6470588235294","409.45048969211604","409.45048969211604","black","psycho","psycho","psycho","0","congruent","uniform","1","undefined","1","s","67","0","0","0","67","0","67","0","67","0","0","0","67","67","67","67","Sun Sep 20 12:44:37 2020","1500","The main experiment item","yes","FlankerTask21.osexp","C:/Users/Colton/Desktop","no","mono","no","18","no","white","no","yes","768","psycho","67","67","C:/Users/Colton/Desktop/CS-subject-1.csv","psycho","Lentiform Loewenfeld","3.3.3","0","s","NA","s","NA","NA","s","475.00289999879897","NA","10505.749200005084","NA","NA","475.00289999879897","2","psycho","1024","2","48000","-16","experiment","SSSSS","1","odd","151460.2302000858","23371.380500029773","NA","NA","141685.12050015852","12834.953000070527","NA","NA","152713.85299996473","12862.06499999389","NA","NA","152820.88170014322","153299.43859996274","152706.04460011236","152820.47839998268","Flanker Task 2.1","63","27842.63329906389","68","yes","1024"
"92.7536231884058","92.7536231884058","409.95638114332723","409.95638114332723","black","psycho","psycho","psycho","0","congruent","uniform","1","undefined","1","s","68","0","0","0","68","0","68","0","68","0","0","0","68","68","68","68","Sun Sep 20 12:44:37 2020","1500","The main experiment item","yes","FlankerTask21.osexp","C:/Users/Colton/Desktop","no","mono","no","18","no","white","no","yes","768","psycho","68","68","C:/Users/Colton/Desktop/CS-subject-1.csv","psycho","Lentiform Loewenfeld","3.3.3","0","s","NA","s","NA","NA","s","444.3569998256862","NA","10505.749200005084","NA","NA","444.3569998256862","2","psycho","1024","2","48000","-16","experiment","SSSSS","1","odd","153337.35630009323","23371.380500029773","NA","NA","141685.12050015852","12834.953000070527","NA","NA","154613.87450015172","12862.06499999389","NA","NA","154720.81480012275","155168.62070001662","154605.90189998038","154720.43470013887","Flanker Task 2.1","64","28286.990298889577","69","yes","1024"
"92.85714285714286","92.85714285714286","410.7571442678039","410.7571442678039","black","psycho","psycho","psycho","0","incongruent","uniform","1","undefined","1","h","69","0","0","0","69","0","69","0","69","0","0","0","69","69","69","69","Sun Sep 20 12:44:37 2020","1500","The main experiment item","yes","FlankerTask21.osexp","C:/Users/Colton/Desktop","no","mono","no","18","no","white","no","yes","768","psycho","69","69","C:/Users/Colton/Desktop/CS-subject-1.csv","psycho","Lentiform Loewenfeld","3.3.3","0","h","NA","s","NA","NA","h","466.00979985669255","NA","10505.749200005084","NA","NA","466.00979985669255","2","psycho","1024","2","48000","-16","experiment","SSHSS","1","odd","155335.72490001097","23371.380500029773","NA","NA","141685.12050015852","12834.953000070527","NA","NA","156597.93000016361","12862.06499999389","NA","NA","156705.92560013756","157175.80830003135","156589.65810015798","156705.39829996414","Flanker Task 2.1","65","28753.00009874627","70","yes","1024"
"92.95774647887323","92.95774647887323","411.27099575553564","411.27099575553564","black","psycho","psycho","psycho","0","incongruent","uniform","1","undefined","1","s","70","0","0","0","70","0","70","0","70","0","0","0","70","70","70","70","Sun Sep 20 12:44:37 2020","1500","The main experiment item","yes","FlankerTask21.osexp","C:/Users/Colton/Desktop","no","mono","no","18","no","white","no","yes","768","psycho","70","70","C:/Users/Colton/Desktop/CS-subject-1.csv","psycho","Lentiform Loewenfeld","3.3.3","0","s","NA","s","NA","NA","s","447.2405998967588","NA","10505.749200005084","NA","NA","447.2405998967588","2","psycho","1024","2","48000","-16","experiment","HHSHH","1","odd","157216.04470000602","23371.380500029773","NA","NA","141685.12050015852","12834.953000070527","NA","NA","158483.78679994494","12862.06499999389","NA","NA","158590.6381001696","159042.53190010786","158475.25699995458","158590.18209995702","Flanker Task 2.1","66","29200.24069864303","71","yes","1024"
"91.66666666666667","91.66666666666667","410.49746109314987","410.49746109314987","black","psycho","psycho","psycho","0","incongruent","uniform","0","undefined","0","s","71","0","0","0","71","0","71","0","71","0","0","0","71","71","71","71","Sun Sep 20 12:44:37 2020","1500","The main experiment item","yes","FlankerTask21.osexp","C:/Users/Colton/Desktop","no","mono","no","18","no","white","no","yes","768","psycho","71","71","C:/Users/Colton/Desktop/CS-subject-1.csv","psycho","Lentiform Loewenfeld","3.3.3","0","h","NA","s","NA","NA","h","355.57650006376207","NA","10505.749200005084","NA","NA","355.57650006376207","2","psycho","1024","2","48000","-16","experiment","HHSHH","1","odd","159094.7917001322","23371.380500029773","NA","NA","141685.12050015852","12834.953000070527","NA","NA","160362.1341001708","12862.06499999389","NA","NA","160470.47689999454","160830.30520007014","160353.18720014766","160470.06370010786","Flanker Task 2.1","66","29555.81719870679","72","yes","1024"
"91.78082191780823","91.78082191780823","410.316689022855","410.316689022855","black","psycho","psycho","psycho","0","incongruent","uniform","1","undefined","1","s","72","0","0","0","72","0","72","0","72","0","0","0","72","72","72","72","Sun Sep 20 12:44:37 2020","1500","The main experiment item","yes","FlankerTask21.osexp","C:/Users/Colton/Desktop","no","mono","no","18","no","white","no","yes","768","psycho","72","72","C:/Users/Colton/Desktop/CS-subject-1.csv","psycho","Lentiform Loewenfeld","3.3.3","0","s","NA","s","NA","NA","s","397.30109996162355","NA","10505.749200005084","NA","NA","397.30109996162355","2","psycho","1024","2","48000","-16","experiment","HHSHH","1","odd","161392.69930007868","23371.380500029773","NA","NA","160872.39430006593","12834.953000070527","NA","NA","162680.35780009814","12862.06499999389","NA","NA","162787.7857000567","163189.04200010002","162672.45490010828","162787.34060004354","Flanker Task 2.1","67","29953.118298668414","73","yes","1024"
"91.89189189189189","91.89189189189189","412.1594648474727","412.1594648474727","black","psycho","psycho","psycho","0","incongruent","uniform","1","undefined","1","h","73","0","0","0","73","0","73","0","73","0","0","0","73","73","73","73","Sun Sep 20 12:44:37 2020","1500","The main experiment item","yes","FlankerTask21.osexp","C:/Users/Colton/Desktop","no","mono","no","18","no","white","no","yes","768","psycho","73","73","C:/Users/Colton/Desktop/CS-subject-1.csv","psycho","Lentiform Loewenfeld","3.3.3","0","h","NA","s","NA","NA","h","546.6821000445634","NA","10505.749200005084","NA","NA","546.6821000445634","2","psycho","1024","2","48000","-16","experiment","SSHSS","1","odd","163317.84910010174","23371.380500029773","NA","NA","160872.39430006593","12834.953000070527","NA","NA","164602.3302001413","12862.06499999389","NA","NA","164709.9083000794","165260.53480012342","164594.3746000994","164709.4586000312","Flanker Task 2.1","68","30499.800398712978","74","yes","1024"
"92","92","412.4727346499761","412.4727346499761","black","psycho","psycho","psycho","0","incongruent","uniform","1","undefined","1","s","74","0","0","0","74","0","74","0","74","0","0","0","74","74","74","74","Sun Sep 20 12:44:37 2020","1500","The main experiment item","yes","FlankerTask21.osexp","C:/Users/Colton/Desktop","no","mono","no","18","no","white","no","yes","768","psycho","74","74","C:/Users/Colton/Desktop/CS-subject-1.csv","psycho","Lentiform Loewenfeld","3.3.3","0","s","NA","s","NA","NA","s","435.6547000352293","NA","10505.749200005084","NA","NA","435.6547000352293","2","psycho","1024","2","48000","-16","experiment","HHSHH","1","odd","165582.92059996165","23371.380500029773","NA","NA","160872.39430006593","12834.953000070527","NA","NA","166863.66549995728","12862.06499999389","NA","NA","166970.5487000756","167409.85339996405","166855.67790013738","166970.16180003993","Flanker Task 2.1","69","30935.455098748207","75","yes","1024"
"90.78947368421052","90.78947368421052","412.59583682557076","412.59583682557076","black","psycho","psycho","psycho","0","incongruent","uniform","0","undefined","0","s","75","0","0","0","75","0","75","0","75","0","0","0","75","75","75","75","Sun Sep 20 12:44:37 2020","1500","The main experiment item","yes","FlankerTask21.osexp","C:/Users/Colton/Desktop","no","mono","no","18","no","white","no","yes","768","psycho","75","75","C:/Users/Colton/Desktop/CS-subject-1.csv","psycho","Lentiform Loewenfeld","3.3.3","0","h","NA","s","NA","NA","h","421.828499995172","NA","10505.749200005084","NA","NA","421.828499995172","2","psycho","1024","2","48000","-16","experiment","HHSHH","1","odd","167625.18099998124","23371.380500029773","NA","NA","160872.39430006593","12834.953000070527","NA","NA","168882.48790008947","12862.06499999389","NA","NA","168988.90680004843","169414.73009996116","168875.43170014396","168988.48449997604","Flanker Task 2.1","69","31357.28359874338","76","yes","1024"
"90.9090909090909","90.9090909090909","412.9046311499188","412.9046311499188","black","psycho","psycho","psycho","0","congruent","uniform","1","undefined","1","h","76","0","0","0","76","0","76","0","76","0","0","0","76","76","76","76","Sun Sep 20 12:44:37 2020","1500","The main experiment item","yes","FlankerTask21.osexp","C:/Users/Colton/Desktop","no","mono","no","18","no","white","no","yes","768","psycho","76","76","C:/Users/Colton/Desktop/CS-subject-1.csv","psycho","Lentiform Loewenfeld","3.3.3","0","h","NA","s","NA","NA","h","436.37299980036914","NA","10505.749200005084","NA","NA","436.37299980036914","2","psycho","1024","2","48000","-16","experiment","HHHHH","1","odd","172081.4700999763","23371.380500029773","NA","NA","171561.40290014446","12834.953000070527","NA","NA","173357.7845999971","12862.06499999389","NA","NA","173466.41500014812","173906.74100001343","173349.39990006387","173466.02570009418","Flanker Task 2.1","70","31793.65659854375","77","yes","1024"
"91.02564102564102","91.02564102564102","413.3900756207414","413.3900756207414","black","psycho","psycho","psycho","0","congruent","uniform","1","undefined","1","h","77","0","0","0","77","0","77","0","77","0","0","0","77","77","77","77","Sun Sep 20 12:44:37 2020","1500","The main experiment item","yes","FlankerTask21.osexp","C:/Users/Colton/Desktop","no","mono","no","18","no","white","no","yes","768","psycho","77","77","C:/Users/Colton/Desktop/CS-subject-1.csv","psycho","Lentiform Loewenfeld","3.3.3","0","h","NA","s","NA","NA","h","450.7692998740822","NA","10505.749200005084","NA","NA","450.7692998740822","2","psycho","1024","2","48000","-16","experiment","HHHHH","1","odd","174080.23600000888","23371.380500029773","NA","NA","171561.40290014446","12834.953000070527","NA","NA","175404.27820011973","12862.06499999389","NA","NA","175512.27680011652","175967.2712001484","175395.3182999976","175511.8176001124","Flanker Task 2.1","71","32244.42589841783","78","yes","1024"
"91.13924050632912","91.13924050632912","413.42915820924543","413.42915820924543","black","psycho","psycho","psycho","0","congruent","uniform","1","undefined","1","s","78","0","0","0","78","0","78","0","78","0","0","0","78","78","78","78","Sun Sep 20 12:44:37 2020","1500","The main experiment item","yes","FlankerTask21.osexp","C:/Users/Colton/Desktop","no","mono","no","18","no","white","no","yes","768","psycho","78","78","C:/Users/Colton/Desktop/CS-subject-1.csv","psycho","Lentiform Loewenfeld","3.3.3","0","s","NA","s","NA","NA","s","416.4776001125574","NA","10505.749200005084","NA","NA","416.4776001125574","2","psycho","1024","2","48000","-16","experiment","SSSSS","1","odd","176006.3197000418","23371.380500029773","NA","NA","171561.40290014446","12834.953000070527","NA","NA","177278.0925000552","12862.06499999389","NA","NA","177385.05339995027","177805.50060002133","177269.68340016901","177384.64620010927","Flanker Task 2.1","72","32660.903498530388","79","yes","1024"
"91.25","91.25","413.1997837306699","413.1997837306699","black","psycho","psycho","psycho","0","incongruent","uniform","1","undefined","1","s","79","0","0","0","79","0","79","0","79","0","0","0","79","79","79","79","Sun Sep 20 12:44:37 2020","1500","The main experiment item","yes","FlankerTask21.osexp","C:/Users/Colton/Desktop","no","mono","no","18","no","white","no","yes","768","psycho","79","79","C:/Users/Colton/Desktop/CS-subject-1.csv","psycho","Lentiform Loewenfeld","3.3.3","0","s","NA","s","NA","NA","s","395.0791999232024","NA","10505.749200005084","NA","NA","395.0791999232024","2","psycho","1024","2","48000","-16","experiment","HHSHH","1","odd","177839.11140006967","23371.380500029773","NA","NA","171561.40290014446","12834.953000070527","NA","NA","179124.4378001429","12862.06499999389","NA","NA","179231.5301001072","179631.0672000982","179115.89040001854","179230.9483999852","Flanker Task 2.1","73","33055.98269845359","80","yes","1024"
"91.35802469135803","91.35802469135803","423.7377925741452","423.7377925741452","black","psycho","psycho","psycho","0","incongruent","uniform","1","undefined","1","s","80","0","0","0","80","0","80","0","80","0","0","0","80","80","80","80","Sun Sep 20 12:44:37 2020","600","The main experiment item","yes","FlankerTask21.osexp","C:/Users/Colton/Desktop","no","mono","no","18","no","white","no","yes","768","psycho","0","79","C:/Users/Colton/Desktop/CS-subject-1.csv","psycho","Lentiform Loewenfeld","3.3.3","0","s","NA","s","s","NA","s","1266.778500052169","NA","10505.749200005084","16172.357199946418","NA","1266.778500052169","2","psycho","1024","2","48000","-16","experiment","HHSHH","1","odd","179683.91300016083","23371.380500029773","196993.0585999973","NA","171561.40290014446","12834.953000070527","NA","NA","197178.13779995777","12862.06499999389","180816.64540013298","NA","197286.29640000872","198557.58430017158","197168.07090002112","197285.90649995022","Flanker Task 2.1","74","34322.76119850576","81","yes","1024"
"91.46341463414635","91.46341463414635","423.5047560792825","423.5047560792825","black","psycho","psycho","psycho","0","incongruent","uniform","1","undefined","1","h","81","0","0","0","81","0","81","0","81","0","0","0","81","81","81","81","Sun Sep 20 12:44:37 2020","600","The main experiment item","yes","FlankerTask21.osexp","C:/Users/Colton/Desktop","no","mono","no","18","no","white","no","yes","768","psycho","1","79","C:/Users/Colton/Desktop/CS-subject-1.csv","psycho","Lentiform Loewenfeld","3.3.3","0","h","NA","s","s","NA","h","404.62879999540746","NA","10505.749200005084","16172.357199946418","NA","404.62879999540746","2","psycho","1024","2","48000","-16","experiment","SSHSS","1","odd","199111.0495000612","23371.380500029773","196993.0585999973","NA","171561.40290014446","12834.953000070527","198597.13220014237","NA","200393.31690012477","12862.06499999389","180816.64540013298","NA","200501.2385000009","200910.2630999405","200384.0811001137","200500.85870013572","Flanker Task 2.1","75","34727.38999850117","82","yes","1024"
"91.56626506024097","91.56626506024097","422.1810144400336","422.1810144400336","black","psycho","psycho","psycho","0","congruent","uniform","1","undefined","1","s","82","0","0","0","82","0","82","0","82","0","0","0","82","82","82","82","Sun Sep 20 12:44:37 2020","600","The main experiment item","yes","FlankerTask21.osexp","C:/Users/Colton/Desktop","no","mono","no","18","no","white","no","yes","768","psycho","2","79","C:/Users/Colton/Desktop/CS-subject-1.csv","psycho","Lentiform Loewenfeld","3.3.3","0","s","NA","s","s","NA","s","313.63420002162457","NA","10505.749200005084","16172.357199946418","NA","313.63420002162457","2","psycho","1024","2","48000","-16","experiment","SSSSS","1","odd","200973.02090004086","23371.380500029773","196993.0585999973","NA","171561.40290014446","12834.953000070527","198597.13220014237","NA","202243.82720002905","12862.06499999389","180816.64540013298","NA","202350.59439996257","202668.40510000475","202235.999800032","202350.1204000786","Flanker Task 2.1","76","35041.02419852279","83","yes","1024"
"91.66666666666667","91.66666666666667","420.7493928399691","420.7493928399691","black","psycho","psycho","psycho","0","incongruent","uniform","1","undefined","1","s","83","0","0","0","83","0","83","0","83","0","0","0","83","83","83","83","Sun Sep 20 12:44:37 2020","600","The main experiment item","yes","FlankerTask21.osexp","C:/Users/Colton/Desktop","no","mono","no","18","no","white","no","yes","768","psycho","3","79","C:/Users/Colton/Desktop/CS-subject-1.csv","psycho","Lentiform Loewenfeld","3.3.3","0","s","NA","s","s","NA","s","301.9248000346124","NA","10505.749200005084","16172.357199946418","NA","301.9248000346124","2","psycho","1024","2","48000","-16","experiment","HHSHH","1","odd","202706.12580003217","23371.380500029773","196993.0585999973","NA","171561.40290014446","12834.953000070527","198597.13220014237","NA","203972.86510001868","12862.06499999389","180816.64540013298","NA","204081.67400001548","204388.50919995457","203964.64859996922","204081.17630006745","Flanker Task 2.1","77","35342.948998557404","84","yes","1024"
"91.76470588235294","91.76470588235294","419.36986939433746","419.36986939433746","black","psycho","psycho","psycho","0","congruent","uniform","1","undefined","1","s","84","0","0","0","84","0","84","0","84","0","0","0","84","84","84","84","Sun Sep 20 12:44:37 2020","600","The main experiment item","yes","FlankerTask21.osexp","C:/Users/Colton/Desktop","no","mono","no","18","no","white","no","yes","768","psycho","4","79","C:/Users/Colton/Desktop/CS-subject-1.csv","psycho","Lentiform Loewenfeld","3.3.3","0","s","NA","s","s","NA","s","303.48989996127784","NA","10505.749200005084","16172.357199946418","NA","303.48989996127784","2","psycho","1024","2","48000","-16","experiment","SSSSS","1","odd","204439.47200011462","23371.380500029773","196993.0585999973","NA","171561.40290014446","12834.953000070527","198597.13220014237","NA","205699.6772000566","12862.06499999389","180816.64540013298","NA","205806.50980002247","206114.41100016236","205692.05680000596","205806.1091999989","Flanker Task 2.1","78","35646.43889851868","85","yes","1024"
"91.86046511627907","91.86046511627907","420.33461858735006","420.33461858735006","black","psycho","psycho","psycho","0","incongruent","uniform","1","undefined","1","h","85","0","0","0","85","0","85","0","85","0","0","0","85","85","85","85","Sun Sep 20 12:44:37 2020","600","The main experiment item","yes","FlankerTask21.osexp","C:/Users/Colton/Desktop","no","mono","no","18","no","white","no","yes","768","psycho","5","79","C:/Users/Colton/Desktop/CS-subject-1.csv","psycho","Lentiform Loewenfeld","3.3.3","0","h","NA","s","s","NA","h","502.3382999934256","NA","10505.749200005084","16172.357199946418","NA","502.3382999934256","2","psycho","1024","2","48000","-16","experiment","SSHSS","1","odd","206294.09030009992","23371.380500029773","196993.0585999973","NA","171561.40290014446","12834.953000070527","198597.13220014237","NA","207562.35400005244","12862.06499999389","180816.64540013298","NA","207669.61560002528","208176.19769996963","207555.14850001782","207669.255200075","Flanker Task 2.1","79","36148.77719851211","86","yes","1024"
"91.95402298850574","91.95402298850574","419.03421032809837","419.03421032809837","black","psycho","psycho","psycho","0","incongruent","uniform","1","undefined","1","h","86","0","0","0","86","0","86","0","86","0","0","0","86","86","86","86","Sun Sep 20 12:44:37 2020","600","The main experiment item","yes","FlankerTask21.osexp","C:/Users/Colton/Desktop","no","mono","no","18","no","white","no","yes","768","psycho","6","79","C:/Users/Colton/Desktop/CS-subject-1.csv","psycho","Lentiform Loewenfeld","3.3.3","0","h","NA","s","s","NA","h","307.19910003244877","NA","10505.749200005084","16172.357199946418","NA","307.19910003244877","2","psycho","1024","2","48000","-16","experiment","SSHSS","1","odd","208358.11690008268","23371.380500029773","196993.0585999973","NA","171561.40290014446","12834.953000070527","198597.13220014237","NA","209615.36719999276","12862.06499999389","180816.64540013298","NA","209722.97829994932","210034.3299000524","209607.39040002227","209722.42849995382","Flanker Task 2.1","80","36455.976298544556","87","yes","1024"
"92.04545454545455","92.04545454545455","418.2813693028451","418.2813693028451","black","psycho","psycho","psycho","0","congruent","uniform","1","undefined","1","h","87","0","0","0","87","0","87","0","87","0","0","0","87","87","87","87","Sun Sep 20 12:44:37 2020","600","The main experiment item","yes","FlankerTask21.osexp","C:/Users/Colton/Desktop","no","mono","no","18","no","white","no","yes","768","psycho","7","79","C:/Users/Colton/Desktop/CS-subject-1.csv","psycho","Lentiform Loewenfeld","3.3.3","0","h","NA","s","s","NA","h","352.7842001058161","NA","10505.749200005084","16172.357199946418","NA","352.7842001058161","2","psycho","1024","2","48000","-16","experiment","HHHHH","1","odd","210091.93620015867","23371.380500029773","196993.0585999973","NA","171561.40290014446","12834.953000070527","198597.13220014237","NA","211350.45040003024","12862.06499999389","180816.64540013298","NA","211457.35469995998","211814.3675001338","211342.57610002533","211456.959299976","Flanker Task 2.1","81","36808.76049865037","88","yes","1024"
"92.13483146067416","92.13483146067416","416.80927638728383","416.80927638728383","black","psycho","psycho","psycho","0","congruent","uniform","1","undefined","1","h","88","0","0","0","88","0","88","0","88","0","0","0","88","88","88","88","Sun Sep 20 12:44:37 2020","600","The main experiment item","yes","FlankerTask21.osexp","C:/Users/Colton/Desktop","no","mono","no","18","no","white","no","yes","768","psycho","8","79","C:/Users/Colton/Desktop/CS-subject-1.csv","psycho","Lentiform Loewenfeld","3.3.3","0","h","NA","s","s","NA","h","287.26509981788695","NA","10505.749200005084","16172.357199946418","NA","287.26509981788695","2","psycho","1024","2","48000","-16","experiment","HHHHH","1","odd","211850.9975001216","23371.380500029773","196993.0585999973","NA","171561.40290014446","12834.953000070527","198597.13220014237","NA","213129.6594000887","12862.06499999389","180816.64540013298","NA","213236.9610001333","213528.7784000393","213120.42400008067","213236.51930014603","Flanker Task 2.1","82","37096.02559846826","89","yes","1024"
"92.22222222222223","92.22222222222223","415.82502998256433","415.82502998256433","black","psycho","psycho","psycho","0","congruent","uniform","1","undefined","1","s","89","0","0","0","89","0","89","0","89","0","0","0","89","89","89","89","Sun Sep 20 12:44:37 2020","600","The main experiment item","yes","FlankerTask21.osexp","C:/Users/Colton/Desktop","no","mono","no","18","no","white","no","yes","768","psycho","9","79","C:/Users/Colton/Desktop/CS-subject-1.csv","psycho","Lentiform Loewenfeld","3.3.3","0","s","NA","s","s","NA","s","328.2270999625325","NA","10505.749200005084","16172.357199946418","NA","328.2270999625325","2","psycho","1024","2","48000","-16","experiment","SSSSS","1","odd","213607.47399996035","23371.380500029773","196993.0585999973","NA","171561.40290014446","12834.953000070527","198597.13220014237","NA","214885.5016999878","12862.06499999389","180816.64540013298","NA","214993.4597001411","215325.87049994618","214876.3972001616","214993.0070999544","Flanker Task 2.1","83","37424.25269843079","90","yes","1024"
"92.3076923076923","92.3076923076923","414.3655428401921","414.3655428401921","black","psycho","psycho","psycho","0","congruent","uniform","1","undefined","1","h","90","0","0","0","90","0","90","0","90","0","0","0","90","90","90","90","Sun Sep 20 12:44:37 2020","600","The main experiment item","yes","FlankerTask21.osexp","C:/Users/Colton/Desktop","no","mono","no","18","no","white","no","yes","768","psycho","10","79","C:/Users/Colton/Desktop/CS-subject-1.csv","psycho","Lentiform Loewenfeld","3.3.3","0","h","NA","s","s","NA","h","283.01170002669096","NA","10505.749200005084","16172.357199946418","NA","283.01170002669096","2","psycho","1024","2","48000","-16","experiment","HHHHH","1","odd","215386.44529995508","23371.380500029773","196993.0585999973","NA","171561.40290014446","12834.953000070527","198597.13220014237","NA","216648.86620012112","12862.06499999389","180816.64540013298","NA","216756.07070000842","217043.59919996932","216640.4633000493","216755.61220012605","Flanker Task 2.1","84","37707.26439845748","91","yes","1024"
"92.3913043478261","92.3913043478261","413.0159184620108","413.0159184620108","black","psycho","psycho","psycho","0","congruent","uniform","1","undefined","1","s","91","0","0","0","91","0","91","0","91","0","0","0","91","91","91","91","Sun Sep 20 12:44:37 2020","600","The main experiment item","yes","FlankerTask21.osexp","C:/Users/Colton/Desktop","no","mono","no","18","no","white","no","yes","768","psycho","11","79","C:/Users/Colton/Desktop/CS-subject-1.csv","psycho","Lentiform Loewenfeld","3.3.3","0","s","NA","s","s","NA","s","290.20010004751384","NA","10505.749200005084","16172.357199946418","NA","290.20010004751384","2","psycho","1024","2","48000","-16","experiment","SSSSS","1","odd","217083.85680010542","23371.380500029773","196993.0585999973","NA","171561.40290014446","12834.953000070527","198597.13220014237","NA","218348.8932000473","12862.06499999389","180816.64540013298","NA","218456.22400008142","218750.54530007765","218340.3268000111","218455.81700000912","Flanker Task 2.1","85","37997.464498504996","92","yes","1024"
"92.47311827956989","92.47311827956989","411.509563422872","411.509563422872","black","psycho","psycho","psycho","0","congruent","uniform","1","undefined","1","h","92","0","0","0","92","0","92","0","92","0","0","0","92","92","92","92","Sun Sep 20 12:44:37 2020","600","The main experiment item","yes","FlankerTask21.osexp","C:/Users/Colton/Desktop","no","mono","no","18","no","white","no","yes","768","psycho","12","79","C:/Users/Colton/Desktop/CS-subject-1.csv","psycho","Lentiform Loewenfeld","3.3.3","0","h","NA","s","s","NA","h","272.924899822101","NA","10505.749200005084","16172.357199946418","NA","272.924899822101","2","psycho","1024","2","48000","-16","experiment","HHHHH","1","odd","218887.96259998344","23371.380500029773","196993.0585999973","NA","171561.40290014446","12834.953000070527","198597.13220014237","NA","220138.139200164","12862.06499999389","180816.64540013298","NA","220245.38630014285","220522.76400011033","220130.05420006812","220244.94510004297","Flanker Task 2.1","86","38270.3893983271","93","yes","1024"
"91.48936170212765","91.48936170212765","410.12052870652775","410.12052870652775","black","psycho","psycho","psycho","0","congruent","uniform","0","undefined","0","h","93","0","0","0","93","0","93","0","93","0","0","0","93","93","93","93","Sun Sep 20 12:44:37 2020","600","The main experiment item","yes","FlankerTask21.osexp","C:/Users/Colton/Desktop","no","mono","no","18","no","white","no","yes","768","psycho","13","79","C:/Users/Colton/Desktop/CS-subject-1.csv","psycho","Lentiform Loewenfeld","3.3.3","0","s","NA","s","s","NA","s","280.94030008651316","NA","10505.749200005084","16172.357199946418","NA","280.94030008651316","2","psycho","1024","2","48000","-16","experiment","HHHHH","1","odd","220561.3065001089","23371.380500029773","196993.0585999973","NA","171561.40290014446","12834.953000070527","198597.13220014237","NA","221835.95370012335","12862.06499999389","180816.64540013298","NA","221943.41169996187","222228.84070011787","221827.81339995563","221942.97590013593","Flanker Task 2.1","86","38551.32969841361","94","yes","1024"
"91.57894736842105","91.57894736842105","409.75489472039044","409.75489472039044","black","psycho","psycho","psycho","0","congruent","uniform","1","undefined","1","h","94","0","0","0","94","0","94","0","94","0","0","0","94","94","94","94","Sun Sep 20 12:44:37 2020","600","The main experiment item","yes","FlankerTask21.osexp","C:/Users/Colton/Desktop","no","mono","no","18","no","white","no","yes","768","psycho","14","79","C:/Users/Colton/Desktop/CS-subject-1.csv","psycho","Lentiform Loewenfeld","3.3.3","0","h","NA","s","s","NA","h","375.38530002348125","NA","10505.749200005084","16172.357199946418","NA","375.38530002348125","2","psycho","1024","2","48000","-16","experiment","HHHHH","1","odd","222781.0909000691","23371.380500029773","196993.0585999973","NA","222262.61340011843","12834.953000070527","198597.13220014237","NA","224047.76780004613","12862.06499999389","180816.64540013298","NA","224154.8361000605","224535.06779996678","224040.2257000096","224154.40810006112","Flanker Task 2.1","87","38926.71499843709","95","yes","1024"
"90.625","90.625","409.99026873517624","409.99026873517624","black","psycho","psycho","psycho","0","incongruent","uniform","0","undefined","0","h","95","0","0","0","95","0","95","0","95","0","0","0","95","95","95","95","Sun Sep 20 12:44:37 2020","600","The main experiment item","yes","FlankerTask21.osexp","C:/Users/Colton/Desktop","no","mono","no","18","no","white","no","yes","768","psycho","15","79","C:/Users/Colton/Desktop/CS-subject-1.csv","psycho","Lentiform Loewenfeld","3.3.3","0","s","NA","s","s","NA","s","432.3508001398295","NA","10505.749200005084","16172.357199946418","NA","432.3508001398295","2","psycho","1024","2","48000","-16","experiment","SSHSS","1","odd","224584.29530006833","23371.380500029773","196993.0585999973","NA","222262.61340011843","12834.953000070527","198597.13220014237","NA","225855.05210002884","12862.06499999389","180816.64540013298","NA","225962.15929999016","226399.46660003625","225847.20279998146","225961.7497001309","Flanker Task 2.1","87","39359.06579857692","96","yes","1024"
"90.72164948453609","90.72164948453609","411.29823606797333","411.29823606797333","black","psycho","psycho","psycho","0","incongruent","uniform","1","undefined","1","s","96","0","0","0","96","0","96","0","96","0","0","0","96","96","96","96","Sun Sep 20 12:44:37 2020","600","The main experiment item","yes","FlankerTask21.osexp","C:/Users/Colton/Desktop","no","mono","no","18","no","white","no","yes","768","psycho","16","79","C:/Users/Colton/Desktop/CS-subject-1.csv","psycho","Lentiform Loewenfeld","3.3.3","0","s","NA","s","s","NA","s","536.8631000164896","NA","10505.749200005084","16172.357199946418","NA","536.8631000164896","2","psycho","1024","2","48000","-16","experiment","HHSHH","1","odd","226965.51230014302","23371.380500029773","196993.0585999973","NA","226452.39920006134","12834.953000070527","198597.13220014237","NA","228250.01129996963","12862.06499999389","180816.64540013298","NA","228359.67439995147","228901.35039994493","228240.4591999948","228359.23489998095","Flanker Task 2.1","88","39895.92889859341","97","yes","1024"
"90.81632653061224","90.81632653061224","411.3250183516505","411.3250183516505","black","psycho","psycho","psycho","0","incongruent","uniform","1","undefined","1","h","97","0","0","0","97","0","97","0","97","0","0","0","97","97","97","97","Sun Sep 20 12:44:37 2020","600","The main experiment item","yes","FlankerTask21.osexp","C:/Users/Colton/Desktop","no","mono","no","18","no","white","no","yes","768","psycho","17","79","C:/Users/Colton/Desktop/CS-subject-1.csv","psycho","Lentiform Loewenfeld","3.3.3","0","h","NA","s","s","NA","h","413.9228998683393","NA","10505.749200005084","16172.357199946418","NA","413.9228998683393","2","psycho","1024","2","48000","-16","experiment","SSHSS","1","odd","228939.9181001354","23371.380500029773","196993.0585999973","NA","226452.39920006134","12834.953000070527","198597.13220014237","NA","230246.13730004057","12862.06499999389","180816.64540013298","NA","230353.90410013497","230773.71970005333","230237.23329999484","230353.5128000658","Flanker Task 2.1","89","40309.85179846175","98","yes","1024"
"90.9090909090909","90.9090909090909","412.33985048878674","412.33985048878674","black","psycho","psycho","psycho","0","incongruent","uniform","1","undefined","1","s","98","0","0","0","98","0","98","0","98","0","0","0","98","98","98","98","Sun Sep 20 12:44:37 2020","600","The main experiment item","yes","FlankerTask21.osexp","C:/Users/Colton/Desktop","no","mono","no","18","no","white","no","yes","768","psycho","18","79","C:/Users/Colton/Desktop/CS-subject-1.csv","psycho","Lentiform Loewenfeld","3.3.3","0","s","NA","s","s","NA","s","511.79339992813766","NA","10505.749200005084","16172.357199946418","NA","511.79339992813766","2","psycho","1024","2","48000","-16","experiment","HHSHH","1","odd","230873.1794001069","23371.380500029773","196993.0585999973","NA","226452.39920006134","12834.953000070527","198597.13220014237","NA","232157.51709998585","12862.06499999389","180816.64540013298","NA","232265.8703001216","232782.9160001129","232148.31550000235","232265.42120007798","Flanker Task 2.1","90","40821.64519838989","99","yes","1024"
