"acc","accuracy","average_response_time","avg_rt","background","canvas_backend","clock_backend","color_backend","compensation","condition","coordinates","correct","correct_instructions1","correct_keyboard_response","correct_response","count_ISI","count_block1","count_block2","count_block3","count_errorFeedback","count_experiment","count_faster","count_finish","count_fixation","count_instructions1","count_instructions2","count_instructions3","count_keyboard_response","count_logger","count_sequence","count_stimulus","datetime","deadline","description","disable_garbage_collection","experiment_file","experiment_path","font_bold","font_family","font_italic","font_size","font_underline","foreground","form_clicks","fullscreen","height","keyboard_backend","live_row","live_row_block1","logfile","mouse_backend","opensesame_codename","opensesame_version","repeat_cycle","response","response_finish","response_instructions1","response_instructions2","response_instructions3","response_keyboard_response","response_time","response_time_finish","response_time_instructions1","response_time_instructions2","response_time_instructions3","response_time_keyboard_response","round_decimals","sampler_backend","sound_buf_size","sound_channels","sound_freq","sound_sample_size","start","stimulus","subject_nr","subject_parity","time_ISI","time_block1","time_block2","time_block3","time_errorFeedback","time_experiment","time_faster","time_finish","time_fixation","time_instructions1","time_instructions2","time_instructions3","time_keyboard_response","time_logger","time_sequence","time_stimulus","title","total_correct","total_response_time","total_responses","uniform_coordinates","width"
"100","100","898","898","black","legacy","legacy","legacy","0","incongruent","uniform","1","undefined","1","h","0","0","0","0","0","0","0","0","0","0","0","0","0","0","0","0","Sun Sep 20 17:19:46 2020","1500","The main experiment item","yes","Flankertask.osexp","C:/Users/JHS6-EAGLE/Desktop/OpenSes Files","no","mono","no","18","no","white","no","yes","1440","legacy","0","0","C:/Users/JHS6-EAGLE/Desktop/OpenSes Files/JS-subject-1.csv","legacy","Lentiform Loewenfeld","3.3.3","0","h","NA","h","NA","NA","h","898","NA","129068","NA","NA","898","2","legacy","1024","2","48000","-16","experiment","SSHSS","1","odd","NA","130839","NA","NA","NA","1766","NA","NA","131005","1770","NA","NA","131109","132007","131000","131109","Flanker task","1","898","1","yes","2560"
"100","100","772.5","772.5","black","legacy","legacy","legacy","0","conruent","uniform","1","undefined","1","s","1","0","0","0","1","0","1","0","1","0","0","0","1","1","1","1","Sun Sep 20 17:19:46 2020","1500","The main experiment item","yes","Flankertask.osexp","C:/Users/JHS6-EAGLE/Desktop/OpenSes Files","no","mono","no","18","no","white","no","yes","1440","legacy","1","1","C:/Users/JHS6-EAGLE/Desktop/OpenSes Files/JS-subject-1.csv","legacy","Lentiform Loewenfeld","3.3.3","0","s","NA","h","NA","NA","s","647","NA","129068","NA","NA","647","2","legacy","1024","2","48000","-16","experiment","SSSSS","1","odd","132017","130839","NA","NA","NA","1766","NA","NA","133164","1770","NA","NA","133269","133917","133159","133269","Flanker task","2","1545","2","yes","2560"
"100","100","731","731","black","legacy","legacy","legacy","0","incongruent","uniform","1","undefined","1","h","2","0","0","0","2","0","2","0","2","0","0","0","2","2","2","2","Sun Sep 20 17:19:46 2020","1500","The main experiment item","yes","Flankertask.osexp","C:/Users/JHS6-EAGLE/Desktop/OpenSes Files","no","mono","no","18","no","white","no","yes","1440","legacy","2","2","C:/Users/JHS6-EAGLE/Desktop/OpenSes Files/JS-subject-1.csv","legacy","Lentiform Loewenfeld","3.3.3","0","h","NA","h","NA","NA","h","648","NA","129068","NA","NA","648","2","legacy","1024","2","48000","-16","experiment","SSHSS","1","odd","133924","130839","NA","NA","NA","1766","NA","NA","135052","1770","NA","NA","135161","135809","135046","135161","Flanker task","3","2193","3","yes","2560"
"100","100","700","700","black","legacy","legacy","legacy","0","conruent","uniform","1","undefined","1","s","3","0","0","0","3","0","3","0","3","0","0","0","3","3","3","3","Sun Sep 20 17:19:46 2020","1500","The main experiment item","yes","Flankertask.osexp","C:/Users/JHS6-EAGLE/Desktop/OpenSes Files","no","mono","no","18","no","white","no","yes","1440","legacy","3","3","C:/Users/JHS6-EAGLE/Desktop/OpenSes Files/JS-subject-1.csv","legacy","Lentiform Loewenfeld","3.3.3","0","s","NA","h","NA","NA","s","607","NA","129068","NA","NA","607","2","legacy","1024","2","48000","-16","experiment","SSSSS","1","odd","135817","130839","NA","NA","NA","1766","NA","NA","136943","1770","NA","NA","137047","137655","136938","137046","Flanker task","4","2800","4","yes","2560"
"100","100","672.2","672.2","black","legacy","legacy","legacy","0","incongruent","uniform","1","undefined","1","s","4","0","0","0","4","0","4","0","4","0","0","0","4","4","4","4","Sun Sep 20 17:19:46 2020","1500","The main experiment item","yes","Flankertask.osexp","C:/Users/JHS6-EAGLE/Desktop/OpenSes Files","no","mono","no","18","no","white","no","yes","1440","legacy","4","4","C:/Users/JHS6-EAGLE/Desktop/OpenSes Files/JS-subject-1.csv","legacy","Lentiform Loewenfeld","3.3.3","0","s","NA","h","NA","NA","s","561","NA","129068","NA","NA","561","2","legacy","1024","2","48000","-16","experiment","HHSHH","1","odd","137663","130839","NA","NA","NA","1766","NA","NA","138789","1770","NA","NA","138896","139457","138783","138896","Flanker task","5","3361","5","yes","2560"
"100","100","648.8333333333334","648.8333333333334","black","legacy","legacy","legacy","0","incongruent","uniform","1","undefined","1","s","5","0","0","0","5","0","5","0","5","0","0","0","5","5","5","5","Sun Sep 20 17:19:46 2020","1500","The main experiment item","yes","Flankertask.osexp","C:/Users/JHS6-EAGLE/Desktop/OpenSes Files","no","mono","no","18","no","white","no","yes","1440","legacy","5","5","C:/Users/JHS6-EAGLE/Desktop/OpenSes Files/JS-subject-1.csv","legacy","Lentiform Loewenfeld","3.3.3","0","s","NA","h","NA","NA","s","532","NA","129068","NA","NA","532","2","legacy","1024","2","48000","-16","experiment","HHSHH","1","odd","139465","130839","NA","NA","NA","1766","NA","NA","140591","1770","NA","NA","140701","141233","140586","140701","Flanker task","6","3893","6","yes","2560"
"100","100","632.5714285714286","632.5714285714286","black","legacy","legacy","legacy","0","incongruent","uniform","1","undefined","1","h","6","0","0","0","6","0","6","0","6","0","0","0","6","6","6","6","Sun Sep 20 17:19:46 2020","1500","The main experiment item","yes","Flankertask.osexp","C:/Users/JHS6-EAGLE/Desktop/OpenSes Files","no","mono","no","18","no","white","no","yes","1440","legacy","6","6","C:/Users/JHS6-EAGLE/Desktop/OpenSes Files/JS-subject-1.csv","legacy","Lentiform Loewenfeld","3.3.3","0","h","NA","h","NA","NA","h","535","NA","129068","NA","NA","535","2","legacy","1024","2","48000","-16","experiment","SSHSS","1","odd","141241","130839","NA","NA","NA","1766","NA","NA","142374","1770","NA","NA","142479","143014","142368","142479","Flanker task","7","4428","7","yes","2560"
"100","100","621.25","621.25","black","legacy","legacy","legacy","0","incongruent","uniform","1","undefined","1","s","7","0","0","0","7","0","7","0","7","0","0","0","7","7","7","7","Sun Sep 20 17:19:46 2020","1500","The main experiment item","yes","Flankertask.osexp","C:/Users/JHS6-EAGLE/Desktop/OpenSes Files","no","mono","no","18","no","white","no","yes","1440","legacy","7","7","C:/Users/JHS6-EAGLE/Desktop/OpenSes Files/JS-subject-1.csv","legacy","Lentiform Loewenfeld","3.3.3","0","s","NA","h","NA","NA","s","542","NA","129068","NA","NA","542","2","legacy","1024","2","48000","-16","experiment","HHSHH","1","odd","143022","130839","NA","NA","NA","1766","NA","NA","144148","1770","NA","NA","144258","144800","144141","144258","Flanker task","8","4970","8","yes","2560"
"100","100","610","610","black","legacy","legacy","legacy","0","conruent","uniform","1","undefined","1","s","8","0","0","0","8","0","8","0","8","0","0","0","8","8","8","8","Sun Sep 20 17:19:46 2020","1500","The main experiment item","yes","Flankertask.osexp","C:/Users/JHS6-EAGLE/Desktop/OpenSes Files","no","mono","no","18","no","white","no","yes","1440","legacy","8","8","C:/Users/JHS6-EAGLE/Desktop/OpenSes Files/JS-subject-1.csv","legacy","Lentiform Loewenfeld","3.3.3","0","s","NA","h","NA","NA","s","520","NA","129068","NA","NA","520","2","legacy","1024","2","48000","-16","experiment","SSSSS","1","odd","144808","130839","NA","NA","NA","1766","NA","NA","145933","1770","NA","NA","146046","146566","145927","146046","Flanker task","9","5490","9","yes","2560"
"100","100","597.9","597.9","black","legacy","legacy","legacy","0","congruent","uniform","1","undefined","1","h","9","0","0","0","9","0","9","0","9","0","0","0","9","9","9","9","Sun Sep 20 17:19:46 2020","1500","The main experiment item","yes","Flankertask.osexp","C:/Users/JHS6-EAGLE/Desktop/OpenSes Files","no","mono","no","18","no","white","no","yes","1440","legacy","9","9","C:/Users/JHS6-EAGLE/Desktop/OpenSes Files/JS-subject-1.csv","legacy","Lentiform Loewenfeld","3.3.3","0","h","NA","h","NA","NA","h","489","NA","129068","NA","NA","489","2","legacy","1024","2","48000","-16","experiment","HHHHH","1","odd","146573","130839","NA","NA","NA","1766","NA","NA","147698","1770","NA","NA","147815","148304","147692","147814","Flanker task","10","5979","10","yes","2560"
"100","100","589.1818181818181","589.1818181818181","black","legacy","legacy","legacy","0","incongruent","uniform","1","undefined","1","h","10","0","0","0","10","0","10","0","10","0","0","0","10","10","10","10","Sun Sep 20 17:19:46 2020","1500","The main experiment item","yes","Flankertask.osexp","C:/Users/JHS6-EAGLE/Desktop/OpenSes Files","no","mono","no","18","no","white","no","yes","1440","legacy","10","10","C:/Users/JHS6-EAGLE/Desktop/OpenSes Files/JS-subject-1.csv","legacy","Lentiform Loewenfeld","3.3.3","0","h","NA","h","NA","NA","h","502","NA","129068","NA","NA","502","2","legacy","1024","2","48000","-16","experiment","SSHSS","1","odd","148312","130839","NA","NA","NA","1766","NA","NA","149454","1770","NA","NA","149558","150060","149449","149558","Flanker task","11","6481","11","yes","2560"
"100","100","578.5833333333334","578.5833333333334","black","legacy","legacy","legacy","0","incongruent","uniform","1","undefined","1","s","11","0","0","0","11","0","11","0","11","0","0","0","11","11","11","11","Sun Sep 20 17:19:46 2020","1500","The main experiment item","yes","Flankertask.osexp","C:/Users/JHS6-EAGLE/Desktop/OpenSes Files","no","mono","no","18","no","white","no","yes","1440","legacy","11","11","C:/Users/JHS6-EAGLE/Desktop/OpenSes Files/JS-subject-1.csv","legacy","Lentiform Loewenfeld","3.3.3","0","s","NA","h","NA","NA","s","462","NA","129068","NA","NA","462","2","legacy","1024","2","48000","-16","experiment","HHSHH","1","odd","150068","130839","NA","NA","NA","1766","NA","NA","151193","1770","NA","NA","151297","151759","151188","151297","Flanker task","12","6943","12","yes","2560"
"92.3076923076923","92.3076923076923","649.4615384615385","649.4615384615385","black","legacy","legacy","legacy","0","congruent","uniform","0","undefined","0","h","12","0","0","0","12","0","12","0","12","0","0","0","12","12","12","12","Sun Sep 20 17:19:46 2020","1500","The main experiment item","yes","Flankertask.osexp","C:/Users/JHS6-EAGLE/Desktop/OpenSes Files","no","mono","no","18","no","white","no","yes","1440","legacy","12","12","C:/Users/JHS6-EAGLE/Desktop/OpenSes Files/JS-subject-1.csv","legacy","Lentiform Loewenfeld","3.3.3","0","None","NA","h","NA","NA","None","1500","NA","129068","NA","NA","1500","2","legacy","1024","2","48000","-16","experiment","HHHHH","1","odd","151767","130839","NA","NA","NA","1766","NA","NA","152909","1770","NA","NA","153013","154513","152903","153013","Flanker task","12","8443","13","yes","2560"
"92.85714285714286","92.85714285714286","639.2857142857143","639.2857142857143","black","legacy","legacy","legacy","0","conruent","uniform","1","undefined","1","s","13","0","0","0","13","0","13","0","13","0","0","0","13","13","13","13","Sun Sep 20 17:19:46 2020","1500","The main experiment item","yes","Flankertask.osexp","C:/Users/JHS6-EAGLE/Desktop/OpenSes Files","no","mono","no","18","no","white","no","yes","1440","legacy","13","13","C:/Users/JHS6-EAGLE/Desktop/OpenSes Files/JS-subject-1.csv","legacy","Lentiform Loewenfeld","3.3.3","0","s","NA","h","NA","NA","s","507","NA","129068","NA","NA","507","2","legacy","1024","2","48000","-16","experiment","SSSSS","1","odd","155028","130839","NA","NA","154520","1766","NA","NA","156154","1770","NA","NA","156260","156767","156148","156260","Flanker task","13","8950","14","yes","2560"
"93.33333333333333","93.33333333333333","628.2","628.2","black","legacy","legacy","legacy","0","incongruent","uniform","1","undefined","1","h","14","0","0","0","14","0","14","0","14","0","0","0","14","14","14","14","Sun Sep 20 17:19:46 2020","1500","The main experiment item","yes","Flankertask.osexp","C:/Users/JHS6-EAGLE/Desktop/OpenSes Files","no","mono","no","18","no","white","no","yes","1440","legacy","14","14","C:/Users/JHS6-EAGLE/Desktop/OpenSes Files/JS-subject-1.csv","legacy","Lentiform Loewenfeld","3.3.3","0","h","NA","h","NA","NA","h","473","NA","129068","NA","NA","473","2","legacy","1024","2","48000","-16","experiment","SSHSS","1","odd","156775","130839","NA","NA","154520","1766","NA","NA","157916","1770","NA","NA","158032","158505","157910","158032","Flanker task","14","9423","15","yes","2560"
"93.75","93.75","619.75","619.75","black","legacy","legacy","legacy","0","incongruent","uniform","1","undefined","1","s","15","0","0","0","15","0","15","0","15","0","0","0","15","15","15","15","Sun Sep 20 17:19:46 2020","1500","The main experiment item","yes","Flankertask.osexp","C:/Users/JHS6-EAGLE/Desktop/OpenSes Files","no","mono","no","18","no","white","no","yes","1440","legacy","15","15","C:/Users/JHS6-EAGLE/Desktop/OpenSes Files/JS-subject-1.csv","legacy","Lentiform Loewenfeld","3.3.3","0","s","NA","h","NA","NA","s","493","NA","129068","NA","NA","493","2","legacy","1024","2","48000","-16","experiment","HHSHH","1","odd","158512","130839","NA","NA","154520","1766","NA","NA","159639","1770","NA","NA","159757","160251","159633","159756","Flanker task","15","9916","16","yes","2560"
"94.11764705882354","94.11764705882354","609","609","black","legacy","legacy","legacy","0","congruent","uniform","1","undefined","1","h","16","0","0","0","16","0","16","0","16","0","0","0","16","16","16","16","Sun Sep 20 17:19:46 2020","1500","The main experiment item","yes","Flankertask.osexp","C:/Users/JHS6-EAGLE/Desktop/OpenSes Files","no","mono","no","18","no","white","no","yes","1440","legacy","16","16","C:/Users/JHS6-EAGLE/Desktop/OpenSes Files/JS-subject-1.csv","legacy","Lentiform Loewenfeld","3.3.3","0","h","NA","h","NA","NA","h","437","NA","129068","NA","NA","437","2","legacy","1024","2","48000","-16","experiment","HHHHH","1","odd","160258","130839","NA","NA","154520","1766","NA","NA","161387","1770","NA","NA","161491","161928","161381","161491","Flanker task","16","10353","17","yes","2560"
"94.44444444444444","94.44444444444444","597.3333333333334","597.3333333333334","black","legacy","legacy","legacy","0","congruent","uniform","1","undefined","1","h","17","0","0","0","17","0","17","0","17","0","0","0","17","17","17","17","Sun Sep 20 17:19:46 2020","1500","The main experiment item","yes","Flankertask.osexp","C:/Users/JHS6-EAGLE/Desktop/OpenSes Files","no","mono","no","18","no","white","no","yes","1440","legacy","17","17","C:/Users/JHS6-EAGLE/Desktop/OpenSes Files/JS-subject-1.csv","legacy","Lentiform Loewenfeld","3.3.3","0","h","NA","h","NA","NA","h","399","NA","129068","NA","NA","399","2","legacy","1024","2","48000","-16","experiment","HHHHH","1","odd","161936","130839","NA","NA","154520","1766","NA","NA","163062","1770","NA","NA","163169","163568","163057","163169","Flanker task","17","10752","18","yes","2560"
"94.73684210526316","94.73684210526316","590.6315789473684","590.6315789473684","black","legacy","legacy","legacy","0","incongruent","uniform","1","undefined","1","h","18","0","0","0","18","0","18","0","18","0","0","0","18","18","18","18","Sun Sep 20 17:19:46 2020","1500","The main experiment item","yes","Flankertask.osexp","C:/Users/JHS6-EAGLE/Desktop/OpenSes Files","no","mono","no","18","no","white","no","yes","1440","legacy","18","18","C:/Users/JHS6-EAGLE/Desktop/OpenSes Files/JS-subject-1.csv","legacy","Lentiform Loewenfeld","3.3.3","0","h","NA","h","NA","NA","h","470","NA","129068","NA","NA","470","2","legacy","1024","2","48000","-16","experiment","SSHSS","1","odd","163576","130839","NA","NA","154520","1766","NA","NA","164702","1770","NA","NA","164806","165276","164696","164806","Flanker task","18","11222","19","yes","2560"
"95","95","581.2","581.2","black","legacy","legacy","legacy","0","congruent","uniform","1","undefined","1","h","19","0","0","0","19","0","19","0","19","0","0","0","19","19","19","19","Sun Sep 20 17:19:46 2020","1500","The main experiment item","yes","Flankertask.osexp","C:/Users/JHS6-EAGLE/Desktop/OpenSes Files","no","mono","no","18","no","white","no","yes","1440","legacy","19","19","C:/Users/JHS6-EAGLE/Desktop/OpenSes Files/JS-subject-1.csv","legacy","Lentiform Loewenfeld","3.3.3","0","h","NA","h","NA","NA","h","402","NA","129068","NA","NA","402","2","legacy","1024","2","48000","-16","experiment","HHHHH","1","odd","165284","130839","NA","NA","154520","1766","NA","NA","166410","1770","NA","NA","166525","166927","166405","166525","Flanker task","19","11624","20","yes","2560"
"95.23809523809524","95.23809523809524","571.5714285714286","571.5714285714286","black","legacy","legacy","legacy","0","congruent","uniform","1","undefined","1","h","20","0","0","0","20","0","20","0","20","0","0","0","20","20","20","20","Sun Sep 20 17:19:46 2020","1500","The main experiment item","yes","Flankertask.osexp","C:/Users/JHS6-EAGLE/Desktop/OpenSes Files","no","mono","no","18","no","white","no","yes","1440","legacy","20","20","C:/Users/JHS6-EAGLE/Desktop/OpenSes Files/JS-subject-1.csv","legacy","Lentiform Loewenfeld","3.3.3","0","h","NA","h","NA","NA","h","379","NA","129068","NA","NA","379","2","legacy","1024","2","48000","-16","experiment","HHHHH","1","odd","166935","130839","NA","NA","154520","1766","NA","NA","168064","1770","NA","NA","168169","168548","168059","168169","Flanker task","20","12003","21","yes","2560"
"95.45454545454545","95.45454545454545","568","568","black","legacy","legacy","legacy","0","incongruent","uniform","1","undefined","1","h","21","0","0","0","21","0","21","0","21","0","0","0","21","21","21","21","Sun Sep 20 17:19:46 2020","1500","The main experiment item","yes","Flankertask.osexp","C:/Users/JHS6-EAGLE/Desktop/OpenSes Files","no","mono","no","18","no","white","no","yes","1440","legacy","21","21","C:/Users/JHS6-EAGLE/Desktop/OpenSes Files/JS-subject-1.csv","legacy","Lentiform Loewenfeld","3.3.3","0","h","NA","h","NA","NA","h","493","NA","129068","NA","NA","493","2","legacy","1024","2","48000","-16","experiment","SSHSS","1","odd","168556","130839","NA","NA","154520","1766","NA","NA","169684","1770","NA","NA","169788","170281","169678","169788","Flanker task","21","12496","22","yes","2560"
"95.65217391304348","95.65217391304348","563.1739130434783","563.1739130434783","black","legacy","legacy","legacy","0","incongruent","uniform","1","undefined","1","h","22","0","0","0","22","0","22","0","22","0","0","0","22","22","22","22","Sun Sep 20 17:19:46 2020","1500","The main experiment item","yes","Flankertask.osexp","C:/Users/JHS6-EAGLE/Desktop/OpenSes Files","no","mono","no","18","no","white","no","yes","1440","legacy","22","22","C:/Users/JHS6-EAGLE/Desktop/OpenSes Files/JS-subject-1.csv","legacy","Lentiform Loewenfeld","3.3.3","0","h","NA","h","NA","NA","h","457","NA","129068","NA","NA","457","2","legacy","1024","2","48000","-16","experiment","SSHSS","1","odd","170289","130839","NA","NA","154520","1766","NA","NA","171414","1770","NA","NA","171518","171975","171408","171518","Flanker task","22","12953","23","yes","2560"
"95.83333333333333","95.83333333333333","558.25","558.25","black","legacy","legacy","legacy","0","conruent","uniform","1","undefined","1","s","23","0","0","0","23","0","23","0","23","0","0","0","23","23","23","23","Sun Sep 20 17:19:46 2020","1500","The main experiment item","yes","Flankertask.osexp","C:/Users/JHS6-EAGLE/Desktop/OpenSes Files","no","mono","no","18","no","white","no","yes","1440","legacy","23","23","C:/Users/JHS6-EAGLE/Desktop/OpenSes Files/JS-subject-1.csv","legacy","Lentiform Loewenfeld","3.3.3","0","s","NA","h","NA","NA","s","445","NA","129068","NA","NA","445","2","legacy","1024","2","48000","-16","experiment","SSSSS","1","odd","171983","130839","NA","NA","154520","1766","NA","NA","173122","1770","NA","NA","173241","173687","173117","173241","Flanker task","23","13398","24","yes","2560"
"96","96","553.2","553.2","black","legacy","legacy","legacy","0","conruent","uniform","1","undefined","1","s","24","0","0","0","24","0","24","0","24","0","0","0","24","24","24","24","Sun Sep 20 17:19:46 2020","1500","The main experiment item","yes","Flankertask.osexp","C:/Users/JHS6-EAGLE/Desktop/OpenSes Files","no","mono","no","18","no","white","no","yes","1440","legacy","24","24","C:/Users/JHS6-EAGLE/Desktop/OpenSes Files/JS-subject-1.csv","legacy","Lentiform Loewenfeld","3.3.3","0","s","NA","h","NA","NA","s","432","NA","129068","NA","NA","432","2","legacy","1024","2","48000","-16","experiment","SSSSS","1","odd","173693","130839","NA","NA","154520","1766","NA","NA","174818","1770","NA","NA","174928","175360","174812","174928","Flanker task","24","13830","25","yes","2560"
"96.15384615384616","96.15384615384616","552.7692307692307","552.7692307692307","black","legacy","legacy","legacy","0","incongruent","uniform","1","undefined","1","s","25","0","0","0","25","0","25","0","25","0","0","0","25","25","25","25","Sun Sep 20 17:19:46 2020","1500","The main experiment item","yes","Flankertask.osexp","C:/Users/JHS6-EAGLE/Desktop/OpenSes Files","no","mono","no","18","no","white","no","yes","1440","legacy","25","25","C:/Users/JHS6-EAGLE/Desktop/OpenSes Files/JS-subject-1.csv","legacy","Lentiform Loewenfeld","3.3.3","0","s","NA","h","NA","NA","s","542","NA","129068","NA","NA","542","2","legacy","1024","2","48000","-16","experiment","HHSHH","1","odd","175368","130839","NA","NA","154520","1766","NA","NA","176503","1770","NA","NA","176610","177153","176497","176610","Flanker task","25","14372","26","yes","2560"
"96.29629629629629","96.29629629629629","546.6666666666666","546.6666666666666","black","legacy","legacy","legacy","0","congruent","uniform","1","undefined","1","h","26","0","0","0","26","0","26","0","26","0","0","0","26","26","26","26","Sun Sep 20 17:19:46 2020","1500","The main experiment item","yes","Flankertask.osexp","C:/Users/JHS6-EAGLE/Desktop/OpenSes Files","no","mono","no","18","no","white","no","yes","1440","legacy","26","26","C:/Users/JHS6-EAGLE/Desktop/OpenSes Files/JS-subject-1.csv","legacy","Lentiform Loewenfeld","3.3.3","0","h","NA","h","NA","NA","h","388","NA","129068","NA","NA","388","2","legacy","1024","2","48000","-16","experiment","HHHHH","1","odd","177161","130839","NA","NA","154520","1766","NA","NA","178295","1770","NA","NA","178399","178787","178289","178399","Flanker task","26","14760","27","yes","2560"
"96.42857142857143","96.42857142857143","542.6428571428571","542.6428571428571","black","legacy","legacy","legacy","0","congruent","uniform","1","undefined","1","h","27","0","0","0","27","0","27","0","27","0","0","0","27","27","27","27","Sun Sep 20 17:19:46 2020","1500","The main experiment item","yes","Flankertask.osexp","C:/Users/JHS6-EAGLE/Desktop/OpenSes Files","no","mono","no","18","no","white","no","yes","1440","legacy","27","27","C:/Users/JHS6-EAGLE/Desktop/OpenSes Files/JS-subject-1.csv","legacy","Lentiform Loewenfeld","3.3.3","0","h","NA","h","NA","NA","h","434","NA","129068","NA","NA","434","2","legacy","1024","2","48000","-16","experiment","HHHHH","1","odd","178795","130839","NA","NA","154520","1766","NA","NA","179920","1770","NA","NA","180027","180462","179914","180027","Flanker task","27","15194","28","yes","2560"
"96.55172413793103","96.55172413793103","544.3448275862069","544.3448275862069","black","legacy","legacy","legacy","0","congruent","uniform","1","undefined","1","h","28","0","0","0","28","0","28","0","28","0","0","0","28","28","28","28","Sun Sep 20 17:19:46 2020","1500","The main experiment item","yes","Flankertask.osexp","C:/Users/JHS6-EAGLE/Desktop/OpenSes Files","no","mono","no","18","no","white","no","yes","1440","legacy","28","28","C:/Users/JHS6-EAGLE/Desktop/OpenSes Files/JS-subject-1.csv","legacy","Lentiform Loewenfeld","3.3.3","0","h","NA","h","NA","NA","h","592","NA","129068","NA","NA","592","2","legacy","1024","2","48000","-16","experiment","HHHHH","1","odd","180470","130839","NA","NA","154520","1766","NA","NA","181613","1770","NA","NA","181717","182309","181607","181717","Flanker task","28","15786","29","yes","2560"
"96.66666666666667","96.66666666666667","542.7666666666667","542.7666666666667","black","legacy","legacy","legacy","0","incongruent","uniform","1","undefined","1","h","29","0","0","0","29","0","29","0","29","0","0","0","29","29","29","29","Sun Sep 20 17:19:46 2020","1500","The main experiment item","yes","Flankertask.osexp","C:/Users/JHS6-EAGLE/Desktop/OpenSes Files","no","mono","no","18","no","white","no","yes","1440","legacy","29","29","C:/Users/JHS6-EAGLE/Desktop/OpenSes Files/JS-subject-1.csv","legacy","Lentiform Loewenfeld","3.3.3","0","h","NA","h","NA","NA","h","497","NA","129068","NA","NA","497","2","legacy","1024","2","48000","-16","experiment","SSHSS","1","odd","182318","130839","NA","NA","154520","1766","NA","NA","183458","1770","NA","NA","183563","184060","183453","183563","Flanker task","29","16283","30","yes","2560"
"96.7741935483871","96.7741935483871","539.1935483870968","539.1935483870968","black","legacy","legacy","legacy","0","conruent","uniform","1","undefined","1","s","30","0","0","0","30","0","30","0","30","0","0","0","30","30","30","30","Sun Sep 20 17:19:46 2020","1500","The main experiment item","yes","Flankertask.osexp","C:/Users/JHS6-EAGLE/Desktop/OpenSes Files","no","mono","no","18","no","white","no","yes","1440","legacy","30","30","C:/Users/JHS6-EAGLE/Desktop/OpenSes Files/JS-subject-1.csv","legacy","Lentiform Loewenfeld","3.3.3","0","s","NA","h","NA","NA","s","432","NA","129068","NA","NA","432","2","legacy","1024","2","48000","-16","experiment","SSSSS","1","odd","184068","130839","NA","NA","154520","1766","NA","NA","185193","1770","NA","NA","185297","185730","185187","185297","Flanker task","30","16715","31","yes","2560"
"96.875","96.875","538.5625","538.5625","black","legacy","legacy","legacy","0","conruent","uniform","1","undefined","1","s","31","0","0","0","31","0","31","0","31","0","0","0","31","31","31","31","Sun Sep 20 17:19:46 2020","1500","The main experiment item","yes","Flankertask.osexp","C:/Users/JHS6-EAGLE/Desktop/OpenSes Files","no","mono","no","18","no","white","no","yes","1440","legacy","31","31","C:/Users/JHS6-EAGLE/Desktop/OpenSes Files/JS-subject-1.csv","legacy","Lentiform Loewenfeld","3.3.3","0","s","NA","h","NA","NA","s","519","NA","129068","NA","NA","519","2","legacy","1024","2","48000","-16","experiment","SSSSS","1","odd","185738","130839","NA","NA","154520","1766","NA","NA","186879","1770","NA","NA","186986","187505","186873","186986","Flanker task","31","17234","32","yes","2560"
"93.93939393939394","93.93939393939394","533.2121212121212","533.2121212121212","black","legacy","legacy","legacy","0","incongruent","uniform","0","undefined","0","h","32","0","0","0","32","0","32","0","32","0","0","0","32","32","32","32","Sun Sep 20 17:19:46 2020","1500","The main experiment item","yes","Flankertask.osexp","C:/Users/JHS6-EAGLE/Desktop/OpenSes Files","no","mono","no","18","no","white","no","yes","1440","legacy","32","32","C:/Users/JHS6-EAGLE/Desktop/OpenSes Files/JS-subject-1.csv","legacy","Lentiform Loewenfeld","3.3.3","0","s","NA","h","NA","NA","s","362","NA","129068","NA","NA","362","2","legacy","1024","2","48000","-16","experiment","SSHSS","1","odd","187513","130839","NA","NA","154520","1766","NA","NA","188639","1770","NA","NA","188746","189108","188633","188746","Flanker task","31","17596","33","yes","2560"
"94.11764705882354","94.11764705882354","526.2352941176471","526.2352941176471","black","legacy","legacy","legacy","0","congruent","uniform","1","undefined","1","h","33","0","0","0","33","0","33","0","33","0","0","0","33","33","33","33","Sun Sep 20 17:19:46 2020","1500","The main experiment item","yes","Flankertask.osexp","C:/Users/JHS6-EAGLE/Desktop/OpenSes Files","no","mono","no","18","no","white","no","yes","1440","legacy","33","33","C:/Users/JHS6-EAGLE/Desktop/OpenSes Files/JS-subject-1.csv","legacy","Lentiform Loewenfeld","3.3.3","0","h","NA","h","NA","NA","h","296","NA","129068","NA","NA","296","2","legacy","1024","2","48000","-16","experiment","HHHHH","1","odd","189632","130839","NA","NA","189116","1766","NA","NA","190757","1770","NA","NA","190864","191160","190751","190863","Flanker task","32","17892","34","yes","2560"
"94.28571428571429","94.28571428571429","520.3142857142857","520.3142857142857","black","legacy","legacy","legacy","0","congruent","uniform","1","undefined","1","h","34","0","0","0","34","0","34","0","34","0","0","0","34","34","34","34","Sun Sep 20 17:19:46 2020","1500","The main experiment item","yes","Flankertask.osexp","C:/Users/JHS6-EAGLE/Desktop/OpenSes Files","no","mono","no","18","no","white","no","yes","1440","legacy","34","34","C:/Users/JHS6-EAGLE/Desktop/OpenSes Files/JS-subject-1.csv","legacy","Lentiform Loewenfeld","3.3.3","0","h","NA","h","NA","NA","h","319","NA","129068","NA","NA","319","2","legacy","1024","2","48000","-16","experiment","HHHHH","1","odd","191168","130839","NA","NA","189116","1766","NA","NA","192293","1770","NA","NA","192397","192717","192288","192397","Flanker task","33","18211","35","yes","2560"
"91.66666666666667","91.66666666666667","513.3611111111111","513.3611111111111","black","legacy","legacy","legacy","0","incongruent","uniform","0","undefined","0","h","35","0","0","0","35","0","35","0","35","0","0","0","35","35","35","35","Sun Sep 20 17:19:46 2020","1500","The main experiment item","yes","Flankertask.osexp","C:/Users/JHS6-EAGLE/Desktop/OpenSes Files","no","mono","no","18","no","white","no","yes","1440","legacy","35","35","C:/Users/JHS6-EAGLE/Desktop/OpenSes Files/JS-subject-1.csv","legacy","Lentiform Loewenfeld","3.3.3","0","s","NA","h","NA","NA","s","270","NA","129068","NA","NA","270","2","legacy","1024","2","48000","-16","experiment","SSHSS","1","odd","192725","130839","NA","NA","189116","1766","NA","NA","193852","1770","NA","NA","193958","194228","193846","193958","Flanker task","33","18481","36","yes","2560"
"91.89189189189189","91.89189189189189","510.81081081081084","510.81081081081084","black","legacy","legacy","legacy","0","conruent","uniform","1","undefined","1","s","36","0","0","0","36","0","36","0","36","0","0","0","36","36","36","36","Sun Sep 20 17:19:46 2020","1500","The main experiment item","yes","Flankertask.osexp","C:/Users/JHS6-EAGLE/Desktop/OpenSes Files","no","mono","no","18","no","white","no","yes","1440","legacy","36","36","C:/Users/JHS6-EAGLE/Desktop/OpenSes Files/JS-subject-1.csv","legacy","Lentiform Loewenfeld","3.3.3","0","s","NA","h","NA","NA","s","419","NA","129068","NA","NA","419","2","legacy","1024","2","48000","-16","experiment","SSSSS","1","odd","194739","130839","NA","NA","194236","1766","NA","NA","195865","1770","NA","NA","195969","196388","195859","195969","Flanker task","34","18900","37","yes","2560"
"92.10526315789474","92.10526315789474","505.8157894736842","505.8157894736842","black","legacy","legacy","legacy","0","congruent","uniform","1","undefined","1","h","37","0","0","0","37","0","37","0","37","0","0","0","37","37","37","37","Sun Sep 20 17:19:46 2020","1500","The main experiment item","yes","Flankertask.osexp","C:/Users/JHS6-EAGLE/Desktop/OpenSes Files","no","mono","no","18","no","white","no","yes","1440","legacy","37","37","C:/Users/JHS6-EAGLE/Desktop/OpenSes Files/JS-subject-1.csv","legacy","Lentiform Loewenfeld","3.3.3","0","h","NA","h","NA","NA","h","321","NA","129068","NA","NA","321","2","legacy","1024","2","48000","-16","experiment","HHHHH","1","odd","196396","130839","NA","NA","194236","1766","NA","NA","197521","1770","NA","NA","197625","197946","197515","197625","Flanker task","35","19221","38","yes","2560"
"92.3076923076923","92.3076923076923","502.02564102564105","502.02564102564105","black","legacy","legacy","legacy","0","incongruent","uniform","1","undefined","1","h","38","0","0","0","38","0","38","0","38","0","0","0","38","38","38","38","Sun Sep 20 17:19:46 2020","1500","The main experiment item","yes","Flankertask.osexp","C:/Users/JHS6-EAGLE/Desktop/OpenSes Files","no","mono","no","18","no","white","no","yes","1440","legacy","38","38","C:/Users/JHS6-EAGLE/Desktop/OpenSes Files/JS-subject-1.csv","legacy","Lentiform Loewenfeld","3.3.3","0","h","NA","h","NA","NA","h","358","NA","129068","NA","NA","358","2","legacy","1024","2","48000","-16","experiment","SSHSS","1","odd","197954","130839","NA","NA","194236","1766","NA","NA","199083","1770","NA","NA","199187","199546","199078","199187","Flanker task","36","19579","39","yes","2560"
"92.5","92.5","499.575","499.575","black","legacy","legacy","legacy","0","conruent","uniform","1","undefined","1","s","39","0","0","0","39","0","39","0","39","0","0","0","39","39","39","39","Sun Sep 20 17:19:46 2020","1500","The main experiment item","yes","Flankertask.osexp","C:/Users/JHS6-EAGLE/Desktop/OpenSes Files","no","mono","no","18","no","white","no","yes","1440","legacy","39","39","C:/Users/JHS6-EAGLE/Desktop/OpenSes Files/JS-subject-1.csv","legacy","Lentiform Loewenfeld","3.3.3","0","s","NA","h","NA","NA","s","404","NA","129068","NA","NA","404","2","legacy","1024","2","48000","-16","experiment","SSSSS","1","odd","199554","130839","NA","NA","194236","1766","NA","NA","200679","1770","NA","NA","200784","201189","200674","200784","Flanker task","37","19983","40","yes","2560"
"92.6829268292683","92.6829268292683","497.2926829268293","497.2926829268293","black","legacy","legacy","legacy","0","congruent","uniform","1","undefined","1","h","40","0","0","0","40","0","40","0","40","0","0","0","40","40","40","40","Sun Sep 20 17:19:46 2020","1500","The main experiment item","yes","Flankertask.osexp","C:/Users/JHS6-EAGLE/Desktop/OpenSes Files","no","mono","no","18","no","white","no","yes","1440","legacy","40","40","C:/Users/JHS6-EAGLE/Desktop/OpenSes Files/JS-subject-1.csv","legacy","Lentiform Loewenfeld","3.3.3","0","h","NA","h","NA","NA","h","406","NA","129068","NA","NA","406","2","legacy","1024","2","48000","-16","experiment","HHHHH","1","odd","201197","130839","NA","NA","194236","1766","NA","NA","202323","1770","NA","NA","202427","202833","202317","202427","Flanker task","38","20389","41","yes","2560"
"92.85714285714286","92.85714285714286","496.3333333333333","496.3333333333333","black","legacy","legacy","legacy","0","incongruent","uniform","1","undefined","1","s","41","0","0","0","41","0","41","0","41","0","0","0","41","41","41","41","Sun Sep 20 17:19:46 2020","1500","The main experiment item","yes","Flankertask.osexp","C:/Users/JHS6-EAGLE/Desktop/OpenSes Files","no","mono","no","18","no","white","no","yes","1440","legacy","41","41","C:/Users/JHS6-EAGLE/Desktop/OpenSes Files/JS-subject-1.csv","legacy","Lentiform Loewenfeld","3.3.3","0","s","NA","h","NA","NA","s","457","NA","129068","NA","NA","457","2","legacy","1024","2","48000","-16","experiment","HHSHH","1","odd","202841","130839","NA","NA","194236","1766","NA","NA","203969","1770","NA","NA","204073","204530","203963","204073","Flanker task","39","20846","42","yes","2560"
"93.02325581395348","93.02325581395348","494.69767441860466","494.69767441860466","black","legacy","legacy","legacy","0","incongruent","uniform","1","undefined","1","s","42","0","0","0","42","0","42","0","42","0","0","0","42","42","42","42","Sun Sep 20 17:19:46 2020","1500","The main experiment item","yes","Flankertask.osexp","C:/Users/JHS6-EAGLE/Desktop/OpenSes Files","no","mono","no","18","no","white","no","yes","1440","legacy","42","42","C:/Users/JHS6-EAGLE/Desktop/OpenSes Files/JS-subject-1.csv","legacy","Lentiform Loewenfeld","3.3.3","0","s","NA","h","NA","NA","s","426","NA","129068","NA","NA","426","2","legacy","1024","2","48000","-16","experiment","HHSHH","1","odd","204538","130839","NA","NA","194236","1766","NA","NA","205683","1770","NA","NA","205790","206217","205677","205789","Flanker task","40","21272","43","yes","2560"
"93.18181818181819","93.18181818181819","493.22727272727275","493.22727272727275","black","legacy","legacy","legacy","0","congruent","uniform","1","undefined","1","h","43","0","0","0","43","0","43","0","43","0","0","0","43","43","43","43","Sun Sep 20 17:19:46 2020","1500","The main experiment item","yes","Flankertask.osexp","C:/Users/JHS6-EAGLE/Desktop/OpenSes Files","no","mono","no","18","no","white","no","yes","1440","legacy","43","43","C:/Users/JHS6-EAGLE/Desktop/OpenSes Files/JS-subject-1.csv","legacy","Lentiform Loewenfeld","3.3.3","0","h","NA","h","NA","NA","h","430","NA","129068","NA","NA","430","2","legacy","1024","2","48000","-16","experiment","HHHHH","1","odd","206225","130839","NA","NA","194236","1766","NA","NA","207351","1770","NA","NA","207455","207886","207346","207455","Flanker task","41","21702","44","yes","2560"
"93.33333333333333","93.33333333333333","493.44444444444446","493.44444444444446","black","legacy","legacy","legacy","0","incongruent","uniform","1","undefined","1","s","44","0","0","0","44","0","44","0","44","0","0","0","44","44","44","44","Sun Sep 20 17:19:46 2020","1500","The main experiment item","yes","Flankertask.osexp","C:/Users/JHS6-EAGLE/Desktop/OpenSes Files","no","mono","no","18","no","white","no","yes","1440","legacy","44","44","C:/Users/JHS6-EAGLE/Desktop/OpenSes Files/JS-subject-1.csv","legacy","Lentiform Loewenfeld","3.3.3","0","s","NA","h","NA","NA","s","503","NA","129068","NA","NA","503","2","legacy","1024","2","48000","-16","experiment","HHSHH","1","odd","207893","130839","NA","NA","194236","1766","NA","NA","209039","1770","NA","NA","209146","209649","209033","209146","Flanker task","42","22205","45","yes","2560"
"93.47826086956522","93.47826086956522","492.5869565217391","492.5869565217391","black","legacy","legacy","legacy","0","incongruent","uniform","1","undefined","1","s","45","0","0","0","45","0","45","0","45","0","0","0","45","45","45","45","Sun Sep 20 17:19:46 2020","1500","The main experiment item","yes","Flankertask.osexp","C:/Users/JHS6-EAGLE/Desktop/OpenSes Files","no","mono","no","18","no","white","no","yes","1440","legacy","45","45","C:/Users/JHS6-EAGLE/Desktop/OpenSes Files/JS-subject-1.csv","legacy","Lentiform Loewenfeld","3.3.3","0","s","NA","h","NA","NA","s","454","NA","129068","NA","NA","454","2","legacy","1024","2","48000","-16","experiment","HHSHH","1","odd","209657","130839","NA","NA","194236","1766","NA","NA","210799","1770","NA","NA","210911","211366","210793","210911","Flanker task","43","22659","46","yes","2560"
"93.61702127659575","93.61702127659575","490.72340425531917","490.72340425531917","black","legacy","legacy","legacy","0","congruent","uniform","1","undefined","1","h","46","0","0","0","46","0","46","0","46","0","0","0","46","46","46","46","Sun Sep 20 17:19:46 2020","1500","The main experiment item","yes","Flankertask.osexp","C:/Users/JHS6-EAGLE/Desktop/OpenSes Files","no","mono","no","18","no","white","no","yes","1440","legacy","46","46","C:/Users/JHS6-EAGLE/Desktop/OpenSes Files/JS-subject-1.csv","legacy","Lentiform Loewenfeld","3.3.3","0","h","NA","h","NA","NA","h","405","NA","129068","NA","NA","405","2","legacy","1024","2","48000","-16","experiment","HHHHH","1","odd","211374","130839","NA","NA","194236","1766","NA","NA","212509","1770","NA","NA","212613","213018","212502","212613","Flanker task","44","23064","47","yes","2560"
"93.75","93.75","490.1875","490.1875","black","legacy","legacy","legacy","0","incongruent","uniform","1","undefined","1","s","47","0","0","0","47","0","47","0","47","0","0","0","47","47","47","47","Sun Sep 20 17:19:46 2020","1500","The main experiment item","yes","Flankertask.osexp","C:/Users/JHS6-EAGLE/Desktop/OpenSes Files","no","mono","no","18","no","white","no","yes","1440","legacy","47","47","C:/Users/JHS6-EAGLE/Desktop/OpenSes Files/JS-subject-1.csv","legacy","Lentiform Loewenfeld","3.3.3","0","s","NA","h","NA","NA","s","465","NA","129068","NA","NA","465","2","legacy","1024","2","48000","-16","experiment","HHSHH","1","odd","213026","130839","NA","NA","194236","1766","NA","NA","214152","1770","NA","NA","214256","214721","214147","214256","Flanker task","45","23529","48","yes","2560"
"93.87755102040816","93.87755102040816","489.7755102040816","489.7755102040816","black","legacy","legacy","legacy","0","conruent","uniform","1","undefined","1","s","48","0","0","0","48","0","48","0","48","0","0","0","48","48","48","48","Sun Sep 20 17:19:46 2020","1500","The main experiment item","yes","Flankertask.osexp","C:/Users/JHS6-EAGLE/Desktop/OpenSes Files","no","mono","no","18","no","white","no","yes","1440","legacy","48","48","C:/Users/JHS6-EAGLE/Desktop/OpenSes Files/JS-subject-1.csv","legacy","Lentiform Loewenfeld","3.3.3","0","s","NA","h","NA","NA","s","470","NA","129068","NA","NA","470","2","legacy","1024","2","48000","-16","experiment","SSSSS","1","odd","214732","130839","NA","NA","194236","1766","NA","NA","215857","1770","NA","NA","215977","216447","215852","215976","Flanker task","46","23999","49","yes","2560"
"94","94","489.02","489.02","black","legacy","legacy","legacy","0","incongruent","uniform","1","undefined","1","s","49","0","0","0","49","0","49","0","49","0","0","0","49","49","49","49","Sun Sep 20 17:19:46 2020","1500","The main experiment item","yes","Flankertask.osexp","C:/Users/JHS6-EAGLE/Desktop/OpenSes Files","no","mono","no","18","no","white","no","yes","1440","legacy","49","49","C:/Users/JHS6-EAGLE/Desktop/OpenSes Files/JS-subject-1.csv","legacy","Lentiform Loewenfeld","3.3.3","0","s","NA","h","NA","NA","s","452","NA","129068","NA","NA","452","2","legacy","1024","2","48000","-16","experiment","HHSHH","1","odd","216455","130839","NA","NA","194236","1766","NA","NA","217582","1770","NA","NA","217686","218139","217576","217686","Flanker task","47","24451","50","yes","2560"
"94.11764705882354","94.11764705882354","487.88235294117646","487.88235294117646","black","legacy","legacy","legacy","0","incongruent","uniform","1","undefined","1","h","50","0","0","0","50","0","50","0","50","0","0","0","50","50","50","50","Sun Sep 20 17:19:46 2020","1500","The main experiment item","yes","Flankertask.osexp","C:/Users/JHS6-EAGLE/Desktop/OpenSes Files","no","mono","no","18","no","white","no","yes","1440","legacy","50","50","C:/Users/JHS6-EAGLE/Desktop/OpenSes Files/JS-subject-1.csv","legacy","Lentiform Loewenfeld","3.3.3","0","h","NA","h","NA","NA","h","431","NA","129068","NA","NA","431","2","legacy","1024","2","48000","-16","experiment","SSHSS","1","odd","218150","130839","NA","NA","194236","1766","NA","NA","219294","1770","NA","NA","219398","219829","219288","219398","Flanker task","48","24882","51","yes","2560"
"94.23076923076923","94.23076923076923","486.9230769230769","486.9230769230769","black","legacy","legacy","legacy","0","incongruent","uniform","1","undefined","1","h","51","0","0","0","51","0","51","0","51","0","0","0","51","51","51","51","Sun Sep 20 17:19:46 2020","1500","The main experiment item","yes","Flankertask.osexp","C:/Users/JHS6-EAGLE/Desktop/OpenSes Files","no","mono","no","18","no","white","no","yes","1440","legacy","51","51","C:/Users/JHS6-EAGLE/Desktop/OpenSes Files/JS-subject-1.csv","legacy","Lentiform Loewenfeld","3.3.3","0","h","NA","h","NA","NA","h","438","NA","129068","NA","NA","438","2","legacy","1024","2","48000","-16","experiment","SSHSS","1","odd","219836","130839","NA","NA","194236","1766","NA","NA","220981","1770","NA","NA","221093","221532","220975","221093","Flanker task","49","25320","52","yes","2560"
"94.33962264150944","94.33962264150944","484.54716981132077","484.54716981132077","black","legacy","legacy","legacy","0","congruent","uniform","1","undefined","1","h","52","0","0","0","52","0","52","0","52","0","0","0","52","52","52","52","Sun Sep 20 17:19:46 2020","1500","The main experiment item","yes","Flankertask.osexp","C:/Users/JHS6-EAGLE/Desktop/OpenSes Files","no","mono","no","18","no","white","no","yes","1440","legacy","52","52","C:/Users/JHS6-EAGLE/Desktop/OpenSes Files/JS-subject-1.csv","legacy","Lentiform Loewenfeld","3.3.3","0","h","NA","h","NA","NA","h","361","NA","129068","NA","NA","361","2","legacy","1024","2","48000","-16","experiment","HHHHH","1","odd","221540","130839","NA","NA","194236","1766","NA","NA","222666","1770","NA","NA","222778","223140","222660","222778","Flanker task","50","25681","53","yes","2560"
"94.44444444444444","94.44444444444444","482.9074074074074","482.9074074074074","black","legacy","legacy","legacy","0","conruent","uniform","1","undefined","1","s","53","0","0","0","53","0","53","0","53","0","0","0","53","53","53","53","Sun Sep 20 17:19:46 2020","1500","The main experiment item","yes","Flankertask.osexp","C:/Users/JHS6-EAGLE/Desktop/OpenSes Files","no","mono","no","18","no","white","no","yes","1440","legacy","53","53","C:/Users/JHS6-EAGLE/Desktop/OpenSes Files/JS-subject-1.csv","legacy","Lentiform Loewenfeld","3.3.3","0","s","NA","h","NA","NA","s","396","NA","129068","NA","NA","396","2","legacy","1024","2","48000","-16","experiment","SSSSS","1","odd","223148","130839","NA","NA","194236","1766","NA","NA","224287","1770","NA","NA","224402","224799","224281","224402","Flanker task","51","26077","54","yes","2560"
"94.54545454545455","94.54545454545455","481.6363636363636","481.6363636363636","black","legacy","legacy","legacy","0","congruent","uniform","1","undefined","1","h","54","0","0","0","54","0","54","0","54","0","0","0","54","54","54","54","Sun Sep 20 17:19:46 2020","1500","The main experiment item","yes","Flankertask.osexp","C:/Users/JHS6-EAGLE/Desktop/OpenSes Files","no","mono","no","18","no","white","no","yes","1440","legacy","54","54","C:/Users/JHS6-EAGLE/Desktop/OpenSes Files/JS-subject-1.csv","legacy","Lentiform Loewenfeld","3.3.3","0","h","NA","h","NA","NA","h","413","NA","129068","NA","NA","413","2","legacy","1024","2","48000","-16","experiment","HHHHH","1","odd","224807","130839","NA","NA","194236","1766","NA","NA","225933","1770","NA","NA","226037","226450","225927","226037","Flanker task","52","26490","55","yes","2560"
"94.64285714285714","94.64285714285714","480.75","480.75","black","legacy","legacy","legacy","0","congruent","uniform","1","undefined","1","h","55","0","0","0","55","0","55","0","55","0","0","0","55","55","55","55","Sun Sep 20 17:19:46 2020","1500","The main experiment item","yes","Flankertask.osexp","C:/Users/JHS6-EAGLE/Desktop/OpenSes Files","no","mono","no","18","no","white","no","yes","1440","legacy","55","55","C:/Users/JHS6-EAGLE/Desktop/OpenSes Files/JS-subject-1.csv","legacy","Lentiform Loewenfeld","3.3.3","0","h","NA","h","NA","NA","h","432","NA","129068","NA","NA","432","2","legacy","1024","2","48000","-16","experiment","HHHHH","1","odd","226458","130839","NA","NA","194236","1766","NA","NA","227599","1770","NA","NA","227704","228136","227593","227703","Flanker task","53","26922","56","yes","2560"
"94.73684210526316","94.73684210526316","481","481","black","legacy","legacy","legacy","0","incongruent","uniform","1","undefined","1","s","56","0","0","0","56","0","56","0","56","0","0","0","56","56","56","56","Sun Sep 20 17:19:46 2020","1500","The main experiment item","yes","Flankertask.osexp","C:/Users/JHS6-EAGLE/Desktop/OpenSes Files","no","mono","no","18","no","white","no","yes","1440","legacy","56","56","C:/Users/JHS6-EAGLE/Desktop/OpenSes Files/JS-subject-1.csv","legacy","Lentiform Loewenfeld","3.3.3","0","s","NA","h","NA","NA","s","495","NA","129068","NA","NA","495","2","legacy","1024","2","48000","-16","experiment","HHSHH","1","odd","228144","130839","NA","NA","194236","1766","NA","NA","229286","1770","NA","NA","229390","229885","229280","229390","Flanker task","54","27417","57","yes","2560"
"94.82758620689656","94.82758620689656","480.0344827586207","480.0344827586207","black","legacy","legacy","legacy","0","incongruent","uniform","1","undefined","1","h","57","0","0","0","57","0","57","0","57","0","0","0","57","57","57","57","Sun Sep 20 17:19:46 2020","1500","The main experiment item","yes","Flankertask.osexp","C:/Users/JHS6-EAGLE/Desktop/OpenSes Files","no","mono","no","18","no","white","no","yes","1440","legacy","57","57","C:/Users/JHS6-EAGLE/Desktop/OpenSes Files/JS-subject-1.csv","legacy","Lentiform Loewenfeld","3.3.3","0","h","NA","h","NA","NA","h","425","NA","129068","NA","NA","425","2","legacy","1024","2","48000","-16","experiment","SSHSS","1","odd","229893","130839","NA","NA","194236","1766","NA","NA","231019","1770","NA","NA","231136","231561","231013","231136","Flanker task","55","27842","58","yes","2560"
"94.91525423728814","94.91525423728814","478.8305084745763","478.8305084745763","black","legacy","legacy","legacy","0","incongruent","uniform","1","undefined","1","h","58","0","0","0","58","0","58","0","58","0","0","0","58","58","58","58","Sun Sep 20 17:19:46 2020","1500","The main experiment item","yes","Flankertask.osexp","C:/Users/JHS6-EAGLE/Desktop/OpenSes Files","no","mono","no","18","no","white","no","yes","1440","legacy","58","58","C:/Users/JHS6-EAGLE/Desktop/OpenSes Files/JS-subject-1.csv","legacy","Lentiform Loewenfeld","3.3.3","0","h","NA","h","NA","NA","h","409","NA","129068","NA","NA","409","2","legacy","1024","2","48000","-16","experiment","SSHSS","1","odd","231569","130839","NA","NA","194236","1766","NA","NA","232694","1770","NA","NA","232810","233220","232689","232810","Flanker task","56","28251","59","yes","2560"
"95","95","477.93333333333334","477.93333333333334","black","legacy","legacy","legacy","0","incongruent","uniform","1","undefined","1","s","59","0","0","0","59","0","59","0","59","0","0","0","59","59","59","59","Sun Sep 20 17:19:46 2020","1500","The main experiment item","yes","Flankertask.osexp","C:/Users/JHS6-EAGLE/Desktop/OpenSes Files","no","mono","no","18","no","white","no","yes","1440","legacy","59","59","C:/Users/JHS6-EAGLE/Desktop/OpenSes Files/JS-subject-1.csv","legacy","Lentiform Loewenfeld","3.3.3","0","s","NA","h","NA","NA","s","425","NA","129068","NA","NA","425","2","legacy","1024","2","48000","-16","experiment","HHSHH","1","odd","233228","130839","NA","NA","194236","1766","NA","NA","234363","1770","NA","NA","234467","234893","234358","234467","Flanker task","57","28676","60","yes","2560"
"95.08196721311475","95.08196721311475","477.1967213114754","477.1967213114754","black","legacy","legacy","legacy","0","conruent","uniform","1","undefined","1","s","60","0","0","0","60","0","60","0","60","0","0","0","60","60","60","60","Sun Sep 20 17:19:46 2020","1500","The main experiment item","yes","Flankertask.osexp","C:/Users/JHS6-EAGLE/Desktop/OpenSes Files","no","mono","no","18","no","white","no","yes","1440","legacy","60","60","C:/Users/JHS6-EAGLE/Desktop/OpenSes Files/JS-subject-1.csv","legacy","Lentiform Loewenfeld","3.3.3","0","s","NA","h","NA","NA","s","433","NA","129068","NA","NA","433","2","legacy","1024","2","48000","-16","experiment","SSSSS","1","odd","234901","130839","NA","NA","194236","1766","NA","NA","236026","1770","NA","NA","236145","236578","236020","236145","Flanker task","58","29109","61","yes","2560"
"95.16129032258064","95.16129032258064","477.16129032258067","477.16129032258067","black","legacy","legacy","legacy","0","incongruent","uniform","1","undefined","1","s","61","0","0","0","61","0","61","0","61","0","0","0","61","61","61","61","Sun Sep 20 17:19:46 2020","1500","The main experiment item","yes","Flankertask.osexp","C:/Users/JHS6-EAGLE/Desktop/OpenSes Files","no","mono","no","18","no","white","no","yes","1440","legacy","61","61","C:/Users/JHS6-EAGLE/Desktop/OpenSes Files/JS-subject-1.csv","legacy","Lentiform Loewenfeld","3.3.3","0","s","NA","h","NA","NA","s","475","NA","129068","NA","NA","475","2","legacy","1024","2","48000","-16","experiment","HHSHH","1","odd","236586","130839","NA","NA","194236","1766","NA","NA","237713","1770","NA","NA","237825","238301","237707","237825","Flanker task","59","29584","62","yes","2560"
"95.23809523809524","95.23809523809524","478.6984126984127","478.6984126984127","black","legacy","legacy","legacy","0","incongruent","uniform","1","undefined","1","s","62","0","0","0","62","0","62","0","62","0","0","0","62","62","62","62","Sun Sep 20 17:19:46 2020","1500","The main experiment item","yes","Flankertask.osexp","C:/Users/JHS6-EAGLE/Desktop/OpenSes Files","no","mono","no","18","no","white","no","yes","1440","legacy","62","62","C:/Users/JHS6-EAGLE/Desktop/OpenSes Files/JS-subject-1.csv","legacy","Lentiform Loewenfeld","3.3.3","0","s","NA","h","NA","NA","s","574","NA","129068","NA","NA","574","2","legacy","1024","2","48000","-16","experiment","HHSHH","1","odd","238309","130839","NA","NA","194236","1766","NA","NA","239435","1770","NA","NA","239539","240114","239429","239539","Flanker task","60","30158","63","yes","2560"
"95.3125","95.3125","478.859375","478.859375","black","legacy","legacy","legacy","0","incongruent","uniform","1","undefined","1","s","63","0","0","0","63","0","63","0","63","0","0","0","63","63","63","63","Sun Sep 20 17:19:46 2020","1500","The main experiment item","yes","Flankertask.osexp","C:/Users/JHS6-EAGLE/Desktop/OpenSes Files","no","mono","no","18","no","white","no","yes","1440","legacy","63","63","C:/Users/JHS6-EAGLE/Desktop/OpenSes Files/JS-subject-1.csv","legacy","Lentiform Loewenfeld","3.3.3","0","s","NA","h","NA","NA","s","489","NA","129068","NA","NA","489","2","legacy","1024","2","48000","-16","experiment","HHSHH","1","odd","240125","130839","NA","NA","194236","1766","NA","NA","241252","1770","NA","NA","241356","241845","241246","241356","Flanker task","61","30647","64","yes","2560"
"95.38461538461539","95.38461538461539","479.83076923076925","479.83076923076925","black","legacy","legacy","legacy","0","incongruent","uniform","1","undefined","1","s","64","0","0","0","64","0","64","0","64","0","0","0","64","64","64","64","Sun Sep 20 17:19:46 2020","1500","The main experiment item","yes","Flankertask.osexp","C:/Users/JHS6-EAGLE/Desktop/OpenSes Files","no","mono","no","18","no","white","no","yes","1440","legacy","64","64","C:/Users/JHS6-EAGLE/Desktop/OpenSes Files/JS-subject-1.csv","legacy","Lentiform Loewenfeld","3.3.3","0","s","NA","h","NA","NA","s","542","NA","129068","NA","NA","542","2","legacy","1024","2","48000","-16","experiment","HHSHH","1","odd","241852","130839","NA","NA","194236","1766","NA","NA","242982","1770","NA","NA","243086","243629","242976","243086","Flanker task","62","31189","65","yes","2560"
"95.45454545454545","95.45454545454545","478.8030303030303","478.8030303030303","black","legacy","legacy","legacy","0","conruent","uniform","1","undefined","1","s","65","0","0","0","65","0","65","0","65","0","0","0","65","65","65","65","Sun Sep 20 17:19:46 2020","1500","The main experiment item","yes","Flankertask.osexp","C:/Users/JHS6-EAGLE/Desktop/OpenSes Files","no","mono","no","18","no","white","no","yes","1440","legacy","65","65","C:/Users/JHS6-EAGLE/Desktop/OpenSes Files/JS-subject-1.csv","legacy","Lentiform Loewenfeld","3.3.3","0","s","NA","h","NA","NA","s","412","NA","129068","NA","NA","412","2","legacy","1024","2","48000","-16","experiment","SSSSS","1","odd","243636","130839","NA","NA","194236","1766","NA","NA","244762","1770","NA","NA","244872","245285","244756","244872","Flanker task","63","31601","66","yes","2560"
"95.5223880597015","95.5223880597015","477.8955223880597","477.8955223880597","black","legacy","legacy","legacy","0","congruent","uniform","1","undefined","1","h","66","0","0","0","66","0","66","0","66","0","0","0","66","66","66","66","Sun Sep 20 17:19:46 2020","1500","The main experiment item","yes","Flankertask.osexp","C:/Users/JHS6-EAGLE/Desktop/OpenSes Files","no","mono","no","18","no","white","no","yes","1440","legacy","66","66","C:/Users/JHS6-EAGLE/Desktop/OpenSes Files/JS-subject-1.csv","legacy","Lentiform Loewenfeld","3.3.3","0","h","NA","h","NA","NA","h","418","NA","129068","NA","NA","418","2","legacy","1024","2","48000","-16","experiment","HHHHH","1","odd","245293","130839","NA","NA","194236","1766","NA","NA","246418","1770","NA","NA","246522","246940","246413","246522","Flanker task","64","32019","67","yes","2560"
"95.58823529411765","95.58823529411765","477.72058823529414","477.72058823529414","black","legacy","legacy","legacy","0","incongruent","uniform","1","undefined","1","h","67","0","0","0","67","0","67","0","67","0","0","0","67","67","67","67","Sun Sep 20 17:19:46 2020","1500","The main experiment item","yes","Flankertask.osexp","C:/Users/JHS6-EAGLE/Desktop/OpenSes Files","no","mono","no","18","no","white","no","yes","1440","legacy","67","67","C:/Users/JHS6-EAGLE/Desktop/OpenSes Files/JS-subject-1.csv","legacy","Lentiform Loewenfeld","3.3.3","0","h","NA","h","NA","NA","h","466","NA","129068","NA","NA","466","2","legacy","1024","2","48000","-16","experiment","SSHSS","1","odd","246948","130839","NA","NA","194236","1766","NA","NA","248091","1770","NA","NA","248195","248661","248085","248195","Flanker task","65","32485","68","yes","2560"
"95.65217391304348","95.65217391304348","477.0289855072464","477.0289855072464","black","legacy","legacy","legacy","0","conruent","uniform","1","undefined","1","s","68","0","0","0","68","0","68","0","68","0","0","0","68","68","68","68","Sun Sep 20 17:19:46 2020","1500","The main experiment item","yes","Flankertask.osexp","C:/Users/JHS6-EAGLE/Desktop/OpenSes Files","no","mono","no","18","no","white","no","yes","1440","legacy","68","68","C:/Users/JHS6-EAGLE/Desktop/OpenSes Files/JS-subject-1.csv","legacy","Lentiform Loewenfeld","3.3.3","0","s","NA","h","NA","NA","s","430","NA","129068","NA","NA","430","2","legacy","1024","2","48000","-16","experiment","SSSSS","1","odd","248670","130839","NA","NA","194236","1766","NA","NA","249796","1770","NA","NA","249903","250334","249791","249903","Flanker task","66","32915","69","yes","2560"
"95.71428571428571","95.71428571428571","476.4","476.4","black","legacy","legacy","legacy","0","conruent","uniform","1","undefined","1","s","69","0","0","0","69","0","69","0","69","0","0","0","69","69","69","69","Sun Sep 20 17:19:46 2020","1500","The main experiment item","yes","Flankertask.osexp","C:/Users/JHS6-EAGLE/Desktop/OpenSes Files","no","mono","no","18","no","white","no","yes","1440","legacy","69","69","C:/Users/JHS6-EAGLE/Desktop/OpenSes Files/JS-subject-1.csv","legacy","Lentiform Loewenfeld","3.3.3","0","s","NA","h","NA","NA","s","433","NA","129068","NA","NA","433","2","legacy","1024","2","48000","-16","experiment","SSSSS","1","odd","250342","130839","NA","NA","194236","1766","NA","NA","251467","1770","NA","NA","251573","252007","251461","251573","Flanker task","67","33348","70","yes","2560"
"95.77464788732394","95.77464788732394","475.9154929577465","475.9154929577465","black","legacy","legacy","legacy","0","incongruent","uniform","1","undefined","1","h","70","0","0","0","70","0","70","0","70","0","0","0","70","70","70","70","Sun Sep 20 17:19:46 2020","1500","The main experiment item","yes","Flankertask.osexp","C:/Users/JHS6-EAGLE/Desktop/OpenSes Files","no","mono","no","18","no","white","no","yes","1440","legacy","70","70","C:/Users/JHS6-EAGLE/Desktop/OpenSes Files/JS-subject-1.csv","legacy","Lentiform Loewenfeld","3.3.3","0","h","NA","h","NA","NA","h","442","NA","129068","NA","NA","442","2","legacy","1024","2","48000","-16","experiment","SSHSS","1","odd","252016","130839","NA","NA","194236","1766","NA","NA","253143","1770","NA","NA","253247","253690","253137","253247","Flanker task","68","33790","71","yes","2560"
"95.83333333333333","95.83333333333333","475.59722222222223","475.59722222222223","black","legacy","legacy","legacy","0","incongruent","uniform","1","undefined","1","h","71","0","0","0","71","0","71","0","71","0","0","0","71","71","71","71","Sun Sep 20 17:19:46 2020","1500","The main experiment item","yes","Flankertask.osexp","C:/Users/JHS6-EAGLE/Desktop/OpenSes Files","no","mono","no","18","no","white","no","yes","1440","legacy","71","71","C:/Users/JHS6-EAGLE/Desktop/OpenSes Files/JS-subject-1.csv","legacy","Lentiform Loewenfeld","3.3.3","0","h","NA","h","NA","NA","h","453","NA","129068","NA","NA","453","2","legacy","1024","2","48000","-16","experiment","SSHSS","1","odd","253698","130839","NA","NA","194236","1766","NA","NA","254842","1770","NA","NA","254946","255400","254836","254946","Flanker task","69","34243","72","yes","2560"
"95.89041095890411","95.89041095890411","474.9178082191781","474.9178082191781","black","legacy","legacy","legacy","0","congruent","uniform","1","undefined","1","h","72","0","0","0","72","0","72","0","72","0","0","0","72","72","72","72","Sun Sep 20 17:19:46 2020","1500","The main experiment item","yes","Flankertask.osexp","C:/Users/JHS6-EAGLE/Desktop/OpenSes Files","no","mono","no","18","no","white","no","yes","1440","legacy","72","72","C:/Users/JHS6-EAGLE/Desktop/OpenSes Files/JS-subject-1.csv","legacy","Lentiform Loewenfeld","3.3.3","0","h","NA","h","NA","NA","h","426","NA","129068","NA","NA","426","2","legacy","1024","2","48000","-16","experiment","HHHHH","1","odd","255408","130839","NA","NA","194236","1766","NA","NA","256533","1770","NA","NA","256641","257067","256527","256641","Flanker task","70","34669","73","yes","2560"
"95.94594594594595","95.94594594594595","475.18918918918916","475.18918918918916","black","legacy","legacy","legacy","0","incongruent","uniform","1","undefined","1","s","73","0","0","0","73","0","73","0","73","0","0","0","73","73","73","73","Sun Sep 20 17:19:46 2020","1500","The main experiment item","yes","Flankertask.osexp","C:/Users/JHS6-EAGLE/Desktop/OpenSes Files","no","mono","no","18","no","white","no","yes","1440","legacy","73","73","C:/Users/JHS6-EAGLE/Desktop/OpenSes Files/JS-subject-1.csv","legacy","Lentiform Loewenfeld","3.3.3","0","s","NA","h","NA","NA","s","495","NA","129068","NA","NA","495","2","legacy","1024","2","48000","-16","experiment","HHSHH","1","odd","257075","130839","NA","NA","194236","1766","NA","NA","258217","1770","NA","NA","258323","258819","258211","258323","Flanker task","71","35164","74","yes","2560"
"96","96","474.1066666666667","474.1066666666667","black","legacy","legacy","legacy","0","conruent","uniform","1","undefined","1","s","74","0","0","0","74","0","74","0","74","0","0","0","74","74","74","74","Sun Sep 20 17:19:46 2020","1500","The main experiment item","yes","Flankertask.osexp","C:/Users/JHS6-EAGLE/Desktop/OpenSes Files","no","mono","no","18","no","white","no","yes","1440","legacy","74","74","C:/Users/JHS6-EAGLE/Desktop/OpenSes Files/JS-subject-1.csv","legacy","Lentiform Loewenfeld","3.3.3","0","s","NA","h","NA","NA","s","394","NA","129068","NA","NA","394","2","legacy","1024","2","48000","-16","experiment","SSSSS","1","odd","258826","130839","NA","NA","194236","1766","NA","NA","259951","1770","NA","NA","260061","260455","259945","260061","Flanker task","72","35558","75","yes","2560"
"96.05263157894737","96.05263157894737","473.5921052631579","473.5921052631579","black","legacy","legacy","legacy","0","incongruent","uniform","1","undefined","1","h","75","0","0","0","75","0","75","0","75","0","0","0","75","75","75","75","Sun Sep 20 17:19:46 2020","1500","The main experiment item","yes","Flankertask.osexp","C:/Users/JHS6-EAGLE/Desktop/OpenSes Files","no","mono","no","18","no","white","no","yes","1440","legacy","75","75","C:/Users/JHS6-EAGLE/Desktop/OpenSes Files/JS-subject-1.csv","legacy","Lentiform Loewenfeld","3.3.3","0","h","NA","h","NA","NA","h","435","NA","129068","NA","NA","435","2","legacy","1024","2","48000","-16","experiment","SSHSS","1","odd","260463","130839","NA","NA","194236","1766","NA","NA","261589","1770","NA","NA","261693","262129","261584","261693","Flanker task","73","35993","76","yes","2560"
"96.1038961038961","96.1038961038961","473.7142857142857","473.7142857142857","black","legacy","legacy","legacy","0","incongruent","uniform","1","undefined","1","s","76","0","0","0","76","0","76","0","76","0","0","0","76","76","76","76","Sun Sep 20 17:19:46 2020","1500","The main experiment item","yes","Flankertask.osexp","C:/Users/JHS6-EAGLE/Desktop/OpenSes Files","no","mono","no","18","no","white","no","yes","1440","legacy","76","76","C:/Users/JHS6-EAGLE/Desktop/OpenSes Files/JS-subject-1.csv","legacy","Lentiform Loewenfeld","3.3.3","0","s","NA","h","NA","NA","s","483","NA","129068","NA","NA","483","2","legacy","1024","2","48000","-16","experiment","HHSHH","1","odd","262136","130839","NA","NA","194236","1766","NA","NA","263272","1770","NA","NA","263376","263860","263267","263376","Flanker task","74","36476","77","yes","2560"
"96.15384615384616","96.15384615384616","472.8974358974359","472.8974358974359","black","legacy","legacy","legacy","0","conruent","uniform","1","undefined","1","s","77","0","0","0","77","0","77","0","77","0","0","0","77","77","77","77","Sun Sep 20 17:19:46 2020","1500","The main experiment item","yes","Flankertask.osexp","C:/Users/JHS6-EAGLE/Desktop/OpenSes Files","no","mono","no","18","no","white","no","yes","1440","legacy","77","77","C:/Users/JHS6-EAGLE/Desktop/OpenSes Files/JS-subject-1.csv","legacy","Lentiform Loewenfeld","3.3.3","0","s","NA","h","NA","NA","s","410","NA","129068","NA","NA","410","2","legacy","1024","2","48000","-16","experiment","SSSSS","1","odd","263869","130839","NA","NA","194236","1766","NA","NA","264994","1770","NA","NA","265101","265512","264988","265101","Flanker task","75","36886","78","yes","2560"
"96.20253164556962","96.20253164556962","471.50632911392404","471.50632911392404","black","legacy","legacy","legacy","0","conruent","uniform","1","undefined","1","s","78","0","0","0","78","0","78","0","78","0","0","0","78","78","78","78","Sun Sep 20 17:19:46 2020","1500","The main experiment item","yes","Flankertask.osexp","C:/Users/JHS6-EAGLE/Desktop/OpenSes Files","no","mono","no","18","no","white","no","yes","1440","legacy","78","78","C:/Users/JHS6-EAGLE/Desktop/OpenSes Files/JS-subject-1.csv","legacy","Lentiform Loewenfeld","3.3.3","0","s","NA","h","NA","NA","s","363","NA","129068","NA","NA","363","2","legacy","1024","2","48000","-16","experiment","SSSSS","1","odd","265520","130839","NA","NA","194236","1766","NA","NA","266657","1770","NA","NA","266771","267135","266651","266771","Flanker task","76","37249","79","yes","2560"
"96.25","96.25","470.4","470.4","black","legacy","legacy","legacy","0","conruent","uniform","1","undefined","1","s","79","0","0","0","79","0","79","0","79","0","0","0","79","79","79","79","Sun Sep 20 17:19:46 2020","1500","The main experiment item","yes","Flankertask.osexp","C:/Users/JHS6-EAGLE/Desktop/OpenSes Files","no","mono","no","18","no","white","no","yes","1440","legacy","79","79","C:/Users/JHS6-EAGLE/Desktop/OpenSes Files/JS-subject-1.csv","legacy","Lentiform Loewenfeld","3.3.3","0","s","NA","h","NA","NA","s","383","NA","129068","NA","NA","383","2","legacy","1024","2","48000","-16","experiment","SSSSS","1","odd","267143","130839","NA","NA","194236","1766","NA","NA","268267","1770","NA","NA","268379","268763","268262","268379","Flanker task","77","37632","80","yes","2560"
"96.29629629629629","96.29629629629629","472.2962962962963","472.2962962962963","black","legacy","legacy","legacy","0","incongruent","uniform","1","undefined","1","h","80","0","0","0","80","0","80","0","80","0","0","0","80","80","80","80","Sun Sep 20 17:19:46 2020","600","The main experiment item","yes","Flankertask.osexp","C:/Users/JHS6-EAGLE/Desktop/OpenSes Files","no","mono","no","18","no","white","no","yes","1440","legacy","0","79","C:/Users/JHS6-EAGLE/Desktop/OpenSes Files/JS-subject-1.csv","legacy","Lentiform Loewenfeld","3.3.3","0","h","NA","h","s","NA","h","624","NA","129068","14762","NA","624","2","legacy","1024","2","48000","-16","experiment","SSHSS","1","odd","268770","130839","284555","NA","194236","1766","NA","NA","284668","1770","269792","NA","284772","285397","284664","284772","Flanker task","78","38256","81","yes","2560"
"96.34146341463415","96.34146341463415","471.0365853658537","471.0365853658537","black","legacy","legacy","legacy","0","congruent","uniform","1","undefined","1","h","81","0","0","0","81","0","81","0","81","0","0","0","81","81","81","81","Sun Sep 20 17:19:46 2020","600","The main experiment item","yes","Flankertask.osexp","C:/Users/JHS6-EAGLE/Desktop/OpenSes Files","no","mono","no","18","no","white","no","yes","1440","legacy","1","79","C:/Users/JHS6-EAGLE/Desktop/OpenSes Files/JS-subject-1.csv","legacy","Lentiform Loewenfeld","3.3.3","0","h","NA","h","s","NA","h","369","NA","129068","14762","NA","369","2","legacy","1024","2","48000","-16","experiment","HHHHH","1","odd","285919","130839","284555","NA","194236","1766","285405","NA","287044","1770","269792","NA","287148","287518","287039","287148","Flanker task","79","38625","82","yes","2560"
"95.18072289156626","95.18072289156626","470","470","black","legacy","legacy","legacy","0","incongruent","uniform","0","undefined","0","s","82","0","0","0","82","0","82","0","82","0","0","0","82","82","82","82","Sun Sep 20 17:19:46 2020","600","The main experiment item","yes","Flankertask.osexp","C:/Users/JHS6-EAGLE/Desktop/OpenSes Files","no","mono","no","18","no","white","no","yes","1440","legacy","2","79","C:/Users/JHS6-EAGLE/Desktop/OpenSes Files/JS-subject-1.csv","legacy","Lentiform Loewenfeld","3.3.3","0","h","NA","h","s","NA","h","385","NA","129068","14762","NA","385","2","legacy","1024","2","48000","-16","experiment","HHSHH","1","odd","287526","130839","284555","NA","194236","1766","285405","NA","288650","1770","269792","NA","288754","289140","288644","288754","Flanker task","79","39010","83","yes","2560"
"95.23809523809524","95.23809523809524","469.4642857142857","469.4642857142857","black","legacy","legacy","legacy","0","incongruent","uniform","1","undefined","1","h","83","0","0","0","83","0","83","0","83","0","0","0","83","83","83","83","Sun Sep 20 17:19:46 2020","600","The main experiment item","yes","Flankertask.osexp","C:/Users/JHS6-EAGLE/Desktop/OpenSes Files","no","mono","no","18","no","white","no","yes","1440","legacy","3","79","C:/Users/JHS6-EAGLE/Desktop/OpenSes Files/JS-subject-1.csv","legacy","Lentiform Loewenfeld","3.3.3","0","h","NA","h","s","NA","h","425","NA","129068","14762","NA","425","2","legacy","1024","2","48000","-16","experiment","SSHSS","1","odd","289651","130839","284555","NA","289147","1766","285405","NA","290774","1770","269792","NA","290882","291308","290768","290882","Flanker task","80","39435","84","yes","2560"
"95.29411764705883","95.29411764705883","468.08235294117645","468.08235294117645","black","legacy","legacy","legacy","0","congruent","uniform","1","undefined","1","h","84","0","0","0","84","0","84","0","84","0","0","0","84","84","84","84","Sun Sep 20 17:19:46 2020","600","The main experiment item","yes","Flankertask.osexp","C:/Users/JHS6-EAGLE/Desktop/OpenSes Files","no","mono","no","18","no","white","no","yes","1440","legacy","4","79","C:/Users/JHS6-EAGLE/Desktop/OpenSes Files/JS-subject-1.csv","legacy","Lentiform Loewenfeld","3.3.3","0","h","NA","h","s","NA","h","352","NA","129068","14762","NA","352","2","legacy","1024","2","48000","-16","experiment","HHHHH","1","odd","291314","130839","284555","NA","289147","1766","285405","NA","292439","1770","269792","NA","292549","292901","292433","292549","Flanker task","81","39787","85","yes","2560"
"95.34883720930233","95.34883720930233","467.1744186046512","467.1744186046512","black","legacy","legacy","legacy","0","incongruent","uniform","1","undefined","1","h","85","0","0","0","85","0","85","0","85","0","0","0","85","85","85","85","Sun Sep 20 17:19:46 2020","600","The main experiment item","yes","Flankertask.osexp","C:/Users/JHS6-EAGLE/Desktop/OpenSes Files","no","mono","no","18","no","white","no","yes","1440","legacy","5","79","C:/Users/JHS6-EAGLE/Desktop/OpenSes Files/JS-subject-1.csv","legacy","Lentiform Loewenfeld","3.3.3","0","h","NA","h","s","NA","h","390","NA","129068","14762","NA","390","2","legacy","1024","2","48000","-16","experiment","SSHSS","1","odd","292909","130839","284555","NA","289147","1766","285405","NA","294033","1770","269792","NA","294143","294534","294028","294143","Flanker task","82","40177","86","yes","2560"
"95.40229885057471","95.40229885057471","465.7471264367816","465.7471264367816","black","legacy","legacy","legacy","0","congruent","uniform","1","undefined","1","h","86","0","0","0","86","0","86","0","86","0","0","0","86","86","86","86","Sun Sep 20 17:19:46 2020","600","The main experiment item","yes","Flankertask.osexp","C:/Users/JHS6-EAGLE/Desktop/OpenSes Files","no","mono","no","18","no","white","no","yes","1440","legacy","6","79","C:/Users/JHS6-EAGLE/Desktop/OpenSes Files/JS-subject-1.csv","legacy","Lentiform Loewenfeld","3.3.3","0","h","NA","h","s","NA","h","343","NA","129068","14762","NA","343","2","legacy","1024","2","48000","-16","experiment","HHHHH","1","odd","294541","130839","284555","NA","289147","1766","285405","NA","295666","1770","269792","NA","295773","296116","295660","295773","Flanker task","83","40520","87","yes","2560"
"95.45454545454545","95.45454545454545","464.53409090909093","464.53409090909093","black","legacy","legacy","legacy","0","conruent","uniform","1","undefined","1","s","87","0","0","0","87","0","87","0","87","0","0","0","87","87","87","87","Sun Sep 20 17:19:46 2020","600","The main experiment item","yes","Flankertask.osexp","C:/Users/JHS6-EAGLE/Desktop/OpenSes Files","no","mono","no","18","no","white","no","yes","1440","legacy","7","79","C:/Users/JHS6-EAGLE/Desktop/OpenSes Files/JS-subject-1.csv","legacy","Lentiform Loewenfeld","3.3.3","0","s","NA","h","s","NA","s","359","NA","129068","14762","NA","359","2","legacy","1024","2","48000","-16","experiment","SSSSS","1","odd","296124","130839","284555","NA","289147","1766","285405","NA","297248","1770","269792","NA","297366","297726","297243","297366","Flanker task","84","40879","88","yes","2560"
"95.50561797752809","95.50561797752809","463.2022471910112","463.2022471910112","black","legacy","legacy","legacy","0","congruent","uniform","1","undefined","1","h","88","0","0","0","88","0","88","0","88","0","0","0","88","88","88","88","Sun Sep 20 17:19:46 2020","600","The main experiment item","yes","Flankertask.osexp","C:/Users/JHS6-EAGLE/Desktop/OpenSes Files","no","mono","no","18","no","white","no","yes","1440","legacy","8","79","C:/Users/JHS6-EAGLE/Desktop/OpenSes Files/JS-subject-1.csv","legacy","Lentiform Loewenfeld","3.3.3","0","h","NA","h","s","NA","h","346","NA","129068","14762","NA","346","2","legacy","1024","2","48000","-16","experiment","HHHHH","1","odd","297732","130839","284555","NA","289147","1766","285405","NA","298863","1770","269792","NA","298969","299315","298858","298969","Flanker task","85","41225","89","yes","2560"
"95.55555555555556","95.55555555555556","461.97777777777776","461.97777777777776","black","legacy","legacy","legacy","0","congruent","uniform","1","undefined","1","h","89","0","0","0","89","0","89","0","89","0","0","0","89","89","89","89","Sun Sep 20 17:19:46 2020","600","The main experiment item","yes","Flankertask.osexp","C:/Users/JHS6-EAGLE/Desktop/OpenSes Files","no","mono","no","18","no","white","no","yes","1440","legacy","9","79","C:/Users/JHS6-EAGLE/Desktop/OpenSes Files/JS-subject-1.csv","legacy","Lentiform Loewenfeld","3.3.3","0","h","NA","h","s","NA","h","353","NA","129068","14762","NA","353","2","legacy","1024","2","48000","-16","experiment","HHHHH","1","odd","299323","130839","284555","NA","289147","1766","285405","NA","300450","1770","269792","NA","300555","300908","300444","300555","Flanker task","86","41578","90","yes","2560"
"95.6043956043956","95.6043956043956","460.7802197802198","460.7802197802198","black","legacy","legacy","legacy","0","congruent","uniform","1","undefined","1","h","90","0","0","0","90","0","90","0","90","0","0","0","90","90","90","90","Sun Sep 20 17:19:46 2020","600","The main experiment item","yes","Flankertask.osexp","C:/Users/JHS6-EAGLE/Desktop/OpenSes Files","no","mono","no","18","no","white","no","yes","1440","legacy","10","79","C:/Users/JHS6-EAGLE/Desktop/OpenSes Files/JS-subject-1.csv","legacy","Lentiform Loewenfeld","3.3.3","0","h","NA","h","s","NA","h","353","NA","129068","14762","NA","353","2","legacy","1024","2","48000","-16","experiment","HHHHH","1","odd","300915","130839","284555","NA","289147","1766","285405","NA","302040","1770","269792","NA","302147","302501","302034","302147","Flanker task","87","41931","91","yes","2560"
"95.65217391304348","95.65217391304348","460.80434782608694","460.80434782608694","black","legacy","legacy","legacy","0","incongruent","uniform","1","undefined","1","s","91","0","0","0","91","0","91","0","91","0","0","0","91","91","91","91","Sun Sep 20 17:19:46 2020","600","The main experiment item","yes","Flankertask.osexp","C:/Users/JHS6-EAGLE/Desktop/OpenSes Files","no","mono","no","18","no","white","no","yes","1440","legacy","11","79","C:/Users/JHS6-EAGLE/Desktop/OpenSes Files/JS-subject-1.csv","legacy","Lentiform Loewenfeld","3.3.3","0","s","NA","h","s","NA","s","463","NA","129068","14762","NA","463","2","legacy","1024","2","48000","-16","experiment","HHSHH","1","odd","302508","130839","284555","NA","289147","1766","285405","NA","303633","1770","269792","NA","303737","304201","303627","303737","Flanker task","88","42394","92","yes","2560"
"95.6989247311828","95.6989247311828","459.81720430107526","459.81720430107526","black","legacy","legacy","legacy","0","congruent","uniform","1","undefined","1","h","92","0","0","0","92","0","92","0","92","0","0","0","92","92","92","92","Sun Sep 20 17:19:46 2020","600","The main experiment item","yes","Flankertask.osexp","C:/Users/JHS6-EAGLE/Desktop/OpenSes Files","no","mono","no","18","no","white","no","yes","1440","legacy","12","79","C:/Users/JHS6-EAGLE/Desktop/OpenSes Files/JS-subject-1.csv","legacy","Lentiform Loewenfeld","3.3.3","0","h","NA","h","s","NA","h","369","NA","129068","14762","NA","369","2","legacy","1024","2","48000","-16","experiment","HHHHH","1","odd","304209","130839","284555","NA","289147","1766","285405","NA","305341","1770","269792","NA","305445","305815","305336","305445","Flanker task","89","42763","93","yes","2560"
"95.74468085106383","95.74468085106383","458.43617021276594","458.43617021276594","black","legacy","legacy","legacy","0","incongruent","uniform","1","undefined","1","h","93","0","0","0","93","0","93","0","93","0","0","0","93","93","93","93","Sun Sep 20 17:19:46 2020","600","The main experiment item","yes","Flankertask.osexp","C:/Users/JHS6-EAGLE/Desktop/OpenSes Files","no","mono","no","18","no","white","no","yes","1440","legacy","13","79","C:/Users/JHS6-EAGLE/Desktop/OpenSes Files/JS-subject-1.csv","legacy","Lentiform Loewenfeld","3.3.3","0","h","NA","h","s","NA","h","330","NA","129068","14762","NA","330","2","legacy","1024","2","48000","-16","experiment","SSHSS","1","odd","305823","130839","284555","NA","289147","1766","285405","NA","306962","1770","269792","NA","307067","307398","306956","307066","Flanker task","90","43093","94","yes","2560"
"95.78947368421052","95.78947368421052","457.4421052631579","457.4421052631579","black","legacy","legacy","legacy","0","congruent","uniform","1","undefined","1","h","94","0","0","0","94","0","94","0","94","0","0","0","94","94","94","94","Sun Sep 20 17:19:46 2020","600","The main experiment item","yes","Flankertask.osexp","C:/Users/JHS6-EAGLE/Desktop/OpenSes Files","no","mono","no","18","no","white","no","yes","1440","legacy","14","79","C:/Users/JHS6-EAGLE/Desktop/OpenSes Files/JS-subject-1.csv","legacy","Lentiform Loewenfeld","3.3.3","0","h","NA","h","s","NA","h","364","NA","129068","14762","NA","364","2","legacy","1024","2","48000","-16","experiment","HHHHH","1","odd","307405","130839","284555","NA","289147","1766","285405","NA","308530","1770","269792","NA","308634","308998","308524","308634","Flanker task","91","43457","95","yes","2560"
"95.83333333333333","95.83333333333333","456.3854166666667","456.3854166666667","black","legacy","legacy","legacy","0","incongruent","uniform","1","undefined","1","h","95","0","0","0","95","0","95","0","95","0","0","0","95","95","95","95","Sun Sep 20 17:19:46 2020","600","The main experiment item","yes","Flankertask.osexp","C:/Users/JHS6-EAGLE/Desktop/OpenSes Files","no","mono","no","18","no","white","no","yes","1440","legacy","15","79","C:/Users/JHS6-EAGLE/Desktop/OpenSes Files/JS-subject-1.csv","legacy","Lentiform Loewenfeld","3.3.3","0","h","NA","h","s","NA","h","356","NA","129068","14762","NA","356","2","legacy","1024","2","48000","-16","experiment","SSHSS","1","odd","309006","130839","284555","NA","289147","1766","285405","NA","310130","1770","269792","NA","310235","310592","310125","310235","Flanker task","92","43813","96","yes","2560"
"95.87628865979381","95.87628865979381","456.08247422680415","456.08247422680415","black","legacy","legacy","legacy","0","incongruent","uniform","1","undefined","1","s","96","0","0","0","96","0","96","0","96","0","0","0","96","96","96","96","Sun Sep 20 17:19:46 2020","600","The main experiment item","yes","Flankertask.osexp","C:/Users/JHS6-EAGLE/Desktop/OpenSes Files","no","mono","no","18","no","white","no","yes","1440","legacy","16","79","C:/Users/JHS6-EAGLE/Desktop/OpenSes Files/JS-subject-1.csv","legacy","Lentiform Loewenfeld","3.3.3","0","s","NA","h","s","NA","s","427","NA","129068","14762","NA","427","2","legacy","1024","2","48000","-16","experiment","HHSHH","1","odd","310598","130839","284555","NA","289147","1766","285405","NA","311741","1770","269792","NA","311845","312273","311736","311845","Flanker task","93","44240","97","yes","2560"
"95.91836734693878","95.91836734693878","455.2551020408163","455.2551020408163","black","legacy","legacy","legacy","0","incongruent","uniform","1","undefined","1","h","97","0","0","0","97","0","97","0","97","0","0","0","97","97","97","97","Sun Sep 20 17:19:46 2020","600","The main experiment item","yes","Flankertask.osexp","C:/Users/JHS6-EAGLE/Desktop/OpenSes Files","no","mono","no","18","no","white","no","yes","1440","legacy","17","79","C:/Users/JHS6-EAGLE/Desktop/OpenSes Files/JS-subject-1.csv","legacy","Lentiform Loewenfeld","3.3.3","0","h","NA","h","s","NA","h","375","NA","129068","14762","NA","375","2","legacy","1024","2","48000","-16","experiment","SSHSS","1","odd","312281","130839","284555","NA","289147","1766","285405","NA","313406","1770","269792","NA","313511","313887","313400","313510","Flanker task","94","44615","98","yes","2560"
"95.95959595959596","95.95959595959596","454.85858585858585","454.85858585858585","black","legacy","legacy","legacy","0","conruent","uniform","1","undefined","1","s","98","0","0","0","98","0","98","0","98","0","0","0","98","98","98","98","Sun Sep 20 17:19:46 2020","600","The main experiment item","yes","Flankertask.osexp","C:/Users/JHS6-EAGLE/Desktop/OpenSes Files","no","mono","no","18","no","white","no","yes","1440","legacy","18","79","C:/Users/JHS6-EAGLE/Desktop/OpenSes Files/JS-subject-1.csv","legacy","Lentiform Loewenfeld","3.3.3","0","s","NA","h","s","NA","s","416","NA","129068","14762","NA","416","2","legacy","1024","2","48000","-16","experiment","SSSSS","1","odd","313895","130839","284555","NA","289147","1766","285405","NA","315020","1770","269792","NA","315124","315541","315014","315124","Flanker task","95","45031","99","yes","2560"
"96","96","454.08","454.08","black","legacy","legacy","legacy","0","conruent","uniform","1","undefined","1","s","99","0","0","0","99","0","99","0","99","0","0","0","99","99","99","99","Sun Sep 20 17:19:46 2020","600","The main experiment item","yes","Flankertask.osexp","C:/Users/JHS6-EAGLE/Desktop/OpenSes Files","no","mono","no","18","no","white","no","yes","1440","legacy","19","79","C:/Users/JHS6-EAGLE/Desktop/OpenSes Files/JS-subject-1.csv","legacy","Lentiform Loewenfeld","3.3.3","0","s","NA","h","s","NA","s","377","NA","129068","14762","NA","377","2","legacy","1024","2","48000","-16","experiment","SSSSS","1","odd","315548","130839","284555","NA","289147","1766","285405","NA","316672","1770","269792","NA","316784","317162","316667","316784","Flanker task","96","45408","100","yes","2560"
"96.03960396039604","96.03960396039604","452.8910891089109","452.8910891089109","black","legacy","legacy","legacy","0","conruent","uniform","1","undefined","1","s","100","0","0","0","100","0","100","0","100","0","0","0","100","100","100","100","Sun Sep 20 17:19:46 2020","600","The main experiment item","yes","Flankertask.osexp","C:/Users/JHS6-EAGLE/Desktop/OpenSes Files","no","mono","no","18","no","white","no","yes","1440","legacy","20","79","C:/Users/JHS6-EAGLE/Desktop/OpenSes Files/JS-subject-1.csv","legacy","Lentiform Loewenfeld","3.3.3","0","s","NA","h","s","NA","s","334","NA","129068","14762","NA","334","2","legacy","1024","2","48000","-16","experiment","SSSSS","1","odd","317171","130839","284555","NA","289147","1766","285405","NA","318313","1770","269792","NA","318418","318753","318307","318418","Flanker task","97","45742","101","yes","2560"
"96.07843137254902","96.07843137254902","452.19607843137254","452.19607843137254","black","legacy","legacy","legacy","0","incongruent","uniform","1","undefined","1","h","101","0","0","0","101","0","101","0","101","0","0","0","101","101","101","101","Sun Sep 20 17:19:46 2020","600","The main experiment item","yes","Flankertask.osexp","C:/Users/JHS6-EAGLE/Desktop/OpenSes Files","no","mono","no","18","no","white","no","yes","1440","legacy","21","79","C:/Users/JHS6-EAGLE/Desktop/OpenSes Files/JS-subject-1.csv","legacy","Lentiform Loewenfeld","3.3.3","0","h","NA","h","s","NA","h","382","NA","129068","14762","NA","382","2","legacy","1024","2","48000","-16","experiment","SSHSS","1","odd","318770","130839","284555","NA","289147","1766","285405","NA","319895","1770","269792","NA","320001","320384","319890","320001","Flanker task","98","46124","102","yes","2560"
"96.11650485436893","96.11650485436893","451.75728155339806","451.75728155339806","black","legacy","legacy","legacy","0","incongruent","uniform","1","undefined","1","s","102","0","0","0","102","0","102","0","102","0","0","0","102","102","102","102","Sun Sep 20 17:19:46 2020","600","The main experiment item","yes","Flankertask.osexp","C:/Users/JHS6-EAGLE/Desktop/OpenSes Files","no","mono","no","18","no","white","no","yes","1440","legacy","22","79","C:/Users/JHS6-EAGLE/Desktop/OpenSes Files/JS-subject-1.csv","legacy","Lentiform Loewenfeld","3.3.3","0","s","NA","h","s","NA","s","407","NA","129068","14762","NA","407","2","legacy","1024","2","48000","-16","experiment","HHSHH","1","odd","320393","130839","284555","NA","289147","1766","285405","NA","321520","1770","269792","NA","321624","322032","321514","321624","Flanker task","99","46531","103","yes","2560"
"96.15384615384616","96.15384615384616","451.4519230769231","451.4519230769231","black","legacy","legacy","legacy","0","incongruent","uniform","1","undefined","1","s","103","0","0","0","103","0","103","0","103","0","0","0","103","103","103","103","Sun Sep 20 17:19:46 2020","600","The main experiment item","yes","Flankertask.osexp","C:/Users/JHS6-EAGLE/Desktop/OpenSes Files","no","mono","no","18","no","white","no","yes","1440","legacy","23","79","C:/Users/JHS6-EAGLE/Desktop/OpenSes Files/JS-subject-1.csv","legacy","Lentiform Loewenfeld","3.3.3","0","s","NA","h","s","NA","s","420","NA","129068","14762","NA","420","2","legacy","1024","2","48000","-16","experiment","HHSHH","1","odd","322049","130839","284555","NA","289147","1766","285405","NA","323174","1770","269792","NA","323279","323700","323169","323279","Flanker task","100","46951","104","yes","2560"
"96.19047619047619","96.19047619047619","450.67619047619047","450.67619047619047","black","legacy","legacy","legacy","0","incongruent","uniform","1","undefined","1","h","104","0","0","0","104","0","104","0","104","0","0","0","104","104","104","104","Sun Sep 20 17:19:46 2020","600","The main experiment item","yes","Flankertask.osexp","C:/Users/JHS6-EAGLE/Desktop/OpenSes Files","no","mono","no","18","no","white","no","yes","1440","legacy","24","79","C:/Users/JHS6-EAGLE/Desktop/OpenSes Files/JS-subject-1.csv","legacy","Lentiform Loewenfeld","3.3.3","0","h","NA","h","s","NA","h","370","NA","129068","14762","NA","370","2","legacy","1024","2","48000","-16","experiment","SSHSS","1","odd","323709","130839","284555","NA","289147","1766","285405","NA","324847","1770","269792","NA","324963","325334","324841","324962","Flanker task","101","47321","105","yes","2560"
"96.22641509433963","96.22641509433963","450.04716981132077","450.04716981132077","black","legacy","legacy","legacy","0","conruent","uniform","1","undefined","1","s","105","0","0","0","105","0","105","0","105","0","0","0","105","105","105","105","Sun Sep 20 17:19:46 2020","600","The main experiment item","yes","Flankertask.osexp","C:/Users/JHS6-EAGLE/Desktop/OpenSes Files","no","mono","no","18","no","white","no","yes","1440","legacy","25","79","C:/Users/JHS6-EAGLE/Desktop/OpenSes Files/JS-subject-1.csv","legacy","Lentiform Loewenfeld","3.3.3","0","s","NA","h","s","NA","s","384","NA","129068","14762","NA","384","2","legacy","1024","2","48000","-16","experiment","SSSSS","1","odd","325343","130839","284555","NA","289147","1766","285405","NA","326467","1770","269792","NA","326579","326964","326461","326579","Flanker task","102","47705","106","yes","2560"
"96.26168224299066","96.26168224299066","448.8878504672897","448.8878504672897","black","legacy","legacy","legacy","0","conruent","uniform","1","undefined","1","s","106","0","0","0","106","0","106","0","106","0","0","0","106","106","106","106","Sun Sep 20 17:19:46 2020","600","The main experiment item","yes","Flankertask.osexp","C:/Users/JHS6-EAGLE/Desktop/OpenSes Files","no","mono","no","18","no","white","no","yes","1440","legacy","26","79","C:/Users/JHS6-EAGLE/Desktop/OpenSes Files/JS-subject-1.csv","legacy","Lentiform Loewenfeld","3.3.3","0","s","NA","h","s","NA","s","326","NA","129068","14762","NA","326","2","legacy","1024","2","48000","-16","experiment","SSSSS","1","odd","326974","130839","284555","NA","289147","1766","285405","NA","328099","1770","269792","NA","328204","328531","328093","328203","Flanker task","103","48031","107","yes","2560"
"96.29629629629629","96.29629629629629","447.75","447.75","black","legacy","legacy","legacy","0","conruent","uniform","1","undefined","1","s","107","0","0","0","107","0","107","0","107","0","0","0","107","107","107","107","Sun Sep 20 17:19:46 2020","600","The main experiment item","yes","Flankertask.osexp","C:/Users/JHS6-EAGLE/Desktop/OpenSes Files","no","mono","no","18","no","white","no","yes","1440","legacy","27","79","C:/Users/JHS6-EAGLE/Desktop/OpenSes Files/JS-subject-1.csv","legacy","Lentiform Loewenfeld","3.3.3","0","s","NA","h","s","NA","s","326","NA","129068","14762","NA","326","2","legacy","1024","2","48000","-16","experiment","SSSSS","1","odd","328539","130839","284555","NA","289147","1766","285405","NA","329664","1770","269792","NA","329768","330095","329658","329768","Flanker task","104","48357","108","yes","2560"
"96.3302752293578","96.3302752293578","446.43119266055044","446.43119266055044","black","legacy","legacy","legacy","0","congruent","uniform","1","undefined","1","h","108","0","0","0","108","0","108","0","108","0","0","0","108","108","108","108","Sun Sep 20 17:19:46 2020","600","The main experiment item","yes","Flankertask.osexp","C:/Users/JHS6-EAGLE/Desktop/OpenSes Files","no","mono","no","18","no","white","no","yes","1440","legacy","28","79","C:/Users/JHS6-EAGLE/Desktop/OpenSes Files/JS-subject-1.csv","legacy","Lentiform Loewenfeld","3.3.3","0","h","NA","h","s","NA","h","304","NA","129068","14762","NA","304","2","legacy","1024","2","48000","-16","experiment","HHHHH","1","odd","330105","130839","284555","NA","289147","1766","285405","NA","331231","1770","269792","NA","331345","331650","331226","331345","Flanker task","105","48661","109","yes","2560"
"96.36363636363636","96.36363636363636","446.0090909090909","446.0090909090909","black","legacy","legacy","legacy","0","incongruent","uniform","1","undefined","1","s","109","0","0","0","109","0","109","0","109","0","0","0","109","109","109","109","Sun Sep 20 17:19:46 2020","600","The main experiment item","yes","Flankertask.osexp","C:/Users/JHS6-EAGLE/Desktop/OpenSes Files","no","mono","no","18","no","white","no","yes","1440","legacy","29","79","C:/Users/JHS6-EAGLE/Desktop/OpenSes Files/JS-subject-1.csv","legacy","Lentiform Loewenfeld","3.3.3","0","s","NA","h","s","NA","s","400","NA","129068","14762","NA","400","2","legacy","1024","2","48000","-16","experiment","HHSHH","1","odd","331656","130839","284555","NA","289147","1766","285405","NA","332787","1770","269792","NA","332902","333303","332781","332902","Flanker task","106","49061","110","yes","2560"
"96.3963963963964","96.3963963963964","445.5765765765766","445.5765765765766","black","legacy","legacy","legacy","0","incongruent","uniform","1","undefined","1","s","110","0","0","0","110","0","110","0","110","0","0","0","110","110","110","110","Sun Sep 20 17:19:46 2020","600","The main experiment item","yes","Flankertask.osexp","C:/Users/JHS6-EAGLE/Desktop/OpenSes Files","no","mono","no","18","no","white","no","yes","1440","legacy","30","79","C:/Users/JHS6-EAGLE/Desktop/OpenSes Files/JS-subject-1.csv","legacy","Lentiform Loewenfeld","3.3.3","0","s","NA","h","s","NA","s","398","NA","129068","14762","NA","398","2","legacy","1024","2","48000","-16","experiment","HHSHH","1","odd","333311","130839","284555","NA","289147","1766","285405","NA","334456","1770","269792","NA","334564","334963","334450","334564","Flanker task","107","49459","111","yes","2560"
"96.42857142857143","96.42857142857143","444.38392857142856","444.38392857142856","black","legacy","legacy","legacy","0","incongruent","uniform","1","undefined","1","h","111","0","0","0","111","0","111","0","111","0","0","0","111","111","111","111","Sun Sep 20 17:19:46 2020","600","The main experiment item","yes","Flankertask.osexp","C:/Users/JHS6-EAGLE/Desktop/OpenSes Files","no","mono","no","18","no","white","no","yes","1440","legacy","31","79","C:/Users/JHS6-EAGLE/Desktop/OpenSes Files/JS-subject-1.csv","legacy","Lentiform Loewenfeld","3.3.3","0","h","NA","h","s","NA","h","312","NA","129068","14762","NA","312","2","legacy","1024","2","48000","-16","experiment","SSHSS","1","odd","334973","130839","284555","NA","289147","1766","285405","NA","336097","1770","269792","NA","336202","336515","336091","336202","Flanker task","108","49771","112","yes","2560"
"96.46017699115045","96.46017699115045","443.6371681415929","443.6371681415929","black","legacy","legacy","legacy","0","incongruent","uniform","1","undefined","1","h","112","0","0","0","112","0","112","0","112","0","0","0","112","112","112","112","Sun Sep 20 17:19:46 2020","600","The main experiment item","yes","Flankertask.osexp","C:/Users/JHS6-EAGLE/Desktop/OpenSes Files","no","mono","no","18","no","white","no","yes","1440","legacy","32","79","C:/Users/JHS6-EAGLE/Desktop/OpenSes Files/JS-subject-1.csv","legacy","Lentiform Loewenfeld","3.3.3","0","h","NA","h","s","NA","h","360","NA","129068","14762","NA","360","2","legacy","1024","2","48000","-16","experiment","SSHSS","1","odd","336524","130839","284555","NA","289147","1766","285405","NA","337665","1770","269792","NA","337770","338131","337660","337770","Flanker task","109","50131","113","yes","2560"
"96.49122807017544","96.49122807017544","443.140350877193","443.140350877193","black","legacy","legacy","legacy","0","conruent","uniform","1","undefined","1","s","113","0","0","0","113","0","113","0","113","0","0","0","113","113","113","113","Sun Sep 20 17:19:46 2020","600","The main experiment item","yes","Flankertask.osexp","C:/Users/JHS6-EAGLE/Desktop/OpenSes Files","no","mono","no","18","no","white","no","yes","1440","legacy","33","79","C:/Users/JHS6-EAGLE/Desktop/OpenSes Files/JS-subject-1.csv","legacy","Lentiform Loewenfeld","3.3.3","0","s","NA","h","s","NA","s","387","NA","129068","14762","NA","387","2","legacy","1024","2","48000","-16","experiment","SSSSS","1","odd","338140","130839","284555","NA","289147","1766","285405","NA","339281","1770","269792","NA","339388","339776","339276","339387","Flanker task","110","50518","114","yes","2560"
"96.52173913043478","96.52173913043478","442.6","442.6","black","legacy","legacy","legacy","0","incongruent","uniform","1","undefined","1","h","114","0","0","0","114","0","114","0","114","0","0","0","114","114","114","114","Sun Sep 20 17:19:46 2020","600","The main experiment item","yes","Flankertask.osexp","C:/Users/JHS6-EAGLE/Desktop/OpenSes Files","no","mono","no","18","no","white","no","yes","1440","legacy","34","79","C:/Users/JHS6-EAGLE/Desktop/OpenSes Files/JS-subject-1.csv","legacy","Lentiform Loewenfeld","3.3.3","0","h","NA","h","s","NA","h","381","NA","129068","14762","NA","381","2","legacy","1024","2","48000","-16","experiment","SSHSS","1","odd","339785","130839","284555","NA","289147","1766","285405","NA","340909","1770","269792","NA","341013","341395","340904","341013","Flanker task","111","50899","115","yes","2560"
"96.55172413793103","96.55172413793103","441.91379310344826","441.91379310344826","black","legacy","legacy","legacy","0","conruent","uniform","1","undefined","1","s","115","0","0","0","115","0","115","0","115","0","0","0","115","115","115","115","Sun Sep 20 17:19:46 2020","600","The main experiment item","yes","Flankertask.osexp","C:/Users/JHS6-EAGLE/Desktop/OpenSes Files","no","mono","no","18","no","white","no","yes","1440","legacy","35","79","C:/Users/JHS6-EAGLE/Desktop/OpenSes Files/JS-subject-1.csv","legacy","Lentiform Loewenfeld","3.3.3","0","s","NA","h","s","NA","s","363","NA","129068","14762","NA","363","2","legacy","1024","2","48000","-16","experiment","SSSSS","1","odd","341404","130839","284555","NA","289147","1766","285405","NA","342529","1770","269792","NA","342647","343011","342523","342646","Flanker task","112","51262","116","yes","2560"
"95.72649572649573","95.72649572649573","441.017094017094","441.017094017094","black","legacy","legacy","legacy","0","incongruent","uniform","0","undefined","0","s","116","0","0","0","116","0","116","0","116","0","0","0","116","116","116","116","Sun Sep 20 17:19:46 2020","600","The main experiment item","yes","Flankertask.osexp","C:/Users/JHS6-EAGLE/Desktop/OpenSes Files","no","mono","no","18","no","white","no","yes","1440","legacy","36","79","C:/Users/JHS6-EAGLE/Desktop/OpenSes Files/JS-subject-1.csv","legacy","Lentiform Loewenfeld","3.3.3","0","h","NA","h","s","NA","h","337","NA","129068","14762","NA","337","2","legacy","1024","2","48000","-16","experiment","HHSHH","1","odd","343018","130839","284555","NA","289147","1766","285405","NA","344143","1770","269792","NA","344255","344593","344137","344255","Flanker task","112","51599","117","yes","2560"
