acc,accuracy,average_response_time,avg_rt,background,canvas_backend,clock_backend,color_backend,compensation,condition,coordinates,correct,correct_instructions1,correct_keyboard_response,correct_response,count_Block1,count_Block2,count_Block3,count_errorFeedback,count_experiment,count_faster,count_finish,count_fixation,count_instructions1,count_instructions2,count_instructions3,count_isi,count_keyboard_response,count_logger,count_sequence,count_stimulus,datetime,deadline,description,disable_garbage_collection,experiment_file,experiment_path,font_bold,font_family,font_italic,font_size,font_underline,foreground,form_clicks,fullscreen,height,keyboard_backend,live_row,live_row_Block1,logfile,mouse_backend,opensesame_codename,opensesame_version,repeat_cycle,response,response_finish,response_instructions1,response_instructions2,response_instructions3,response_keyboard_response,response_time,response_time_finish,response_time_instructions1,response_time_instructions2,response_time_instructions3,response_time_keyboard_response,round_decimals,sampler_backend,sound_buf_size,sound_channels,sound_freq,sound_sample_size,start,stimulus,subject_nr,subject_parity,time_Block1,time_Block2,time_Block3,time_errorFeedback,time_experiment,time_faster,time_finish,time_fixation,time_instructions1,time_instructions2,time_instructions3,time_isi,time_keyboard_response,time_logger,time_sequence,time_stimulus,title,total_correct,total_response_time,total_responses,uniform_coordinates,width
100,100,843,843,black,legacy,legacy,legacy,0,congruent,uniform,1,undefined,1,h,0,0,0,0,0,0,0,0,0,0,0,0,0,0,0,0,9/16/2020 21:19,1500,The main experiment item,yes,FlankerTask Rene Wallace.osexp,C:\Users\18177\OneDrive\Documents\School\Grad School\Fall 2020\Lab 2 FlankerTask,no,mono,no,18,no,white,no,yes,768,legacy,0,0,C:/Users/18177/OneDrive/Documents/School/Grad School/Fall 2020/Lab 2 FlankerTask/RW-subject-3.csv,legacy,Lentiform Loewenfeld,3.3.3,0,H,NA,S,NA,NA,H,843,NA,34493,NA,NA,843,2,legacy,1024,2,48000,-16,experiment,HHHHH,3,odd,38710,NA,NA,NA,4207,NA,NA,38888,4216,NA,NA,NA,38991,39835,38885,38991,Flanker Task,1,843,1,yes,1024
100,100,821,821,black,legacy,legacy,legacy,0,incongruent,uniform,1,undefined,1,h,0,0,0,1,0,1,0,1,0,0,0,1,1,1,1,1,9/16/2020 21:19,1500,The main experiment item,yes,FlankerTask Rene Wallace.osexp,C:\Users\18177\OneDrive\Documents\School\Grad School\Fall 2020\Lab 2 FlankerTask,no,mono,no,18,no,white,no,yes,768,legacy,1,1,C:/Users/18177/OneDrive/Documents/School/Grad School/Fall 2020/Lab 2 FlankerTask/RW-subject-3.csv,legacy,Lentiform Loewenfeld,3.3.3,0,H,NA,S,NA,NA,H,799,NA,34493,NA,NA,799,2,legacy,1024,2,48000,-16,experiment,SSHSS,3,odd,38710,NA,NA,NA,4207,NA,NA,40976,4216,NA,NA,39857,41079,41878,40972,41079,Flanker Task,2,1642,2,yes,1024
100,100,717.3333333,717.3333333,black,legacy,legacy,legacy,0,congruent,uniform,1,undefined,1,h,0,0,0,2,0,2,0,2,0,0,0,2,2,2,2,2,9/16/2020 21:19,1500,The main experiment item,yes,FlankerTask Rene Wallace.osexp,C:\Users\18177\OneDrive\Documents\School\Grad School\Fall 2020\Lab 2 FlankerTask,no,mono,no,18,no,white,no,yes,768,legacy,2,2,C:/Users/18177/OneDrive/Documents/School/Grad School/Fall 2020/Lab 2 FlankerTask/RW-subject-3.csv,legacy,Lentiform Loewenfeld,3.3.3,0,H,NA,S,NA,NA,H,510,NA,34493,NA,NA,510,2,legacy,1024,2,48000,-16,experiment,HHHHH,3,odd,38710,NA,NA,NA,4207,NA,NA,43016,4216,NA,NA,41895,43118,43629,43012,43118,Flanker Task,3,2152,3,yes,1024
100,100,681,681,black,legacy,legacy,legacy,0,incongruent,uniform,1,undefined,1,s,0,0,0,3,0,3,0,3,0,0,0,3,3,3,3,3,9/16/2020 21:19,1500,The main experiment item,yes,FlankerTask Rene Wallace.osexp,C:\Users\18177\OneDrive\Documents\School\Grad School\Fall 2020\Lab 2 FlankerTask,no,mono,no,18,no,white,no,yes,768,legacy,3,3,C:/Users/18177/OneDrive/Documents/School/Grad School/Fall 2020/Lab 2 FlankerTask/RW-subject-3.csv,legacy,Lentiform Loewenfeld,3.3.3,0,S,NA,S,NA,NA,S,572,NA,34493,NA,NA,572,2,legacy,1024,2,48000,-16,experiment,HHSHH,3,odd,38710,NA,NA,NA,4207,NA,NA,44757,4216,NA,NA,43636,44862,45435,44754,44861,Flanker Task,4,2724,4,yes,1024
100,100,648.8,648.8,black,legacy,legacy,legacy,0,congruent,uniform,1,undefined,1,s,0,0,0,4,0,4,0,4,0,0,0,4,4,4,4,4,9/16/2020 21:19,1500,The main experiment item,yes,FlankerTask Rene Wallace.osexp,C:\Users\18177\OneDrive\Documents\School\Grad School\Fall 2020\Lab 2 FlankerTask,no,mono,no,18,no,white,no,yes,768,legacy,4,4,C:/Users/18177/OneDrive/Documents/School/Grad School/Fall 2020/Lab 2 FlankerTask/RW-subject-3.csv,legacy,Lentiform Loewenfeld,3.3.3,0,S,NA,S,NA,NA,S,520,NA,34493,NA,NA,520,2,legacy,1024,2,48000,-16,experiment,SSSSS,3,odd,38710,NA,NA,NA,4207,NA,NA,46573,4216,NA,NA,45451,46676,47197,46568,46675,Flanker Task,5,3244,5,yes,1024
100,100,616.6666667,616.6666667,black,legacy,legacy,legacy,0,incongruent,uniform,1,undefined,1,s,0,0,0,5,0,5,0,5,0,0,0,5,5,5,5,5,9/16/2020 21:19,1500,The main experiment item,yes,FlankerTask Rene Wallace.osexp,C:\Users\18177\OneDrive\Documents\School\Grad School\Fall 2020\Lab 2 FlankerTask,no,mono,no,18,no,white,no,yes,768,legacy,5,5,C:/Users/18177/OneDrive/Documents/School/Grad School/Fall 2020/Lab 2 FlankerTask/RW-subject-3.csv,legacy,Lentiform Loewenfeld,3.3.3,0,S,NA,S,NA,NA,S,456,NA,34493,NA,NA,456,2,legacy,1024,2,48000,-16,experiment,HHSHH,3,odd,38710,NA,NA,NA,4207,NA,NA,48328,4216,NA,NA,47206,48432,48888,48324,48432,Flanker Task,6,3700,6,yes,1024
100,100,594.5714286,594.5714286,black,legacy,legacy,legacy,0,congruent,uniform,1,undefined,1,s,0,0,0,6,0,6,0,6,0,0,0,6,6,6,6,6,9/16/2020 21:19,1500,The main experiment item,yes,FlankerTask Rene Wallace.osexp,C:\Users\18177\OneDrive\Documents\School\Grad School\Fall 2020\Lab 2 FlankerTask,no,mono,no,18,no,white,no,yes,768,legacy,6,6,C:/Users/18177/OneDrive/Documents/School/Grad School/Fall 2020/Lab 2 FlankerTask/RW-subject-3.csv,legacy,Lentiform Loewenfeld,3.3.3,0,S,NA,S,NA,NA,S,462,NA,34493,NA,NA,462,2,legacy,1024,2,48000,-16,experiment,SSSSS,3,odd,38710,NA,NA,NA,4207,NA,NA,49945,4216,NA,NA,48897,50049,50511,49943,50049,Flanker Task,7,4162,7,yes,1024
100,100,597.75,597.75,black,legacy,legacy,legacy,0,incongruent,uniform,1,undefined,1,h,0,0,0,7,0,7,0,7,0,0,0,7,7,7,7,7,9/16/2020 21:19,1500,The main experiment item,yes,FlankerTask Rene Wallace.osexp,C:\Users\18177\OneDrive\Documents\School\Grad School\Fall 2020\Lab 2 FlankerTask,no,mono,no,18,no,white,no,yes,768,legacy,7,7,C:/Users/18177/OneDrive/Documents/School/Grad School/Fall 2020/Lab 2 FlankerTask/RW-subject-3.csv,legacy,Lentiform Loewenfeld,3.3.3,0,H,NA,S,NA,NA,H,620,NA,34493,NA,NA,620,2,legacy,1024,2,48000,-16,experiment,SSHSS,3,odd,38710,NA,NA,NA,4207,NA,NA,51572,4216,NA,NA,50525,51675,52295,51570,51675,Flanker Task,8,4782,8,yes,1024
100,100,597.2222222,597.2222222,black,legacy,legacy,legacy,0,incongruent,uniform,1,undefined,1,s,0,0,0,8,0,8,0,8,0,0,0,8,8,8,8,8,9/16/2020 21:19,1500,The main experiment item,yes,FlankerTask Rene Wallace.osexp,C:\Users\18177\OneDrive\Documents\School\Grad School\Fall 2020\Lab 2 FlankerTask,no,mono,no,18,no,white,no,yes,768,legacy,8,8,C:/Users/18177/OneDrive/Documents/School/Grad School/Fall 2020/Lab 2 FlankerTask/RW-subject-3.csv,legacy,Lentiform Loewenfeld,3.3.3,0,S,NA,S,NA,NA,S,593,NA,34493,NA,NA,593,2,legacy,1024,2,48000,-16,experiment,HHSHH,3,odd,38710,NA,NA,NA,4207,NA,NA,53356,4216,NA,NA,52307,53459,54053,53354,53459,Flanker Task,9,5375,9,yes,1024
100,100,592.1,592.1,black,legacy,legacy,legacy,0,congruent,uniform,1,undefined,1,h,0,0,0,9,0,9,0,9,0,0,0,9,9,9,9,9,9/16/2020 21:19,1500,The main experiment item,yes,FlankerTask Rene Wallace.osexp,C:\Users\18177\OneDrive\Documents\School\Grad School\Fall 2020\Lab 2 FlankerTask,no,mono,no,18,no,white,no,yes,768,legacy,9,9,C:/Users/18177/OneDrive/Documents/School/Grad School/Fall 2020/Lab 2 FlankerTask/RW-subject-3.csv,legacy,Lentiform Loewenfeld,3.3.3,0,H,NA,S,NA,NA,H,546,NA,34493,NA,NA,546,2,legacy,1024,2,48000,-16,experiment,HHHHH,3,odd,38710,NA,NA,NA,4207,NA,NA,55115,4216,NA,NA,54066,55219,55766,55114,55218,Flanker Task,10,5921,10,yes,1024
100,100,587.1818182,587.1818182,black,legacy,legacy,legacy,0,incongruent,uniform,1,undefined,1,s,0,0,0,10,0,10,0,10,0,0,0,10,10,10,10,10,9/16/2020 21:19,1500,The main experiment item,yes,FlankerTask Rene Wallace.osexp,C:\Users\18177\OneDrive\Documents\School\Grad School\Fall 2020\Lab 2 FlankerTask,no,mono,no,18,no,white,no,yes,768,legacy,10,10,C:/Users/18177/OneDrive/Documents/School/Grad School/Fall 2020/Lab 2 FlankerTask/RW-subject-3.csv,legacy,Lentiform Loewenfeld,3.3.3,0,S,NA,S,NA,NA,S,538,NA,34493,NA,NA,538,2,legacy,1024,2,48000,-16,experiment,HHSHH,3,odd,38710,NA,NA,NA,4207,NA,NA,56828,4216,NA,NA,55779,56932,57471,56826,56932,Flanker Task,11,6459,11,yes,1024
100,100,586.25,586.25,black,legacy,legacy,legacy,0,incongruent,uniform,1,undefined,1,h,0,0,0,11,0,11,0,11,0,0,0,11,11,11,11,11,9/16/2020 21:19,1500,The main experiment item,yes,FlankerTask Rene Wallace.osexp,C:\Users\18177\OneDrive\Documents\School\Grad School\Fall 2020\Lab 2 FlankerTask,no,mono,no,18,no,white,no,yes,768,legacy,11,11,C:/Users/18177/OneDrive/Documents/School/Grad School/Fall 2020/Lab 2 FlankerTask/RW-subject-3.csv,legacy,Lentiform Loewenfeld,3.3.3,0,H,NA,S,NA,NA,H,576,NA,34493,NA,NA,576,2,legacy,1024,2,48000,-16,experiment,SSHSS,3,odd,38710,NA,NA,NA,4207,NA,NA,58533,4216,NA,NA,57484,58634,59211,58531,58634,Flanker Task,12,7035,12,yes,1024
100,100,583.6923077,583.6923077,black,legacy,legacy,legacy,0,congruent,uniform,1,undefined,1,h,0,0,0,12,0,12,0,12,0,0,0,12,12,12,12,12,9/16/2020 21:19,1500,The main experiment item,yes,FlankerTask Rene Wallace.osexp,C:\Users\18177\OneDrive\Documents\School\Grad School\Fall 2020\Lab 2 FlankerTask,no,mono,no,18,no,white,no,yes,768,legacy,12,12,C:/Users/18177/OneDrive/Documents/School/Grad School/Fall 2020/Lab 2 FlankerTask/RW-subject-3.csv,legacy,Lentiform Loewenfeld,3.3.3,0,H,NA,S,NA,NA,H,553,NA,34493,NA,NA,553,2,legacy,1024,2,48000,-16,experiment,HHHHH,3,odd,38710,NA,NA,NA,4207,NA,NA,60270,4216,NA,NA,59223,60373,60926,60268,60372,Flanker Task,13,7588,13,yes,1024
100,100,579.3571429,579.3571429,black,legacy,legacy,legacy,0,congruent,uniform,1,undefined,1,s,0,0,0,13,0,13,0,13,0,0,0,13,13,13,13,13,9/16/2020 21:19,1500,The main experiment item,yes,FlankerTask Rene Wallace.osexp,C:\Users\18177\OneDrive\Documents\School\Grad School\Fall 2020\Lab 2 FlankerTask,no,mono,no,18,no,white,no,yes,768,legacy,13,13,C:/Users/18177/OneDrive/Documents/School/Grad School/Fall 2020/Lab 2 FlankerTask/RW-subject-3.csv,legacy,Lentiform Loewenfeld,3.3.3,0,S,NA,S,NA,NA,S,523,NA,34493,NA,NA,523,2,legacy,1024,2,48000,-16,experiment,SSSSS,3,odd,38710,NA,NA,NA,4207,NA,NA,61993,4216,NA,NA,60940,62094,62618,61990,62094,Flanker Task,14,8111,14,yes,1024
100,100,577.8666667,577.8666667,black,legacy,legacy,legacy,0,incongruent,uniform,1,undefined,1,s,0,0,0,14,0,14,0,14,0,0,0,14,14,14,14,14,9/16/2020 21:19,1500,The main experiment item,yes,FlankerTask Rene Wallace.osexp,C:\Users\18177\OneDrive\Documents\School\Grad School\Fall 2020\Lab 2 FlankerTask,no,mono,no,18,no,white,no,yes,768,legacy,14,14,C:/Users/18177/OneDrive/Documents/School/Grad School/Fall 2020/Lab 2 FlankerTask/RW-subject-3.csv,legacy,Lentiform Loewenfeld,3.3.3,0,S,NA,S,NA,NA,S,557,NA,34493,NA,NA,557,2,legacy,1024,2,48000,-16,experiment,HHSHH,3,odd,38710,NA,NA,NA,4207,NA,NA,63672,4216,NA,NA,62622,63775,64332,63670,63775,Flanker Task,15,8668,15,yes,1024
100,100,570.9375,570.9375,black,legacy,legacy,legacy,0,incongruent,uniform,1,undefined,1,s,0,0,0,15,0,15,0,15,0,0,0,15,15,15,15,15,9/16/2020 21:19,1500,The main experiment item,yes,FlankerTask Rene Wallace.osexp,C:\Users\18177\OneDrive\Documents\School\Grad School\Fall 2020\Lab 2 FlankerTask,no,mono,no,18,no,white,no,yes,768,legacy,15,15,C:/Users/18177/OneDrive/Documents/School/Grad School/Fall 2020/Lab 2 FlankerTask/RW-subject-3.csv,legacy,Lentiform Loewenfeld,3.3.3,0,S,NA,S,NA,NA,S,467,NA,34493,NA,NA,467,2,legacy,1024,2,48000,-16,experiment,HHSHH,3,odd,38710,NA,NA,NA,4207,NA,NA,65407,4216,NA,NA,64344,65510,65977,65405,65510,Flanker Task,16,9135,16,yes,1024
100,100,572.2352941,572.2352941,black,legacy,legacy,legacy,0,congruent,uniform,1,undefined,1,s,0,0,0,16,0,16,0,16,0,0,0,16,16,16,16,16,9/16/2020 21:19,1500,The main experiment item,yes,FlankerTask Rene Wallace.osexp,C:\Users\18177\OneDrive\Documents\School\Grad School\Fall 2020\Lab 2 FlankerTask,no,mono,no,18,no,white,no,yes,768,legacy,16,16,C:/Users/18177/OneDrive/Documents/School/Grad School/Fall 2020/Lab 2 FlankerTask/RW-subject-3.csv,legacy,Lentiform Loewenfeld,3.3.3,0,S,NA,S,NA,NA,S,593,NA,34493,NA,NA,593,2,legacy,1024,2,48000,-16,experiment,SSSSS,3,odd,38710,NA,NA,NA,4207,NA,NA,67032,4216,NA,NA,65983,67133,67726,67030,67133,Flanker Task,17,9728,17,yes,1024
100,100,567.6666667,567.6666667,black,legacy,legacy,legacy,0,congruent,uniform,1,undefined,1,h,0,0,0,17,0,17,0,17,0,0,0,17,17,17,17,17,9/16/2020 21:19,1500,The main experiment item,yes,FlankerTask Rene Wallace.osexp,C:\Users\18177\OneDrive\Documents\School\Grad School\Fall 2020\Lab 2 FlankerTask,no,mono,no,18,no,white,no,yes,768,legacy,17,17,C:/Users/18177/OneDrive/Documents/School/Grad School/Fall 2020/Lab 2 FlankerTask/RW-subject-3.csv,legacy,Lentiform Loewenfeld,3.3.3,0,H,NA,S,NA,NA,H,490,NA,34493,NA,NA,490,2,legacy,1024,2,48000,-16,experiment,HHHHH,3,odd,38710,NA,NA,NA,4207,NA,NA,68786,4216,NA,NA,67739,68888,69379,68784,68888,Flanker Task,18,10218,18,yes,1024
100,100,562.1052632,562.1052632,black,legacy,legacy,legacy,0,incongruent,uniform,1,undefined,1,s,0,0,0,18,0,18,0,18,0,0,0,18,18,18,18,18,9/16/2020 21:19,1500,The main experiment item,yes,FlankerTask Rene Wallace.osexp,C:\Users\18177\OneDrive\Documents\School\Grad School\Fall 2020\Lab 2 FlankerTask,no,mono,no,18,no,white,no,yes,768,legacy,18,18,C:/Users/18177/OneDrive/Documents/School/Grad School/Fall 2020/Lab 2 FlankerTask/RW-subject-3.csv,legacy,Lentiform Loewenfeld,3.3.3,0,S,NA,S,NA,NA,S,462,NA,34493,NA,NA,462,2,legacy,1024,2,48000,-16,experiment,HHSHH,3,odd,38710,NA,NA,NA,4207,NA,NA,70441,4216,NA,NA,69391,70542,71004,70439,70542,Flanker Task,19,10680,19,yes,1024
100,100,557.9,557.9,black,legacy,legacy,legacy,0,congruent,uniform,1,undefined,1,s,0,0,0,19,0,19,0,19,0,0,0,19,19,19,19,19,9/16/2020 21:19,1500,The main experiment item,yes,FlankerTask Rene Wallace.osexp,C:\Users\18177\OneDrive\Documents\School\Grad School\Fall 2020\Lab 2 FlankerTask,no,mono,no,18,no,white,no,yes,768,legacy,19,19,C:/Users/18177/OneDrive/Documents/School/Grad School/Fall 2020/Lab 2 FlankerTask/RW-subject-3.csv,legacy,Lentiform Loewenfeld,3.3.3,0,S,NA,S,NA,NA,S,478,NA,34493,NA,NA,478,2,legacy,1024,2,48000,-16,experiment,SSSSS,3,odd,38710,NA,NA,NA,4207,NA,NA,72088,4216,NA,NA,71018,72192,72670,72085,72192,Flanker Task,20,11158,20,yes,1024
100,100,554.3333333,554.3333333,black,legacy,legacy,legacy,0,incongruent,uniform,1,undefined,1,s,0,0,0,20,0,20,0,20,0,0,0,20,20,20,20,20,9/16/2020 21:19,1500,The main experiment item,yes,FlankerTask Rene Wallace.osexp,C:\Users\18177\OneDrive\Documents\School\Grad School\Fall 2020\Lab 2 FlankerTask,no,mono,no,18,no,white,no,yes,768,legacy,20,20,C:/Users/18177/OneDrive/Documents/School/Grad School/Fall 2020/Lab 2 FlankerTask/RW-subject-3.csv,legacy,Lentiform Loewenfeld,3.3.3,0,S,NA,S,NA,NA,S,483,NA,34493,NA,NA,483,2,legacy,1024,2,48000,-16,experiment,HHSHH,3,odd,38710,NA,NA,NA,4207,NA,NA,73723,4216,NA,NA,72674,73827,74311,73721,73827,Flanker Task,21,11641,21,yes,1024
100,100,550.2272727,550.2272727,black,legacy,legacy,legacy,0,congruent,uniform,1,undefined,1,s,0,0,0,21,0,21,0,21,0,0,0,21,21,21,21,21,9/16/2020 21:19,1500,The main experiment item,yes,FlankerTask Rene Wallace.osexp,C:\Users\18177\OneDrive\Documents\School\Grad School\Fall 2020\Lab 2 FlankerTask,no,mono,no,18,no,white,no,yes,768,legacy,21,21,C:/Users/18177/OneDrive/Documents/School/Grad School/Fall 2020/Lab 2 FlankerTask/RW-subject-3.csv,legacy,Lentiform Loewenfeld,3.3.3,0,S,NA,S,NA,NA,S,464,NA,34493,NA,NA,464,2,legacy,1024,2,48000,-16,experiment,SSSSS,3,odd,38710,NA,NA,NA,4207,NA,NA,75372,4216,NA,NA,74324,75476,75940,75370,75476,Flanker Task,22,12105,22,yes,1024
95.65217391,95.65217391,541.9130435,541.9130435,black,legacy,legacy,legacy,0,congruent,uniform,0,undefined,0,h,0,0,0,22,0,22,0,22,0,0,0,22,22,22,22,22,9/16/2020 21:19,1500,The main experiment item,yes,FlankerTask Rene Wallace.osexp,C:\Users\18177\OneDrive\Documents\School\Grad School\Fall 2020\Lab 2 FlankerTask,no,mono,no,18,no,white,no,yes,768,legacy,22,22,C:/Users/18177/OneDrive/Documents/School/Grad School/Fall 2020/Lab 2 FlankerTask/RW-subject-3.csv,legacy,Lentiform Loewenfeld,3.3.3,0,S,NA,S,NA,NA,S,359,NA,34493,NA,NA,359,2,legacy,1024,2,48000,-16,experiment,HHHHH,3,odd,38710,NA,NA,NA,4207,NA,NA,77003,4216,NA,NA,75954,77105,77465,77001,77104,Flanker Task,22,12464,23,yes,1024
95.83333333,95.83333333,541.7083333,541.7083333,black,legacy,legacy,legacy,0,congruent,uniform,1,undefined,1,h,0,0,0,23,0,23,0,23,0,0,0,23,23,23,23,23,9/16/2020 21:19,1500,The main experiment item,yes,FlankerTask Rene Wallace.osexp,C:\Users\18177\OneDrive\Documents\School\Grad School\Fall 2020\Lab 2 FlankerTask,no,mono,no,18,no,white,no,yes,768,legacy,23,23,C:/Users/18177/OneDrive/Documents/School/Grad School/Fall 2020/Lab 2 FlankerTask/RW-subject-3.csv,legacy,Lentiform Loewenfeld,3.3.3,0,H,NA,S,NA,NA,H,537,NA,34493,NA,NA,537,2,legacy,1024,2,48000,-16,experiment,HHHHH,3,odd,38710,NA,NA,77477,4207,NA,NA,79025,4216,NA,NA,77978,79126,79664,79023,79126,Flanker Task,23,13001,24,yes,1024
96,96,538.72,538.72,black,legacy,legacy,legacy,0,congruent,uniform,1,undefined,1,h,0,0,0,24,0,24,0,24,0,0,0,24,24,24,24,24,9/16/2020 21:19,1500,The main experiment item,yes,FlankerTask Rene Wallace.osexp,C:\Users\18177\OneDrive\Documents\School\Grad School\Fall 2020\Lab 2 FlankerTask,no,mono,no,18,no,white,no,yes,768,legacy,24,24,C:/Users/18177/OneDrive/Documents/School/Grad School/Fall 2020/Lab 2 FlankerTask/RW-subject-3.csv,legacy,Lentiform Loewenfeld,3.3.3,0,H,NA,S,NA,NA,H,467,NA,34493,NA,NA,467,2,legacy,1024,2,48000,-16,experiment,HHHHH,3,odd,38710,NA,NA,77477,4207,NA,NA,80729,4216,NA,NA,79676,80833,81300,80726,80833,Flanker Task,24,13468,25,yes,1024
96.15384615,96.15384615,535.2692308,535.2692308,black,legacy,legacy,legacy,0,congruent,uniform,1,undefined,1,h,0,0,0,25,0,25,0,25,0,0,0,25,25,25,25,25,9/16/2020 21:19,1500,The main experiment item,yes,FlankerTask Rene Wallace.osexp,C:\Users\18177\OneDrive\Documents\School\Grad School\Fall 2020\Lab 2 FlankerTask,no,mono,no,18,no,white,no,yes,768,legacy,25,25,C:/Users/18177/OneDrive/Documents/School/Grad School/Fall 2020/Lab 2 FlankerTask/RW-subject-3.csv,legacy,Lentiform Loewenfeld,3.3.3,0,H,NA,S,NA,NA,H,449,NA,34493,NA,NA,449,2,legacy,1024,2,48000,-16,experiment,HHHHH,3,odd,38710,NA,NA,77477,4207,NA,NA,82357,4216,NA,NA,81308,82461,82911,82355,82461,Flanker Task,25,13917,26,yes,1024
96.2962963,96.2962963,532.5925926,532.5925926,black,legacy,legacy,legacy,0,incongruent,uniform,1,undefined,1,s,0,0,0,26,0,26,0,26,0,0,0,26,26,26,26,26,9/16/2020 21:19,1500,The main experiment item,yes,FlankerTask Rene Wallace.osexp,C:\Users\18177\OneDrive\Documents\School\Grad School\Fall 2020\Lab 2 FlankerTask,no,mono,no,18,no,white,no,yes,768,legacy,26,26,C:/Users/18177/OneDrive/Documents/School/Grad School/Fall 2020/Lab 2 FlankerTask/RW-subject-3.csv,legacy,Lentiform Loewenfeld,3.3.3,0,S,NA,S,NA,NA,S,463,NA,34493,NA,NA,463,2,legacy,1024,2,48000,-16,experiment,HHSHH,3,odd,38710,NA,NA,77477,4207,NA,NA,83972,4216,NA,NA,82923,84073,84537,83970,84073,Flanker Task,26,14380,27,yes,1024
96.42857143,96.42857143,531.0357143,531.0357143,black,legacy,legacy,legacy,0,congruent,uniform,1,undefined,1,s,0,0,0,27,0,27,0,27,0,0,0,27,27,27,27,27,9/16/2020 21:19,1500,The main experiment item,yes,FlankerTask Rene Wallace.osexp,C:\Users\18177\OneDrive\Documents\School\Grad School\Fall 2020\Lab 2 FlankerTask,no,mono,no,18,no,white,no,yes,768,legacy,27,27,C:/Users/18177/OneDrive/Documents/School/Grad School/Fall 2020/Lab 2 FlankerTask/RW-subject-3.csv,legacy,Lentiform Loewenfeld,3.3.3,0,S,NA,S,NA,NA,S,489,NA,34493,NA,NA,489,2,legacy,1024,2,48000,-16,experiment,SSSSS,3,odd,38710,NA,NA,77477,4207,NA,NA,85598,4216,NA,NA,84550,85700,86189,85595,85700,Flanker Task,27,14869,28,yes,1024
96.55172414,96.55172414,531.0344828,531.0344828,black,legacy,legacy,legacy,0,incongruent,uniform,1,undefined,1,s,0,0,0,28,0,28,0,28,0,0,0,28,28,28,28,28,9/16/2020 21:19,1500,The main experiment item,yes,FlankerTask Rene Wallace.osexp,C:\Users\18177\OneDrive\Documents\School\Grad School\Fall 2020\Lab 2 FlankerTask,no,mono,no,18,no,white,no,yes,768,legacy,28,28,C:/Users/18177/OneDrive/Documents/School/Grad School/Fall 2020/Lab 2 FlankerTask/RW-subject-3.csv,legacy,Lentiform Loewenfeld,3.3.3,0,S,NA,S,NA,NA,S,531,NA,34493,NA,NA,531,2,legacy,1024,2,48000,-16,experiment,HHSHH,3,odd,38710,NA,NA,77477,4207,NA,NA,87241,4216,NA,NA,86193,87343,87875,87239,87343,Flanker Task,28,15400,29,yes,1024
96.66666667,96.66666667,529.3333333,529.3333333,black,legacy,legacy,legacy,0,congruent,uniform,1,undefined,1,s,0,0,0,29,0,29,0,29,0,0,0,29,29,29,29,29,9/16/2020 21:19,1500,The main experiment item,yes,FlankerTask Rene Wallace.osexp,C:\Users\18177\OneDrive\Documents\School\Grad School\Fall 2020\Lab 2 FlankerTask,no,mono,no,18,no,white,no,yes,768,legacy,29,29,C:/Users/18177/OneDrive/Documents/School/Grad School/Fall 2020/Lab 2 FlankerTask/RW-subject-3.csv,legacy,Lentiform Loewenfeld,3.3.3,0,S,NA,S,NA,NA,S,480,NA,34493,NA,NA,480,2,legacy,1024,2,48000,-16,experiment,SSSSS,3,odd,38710,NA,NA,77477,4207,NA,NA,88936,4216,NA,NA,87887,89039,89520,88933,89039,Flanker Task,29,15880,30,yes,1024
96.77419355,96.77419355,528.1612903,528.1612903,black,legacy,legacy,legacy,0,congruent,uniform,1,undefined,1,h,0,0,0,30,0,30,0,30,0,0,0,30,30,30,30,30,9/16/2020 21:19,1500,The main experiment item,yes,FlankerTask Rene Wallace.osexp,C:\Users\18177\OneDrive\Documents\School\Grad School\Fall 2020\Lab 2 FlankerTask,no,mono,no,18,no,white,no,yes,768,legacy,30,30,C:/Users/18177/OneDrive/Documents/School/Grad School/Fall 2020/Lab 2 FlankerTask/RW-subject-3.csv,legacy,Lentiform Loewenfeld,3.3.3,0,H,NA,S,NA,NA,H,493,NA,34493,NA,NA,493,2,legacy,1024,2,48000,-16,experiment,HHHHH,3,odd,38710,NA,NA,77477,4207,NA,NA,90581,4216,NA,NA,89532,90682,91175,90579,90682,Flanker Task,30,16373,31,yes,1024
96.875,96.875,524.9375,524.9375,black,legacy,legacy,legacy,0,congruent,uniform,1,undefined,1,s,0,0,0,31,0,31,0,31,0,0,0,31,31,31,31,31,9/16/2020 21:19,1500,The main experiment item,yes,FlankerTask Rene Wallace.osexp,C:\Users\18177\OneDrive\Documents\School\Grad School\Fall 2020\Lab 2 FlankerTask,no,mono,no,18,no,white,no,yes,768,legacy,31,31,C:/Users/18177/OneDrive/Documents/School/Grad School/Fall 2020/Lab 2 FlankerTask/RW-subject-3.csv,legacy,Lentiform Loewenfeld,3.3.3,0,S,NA,S,NA,NA,S,425,NA,34493,NA,NA,425,2,legacy,1024,2,48000,-16,experiment,SSSSS,3,odd,38710,NA,NA,77477,4207,NA,NA,92238,4216,NA,NA,91188,92342,92768,92235,92342,Flanker Task,31,16798,32,yes,1024
96.96969697,96.96969697,524.6666667,524.6666667,black,legacy,legacy,legacy,0,congruent,uniform,1,undefined,1,s,0,0,0,32,0,32,0,32,0,0,0,32,32,32,32,32,9/16/2020 21:19,1500,The main experiment item,yes,FlankerTask Rene Wallace.osexp,C:\Users\18177\OneDrive\Documents\School\Grad School\Fall 2020\Lab 2 FlankerTask,no,mono,no,18,no,white,no,yes,768,legacy,32,32,C:/Users/18177/OneDrive/Documents/School/Grad School/Fall 2020/Lab 2 FlankerTask/RW-subject-3.csv,legacy,Lentiform Loewenfeld,3.3.3,0,S,NA,S,NA,NA,S,516,NA,34493,NA,NA,516,2,legacy,1024,2,48000,-16,experiment,SSSSS,3,odd,38710,NA,NA,77477,4207,NA,NA,93821,4216,NA,NA,92774,93925,94441,93819,93925,Flanker Task,32,17314,33,yes,1024
97.05882353,97.05882353,524.9705882,524.9705882,black,legacy,legacy,legacy,0,incongruent,uniform,1,undefined,1,h,0,0,0,33,0,33,0,33,0,0,0,33,33,33,33,33,9/16/2020 21:19,1500,The main experiment item,yes,FlankerTask Rene Wallace.osexp,C:\Users\18177\OneDrive\Documents\School\Grad School\Fall 2020\Lab 2 FlankerTask,no,mono,no,18,no,white,no,yes,768,legacy,33,33,C:/Users/18177/OneDrive/Documents/School/Grad School/Fall 2020/Lab 2 FlankerTask/RW-subject-3.csv,legacy,Lentiform Loewenfeld,3.3.3,0,H,NA,S,NA,NA,H,535,NA,34493,NA,NA,535,2,legacy,1024,2,48000,-16,experiment,SSHSS,3,odd,38710,NA,NA,77477,4207,NA,NA,95502,4216,NA,NA,94454,95604,96139,95501,95604,Flanker Task,33,17849,34,yes,1024
97.14285714,97.14285714,523.0571429,523.0571429,black,legacy,legacy,legacy,0,congruent,uniform,1,undefined,1,h,0,0,0,34,0,34,0,34,0,0,0,34,34,34,34,34,9/16/2020 21:19,1500,The main experiment item,yes,FlankerTask Rene Wallace.osexp,C:\Users\18177\OneDrive\Documents\School\Grad School\Fall 2020\Lab 2 FlankerTask,no,mono,no,18,no,white,no,yes,768,legacy,34,34,C:/Users/18177/OneDrive/Documents/School/Grad School/Fall 2020/Lab 2 FlankerTask/RW-subject-3.csv,legacy,Lentiform Loewenfeld,3.3.3,0,H,NA,S,NA,NA,H,458,NA,34493,NA,NA,458,2,legacy,1024,2,48000,-16,experiment,HHHHH,3,odd,38710,NA,NA,77477,4207,NA,NA,97199,4216,NA,NA,96151,97303,97761,97196,97303,Flanker Task,34,18307,35,yes,1024
97.22222222,97.22222222,521.6944444,521.6944444,black,legacy,legacy,legacy,0,incongruent,uniform,1,undefined,1,s,0,0,0,35,0,35,0,35,0,0,0,35,35,35,35,35,9/16/2020 21:19,1500,The main experiment item,yes,FlankerTask Rene Wallace.osexp,C:\Users\18177\OneDrive\Documents\School\Grad School\Fall 2020\Lab 2 FlankerTask,no,mono,no,18,no,white,no,yes,768,legacy,35,35,C:/Users/18177/OneDrive/Documents/School/Grad School/Fall 2020/Lab 2 FlankerTask/RW-subject-3.csv,legacy,Lentiform Loewenfeld,3.3.3,0,S,NA,S,NA,NA,S,474,NA,34493,NA,NA,474,2,legacy,1024,2,48000,-16,experiment,HHSHH,3,odd,38710,NA,NA,77477,4207,NA,NA,98824,4216,NA,NA,97775,98928,99403,98823,98928,Flanker Task,35,18781,36,yes,1024
97.2972973,97.2972973,520.2432432,520.2432432,black,legacy,legacy,legacy,0,incongruent,uniform,1,undefined,1,s,0,0,0,36,0,36,0,36,0,0,0,36,36,36,36,36,9/16/2020 21:19,1500,The main experiment item,yes,FlankerTask Rene Wallace.osexp,C:\Users\18177\OneDrive\Documents\School\Grad School\Fall 2020\Lab 2 FlankerTask,no,mono,no,18,no,white,no,yes,768,legacy,36,36,C:/Users/18177/OneDrive/Documents/School/Grad School/Fall 2020/Lab 2 FlankerTask/RW-subject-3.csv,legacy,Lentiform Loewenfeld,3.3.3,0,S,NA,S,NA,NA,S,468,NA,34493,NA,NA,468,2,legacy,1024,2,48000,-16,experiment,HHSHH,3,odd,38710,NA,NA,77477,4207,NA,NA,100465,4216,NA,NA,99416,100566,101035,100464,100566,Flanker Task,36,19249,37,yes,1024
97.36842105,97.36842105,518.7368421,518.7368421,black,legacy,legacy,legacy,0,congruent,uniform,1,undefined,1,s,0,0,0,37,0,37,0,37,0,0,0,37,37,37,37,37,9/16/2020 21:19,1500,The main experiment item,yes,FlankerTask Rene Wallace.osexp,C:\Users\18177\OneDrive\Documents\School\Grad School\Fall 2020\Lab 2 FlankerTask,no,mono,no,18,no,white,no,yes,768,legacy,37,37,C:/Users/18177/OneDrive/Documents/School/Grad School/Fall 2020/Lab 2 FlankerTask/RW-subject-3.csv,legacy,Lentiform Loewenfeld,3.3.3,0,S,NA,S,NA,NA,S,463,NA,34493,NA,NA,463,2,legacy,1024,2,48000,-16,experiment,SSSSS,3,odd,38710,NA,NA,77477,4207,NA,NA,102118,4216,NA,NA,101047,102222,102686,102117,102222,Flanker Task,37,19712,38,yes,1024
97.43589744,97.43589744,518.7435897,518.7435897,black,legacy,legacy,legacy,0,incongruent,uniform,1,undefined,1,h,0,0,0,38,0,38,0,38,0,0,0,38,38,38,38,38,9/16/2020 21:19,1500,The main experiment item,yes,FlankerTask Rene Wallace.osexp,C:\Users\18177\OneDrive\Documents\School\Grad School\Fall 2020\Lab 2 FlankerTask,no,mono,no,18,no,white,no,yes,768,legacy,38,38,C:/Users/18177/OneDrive/Documents/School/Grad School/Fall 2020/Lab 2 FlankerTask/RW-subject-3.csv,legacy,Lentiform Loewenfeld,3.3.3,0,H,NA,S,NA,NA,H,519,NA,34493,NA,NA,519,2,legacy,1024,2,48000,-16,experiment,SSHSS,3,odd,38710,NA,NA,77477,4207,NA,NA,103753,4216,NA,NA,102698,103856,104376,103752,103856,Flanker Task,38,20231,39,yes,1024
97.5,97.5,517.7,517.7,black,legacy,legacy,legacy,0,congruent,uniform,1,undefined,1,s,0,0,0,39,0,39,0,39,0,0,0,39,39,39,39,39,9/16/2020 21:19,1500,The main experiment item,yes,FlankerTask Rene Wallace.osexp,C:\Users\18177\OneDrive\Documents\School\Grad School\Fall 2020\Lab 2 FlankerTask,no,mono,no,18,no,white,no,yes,768,legacy,39,39,C:/Users/18177/OneDrive/Documents/School/Grad School/Fall 2020/Lab 2 FlankerTask/RW-subject-3.csv,legacy,Lentiform Loewenfeld,3.3.3,0,S,NA,S,NA,NA,S,477,NA,34493,NA,NA,477,2,legacy,1024,2,48000,-16,experiment,SSSSS,3,odd,38710,NA,NA,77477,4207,NA,NA,105439,4216,NA,NA,104388,105544,106022,105437,105543,Flanker Task,39,20708,40,yes,1024
97.56097561,97.56097561,519.3902439,519.3902439,black,legacy,legacy,legacy,0,incongruent,uniform,1,undefined,1,h,0,0,0,40,0,40,0,40,0,0,0,40,40,40,40,40,9/16/2020 21:19,1500,The main experiment item,yes,FlankerTask Rene Wallace.osexp,C:\Users\18177\OneDrive\Documents\School\Grad School\Fall 2020\Lab 2 FlankerTask,no,mono,no,18,no,white,no,yes,768,legacy,40,40,C:/Users/18177/OneDrive/Documents/School/Grad School/Fall 2020/Lab 2 FlankerTask/RW-subject-3.csv,legacy,Lentiform Loewenfeld,3.3.3,0,H,NA,S,NA,NA,H,587,NA,34493,NA,NA,587,2,legacy,1024,2,48000,-16,experiment,SSHSS,3,odd,38710,NA,NA,77477,4207,NA,NA,107082,4216,NA,NA,106036,107185,107772,107079,107185,Flanker Task,40,21295,41,yes,1024
97.61904762,97.61904762,519.4285714,519.4285714,black,legacy,legacy,legacy,0,incongruent,uniform,1,undefined,1,s,0,0,0,41,0,41,0,41,0,0,0,41,41,41,41,41,9/16/2020 21:19,1500,The main experiment item,yes,FlankerTask Rene Wallace.osexp,C:\Users\18177\OneDrive\Documents\School\Grad School\Fall 2020\Lab 2 FlankerTask,no,mono,no,18,no,white,no,yes,768,legacy,41,41,C:/Users/18177/OneDrive/Documents/School/Grad School/Fall 2020/Lab 2 FlankerTask/RW-subject-3.csv,legacy,Lentiform Loewenfeld,3.3.3,0,S,NA,S,NA,NA,S,521,NA,34493,NA,NA,521,2,legacy,1024,2,48000,-16,experiment,HHSHH,3,odd,38710,NA,NA,77477,4207,NA,NA,108824,4216,NA,NA,107776,108928,109449,108822,108928,Flanker Task,41,21816,42,yes,1024
97.6744186,97.6744186,518.3488372,518.3488372,black,legacy,legacy,legacy,0,incongruent,uniform,1,undefined,1,s,0,0,0,42,0,42,0,42,0,0,0,42,42,42,42,42,9/16/2020 21:19,1500,The main experiment item,yes,FlankerTask Rene Wallace.osexp,C:\Users\18177\OneDrive\Documents\School\Grad School\Fall 2020\Lab 2 FlankerTask,no,mono,no,18,no,white,no,yes,768,legacy,42,42,C:/Users/18177/OneDrive/Documents/School/Grad School/Fall 2020/Lab 2 FlankerTask/RW-subject-3.csv,legacy,Lentiform Loewenfeld,3.3.3,0,S,NA,S,NA,NA,S,473,NA,34493,NA,NA,473,2,legacy,1024,2,48000,-16,experiment,HHSHH,3,odd,38710,NA,NA,77477,4207,NA,NA,110513,4216,NA,NA,109463,110614,111088,110511,110614,Flanker Task,42,22289,43,yes,1024
97.72727273,97.72727273,516.6136364,516.6136364,black,legacy,legacy,legacy,0,incongruent,uniform,1,undefined,1,s,0,0,0,43,0,43,0,43,0,0,0,43,43,43,43,43,9/16/2020 21:19,1500,The main experiment item,yes,FlankerTask Rene Wallace.osexp,C:\Users\18177\OneDrive\Documents\School\Grad School\Fall 2020\Lab 2 FlankerTask,no,mono,no,18,no,white,no,yes,768,legacy,43,43,C:/Users/18177/OneDrive/Documents/School/Grad School/Fall 2020/Lab 2 FlankerTask/RW-subject-3.csv,legacy,Lentiform Loewenfeld,3.3.3,0,S,NA,S,NA,NA,S,442,NA,34493,NA,NA,442,2,legacy,1024,2,48000,-16,experiment,HHSHH,3,odd,38710,NA,NA,77477,4207,NA,NA,112151,4216,NA,NA,111100,112255,112698,112149,112255,Flanker Task,43,22731,44,yes,1024
97.77777778,97.77777778,517.1333333,517.1333333,black,legacy,legacy,legacy,0,incongruent,uniform,1,undefined,1,h,0,0,0,44,0,44,0,44,0,0,0,44,44,44,44,44,9/16/2020 21:19,1500,The main experiment item,yes,FlankerTask Rene Wallace.osexp,C:\Users\18177\OneDrive\Documents\School\Grad School\Fall 2020\Lab 2 FlankerTask,no,mono,no,18,no,white,no,yes,768,legacy,44,44,C:/Users/18177/OneDrive/Documents/School/Grad School/Fall 2020/Lab 2 FlankerTask/RW-subject-3.csv,legacy,Lentiform Loewenfeld,3.3.3,0,H,NA,S,NA,NA,H,540,NA,34493,NA,NA,540,2,legacy,1024,2,48000,-16,experiment,SSHSS,3,odd,38710,NA,NA,77477,4207,NA,NA,113759,4216,NA,NA,112710,113863,114404,113757,113863,Flanker Task,44,23271,45,yes,1024
97.82608696,97.82608696,516.4347826,516.4347826,black,legacy,legacy,legacy,0,incongruent,uniform,1,undefined,1,s,0,0,0,45,0,45,0,45,0,0,0,45,45,45,45,45,9/16/2020 21:19,1500,The main experiment item,yes,FlankerTask Rene Wallace.osexp,C:\Users\18177\OneDrive\Documents\School\Grad School\Fall 2020\Lab 2 FlankerTask,no,mono,no,18,no,white,no,yes,768,legacy,45,45,C:/Users/18177/OneDrive/Documents/School/Grad School/Fall 2020/Lab 2 FlankerTask/RW-subject-3.csv,legacy,Lentiform Loewenfeld,3.3.3,0,S,NA,S,NA,NA,S,485,NA,34493,NA,NA,485,2,legacy,1024,2,48000,-16,experiment,HHSHH,3,odd,38710,NA,NA,77477,4207,NA,NA,115466,4216,NA,NA,114417,115570,116055,115464,115570,Flanker Task,45,23756,46,yes,1024
97.87234043,97.87234043,517.1702128,517.1702128,black,legacy,legacy,legacy,0,incongruent,uniform,1,undefined,1,h,0,0,0,46,0,46,0,46,0,0,0,46,46,46,46,46,9/16/2020 21:19,1500,The main experiment item,yes,FlankerTask Rene Wallace.osexp,C:\Users\18177\OneDrive\Documents\School\Grad School\Fall 2020\Lab 2 FlankerTask,no,mono,no,18,no,white,no,yes,768,legacy,46,46,C:/Users/18177/OneDrive/Documents/School/Grad School/Fall 2020/Lab 2 FlankerTask/RW-subject-3.csv,legacy,Lentiform Loewenfeld,3.3.3,0,H,NA,S,NA,NA,H,551,NA,34493,NA,NA,551,2,legacy,1024,2,48000,-16,experiment,SSHSS,3,odd,38710,NA,NA,77477,4207,NA,NA,117116,4216,NA,NA,116067,117217,117769,117114,117217,Flanker Task,46,24307,47,yes,1024
97.91666667,97.91666667,517.3333333,517.3333333,black,legacy,legacy,legacy,0,incongruent,uniform,1,undefined,1,s,0,0,0,47,0,47,0,47,0,0,0,47,47,47,47,47,9/16/2020 21:19,1500,The main experiment item,yes,FlankerTask Rene Wallace.osexp,C:\Users\18177\OneDrive\Documents\School\Grad School\Fall 2020\Lab 2 FlankerTask,no,mono,no,18,no,white,no,yes,768,legacy,47,47,C:/Users/18177/OneDrive/Documents/School/Grad School/Fall 2020/Lab 2 FlankerTask/RW-subject-3.csv,legacy,Lentiform Loewenfeld,3.3.3,0,S,NA,S,NA,NA,S,525,NA,34493,NA,NA,525,2,legacy,1024,2,48000,-16,experiment,HHSHH,3,odd,38710,NA,NA,77477,4207,NA,NA,118831,4216,NA,NA,117782,118935,119461,118829,118935,Flanker Task,47,24832,48,yes,1024
97.95918367,97.95918367,517.4897959,517.4897959,black,legacy,legacy,legacy,0,congruent,uniform,1,undefined,1,h,0,0,0,48,0,48,0,48,0,0,0,48,48,48,48,48,9/16/2020 21:19,1500,The main experiment item,yes,FlankerTask Rene Wallace.osexp,C:\Users\18177\OneDrive\Documents\School\Grad School\Fall 2020\Lab 2 FlankerTask,no,mono,no,18,no,white,no,yes,768,legacy,48,48,C:/Users/18177/OneDrive/Documents/School/Grad School/Fall 2020/Lab 2 FlankerTask/RW-subject-3.csv,legacy,Lentiform Loewenfeld,3.3.3,0,H,NA,S,NA,NA,H,525,NA,34493,NA,NA,525,2,legacy,1024,2,48000,-16,experiment,HHHHH,3,odd,38710,NA,NA,77477,4207,NA,NA,120514,4216,NA,NA,119466,120617,121143,120511,120616,Flanker Task,48,25357,49,yes,1024
98,98,517.78,517.78,black,legacy,legacy,legacy,0,congruent,uniform,1,undefined,1,s,0,0,0,49,0,49,0,49,0,0,0,49,49,49,49,49,9/16/2020 21:19,1500,The main experiment item,yes,FlankerTask Rene Wallace.osexp,C:\Users\18177\OneDrive\Documents\School\Grad School\Fall 2020\Lab 2 FlankerTask,no,mono,no,18,no,white,no,yes,768,legacy,49,49,C:/Users/18177/OneDrive/Documents/School/Grad School/Fall 2020/Lab 2 FlankerTask/RW-subject-3.csv,legacy,Lentiform Loewenfeld,3.3.3,0,S,NA,S,NA,NA,S,532,NA,34493,NA,NA,532,2,legacy,1024,2,48000,-16,experiment,SSSSS,3,odd,38710,NA,NA,77477,4207,NA,NA,122226,4216,NA,NA,121156,122327,122859,122224,122327,Flanker Task,49,25889,50,yes,1024
98.03921569,98.03921569,518.4705882,518.4705882,black,legacy,legacy,legacy,0,incongruent,uniform,1,undefined,1,h,0,0,0,50,0,50,0,50,0,0,0,50,50,50,50,50,9/16/2020 21:19,1500,The main experiment item,yes,FlankerTask Rene Wallace.osexp,C:\Users\18177\OneDrive\Documents\School\Grad School\Fall 2020\Lab 2 FlankerTask,no,mono,no,18,no,white,no,yes,768,legacy,50,50,C:/Users/18177/OneDrive/Documents/School/Grad School/Fall 2020/Lab 2 FlankerTask/RW-subject-3.csv,legacy,Lentiform Loewenfeld,3.3.3,0,H,NA,S,NA,NA,H,553,NA,34493,NA,NA,553,2,legacy,1024,2,48000,-16,experiment,SSHSS,3,odd,38710,NA,NA,77477,4207,NA,NA,123912,4216,NA,NA,122865,124015,124568,123910,124015,Flanker Task,50,26442,51,yes,1024
98.07692308,98.07692308,518.2692308,518.2692308,black,legacy,legacy,legacy,0,incongruent,uniform,1,undefined,1,h,0,0,0,51,0,51,0,51,0,0,0,51,51,51,51,51,9/16/2020 21:19,1500,The main experiment item,yes,FlankerTask Rene Wallace.osexp,C:\Users\18177\OneDrive\Documents\School\Grad School\Fall 2020\Lab 2 FlankerTask,no,mono,no,18,no,white,no,yes,768,legacy,51,51,C:/Users/18177/OneDrive/Documents/School/Grad School/Fall 2020/Lab 2 FlankerTask/RW-subject-3.csv,legacy,Lentiform Loewenfeld,3.3.3,0,H,NA,S,NA,NA,H,508,NA,34493,NA,NA,508,2,legacy,1024,2,48000,-16,experiment,SSHSS,3,odd,38710,NA,NA,77477,4207,NA,NA,125630,4216,NA,NA,124581,125733,126242,125628,125733,Flanker Task,51,26950,52,yes,1024
96.22641509,96.22641509,517.7169811,517.7169811,black,legacy,legacy,legacy,0,congruent,uniform,0,undefined,0,h,0,0,0,52,0,52,0,52,0,0,0,52,52,52,52,52,9/16/2020 21:19,1500,The main experiment item,yes,FlankerTask Rene Wallace.osexp,C:\Users\18177\OneDrive\Documents\School\Grad School\Fall 2020\Lab 2 FlankerTask,no,mono,no,18,no,white,no,yes,768,legacy,52,52,C:/Users/18177/OneDrive/Documents/School/Grad School/Fall 2020/Lab 2 FlankerTask/RW-subject-3.csv,legacy,Lentiform Loewenfeld,3.3.3,0,S,NA,S,NA,NA,S,489,NA,34493,NA,NA,489,2,legacy,1024,2,48000,-16,experiment,HHHHH,3,odd,38710,NA,NA,77477,4207,NA,NA,127297,4216,NA,NA,126248,127398,127887,127295,127398,Flanker Task,51,27439,53,yes,1024
96.2962963,96.2962963,518.5,518.5,black,legacy,legacy,legacy,0,incongruent,uniform,1,undefined,1,h,0,0,0,53,0,53,0,53,0,0,0,53,53,53,53,53,9/16/2020 21:19,1500,The main experiment item,yes,FlankerTask Rene Wallace.osexp,C:\Users\18177\OneDrive\Documents\School\Grad School\Fall 2020\Lab 2 FlankerTask,no,mono,no,18,no,white,no,yes,768,legacy,53,53,C:/Users/18177/OneDrive/Documents/School/Grad School/Fall 2020/Lab 2 FlankerTask/RW-subject-3.csv,legacy,Lentiform Loewenfeld,3.3.3,0,H,NA,S,NA,NA,H,560,NA,34493,NA,NA,560,2,legacy,1024,2,48000,-16,experiment,SSHSS,3,odd,38710,NA,NA,127900,4207,NA,NA,129448,4216,NA,NA,128401,129552,130113,129446,129552,Flanker Task,52,27999,54,yes,1024
96.36363636,96.36363636,518.8545455,518.8545455,black,legacy,legacy,legacy,0,congruent,uniform,1,undefined,1,s,0,0,0,54,0,54,0,54,0,0,0,54,54,54,54,54,9/16/2020 21:19,1500,The main experiment item,yes,FlankerTask Rene Wallace.osexp,C:\Users\18177\OneDrive\Documents\School\Grad School\Fall 2020\Lab 2 FlankerTask,no,mono,no,18,no,white,no,yes,768,legacy,54,54,C:/Users/18177/OneDrive/Documents/School/Grad School/Fall 2020/Lab 2 FlankerTask/RW-subject-3.csv,legacy,Lentiform Loewenfeld,3.3.3,0,S,NA,S,NA,NA,S,538,NA,34493,NA,NA,538,2,legacy,1024,2,48000,-16,experiment,SSSSS,3,odd,38710,NA,NA,127900,4207,NA,NA,131173,4216,NA,NA,130125,131274,131812,131171,131274,Flanker Task,53,28537,55,yes,1024
96.42857143,96.42857143,517.9642857,517.9642857,black,legacy,legacy,legacy,0,congruent,uniform,1,undefined,1,s,0,0,0,55,0,55,0,55,0,0,0,55,55,55,55,55,9/16/2020 21:19,1500,The main experiment item,yes,FlankerTask Rene Wallace.osexp,C:\Users\18177\OneDrive\Documents\School\Grad School\Fall 2020\Lab 2 FlankerTask,no,mono,no,18,no,white,no,yes,768,legacy,55,55,C:/Users/18177/OneDrive/Documents/School/Grad School/Fall 2020/Lab 2 FlankerTask/RW-subject-3.csv,legacy,Lentiform Loewenfeld,3.3.3,0,S,NA,S,NA,NA,S,469,NA,34493,NA,NA,469,2,legacy,1024,2,48000,-16,experiment,SSSSS,3,odd,38710,NA,NA,127900,4207,NA,NA,132874,4216,NA,NA,131824,132978,133448,132871,132978,Flanker Task,54,29006,56,yes,1024
96.49122807,96.49122807,516.5789474,516.5789474,black,legacy,legacy,legacy,0,congruent,uniform,1,undefined,1,s,0,0,0,56,0,56,0,56,0,0,0,56,56,56,56,56,9/16/2020 21:19,1500,The main experiment item,yes,FlankerTask Rene Wallace.osexp,C:\Users\18177\OneDrive\Documents\School\Grad School\Fall 2020\Lab 2 FlankerTask,no,mono,no,18,no,white,no,yes,768,legacy,56,56,C:/Users/18177/OneDrive/Documents/School/Grad School/Fall 2020/Lab 2 FlankerTask/RW-subject-3.csv,legacy,Lentiform Loewenfeld,3.3.3,0,S,NA,S,NA,NA,S,439,NA,34493,NA,NA,439,2,legacy,1024,2,48000,-16,experiment,SSSSS,3,odd,38710,NA,NA,127900,4207,NA,NA,134512,4216,NA,NA,133459,134614,135054,134509,134614,Flanker Task,55,29445,57,yes,1024
96.55172414,96.55172414,518.0689655,518.0689655,black,legacy,legacy,legacy,0,incongruent,uniform,1,undefined,1,s,0,0,0,57,0,57,0,57,0,0,0,57,57,57,57,57,9/16/2020 21:19,1500,The main experiment item,yes,FlankerTask Rene Wallace.osexp,C:\Users\18177\OneDrive\Documents\School\Grad School\Fall 2020\Lab 2 FlankerTask,no,mono,no,18,no,white,no,yes,768,legacy,57,57,C:/Users/18177/OneDrive/Documents/School/Grad School/Fall 2020/Lab 2 FlankerTask/RW-subject-3.csv,legacy,Lentiform Loewenfeld,3.3.3,0,S,NA,S,NA,NA,S,603,NA,34493,NA,NA,603,2,legacy,1024,2,48000,-16,experiment,HHSHH,3,odd,38710,NA,NA,127900,4207,NA,NA,136113,4216,NA,NA,135066,136218,136822,136111,136218,Flanker Task,56,30048,58,yes,1024
96.61016949,96.61016949,517.8983051,517.8983051,black,legacy,legacy,legacy,0,incongruent,uniform,1,undefined,1,h,0,0,0,58,0,58,0,58,0,0,0,58,58,58,58,58,9/16/2020 21:19,1500,The main experiment item,yes,FlankerTask Rene Wallace.osexp,C:\Users\18177\OneDrive\Documents\School\Grad School\Fall 2020\Lab 2 FlankerTask,no,mono,no,18,no,white,no,yes,768,legacy,58,58,C:/Users/18177/OneDrive/Documents/School/Grad School/Fall 2020/Lab 2 FlankerTask/RW-subject-3.csv,legacy,Lentiform Loewenfeld,3.3.3,0,H,NA,S,NA,NA,H,508,NA,34493,NA,NA,508,2,legacy,1024,2,48000,-16,experiment,SSHSS,3,odd,38710,NA,NA,127900,4207,NA,NA,137889,4216,NA,NA,136834,137993,138501,137887,137992,Flanker Task,57,30556,59,yes,1024
96.66666667,96.66666667,516.3833333,516.3833333,black,legacy,legacy,legacy,0,congruent,uniform,1,undefined,1,h,0,0,0,59,0,59,0,59,0,0,0,59,59,59,59,59,9/16/2020 21:19,1500,The main experiment item,yes,FlankerTask Rene Wallace.osexp,C:\Users\18177\OneDrive\Documents\School\Grad School\Fall 2020\Lab 2 FlankerTask,no,mono,no,18,no,white,no,yes,768,legacy,59,59,C:/Users/18177/OneDrive/Documents/School/Grad School/Fall 2020/Lab 2 FlankerTask/RW-subject-3.csv,legacy,Lentiform Loewenfeld,3.3.3,0,H,NA,S,NA,NA,H,427,NA,34493,NA,NA,427,2,legacy,1024,2,48000,-16,experiment,HHHHH,3,odd,38710,NA,NA,127900,4207,NA,NA,139552,4216,NA,NA,138505,139657,140085,139550,139657,Flanker Task,58,30983,60,yes,1024
96.72131148,96.72131148,516.4098361,516.4098361,black,legacy,legacy,legacy,0,incongruent,uniform,1,undefined,1,h,0,0,0,60,0,60,0,60,0,0,0,60,60,60,60,60,9/16/2020 21:19,1500,The main experiment item,yes,FlankerTask Rene Wallace.osexp,C:\Users\18177\OneDrive\Documents\School\Grad School\Fall 2020\Lab 2 FlankerTask,no,mono,no,18,no,white,no,yes,768,legacy,60,60,C:/Users/18177/OneDrive/Documents/School/Grad School/Fall 2020/Lab 2 FlankerTask/RW-subject-3.csv,legacy,Lentiform Loewenfeld,3.3.3,0,H,NA,S,NA,NA,H,518,NA,34493,NA,NA,518,2,legacy,1024,2,48000,-16,experiment,SSHSS,3,odd,38710,NA,NA,127900,4207,NA,NA,141146,4216,NA,NA,140097,141249,141768,141144,141249,Flanker Task,59,31501,61,yes,1024
96.77419355,96.77419355,516.1774194,516.1774194,black,legacy,legacy,legacy,0,congruent,uniform,1,undefined,1,s,0,0,0,61,0,61,0,61,0,0,0,61,61,61,61,61,9/16/2020 21:19,1500,The main experiment item,yes,FlankerTask Rene Wallace.osexp,C:\Users\18177\OneDrive\Documents\School\Grad School\Fall 2020\Lab 2 FlankerTask,no,mono,no,18,no,white,no,yes,768,legacy,61,61,C:/Users/18177/OneDrive/Documents/School/Grad School/Fall 2020/Lab 2 FlankerTask/RW-subject-3.csv,legacy,Lentiform Loewenfeld,3.3.3,0,S,NA,S,NA,NA,S,502,NA,34493,NA,NA,502,2,legacy,1024,2,48000,-16,experiment,SSSSS,3,odd,38710,NA,NA,127900,4207,NA,NA,142828,4216,NA,NA,141780,142932,143434,142827,142932,Flanker Task,60,32003,62,yes,1024
96.82539683,96.82539683,516.1428571,516.1428571,black,legacy,legacy,legacy,0,congruent,uniform,1,undefined,1,h,0,0,0,62,0,62,0,62,0,0,0,62,62,62,62,62,9/16/2020 21:19,1500,The main experiment item,yes,FlankerTask Rene Wallace.osexp,C:\Users\18177\OneDrive\Documents\School\Grad School\Fall 2020\Lab 2 FlankerTask,no,mono,no,18,no,white,no,yes,768,legacy,62,62,C:/Users/18177/OneDrive/Documents/School/Grad School/Fall 2020/Lab 2 FlankerTask/RW-subject-3.csv,legacy,Lentiform Loewenfeld,3.3.3,0,H,NA,S,NA,NA,H,514,NA,34493,NA,NA,514,2,legacy,1024,2,48000,-16,experiment,HHHHH,3,odd,38710,NA,NA,127900,4207,NA,NA,144495,4216,NA,NA,143446,144599,145113,144493,144599,Flanker Task,61,32517,63,yes,1024
96.875,96.875,518.515625,518.515625,black,legacy,legacy,legacy,0,congruent,uniform,1,undefined,1,s,0,0,0,63,0,63,0,63,0,0,0,63,63,63,63,63,9/16/2020 21:19,1500,The main experiment item,yes,FlankerTask Rene Wallace.osexp,C:\Users\18177\OneDrive\Documents\School\Grad School\Fall 2020\Lab 2 FlankerTask,no,mono,no,18,no,white,no,yes,768,legacy,63,63,C:/Users/18177/OneDrive/Documents/School/Grad School/Fall 2020/Lab 2 FlankerTask/RW-subject-3.csv,legacy,Lentiform Loewenfeld,3.3.3,0,S,NA,S,NA,NA,S,668,NA,34493,NA,NA,668,2,legacy,1024,2,48000,-16,experiment,SSSSS,3,odd,38710,NA,NA,127900,4207,NA,NA,146172,4216,NA,NA,145127,146275,146943,146170,146274,Flanker Task,62,33185,64,yes,1024
96.92307692,96.92307692,517.1692308,517.1692308,black,legacy,legacy,legacy,0,congruent,uniform,1,undefined,1,h,0,0,0,64,0,64,0,64,0,0,0,64,64,64,64,64,9/16/2020 21:19,1500,The main experiment item,yes,FlankerTask Rene Wallace.osexp,C:\Users\18177\OneDrive\Documents\School\Grad School\Fall 2020\Lab 2 FlankerTask,no,mono,no,18,no,white,no,yes,768,legacy,64,64,C:/Users/18177/OneDrive/Documents/School/Grad School/Fall 2020/Lab 2 FlankerTask/RW-subject-3.csv,legacy,Lentiform Loewenfeld,3.3.3,0,H,NA,S,NA,NA,H,431,NA,34493,NA,NA,431,2,legacy,1024,2,48000,-16,experiment,HHHHH,3,odd,38710,NA,NA,127900,4207,NA,NA,148004,4216,NA,NA,146957,148105,148536,148002,148105,Flanker Task,63,33616,65,yes,1024
96.96969697,96.96969697,515.9393939,515.9393939,black,legacy,legacy,legacy,0,congruent,uniform,1,undefined,1,h,0,0,0,65,0,65,0,65,0,0,0,65,65,65,65,65,9/16/2020 21:19,1500,The main experiment item,yes,FlankerTask Rene Wallace.osexp,C:\Users\18177\OneDrive\Documents\School\Grad School\Fall 2020\Lab 2 FlankerTask,no,mono,no,18,no,white,no,yes,768,legacy,65,65,C:/Users/18177/OneDrive/Documents/School/Grad School/Fall 2020/Lab 2 FlankerTask/RW-subject-3.csv,legacy,Lentiform Loewenfeld,3.3.3,0,H,NA,S,NA,NA,H,436,NA,34493,NA,NA,436,2,legacy,1024,2,48000,-16,experiment,HHHHH,3,odd,38710,NA,NA,127900,4207,NA,NA,149623,4216,NA,NA,148551,149725,150161,149621,149725,Flanker Task,64,34052,66,yes,1024
97.01492537,97.01492537,516.3432836,516.3432836,black,legacy,legacy,legacy,0,incongruent,uniform,1,undefined,1,h,0,0,0,66,0,66,0,66,0,0,0,66,66,66,66,66,9/16/2020 21:19,1500,The main experiment item,yes,FlankerTask Rene Wallace.osexp,C:\Users\18177\OneDrive\Documents\School\Grad School\Fall 2020\Lab 2 FlankerTask,no,mono,no,18,no,white,no,yes,768,legacy,66,66,C:/Users/18177/OneDrive/Documents/School/Grad School/Fall 2020/Lab 2 FlankerTask/RW-subject-3.csv,legacy,Lentiform Loewenfeld,3.3.3,0,H,NA,S,NA,NA,H,543,NA,34493,NA,NA,543,2,legacy,1024,2,48000,-16,experiment,SSHSS,3,odd,38710,NA,NA,127900,4207,NA,NA,151223,4216,NA,NA,150174,151327,151870,151221,151327,Flanker Task,65,34595,67,yes,1024
97.05882353,97.05882353,515.4411765,515.4411765,black,legacy,legacy,legacy,0,congruent,uniform,1,undefined,1,h,0,0,0,67,0,67,0,67,0,0,0,67,67,67,67,67,9/16/2020 21:19,1500,The main experiment item,yes,FlankerTask Rene Wallace.osexp,C:\Users\18177\OneDrive\Documents\School\Grad School\Fall 2020\Lab 2 FlankerTask,no,mono,no,18,no,white,no,yes,768,legacy,67,67,C:/Users/18177/OneDrive/Documents/School/Grad School/Fall 2020/Lab 2 FlankerTask/RW-subject-3.csv,legacy,Lentiform Loewenfeld,3.3.3,0,H,NA,S,NA,NA,H,455,NA,34493,NA,NA,455,2,legacy,1024,2,48000,-16,experiment,HHHHH,3,odd,38710,NA,NA,127900,4207,NA,NA,152932,4216,NA,NA,151884,153033,153489,152930,153033,Flanker Task,66,35050,68,yes,1024
97.10144928,97.10144928,514.4202899,514.4202899,black,legacy,legacy,legacy,0,incongruent,uniform,1,undefined,1,h,0,0,0,68,0,68,0,68,0,0,0,68,68,68,68,68,9/16/2020 21:19,1500,The main experiment item,yes,FlankerTask Rene Wallace.osexp,C:\Users\18177\OneDrive\Documents\School\Grad School\Fall 2020\Lab 2 FlankerTask,no,mono,no,18,no,white,no,yes,768,legacy,68,68,C:/Users/18177/OneDrive/Documents/School/Grad School/Fall 2020/Lab 2 FlankerTask/RW-subject-3.csv,legacy,Lentiform Loewenfeld,3.3.3,0,H,NA,S,NA,NA,H,445,NA,34493,NA,NA,445,2,legacy,1024,2,48000,-16,experiment,SSHSS,3,odd,38710,NA,NA,127900,4207,NA,NA,154541,4216,NA,NA,153493,154642,155087,154538,154642,Flanker Task,67,35495,69,yes,1024
97.14285714,97.14285714,514.9857143,514.9857143,black,legacy,legacy,legacy,0,congruent,uniform,1,undefined,1,s,0,0,0,69,0,69,0,69,0,0,0,69,69,69,69,69,9/16/2020 21:19,1500,The main experiment item,yes,FlankerTask Rene Wallace.osexp,C:\Users\18177\OneDrive\Documents\School\Grad School\Fall 2020\Lab 2 FlankerTask,no,mono,no,18,no,white,no,yes,768,legacy,69,69,C:/Users/18177/OneDrive/Documents/School/Grad School/Fall 2020/Lab 2 FlankerTask/RW-subject-3.csv,legacy,Lentiform Loewenfeld,3.3.3,0,S,NA,S,NA,NA,S,554,NA,34493,NA,NA,554,2,legacy,1024,2,48000,-16,experiment,SSSSS,3,odd,38710,NA,NA,127900,4207,NA,NA,156148,4216,NA,NA,155100,156251,156806,156145,156251,Flanker Task,68,36049,70,yes,1024
97.18309859,97.18309859,515.5774648,515.5774648,black,legacy,legacy,legacy,0,incongruent,uniform,1,undefined,1,h,0,0,0,70,0,70,0,70,0,0,0,70,70,70,70,70,9/16/2020 21:19,1500,The main experiment item,yes,FlankerTask Rene Wallace.osexp,C:\Users\18177\OneDrive\Documents\School\Grad School\Fall 2020\Lab 2 FlankerTask,no,mono,no,18,no,white,no,yes,768,legacy,70,70,C:/Users/18177/OneDrive/Documents/School/Grad School/Fall 2020/Lab 2 FlankerTask/RW-subject-3.csv,legacy,Lentiform Loewenfeld,3.3.3,0,H,NA,S,NA,NA,H,557,NA,34493,NA,NA,557,2,legacy,1024,2,48000,-16,experiment,SSHSS,3,odd,38710,NA,NA,127900,4207,NA,NA,157870,4216,NA,NA,156818,157973,158531,157868,157972,Flanker Task,69,36606,71,yes,1024
97.22222222,97.22222222,515.5694444,515.5694444,black,legacy,legacy,legacy,0,incongruent,uniform,1,undefined,1,h,0,0,0,71,0,71,0,71,0,0,0,71,71,71,71,71,9/16/2020 21:19,1500,The main experiment item,yes,FlankerTask Rene Wallace.osexp,C:\Users\18177\OneDrive\Documents\School\Grad School\Fall 2020\Lab 2 FlankerTask,no,mono,no,18,no,white,no,yes,768,legacy,71,71,C:/Users/18177/OneDrive/Documents/School/Grad School/Fall 2020/Lab 2 FlankerTask/RW-subject-3.csv,legacy,Lentiform Loewenfeld,3.3.3,0,H,NA,S,NA,NA,H,515,NA,34493,NA,NA,515,2,legacy,1024,2,48000,-16,experiment,SSHSS,3,odd,38710,NA,NA,127900,4207,NA,NA,159593,4216,NA,NA,158543,159694,160209,159591,159694,Flanker Task,70,37121,72,yes,1024
97.26027397,97.26027397,515.8493151,515.8493151,black,legacy,legacy,legacy,0,congruent,uniform,1,undefined,1,s,0,0,0,72,0,72,0,72,0,0,0,72,72,72,72,72,9/16/2020 21:19,1500,The main experiment item,yes,FlankerTask Rene Wallace.osexp,C:\Users\18177\OneDrive\Documents\School\Grad School\Fall 2020\Lab 2 FlankerTask,no,mono,no,18,no,white,no,yes,768,legacy,72,72,C:/Users/18177/OneDrive/Documents/School/Grad School/Fall 2020/Lab 2 FlankerTask/RW-subject-3.csv,legacy,Lentiform Loewenfeld,3.3.3,0,S,NA,S,NA,NA,S,536,NA,34493,NA,NA,536,2,legacy,1024,2,48000,-16,experiment,SSSSS,3,odd,38710,NA,NA,127900,4207,NA,NA,161272,4216,NA,NA,160223,161377,161915,161270,161377,Flanker Task,71,37657,73,yes,1024
97.2972973,97.2972973,515.2432432,515.2432432,black,legacy,legacy,legacy,0,incongruent,uniform,1,undefined,1,s,0,0,0,73,0,73,0,73,0,0,0,73,73,73,73,73,9/16/2020 21:19,1500,The main experiment item,yes,FlankerTask Rene Wallace.osexp,C:\Users\18177\OneDrive\Documents\School\Grad School\Fall 2020\Lab 2 FlankerTask,no,mono,no,18,no,white,no,yes,768,legacy,73,73,C:/Users/18177/OneDrive/Documents/School/Grad School/Fall 2020/Lab 2 FlankerTask/RW-subject-3.csv,legacy,Lentiform Loewenfeld,3.3.3,0,S,NA,S,NA,NA,S,471,NA,34493,NA,NA,471,2,legacy,1024,2,48000,-16,experiment,HHSHH,3,odd,38710,NA,NA,127900,4207,NA,NA,162977,4216,NA,NA,161928,163081,163552,162976,163081,Flanker Task,72,38128,74,yes,1024
97.33333333,97.33333333,515.4666667,515.4666667,black,legacy,legacy,legacy,0,incongruent,uniform,1,undefined,1,s,0,0,0,74,0,74,0,74,0,0,0,74,74,74,74,74,9/16/2020 21:19,1500,The main experiment item,yes,FlankerTask Rene Wallace.osexp,C:\Users\18177\OneDrive\Documents\School\Grad School\Fall 2020\Lab 2 FlankerTask,no,mono,no,18,no,white,no,yes,768,legacy,74,74,C:/Users/18177/OneDrive/Documents/School/Grad School/Fall 2020/Lab 2 FlankerTask/RW-subject-3.csv,legacy,Lentiform Loewenfeld,3.3.3,0,S,NA,S,NA,NA,S,532,NA,34493,NA,NA,532,2,legacy,1024,2,48000,-16,experiment,HHSHH,3,odd,38710,NA,NA,127900,4207,NA,NA,164614,4216,NA,NA,163565,164716,165248,164612,164716,Flanker Task,73,38660,75,yes,1024
97.36842105,97.36842105,515.7763158,515.7763158,black,legacy,legacy,legacy,0,incongruent,uniform,1,undefined,1,h,0,0,0,75,0,75,0,75,0,0,0,75,75,75,75,75,9/16/2020 21:19,1500,The main experiment item,yes,FlankerTask Rene Wallace.osexp,C:\Users\18177\OneDrive\Documents\School\Grad School\Fall 2020\Lab 2 FlankerTask,no,mono,no,18,no,white,no,yes,768,legacy,75,75,C:/Users/18177/OneDrive/Documents/School/Grad School/Fall 2020/Lab 2 FlankerTask/RW-subject-3.csv,legacy,Lentiform Loewenfeld,3.3.3,0,H,NA,S,NA,NA,H,539,NA,34493,NA,NA,539,2,legacy,1024,2,48000,-16,experiment,SSHSS,3,odd,38710,NA,NA,127900,4207,NA,NA,166311,4216,NA,NA,165262,166415,166955,166309,166414,Flanker Task,74,39199,76,yes,1024
97.4025974,97.4025974,516.9480519,516.9480519,black,legacy,legacy,legacy,0,incongruent,uniform,1,undefined,1,h,0,0,0,76,0,76,0,76,0,0,0,76,76,76,76,76,9/16/2020 21:19,1500,The main experiment item,yes,FlankerTask Rene Wallace.osexp,C:\Users\18177\OneDrive\Documents\School\Grad School\Fall 2020\Lab 2 FlankerTask,no,mono,no,18,no,white,no,yes,768,legacy,76,76,C:/Users/18177/OneDrive/Documents/School/Grad School/Fall 2020/Lab 2 FlankerTask/RW-subject-3.csv,legacy,Lentiform Loewenfeld,3.3.3,0,H,NA,S,NA,NA,H,606,NA,34493,NA,NA,606,2,legacy,1024,2,48000,-16,experiment,SSHSS,3,odd,38710,NA,NA,127900,4207,NA,NA,168018,4216,NA,NA,166968,168121,168728,168016,168121,Flanker Task,75,39805,77,yes,1024
97.43589744,97.43589744,519.0641026,519.0641026,black,legacy,legacy,legacy,0,congruent,uniform,1,undefined,1,h,0,0,0,77,0,77,0,77,0,0,0,77,77,77,77,77,9/16/2020 21:19,1500,The main experiment item,yes,FlankerTask Rene Wallace.osexp,C:\Users\18177\OneDrive\Documents\School\Grad School\Fall 2020\Lab 2 FlankerTask,no,mono,no,18,no,white,no,yes,768,legacy,77,77,C:/Users/18177/OneDrive/Documents/School/Grad School/Fall 2020/Lab 2 FlankerTask/RW-subject-3.csv,legacy,Lentiform Loewenfeld,3.3.3,0,H,NA,S,NA,NA,H,682,NA,34493,NA,NA,682,2,legacy,1024,2,48000,-16,experiment,HHHHH,3,odd,38710,NA,NA,127900,4207,NA,NA,169788,4216,NA,NA,168740,169892,170575,169786,169891,Flanker Task,76,40487,78,yes,1024
97.46835443,97.46835443,516.7974684,516.7974684,black,legacy,legacy,legacy,0,incongruent,uniform,1,undefined,1,h,0,0,0,78,0,78,0,78,0,0,0,78,78,78,78,78,9/16/2020 21:19,1500,The main experiment item,yes,FlankerTask Rene Wallace.osexp,C:\Users\18177\OneDrive\Documents\School\Grad School\Fall 2020\Lab 2 FlankerTask,no,mono,no,18,no,white,no,yes,768,legacy,78,78,C:/Users/18177/OneDrive/Documents/School/Grad School/Fall 2020/Lab 2 FlankerTask/RW-subject-3.csv,legacy,Lentiform Loewenfeld,3.3.3,0,H,NA,S,NA,NA,H,340,NA,34493,NA,NA,340,2,legacy,1024,2,48000,-16,experiment,SSHSS,3,odd,38710,NA,NA,127900,4207,NA,NA,171636,4216,NA,NA,170587,171737,172078,171634,171737,Flanker Task,77,40827,79,yes,1024
97.5,97.5,515.8875,515.8875,black,legacy,legacy,legacy,0,congruent,uniform,1,undefined,1,h,0,0,0,79,0,79,0,79,0,0,0,79,79,79,79,79,9/16/2020 21:19,1500,The main experiment item,yes,FlankerTask Rene Wallace.osexp,C:\Users\18177\OneDrive\Documents\School\Grad School\Fall 2020\Lab 2 FlankerTask,no,mono,no,18,no,white,no,yes,768,legacy,79,79,C:/Users/18177/OneDrive/Documents/School/Grad School/Fall 2020/Lab 2 FlankerTask/RW-subject-3.csv,legacy,Lentiform Loewenfeld,3.3.3,0,H,NA,S,NA,NA,H,444,NA,34493,NA,NA,444,2,legacy,1024,2,48000,-16,experiment,HHHHH,3,odd,38710,NA,NA,127900,4207,NA,NA,173137,4216,NA,NA,172090,173239,173683,173135,173239,Flanker Task,78,41271,80,yes,1024
97.5308642,97.5308642,517.0987654,517.0987654,black,legacy,legacy,legacy,0,congruent,uniform,1,undefined,1,s,0,0,0,80,0,80,0,80,0,0,0,80,80,80,80,80,9/16/2020 21:19,600,The main experiment item,yes,FlankerTask Rene Wallace.osexp,C:\Users\18177\OneDrive\Documents\School\Grad School\Fall 2020\Lab 2 FlankerTask,no,mono,no,18,no,white,no,yes,768,legacy,0,79,C:/Users/18177/OneDrive/Documents/School/Grad School/Fall 2020/Lab 2 FlankerTask/RW-subject-3.csv,legacy,Lentiform Loewenfeld,3.3.3,0,S,NA,S,S,NA,S,614,NA,34493,6341,NA,614,2,legacy,1024,2,48000,-16,experiment,SSSSS,3,odd,38710,181045,NA,127900,4207,NA,NA,181092,4216,174704,NA,173695,181195,181810,181091,181195,Flanker Task,79,41885,81,yes,1024
97.56097561,97.56097561,516.3414634,516.3414634,black,legacy,legacy,legacy,0,congruent,uniform,1,undefined,1,h,0,0,0,81,0,81,0,81,0,0,0,81,81,81,81,81,9/16/2020 21:19,600,The main experiment item,yes,FlankerTask Rene Wallace.osexp,C:\Users\18177\OneDrive\Documents\School\Grad School\Fall 2020\Lab 2 FlankerTask,no,mono,no,18,no,white,no,yes,768,legacy,1,79,C:/Users/18177/OneDrive/Documents/School/Grad School/Fall 2020/Lab 2 FlankerTask/RW-subject-3.csv,legacy,Lentiform Loewenfeld,3.3.3,0,H,NA,S,S,NA,H,455,NA,34493,6341,NA,455,2,legacy,1024,2,48000,-16,experiment,HHHHH,3,odd,38710,181045,NA,127900,4207,181821,NA,183368,4216,174704,NA,182322,183471,183927,183367,183471,Flanker Task,80,42340,82,yes,1024
97.59036145,97.59036145,516.313253,516.313253,black,legacy,legacy,legacy,0,incongruent,uniform,1,undefined,1,h,0,0,0,82,0,82,0,82,0,0,0,82,82,82,82,82,9/16/2020 21:19,600,The main experiment item,yes,FlankerTask Rene Wallace.osexp,C:\Users\18177\OneDrive\Documents\School\Grad School\Fall 2020\Lab 2 FlankerTask,no,mono,no,18,no,white,no,yes,768,legacy,2,79,C:/Users/18177/OneDrive/Documents/School/Grad School/Fall 2020/Lab 2 FlankerTask/RW-subject-3.csv,legacy,Lentiform Loewenfeld,3.3.3,0,H,NA,S,S,NA,H,514,NA,34493,6341,NA,514,2,legacy,1024,2,48000,-16,experiment,SSHSS,3,odd,38710,181045,NA,127900,4207,181821,NA,185009,4216,174704,NA,183940,185110,185625,185007,185110,Flanker Task,81,42854,83,yes,1024
97.61904762,97.61904762,514.8452381,514.8452381,black,legacy,legacy,legacy,0,incongruent,uniform,1,undefined,1,h,0,0,0,83,0,83,0,83,0,0,0,83,83,83,83,83,9/16/2020 21:19,600,The main experiment item,yes,FlankerTask Rene Wallace.osexp,C:\Users\18177\OneDrive\Documents\School\Grad School\Fall 2020\Lab 2 FlankerTask,no,mono,no,18,no,white,no,yes,768,legacy,3,79,C:/Users/18177/OneDrive/Documents/School/Grad School/Fall 2020/Lab 2 FlankerTask/RW-subject-3.csv,legacy,Lentiform Loewenfeld,3.3.3,0,H,NA,S,S,NA,H,393,NA,34493,6341,NA,393,2,legacy,1024,2,48000,-16,experiment,SSHSS,3,odd,38710,181045,NA,127900,4207,181821,NA,186687,4216,174704,NA,185638,186791,187185,186685,186790,Flanker Task,82,43247,84,yes,1024
97.64705882,97.64705882,513.8117647,513.8117647,black,legacy,legacy,legacy,0,incongruent,uniform,1,undefined,1,h,0,0,0,84,0,84,0,84,0,0,0,84,84,84,84,84,9/16/2020 21:19,600,The main experiment item,yes,FlankerTask Rene Wallace.osexp,C:\Users\18177\OneDrive\Documents\School\Grad School\Fall 2020\Lab 2 FlankerTask,no,mono,no,18,no,white,no,yes,768,legacy,4,79,C:/Users/18177/OneDrive/Documents/School/Grad School/Fall 2020/Lab 2 FlankerTask/RW-subject-3.csv,legacy,Lentiform Loewenfeld,3.3.3,0,H,NA,S,S,NA,H,427,NA,34493,6341,NA,427,2,legacy,1024,2,48000,-16,experiment,SSHSS,3,odd,38710,181045,NA,127900,4207,181821,NA,188244,4216,174704,NA,187196,188349,188777,188243,188349,Flanker Task,83,43674,85,yes,1024
97.6744186,97.6744186,512.3488372,512.3488372,black,legacy,legacy,legacy,0,congruent,uniform,1,undefined,1,h,0,0,0,85,0,85,0,85,0,0,0,85,85,85,85,85,9/16/2020 21:19,600,The main experiment item,yes,FlankerTask Rene Wallace.osexp,C:\Users\18177\OneDrive\Documents\School\Grad School\Fall 2020\Lab 2 FlankerTask,no,mono,no,18,no,white,no,yes,768,legacy,5,79,C:/Users/18177/OneDrive/Documents/School/Grad School/Fall 2020/Lab 2 FlankerTask/RW-subject-3.csv,legacy,Lentiform Loewenfeld,3.3.3,0,H,NA,S,S,NA,H,388,NA,34493,6341,NA,388,2,legacy,1024,2,48000,-16,experiment,HHHHH,3,odd,38710,181045,NA,127900,4207,181821,NA,189838,4216,174704,NA,188789,189942,190331,189837,189941,Flanker Task,84,44062,86,yes,1024
97.70114943,97.70114943,510.908046,510.908046,black,legacy,legacy,legacy,0,incongruent,uniform,1,undefined,1,h,0,0,0,86,0,86,0,86,0,0,0,86,86,86,86,86,9/16/2020 21:19,600,The main experiment item,yes,FlankerTask Rene Wallace.osexp,C:\Users\18177\OneDrive\Documents\School\Grad School\Fall 2020\Lab 2 FlankerTask,no,mono,no,18,no,white,no,yes,768,legacy,6,79,C:/Users/18177/OneDrive/Documents/School/Grad School/Fall 2020/Lab 2 FlankerTask/RW-subject-3.csv,legacy,Lentiform Loewenfeld,3.3.3,0,H,NA,S,S,NA,H,387,NA,34493,6341,NA,387,2,legacy,1024,2,48000,-16,experiment,SSHSS,3,odd,38710,181045,NA,127900,4207,181821,NA,191383,4216,174704,NA,190335,191487,191875,191380,191487,Flanker Task,85,44449,87,yes,1024
97.72727273,97.72727273,509.1931818,509.1931818,black,legacy,legacy,legacy,0,incongruent,uniform,1,undefined,1,h,0,0,0,87,0,87,0,87,0,0,0,87,87,87,87,87,9/16/2020 21:19,600,The main experiment item,yes,FlankerTask Rene Wallace.osexp,C:\Users\18177\OneDrive\Documents\School\Grad School\Fall 2020\Lab 2 FlankerTask,no,mono,no,18,no,white,no,yes,768,legacy,7,79,C:/Users/18177/OneDrive/Documents/School/Grad School/Fall 2020/Lab 2 FlankerTask/RW-subject-3.csv,legacy,Lentiform Loewenfeld,3.3.3,0,H,NA,S,S,NA,H,360,NA,34493,6341,NA,360,2,legacy,1024,2,48000,-16,experiment,SSHSS,3,odd,38710,181045,NA,127900,4207,181821,NA,192939,4216,174704,NA,191888,193041,193401,192936,193041,Flanker Task,86,44809,88,yes,1024
97.75280899,97.75280899,508.6741573,508.6741573,black,legacy,legacy,legacy,0,incongruent,uniform,1,undefined,1,h,0,0,0,88,0,88,0,88,0,0,0,88,88,88,88,88,9/16/2020 21:19,600,The main experiment item,yes,FlankerTask Rene Wallace.osexp,C:\Users\18177\OneDrive\Documents\School\Grad School\Fall 2020\Lab 2 FlankerTask,no,mono,no,18,no,white,no,yes,768,legacy,8,79,C:/Users/18177/OneDrive/Documents/School/Grad School/Fall 2020/Lab 2 FlankerTask/RW-subject-3.csv,legacy,Lentiform Loewenfeld,3.3.3,0,H,NA,S,S,NA,H,463,NA,34493,6341,NA,463,2,legacy,1024,2,48000,-16,experiment,SSHSS,3,odd,38710,181045,NA,127900,4207,181821,NA,194462,4216,174704,NA,193415,194566,195030,194459,194565,Flanker Task,87,45272,89,yes,1024
97.77777778,97.77777778,508.0333333,508.0333333,black,legacy,legacy,legacy,0,incongruent,uniform,1,undefined,1,h,0,0,0,89,0,89,0,89,0,0,0,89,89,89,89,89,9/16/2020 21:19,600,The main experiment item,yes,FlankerTask Rene Wallace.osexp,C:\Users\18177\OneDrive\Documents\School\Grad School\Fall 2020\Lab 2 FlankerTask,no,mono,no,18,no,white,no,yes,768,legacy,9,79,C:/Users/18177/OneDrive/Documents/School/Grad School/Fall 2020/Lab 2 FlankerTask/RW-subject-3.csv,legacy,Lentiform Loewenfeld,3.3.3,0,H,NA,S,S,NA,H,451,NA,34493,6341,NA,451,2,legacy,1024,2,48000,-16,experiment,SSHSS,3,odd,38710,181045,NA,127900,4207,181821,NA,196093,4216,174704,NA,195044,196198,196650,196092,196198,Flanker Task,88,45723,90,yes,1024
97.8021978,97.8021978,508.4065934,508.4065934,black,legacy,legacy,legacy,0,congruent,uniform,1,undefined,1,s,0,0,0,90,0,90,0,90,0,0,0,90,90,90,90,90,9/16/2020 21:19,600,The main experiment item,yes,FlankerTask Rene Wallace.osexp,C:\Users\18177\OneDrive\Documents\School\Grad School\Fall 2020\Lab 2 FlankerTask,no,mono,no,18,no,white,no,yes,768,legacy,10,79,C:/Users/18177/OneDrive/Documents/School/Grad School/Fall 2020/Lab 2 FlankerTask/RW-subject-3.csv,legacy,Lentiform Loewenfeld,3.3.3,0,S,NA,S,S,NA,S,542,NA,34493,6341,NA,542,2,legacy,1024,2,48000,-16,experiment,SSSSS,3,odd,38710,181045,NA,127900,4207,181821,NA,197710,4216,174704,NA,196661,197814,198357,197706,197814,Flanker Task,89,46265,91,yes,1024
97.82608696,97.82608696,508.3152174,508.3152174,black,legacy,legacy,legacy,0,incongruent,uniform,1,undefined,1,h,0,0,0,91,0,91,0,91,0,0,0,91,91,91,91,91,9/16/2020 21:19,600,The main experiment item,yes,FlankerTask Rene Wallace.osexp,C:\Users\18177\OneDrive\Documents\School\Grad School\Fall 2020\Lab 2 FlankerTask,no,mono,no,18,no,white,no,yes,768,legacy,11,79,C:/Users/18177/OneDrive/Documents/School/Grad School/Fall 2020/Lab 2 FlankerTask/RW-subject-3.csv,legacy,Lentiform Loewenfeld,3.3.3,0,H,NA,S,S,NA,H,500,NA,34493,6341,NA,500,2,legacy,1024,2,48000,-16,experiment,SSHSS,3,odd,38710,181045,NA,127900,4207,181821,NA,199418,4216,174704,NA,198370,199522,200023,199416,199522,Flanker Task,90,46765,92,yes,1024
97.84946237,97.84946237,508.3225806,508.3225806,black,legacy,legacy,legacy,0,incongruent,uniform,1,undefined,1,s,0,0,0,92,0,92,0,92,0,0,0,92,92,92,92,92,9/16/2020 21:19,600,The main experiment item,yes,FlankerTask Rene Wallace.osexp,C:\Users\18177\OneDrive\Documents\School\Grad School\Fall 2020\Lab 2 FlankerTask,no,mono,no,18,no,white,no,yes,768,legacy,12,79,C:/Users/18177/OneDrive/Documents/School/Grad School/Fall 2020/Lab 2 FlankerTask/RW-subject-3.csv,legacy,Lentiform Loewenfeld,3.3.3,0,S,NA,S,S,NA,S,509,NA,34493,6341,NA,509,2,legacy,1024,2,48000,-16,experiment,HHSHH,3,odd,38710,181045,NA,127900,4207,181821,NA,201087,4216,174704,NA,200038,201188,201698,201085,201188,Flanker Task,91,47274,93,yes,1024
97.87234043,97.87234043,508.2446809,508.2446809,black,legacy,legacy,legacy,0,incongruent,uniform,1,undefined,1,s,0,0,0,93,0,93,0,93,0,0,0,93,93,93,93,93,9/16/2020 21:19,600,The main experiment item,yes,FlankerTask Rene Wallace.osexp,C:\Users\18177\OneDrive\Documents\School\Grad School\Fall 2020\Lab 2 FlankerTask,no,mono,no,18,no,white,no,yes,768,legacy,13,79,C:/Users/18177/OneDrive/Documents/School/Grad School/Fall 2020/Lab 2 FlankerTask/RW-subject-3.csv,legacy,Lentiform Loewenfeld,3.3.3,0,S,NA,S,S,NA,S,501,NA,34493,6341,NA,501,2,legacy,1024,2,48000,-16,experiment,HHSHH,3,odd,38710,181045,NA,127900,4207,181821,NA,202761,4216,174704,NA,201710,202862,203364,202759,202862,Flanker Task,92,47775,94,yes,1024
97.89473684,97.89473684,508.3894737,508.3894737,black,legacy,legacy,legacy,0,incongruent,uniform,1,undefined,1,s,0,0,0,94,0,94,0,94,0,0,0,94,94,94,94,94,9/16/2020 21:19,600,The main experiment item,yes,FlankerTask Rene Wallace.osexp,C:\Users\18177\OneDrive\Documents\School\Grad School\Fall 2020\Lab 2 FlankerTask,no,mono,no,18,no,white,no,yes,768,legacy,14,79,C:/Users/18177/OneDrive/Documents/School/Grad School/Fall 2020/Lab 2 FlankerTask/RW-subject-3.csv,legacy,Lentiform Loewenfeld,3.3.3,0,S,NA,S,S,NA,S,522,NA,34493,6341,NA,522,2,legacy,1024,2,48000,-16,experiment,HHSHH,3,odd,38710,181045,NA,127900,4207,181821,NA,204425,4216,174704,NA,203376,204529,205052,204423,204529,Flanker Task,93,48297,95,yes,1024
97.91666667,97.91666667,508.8229167,508.8229167,black,legacy,legacy,legacy,0,incongruent,uniform,1,undefined,1,h,0,0,0,95,0,95,0,95,0,0,0,95,95,95,95,95,9/16/2020 21:19,600,The main experiment item,yes,FlankerTask Rene Wallace.osexp,C:\Users\18177\OneDrive\Documents\School\Grad School\Fall 2020\Lab 2 FlankerTask,no,mono,no,18,no,white,no,yes,768,legacy,15,79,C:/Users/18177/OneDrive/Documents/School/Grad School/Fall 2020/Lab 2 FlankerTask/RW-subject-3.csv,legacy,Lentiform Loewenfeld,3.3.3,0,H,NA,S,S,NA,H,550,NA,34493,6341,NA,550,2,legacy,1024,2,48000,-16,experiment,SSHSS,3,odd,38710,181045,NA,127900,4207,181821,NA,206114,4216,174704,NA,205065,206218,206768,206112,206217,Flanker Task,94,48847,96,yes,1024
97.93814433,97.93814433,508.3195876,508.3195876,black,legacy,legacy,legacy,0,congruent,uniform,1,undefined,1,h,0,0,0,96,0,96,0,96,0,0,0,96,96,96,96,96,9/16/2020 21:19,600,The main experiment item,yes,FlankerTask Rene Wallace.osexp,C:\Users\18177\OneDrive\Documents\School\Grad School\Fall 2020\Lab 2 FlankerTask,no,mono,no,18,no,white,no,yes,768,legacy,16,79,C:/Users/18177/OneDrive/Documents/School/Grad School/Fall 2020/Lab 2 FlankerTask/RW-subject-3.csv,legacy,Lentiform Loewenfeld,3.3.3,0,H,NA,S,S,NA,H,460,NA,34493,6341,NA,460,2,legacy,1024,2,48000,-16,experiment,HHHHH,3,odd,38710,181045,NA,127900,4207,181821,NA,207831,4216,174704,NA,206781,207935,208396,207829,207935,Flanker Task,95,49307,97,yes,1024
97.95918367,97.95918367,508.5102041,508.5102041,black,legacy,legacy,legacy,0,incongruent,uniform,1,undefined,1,s,0,0,0,97,0,97,0,97,0,0,0,97,97,97,97,97,9/16/2020 21:19,600,The main experiment item,yes,FlankerTask Rene Wallace.osexp,C:\Users\18177\OneDrive\Documents\School\Grad School\Fall 2020\Lab 2 FlankerTask,no,mono,no,18,no,white,no,yes,768,legacy,17,79,C:/Users/18177/OneDrive/Documents/School/Grad School/Fall 2020/Lab 2 FlankerTask/RW-subject-3.csv,legacy,Lentiform Loewenfeld,3.3.3,0,S,NA,S,S,NA,S,527,NA,34493,6341,NA,527,2,legacy,1024,2,48000,-16,experiment,HHSHH,3,odd,38710,181045,NA,127900,4207,181821,NA,209459,4216,174704,NA,208409,209560,210088,209457,209560,Flanker Task,96,49834,98,yes,1024
97.97979798,97.97979798,508.4040404,508.4040404,black,legacy,legacy,legacy,0,incongruent,uniform,1,undefined,1,s,0,0,0,98,0,98,0,98,0,0,0,98,98,98,98,98,9/16/2020 21:19,600,The main experiment item,yes,FlankerTask Rene Wallace.osexp,C:\Users\18177\OneDrive\Documents\School\Grad School\Fall 2020\Lab 2 FlankerTask,no,mono,no,18,no,white,no,yes,768,legacy,18,79,C:/Users/18177/OneDrive/Documents/School/Grad School/Fall 2020/Lab 2 FlankerTask/RW-subject-3.csv,legacy,Lentiform Loewenfeld,3.3.3,0,S,NA,S,S,NA,S,498,NA,34493,6341,NA,498,2,legacy,1024,2,48000,-16,experiment,HHSHH,3,odd,38710,181045,NA,127900,4207,181821,NA,211151,4216,174704,NA,210101,211255,211753,211149,211255,Flanker Task,97,50332,99,yes,1024
98,98,509.59,509.59,black,legacy,legacy,legacy,0,incongruent,uniform,1,undefined,1,h,0,0,0,99,0,99,0,99,0,0,0,99,99,99,99,99,9/16/2020 21:19,600,The main experiment item,yes,FlankerTask Rene Wallace.osexp,C:\Users\18177\OneDrive\Documents\School\Grad School\Fall 2020\Lab 2 FlankerTask,no,mono,no,18,no,white,no,yes,768,legacy,19,79,C:/Users/18177/OneDrive/Documents/School/Grad School/Fall 2020/Lab 2 FlankerTask/RW-subject-3.csv,legacy,Lentiform Loewenfeld,3.3.3,0,H,NA,S,S,NA,H,627,NA,34493,6341,NA,627,2,legacy,1024,2,48000,-16,experiment,SSHSS,3,odd,38710,181045,NA,127900,4207,181821,NA,212817,4216,174704,NA,211768,212918,213545,212816,212918,Flanker Task,98,50959,100,yes,1024
98.01980198,98.01980198,509.7425743,509.7425743,black,legacy,legacy,legacy,0,incongruent,uniform,1,undefined,1,h,0,0,0,100,0,100,0,100,0,0,0,100,100,100,100,100,9/16/2020 21:19,600,The main experiment item,yes,FlankerTask Rene Wallace.osexp,C:\Users\18177\OneDrive\Documents\School\Grad School\Fall 2020\Lab 2 FlankerTask,no,mono,no,18,no,white,no,yes,768,legacy,20,79,C:/Users/18177/OneDrive/Documents/School/Grad School/Fall 2020/Lab 2 FlankerTask/RW-subject-3.csv,legacy,Lentiform Loewenfeld,3.3.3,0,H,NA,S,S,NA,H,525,NA,34493,6341,NA,525,2,legacy,1024,2,48000,-16,experiment,SSHSS,3,odd,38710,181045,NA,127900,4207,213550,NA,215097,4216,174704,NA,214051,215199,215724,215095,215199,Flanker Task,99,51484,101,yes,1024
98.03921569,98.03921569,508.6470588,508.6470588,black,legacy,legacy,legacy,0,congruent,uniform,1,undefined,1,h,0,0,0,101,0,101,0,101,0,0,0,101,101,101,101,101,9/16/2020 21:19,600,The main experiment item,yes,FlankerTask Rene Wallace.osexp,C:\Users\18177\OneDrive\Documents\School\Grad School\Fall 2020\Lab 2 FlankerTask,no,mono,no,18,no,white,no,yes,768,legacy,21,79,C:/Users/18177/OneDrive/Documents/School/Grad School/Fall 2020/Lab 2 FlankerTask/RW-subject-3.csv,legacy,Lentiform Loewenfeld,3.3.3,0,H,NA,S,S,NA,H,398,NA,34493,6341,NA,398,2,legacy,1024,2,48000,-16,experiment,HHHHH,3,odd,38710,181045,NA,127900,4207,213550,NA,216789,4216,174704,NA,215737,216891,217290,216786,216891,Flanker Task,100,51882,102,yes,1024
98.05825243,98.05825243,508.2038835,508.2038835,black,legacy,legacy,legacy,0,incongruent,uniform,1,undefined,1,h,0,0,0,102,0,102,0,102,0,0,0,102,102,102,102,102,9/16/2020 21:19,600,The main experiment item,yes,FlankerTask Rene Wallace.osexp,C:\Users\18177\OneDrive\Documents\School\Grad School\Fall 2020\Lab 2 FlankerTask,no,mono,no,18,no,white,no,yes,768,legacy,22,79,C:/Users/18177/OneDrive/Documents/School/Grad School/Fall 2020/Lab 2 FlankerTask/RW-subject-3.csv,legacy,Lentiform Loewenfeld,3.3.3,0,H,NA,S,S,NA,H,463,NA,34493,6341,NA,463,2,legacy,1024,2,48000,-16,experiment,SSHSS,3,odd,38710,181045,NA,127900,4207,213550,NA,218352,4216,174704,NA,217302,218452,218916,218350,218452,Flanker Task,101,52345,103,yes,1024
98.07692308,98.07692308,507.625,507.625,black,legacy,legacy,legacy,0,congruent,uniform,1,undefined,1,s,0,0,0,103,0,103,0,103,0,0,0,103,103,103,103,103,9/16/2020 21:19,600,The main experiment item,yes,FlankerTask Rene Wallace.osexp,C:\Users\18177\OneDrive\Documents\School\Grad School\Fall 2020\Lab 2 FlankerTask,no,mono,no,18,no,white,no,yes,768,legacy,23,79,C:/Users/18177/OneDrive/Documents/School/Grad School/Fall 2020/Lab 2 FlankerTask/RW-subject-3.csv,legacy,Lentiform Loewenfeld,3.3.3,0,S,NA,S,S,NA,S,448,NA,34493,6341,NA,448,2,legacy,1024,2,48000,-16,experiment,SSSSS,3,odd,38710,181045,NA,127900,4207,213550,NA,219971,4216,174704,NA,218921,220074,220523,219969,220074,Flanker Task,102,52793,104,yes,1024
98.0952381,98.0952381,506.6666667,506.6666667,black,legacy,legacy,legacy,0,congruent,uniform,1,undefined,1,s,0,0,0,104,0,104,0,104,0,0,0,104,104,104,104,104,9/16/2020 21:19,600,The main experiment item,yes,FlankerTask Rene Wallace.osexp,C:\Users\18177\OneDrive\Documents\School\Grad School\Fall 2020\Lab 2 FlankerTask,no,mono,no,18,no,white,no,yes,768,legacy,24,79,C:/Users/18177/OneDrive/Documents/School/Grad School/Fall 2020/Lab 2 FlankerTask/RW-subject-3.csv,legacy,Lentiform Loewenfeld,3.3.3,0,S,NA,S,S,NA,S,407,NA,34493,6341,NA,407,2,legacy,1024,2,48000,-16,experiment,SSSSS,3,odd,38710,181045,NA,127900,4207,213550,NA,221582,4216,174704,NA,220535,221686,222094,221580,221685,Flanker Task,103,53200,105,yes,1024
98.11320755,98.11320755,507.4528302,507.4528302,black,legacy,legacy,legacy,0,incongruent,uniform,1,undefined,1,s,0,0,0,105,0,105,0,105,0,0,0,105,105,105,105,105,9/16/2020 21:19,600,The main experiment item,yes,FlankerTask Rene Wallace.osexp,C:\Users\18177\OneDrive\Documents\School\Grad School\Fall 2020\Lab 2 FlankerTask,no,mono,no,18,no,white,no,yes,768,legacy,25,79,C:/Users/18177/OneDrive/Documents/School/Grad School/Fall 2020/Lab 2 FlankerTask/RW-subject-3.csv,legacy,Lentiform Loewenfeld,3.3.3,0,S,NA,S,S,NA,S,590,NA,34493,6341,NA,590,2,legacy,1024,2,48000,-16,experiment,HHSHH,3,odd,38710,181045,NA,127900,4207,213550,NA,223156,4216,174704,NA,222107,223261,223852,223155,223261,Flanker Task,104,53790,106,yes,1024
98.13084112,98.13084112,506.4299065,506.4299065,black,legacy,legacy,legacy,0,incongruent,uniform,1,undefined,1,s,0,0,0,106,0,106,0,106,0,0,0,106,106,106,106,106,9/16/2020 21:19,600,The main experiment item,yes,FlankerTask Rene Wallace.osexp,C:\Users\18177\OneDrive\Documents\School\Grad School\Fall 2020\Lab 2 FlankerTask,no,mono,no,18,no,white,no,yes,768,legacy,26,79,C:/Users/18177/OneDrive/Documents/School/Grad School/Fall 2020/Lab 2 FlankerTask/RW-subject-3.csv,legacy,Lentiform Loewenfeld,3.3.3,0,S,NA,S,S,NA,S,398,NA,34493,6341,NA,398,2,legacy,1024,2,48000,-16,experiment,HHSHH,3,odd,38710,181045,NA,127900,4207,213550,NA,224915,4216,174704,NA,223865,225016,225415,224912,225016,Flanker Task,105,54188,107,yes,1024
98.14814815,98.14814815,506.5648148,506.5648148,black,legacy,legacy,legacy,0,incongruent,uniform,1,undefined,1,s,0,0,0,107,0,107,0,107,0,0,0,107,107,107,107,107,9/16/2020 21:19,600,The main experiment item,yes,FlankerTask Rene Wallace.osexp,C:\Users\18177\OneDrive\Documents\School\Grad School\Fall 2020\Lab 2 FlankerTask,no,mono,no,18,no,white,no,yes,768,legacy,27,79,C:/Users/18177/OneDrive/Documents/School/Grad School/Fall 2020/Lab 2 FlankerTask/RW-subject-3.csv,legacy,Lentiform Loewenfeld,3.3.3,0,S,NA,S,S,NA,S,521,NA,34493,6341,NA,521,2,legacy,1024,2,48000,-16,experiment,HHSHH,3,odd,38710,181045,NA,127900,4207,213550,NA,226477,4216,174704,NA,225428,226581,227103,226474,226581,Flanker Task,106,54709,108,yes,1024
98.16513761,98.16513761,506.5504587,506.5504587,black,legacy,legacy,legacy,0,congruent,uniform,1,undefined,1,h,0,0,0,108,0,108,0,108,0,0,0,108,108,108,108,108,9/16/2020 21:19,600,The main experiment item,yes,FlankerTask Rene Wallace.osexp,C:\Users\18177\OneDrive\Documents\School\Grad School\Fall 2020\Lab 2 FlankerTask,no,mono,no,18,no,white,no,yes,768,legacy,28,79,C:/Users/18177/OneDrive/Documents/School/Grad School/Fall 2020/Lab 2 FlankerTask/RW-subject-3.csv,legacy,Lentiform Loewenfeld,3.3.3,0,H,NA,S,S,NA,H,505,NA,34493,6341,NA,505,2,legacy,1024,2,48000,-16,experiment,HHHHH,3,odd,38710,181045,NA,127900,4207,213550,NA,228156,4216,174704,NA,227107,228260,228766,228154,228260,Flanker Task,107,55214,109,yes,1024
98.18181818,98.18181818,506.7909091,506.7909091,black,legacy,legacy,legacy,0,incongruent,uniform,1,undefined,1,s,0,0,0,109,0,109,0,109,0,0,0,109,109,109,109,109,9/16/2020 21:19,600,The main experiment item,yes,FlankerTask Rene Wallace.osexp,C:\Users\18177\OneDrive\Documents\School\Grad School\Fall 2020\Lab 2 FlankerTask,no,mono,no,18,no,white,no,yes,768,legacy,29,79,C:/Users/18177/OneDrive/Documents/School/Grad School/Fall 2020/Lab 2 FlankerTask/RW-subject-3.csv,legacy,Lentiform Loewenfeld,3.3.3,0,S,NA,S,S,NA,S,533,NA,34493,6341,NA,533,2,legacy,1024,2,48000,-16,experiment,HHSHH,3,odd,38710,181045,NA,127900,4207,213550,NA,229827,4216,174704,NA,228779,229931,230464,229825,229931,Flanker Task,108,55747,110,yes,1024
98.1981982,98.1981982,505.8468468,505.8468468,black,legacy,legacy,legacy,0,congruent,uniform,1,undefined,1,h,0,0,0,110,0,110,0,110,0,0,0,110,110,110,110,110,9/16/2020 21:19,600,The main experiment item,yes,FlankerTask Rene Wallace.osexp,C:\Users\18177\OneDrive\Documents\School\Grad School\Fall 2020\Lab 2 FlankerTask,no,mono,no,18,no,white,no,yes,768,legacy,30,79,C:/Users/18177/OneDrive/Documents/School/Grad School/Fall 2020/Lab 2 FlankerTask/RW-subject-3.csv,legacy,Lentiform Loewenfeld,3.3.3,0,H,NA,S,S,NA,H,402,NA,34493,6341,NA,402,2,legacy,1024,2,48000,-16,experiment,HHHHH,3,odd,38710,181045,NA,127900,4207,213550,NA,231526,4216,174704,NA,230477,231629,232031,231523,231629,Flanker Task,109,56149,111,yes,1024
98.21428571,98.21428571,506.7232143,506.7232143,black,legacy,legacy,legacy,0,incongruent,uniform,1,undefined,1,s,0,0,0,111,0,111,0,111,0,0,0,111,111,111,111,111,9/16/2020 21:19,600,The main experiment item,yes,FlankerTask Rene Wallace.osexp,C:\Users\18177\OneDrive\Documents\School\Grad School\Fall 2020\Lab 2 FlankerTask,no,mono,no,18,no,white,no,yes,768,legacy,31,79,C:/Users/18177/OneDrive/Documents/School/Grad School/Fall 2020/Lab 2 FlankerTask/RW-subject-3.csv,legacy,Lentiform Loewenfeld,3.3.3,0,S,NA,S,S,NA,S,604,NA,34493,6341,NA,604,2,legacy,1024,2,48000,-16,experiment,HHSHH,3,odd,38710,181045,NA,127900,4207,213550,NA,233093,4216,174704,NA,232044,233197,233802,233091,233197,Flanker Task,110,56753,112,yes,1024
98.2300885,98.2300885,506.1946903,506.1946903,black,legacy,legacy,legacy,0,congruent,uniform,1,undefined,1,s,0,0,0,112,0,112,0,112,0,0,0,112,112,112,112,112,9/16/2020 21:19,600,The main experiment item,yes,FlankerTask Rene Wallace.osexp,C:\Users\18177\OneDrive\Documents\School\Grad School\Fall 2020\Lab 2 FlankerTask,no,mono,no,18,no,white,no,yes,768,legacy,32,79,C:/Users/18177/OneDrive/Documents/School/Grad School/Fall 2020/Lab 2 FlankerTask/RW-subject-3.csv,legacy,Lentiform Loewenfeld,3.3.3,0,S,NA,S,S,NA,S,447,NA,34493,6341,NA,447,2,legacy,1024,2,48000,-16,experiment,SSSSS,3,odd,38710,181045,NA,127900,4207,233815,NA,235383,4216,174704,NA,234316,235487,235935,235381,235487,Flanker Task,111,57200,113,yes,1024
98.24561404,98.24561404,504.9649123,504.9649123,black,legacy,legacy,legacy,0,incongruent,uniform,1,undefined,1,s,0,0,0,113,0,113,0,113,0,0,0,113,113,113,113,113,9/16/2020 21:19,600,The main experiment item,yes,FlankerTask Rene Wallace.osexp,C:\Users\18177\OneDrive\Documents\School\Grad School\Fall 2020\Lab 2 FlankerTask,no,mono,no,18,no,white,no,yes,768,legacy,33,79,C:/Users/18177/OneDrive/Documents/School/Grad School/Fall 2020/Lab 2 FlankerTask/RW-subject-3.csv,legacy,Lentiform Loewenfeld,3.3.3,0,S,NA,S,S,NA,S,366,NA,34493,6341,NA,366,2,legacy,1024,2,48000,-16,experiment,HHSHH,3,odd,38710,181045,NA,127900,4207,233815,NA,236995,4216,174704,NA,235947,237098,237466,236992,237098,Flanker Task,112,57566,114,yes,1024
98.26086957,98.26086957,504.8521739,504.8521739,black,legacy,legacy,legacy,0,congruent,uniform,1,undefined,1,s,0,0,0,114,0,114,0,114,0,0,0,114,114,114,114,114,9/16/2020 21:19,600,The main experiment item,yes,FlankerTask Rene Wallace.osexp,C:\Users\18177\OneDrive\Documents\School\Grad School\Fall 2020\Lab 2 FlankerTask,no,mono,no,18,no,white,no,yes,768,legacy,34,79,C:/Users/18177/OneDrive/Documents/School/Grad School/Fall 2020/Lab 2 FlankerTask/RW-subject-3.csv,legacy,Lentiform Loewenfeld,3.3.3,0,S,NA,S,S,NA,S,492,NA,34493,6341,NA,492,2,legacy,1024,2,48000,-16,experiment,SSSSS,3,odd,38710,181045,NA,127900,4207,233815,NA,238526,4216,174704,NA,237478,238630,239123,238525,238630,Flanker Task,113,58058,115,yes,1024
98.27586207,98.27586207,503.9482759,503.9482759,black,legacy,legacy,legacy,0,congruent,uniform,1,undefined,1,s,0,0,0,115,0,115,0,115,0,0,0,115,115,115,115,115,9/16/2020 21:19,600,The main experiment item,yes,FlankerTask Rene Wallace.osexp,C:\Users\18177\OneDrive\Documents\School\Grad School\Fall 2020\Lab 2 FlankerTask,no,mono,no,18,no,white,no,yes,768,legacy,35,79,C:/Users/18177/OneDrive/Documents/School/Grad School/Fall 2020/Lab 2 FlankerTask/RW-subject-3.csv,legacy,Lentiform Loewenfeld,3.3.3,0,S,NA,S,S,NA,S,400,NA,34493,6341,NA,400,2,legacy,1024,2,48000,-16,experiment,SSSSS,3,odd,38710,181045,NA,127900,4207,233815,NA,240186,4216,174704,NA,239136,240286,240687,240183,240286,Flanker Task,114,58458,116,yes,1024
97.43589744,97.43589744,503.0598291,503.0598291,black,legacy,legacy,legacy,0,congruent,uniform,0,undefined,0,h,0,0,0,116,0,116,0,116,0,0,0,116,116,116,116,116,9/16/2020 21:19,600,The main experiment item,yes,FlankerTask Rene Wallace.osexp,C:\Users\18177\OneDrive\Documents\School\Grad School\Fall 2020\Lab 2 FlankerTask,no,mono,no,18,no,white,no,yes,768,legacy,36,79,C:/Users/18177/OneDrive/Documents/School/Grad School/Fall 2020/Lab 2 FlankerTask/RW-subject-3.csv,legacy,Lentiform Loewenfeld,3.3.3,0,S,NA,S,S,NA,S,400,NA,34493,6341,NA,400,2,legacy,1024,2,48000,-16,experiment,HHHHH,3,odd,38710,181045,NA,127900,4207,233815,NA,241748,4216,174704,NA,240699,241852,242253,241747,241852,Flanker Task,114,58858,117,yes,1024
97.45762712,97.45762712,502.0762712,502.0762712,black,legacy,legacy,legacy,0,congruent,uniform,1,undefined,1,s,0,0,0,117,0,117,0,117,0,0,0,117,117,117,117,117,9/16/2020 21:19,600,The main experiment item,yes,FlankerTask Rene Wallace.osexp,C:\Users\18177\OneDrive\Documents\School\Grad School\Fall 2020\Lab 2 FlankerTask,no,mono,no,18,no,white,no,yes,768,legacy,37,79,C:/Users/18177/OneDrive/Documents/School/Grad School/Fall 2020/Lab 2 FlankerTask/RW-subject-3.csv,legacy,Lentiform Loewenfeld,3.3.3,0,S,NA,S,S,NA,S,387,NA,34493,6341,NA,387,2,legacy,1024,2,48000,-16,experiment,SSSSS,3,odd,38710,181045,NA,242265,4207,233815,NA,243813,4216,174704,NA,242767,243915,244303,243811,243915,Flanker Task,115,59245,118,yes,1024
97.4789916,97.4789916,501.487395,501.487395,black,legacy,legacy,legacy,0,incongruent,uniform,1,undefined,1,s,0,0,0,118,0,118,0,118,0,0,0,118,118,118,118,118,9/16/2020 21:19,600,The main experiment item,yes,FlankerTask Rene Wallace.osexp,C:\Users\18177\OneDrive\Documents\School\Grad School\Fall 2020\Lab 2 FlankerTask,no,mono,no,18,no,white,no,yes,768,legacy,38,79,C:/Users/18177/OneDrive/Documents/School/Grad School/Fall 2020/Lab 2 FlankerTask/RW-subject-3.csv,legacy,Lentiform Loewenfeld,3.3.3,0,S,NA,S,S,NA,S,432,NA,34493,6341,NA,432,2,legacy,1024,2,48000,-16,experiment,HHSHH,3,odd,38710,181045,NA,242265,4207,233815,NA,245384,4216,174704,NA,244315,245485,245918,245381,245485,Flanker Task,116,59677,119,yes,1024
97.5,97.5,500.9666667,500.9666667,black,legacy,legacy,legacy,0,congruent,uniform,1,undefined,1,s,0,0,0,119,0,119,0,119,0,0,0,119,119,119,119,119,9/16/2020 21:19,600,The main experiment item,yes,FlankerTask Rene Wallace.osexp,C:\Users\18177\OneDrive\Documents\School\Grad School\Fall 2020\Lab 2 FlankerTask,no,mono,no,18,no,white,no,yes,768,legacy,39,79,C:/Users/18177/OneDrive/Documents/School/Grad School/Fall 2020/Lab 2 FlankerTask/RW-subject-3.csv,legacy,Lentiform Loewenfeld,3.3.3,0,S,NA,S,S,NA,S,439,NA,34493,6341,NA,439,2,legacy,1024,2,48000,-16,experiment,SSSSS,3,odd,38710,181045,NA,242265,4207,233815,NA,246979,4216,174704,NA,245929,247081,247521,246977,247080,Flanker Task,117,60116,120,yes,1024
97.52066116,97.52066116,500.0247934,500.0247934,black,legacy,legacy,legacy,0,incongruent,uniform,1,undefined,1,s,0,0,0,120,0,120,0,120,0,0,0,120,120,120,120,120,9/16/2020 21:19,600,The main experiment item,yes,FlankerTask Rene Wallace.osexp,C:\Users\18177\OneDrive\Documents\School\Grad School\Fall 2020\Lab 2 FlankerTask,no,mono,no,18,no,white,no,yes,768,legacy,40,79,C:/Users/18177/OneDrive/Documents/School/Grad School/Fall 2020/Lab 2 FlankerTask/RW-subject-3.csv,legacy,Lentiform Loewenfeld,3.3.3,0,S,NA,S,S,NA,S,387,NA,34493,6341,NA,387,2,legacy,1024,2,48000,-16,experiment,HHSHH,3,odd,38710,181045,NA,242265,4207,233815,NA,248570,4216,174704,NA,247524,248672,249060,248569,248672,Flanker Task,118,60503,121,yes,1024
97.54098361,97.54098361,499.2131148,499.2131148,black,legacy,legacy,legacy,0,congruent,uniform,1,undefined,1,s,0,0,0,121,0,121,0,121,0,0,0,121,121,121,121,121,9/16/2020 21:19,600,The main experiment item,yes,FlankerTask Rene Wallace.osexp,C:\Users\18177\OneDrive\Documents\School\Grad School\Fall 2020\Lab 2 FlankerTask,no,mono,no,18,no,white,no,yes,768,legacy,41,79,C:/Users/18177/OneDrive/Documents/School/Grad School/Fall 2020/Lab 2 FlankerTask/RW-subject-3.csv,legacy,Lentiform Loewenfeld,3.3.3,0,S,NA,S,S,NA,S,401,NA,34493,6341,NA,401,2,legacy,1024,2,48000,-16,experiment,SSSSS,3,odd,38710,181045,NA,242265,4207,233815,NA,250122,4216,174704,NA,249074,250226,250628,250120,250225,Flanker Task,119,60904,122,yes,1024
97.56097561,97.56097561,499.6422764,499.6422764,black,legacy,legacy,legacy,0,congruent,uniform,1,undefined,1,h,0,0,0,122,0,122,0,122,0,0,0,122,122,122,122,122,9/16/2020 21:19,600,The main experiment item,yes,FlankerTask Rene Wallace.osexp,C:\Users\18177\OneDrive\Documents\School\Grad School\Fall 2020\Lab 2 FlankerTask,no,mono,no,18,no,white,no,yes,768,legacy,42,79,C:/Users/18177/OneDrive/Documents/School/Grad School/Fall 2020/Lab 2 FlankerTask/RW-subject-3.csv,legacy,Lentiform Loewenfeld,3.3.3,0,H,NA,S,S,NA,H,552,NA,34493,6341,NA,552,2,legacy,1024,2,48000,-16,experiment,HHHHH,3,odd,38710,181045,NA,242265,4207,233815,NA,251688,4216,174704,NA,250641,251791,252344,251686,251790,Flanker Task,120,61456,123,yes,1024
97.58064516,97.58064516,499.4596774,499.4596774,black,legacy,legacy,legacy,0,congruent,uniform,1,undefined,1,s,0,0,0,123,0,123,0,123,0,0,0,123,123,123,123,123,9/16/2020 21:19,600,The main experiment item,yes,FlankerTask Rene Wallace.osexp,C:\Users\18177\OneDrive\Documents\School\Grad School\Fall 2020\Lab 2 FlankerTask,no,mono,no,18,no,white,no,yes,768,legacy,43,79,C:/Users/18177/OneDrive/Documents/School/Grad School/Fall 2020/Lab 2 FlankerTask/RW-subject-3.csv,legacy,Lentiform Loewenfeld,3.3.3,0,S,NA,S,S,NA,S,477,NA,34493,6341,NA,477,2,legacy,1024,2,48000,-16,experiment,SSSSS,3,odd,38710,181045,NA,242265,4207,233815,NA,253403,4216,174704,NA,252355,253507,253985,253401,253507,Flanker Task,121,61933,124,yes,1024
97.6,97.6,498.984,498.984,black,legacy,legacy,legacy,0,incongruent,uniform,1,undefined,1,s,0,0,0,124,0,124,0,124,0,0,0,124,124,124,124,124,9/16/2020 21:19,600,The main experiment item,yes,FlankerTask Rene Wallace.osexp,C:\Users\18177\OneDrive\Documents\School\Grad School\Fall 2020\Lab 2 FlankerTask,no,mono,no,18,no,white,no,yes,768,legacy,44,79,C:/Users/18177/OneDrive/Documents/School/Grad School/Fall 2020/Lab 2 FlankerTask/RW-subject-3.csv,legacy,Lentiform Loewenfeld,3.3.3,0,S,NA,S,S,NA,S,440,NA,34493,6341,NA,440,2,legacy,1024,2,48000,-16,experiment,HHSHH,3,odd,38710,181045,NA,242265,4207,233815,NA,255039,4216,174704,NA,253989,255142,255583,255035,255142,Flanker Task,122,62373,125,yes,1024
97.61904762,97.61904762,498.6031746,498.6031746,black,legacy,legacy,legacy,0,congruent,uniform,1,undefined,1,h,0,0,0,125,0,125,0,125,0,0,0,125,125,125,125,125,9/16/2020 21:19,600,The main experiment item,yes,FlankerTask Rene Wallace.osexp,C:\Users\18177\OneDrive\Documents\School\Grad School\Fall 2020\Lab 2 FlankerTask,no,mono,no,18,no,white,no,yes,768,legacy,45,79,C:/Users/18177/OneDrive/Documents/School/Grad School/Fall 2020/Lab 2 FlankerTask/RW-subject-3.csv,legacy,Lentiform Loewenfeld,3.3.3,0,H,NA,S,S,NA,H,451,NA,34493,6341,NA,451,2,legacy,1024,2,48000,-16,experiment,HHHHH,3,odd,38710,181045,NA,242265,4207,233815,NA,256644,4216,174704,NA,255595,256745,257197,256642,256745,Flanker Task,123,62824,126,yes,1024
97.63779528,97.63779528,497.9606299,497.9606299,black,legacy,legacy,legacy,0,congruent,uniform,1,undefined,1,s,0,0,0,126,0,126,0,126,0,0,0,126,126,126,126,126,9/16/2020 21:19,600,The main experiment item,yes,FlankerTask Rene Wallace.osexp,C:\Users\18177\OneDrive\Documents\School\Grad School\Fall 2020\Lab 2 FlankerTask,no,mono,no,18,no,white,no,yes,768,legacy,46,79,C:/Users/18177/OneDrive/Documents/School/Grad School/Fall 2020/Lab 2 FlankerTask/RW-subject-3.csv,legacy,Lentiform Loewenfeld,3.3.3,0,S,NA,S,S,NA,S,417,NA,34493,6341,NA,417,2,legacy,1024,2,48000,-16,experiment,SSSSS,3,odd,38710,181045,NA,242265,4207,233815,NA,258257,4216,174704,NA,257209,258358,258776,258254,258358,Flanker Task,124,63241,127,yes,1024
97.65625,97.65625,498.3046875,498.3046875,black,legacy,legacy,legacy,0,incongruent,uniform,1,undefined,1,h,0,0,0,127,0,127,0,127,0,0,0,127,127,127,127,127,9/16/2020 21:19,600,The main experiment item,yes,FlankerTask Rene Wallace.osexp,C:\Users\18177\OneDrive\Documents\School\Grad School\Fall 2020\Lab 2 FlankerTask,no,mono,no,18,no,white,no,yes,768,legacy,47,79,C:/Users/18177/OneDrive/Documents/School/Grad School/Fall 2020/Lab 2 FlankerTask/RW-subject-3.csv,legacy,Lentiform Loewenfeld,3.3.3,0,H,NA,S,S,NA,H,542,NA,34493,6341,NA,542,2,legacy,1024,2,48000,-16,experiment,SSHSS,3,odd,38710,181045,NA,242265,4207,233815,NA,259838,4216,174704,NA,258789,259941,260484,259836,259941,Flanker Task,125,63783,128,yes,1024
97.6744186,97.6744186,498.3023256,498.3023256,black,legacy,legacy,legacy,0,congruent,uniform,1,undefined,1,h,0,0,0,128,0,128,0,128,0,0,0,128,128,128,128,128,9/16/2020 21:19,600,The main experiment item,yes,FlankerTask Rene Wallace.osexp,C:\Users\18177\OneDrive\Documents\School\Grad School\Fall 2020\Lab 2 FlankerTask,no,mono,no,18,no,white,no,yes,768,legacy,48,79,C:/Users/18177/OneDrive/Documents/School/Grad School/Fall 2020/Lab 2 FlankerTask/RW-subject-3.csv,legacy,Lentiform Loewenfeld,3.3.3,0,H,NA,S,S,NA,H,498,NA,34493,6341,NA,498,2,legacy,1024,2,48000,-16,experiment,HHHHH,3,odd,38710,181045,NA,242265,4207,233815,NA,261547,4216,174704,NA,260498,261651,262150,261545,261650,Flanker Task,126,64281,129,yes,1024
97.69230769,97.69230769,498.5307692,498.5307692,black,legacy,legacy,legacy,0,incongruent,uniform,1,undefined,1,s,0,0,0,129,0,129,0,129,0,0,0,129,129,129,129,129,9/16/2020 21:19,600,The main experiment item,yes,FlankerTask Rene Wallace.osexp,C:\Users\18177\OneDrive\Documents\School\Grad School\Fall 2020\Lab 2 FlankerTask,no,mono,no,18,no,white,no,yes,768,legacy,49,79,C:/Users/18177/OneDrive/Documents/School/Grad School/Fall 2020/Lab 2 FlankerTask/RW-subject-3.csv,legacy,Lentiform Loewenfeld,3.3.3,0,S,NA,S,S,NA,S,528,NA,34493,6341,NA,528,2,legacy,1024,2,48000,-16,experiment,HHSHH,3,odd,38710,181045,NA,242265,4207,233815,NA,263212,4216,174704,NA,262163,263315,263844,263207,263315,Flanker Task,127,64809,130,yes,1024
97.70992366,97.70992366,498.8396947,498.8396947,black,legacy,legacy,legacy,0,incongruent,uniform,1,undefined,1,s,0,0,0,130,0,130,0,130,0,0,0,130,130,130,130,130,9/16/2020 21:19,600,The main experiment item,yes,FlankerTask Rene Wallace.osexp,C:\Users\18177\OneDrive\Documents\School\Grad School\Fall 2020\Lab 2 FlankerTask,no,mono,no,18,no,white,no,yes,768,legacy,50,79,C:/Users/18177/OneDrive/Documents/School/Grad School/Fall 2020/Lab 2 FlankerTask/RW-subject-3.csv,legacy,Lentiform Loewenfeld,3.3.3,0,S,NA,S,S,NA,S,539,NA,34493,6341,NA,539,2,legacy,1024,2,48000,-16,experiment,HHSHH,3,odd,38710,181045,NA,242265,4207,233815,NA,264907,4216,174704,NA,263857,265011,265551,264905,265011,Flanker Task,128,65348,131,yes,1024
97.72727273,97.72727273,499.1212121,499.1212121,black,legacy,legacy,legacy,0,incongruent,uniform,1,undefined,1,h,0,0,0,131,0,131,0,131,0,0,0,131,131,131,131,131,9/16/2020 21:19,600,The main experiment item,yes,FlankerTask Rene Wallace.osexp,C:\Users\18177\OneDrive\Documents\School\Grad School\Fall 2020\Lab 2 FlankerTask,no,mono,no,18,no,white,no,yes,768,legacy,51,79,C:/Users/18177/OneDrive/Documents/School/Grad School/Fall 2020/Lab 2 FlankerTask/RW-subject-3.csv,legacy,Lentiform Loewenfeld,3.3.3,0,H,NA,S,S,NA,H,536,NA,34493,6341,NA,536,2,legacy,1024,2,48000,-16,experiment,SSHSS,3,odd,38710,181045,NA,242265,4207,233815,NA,266615,4216,174704,NA,265565,266719,267255,266613,266719,Flanker Task,129,65884,132,yes,1024
97.7443609,97.7443609,499.1578947,499.1578947,black,legacy,legacy,legacy,0,congruent,uniform,1,undefined,1,h,0,0,0,132,0,132,0,132,0,0,0,132,132,132,132,132,9/16/2020 21:19,600,The main experiment item,yes,FlankerTask Rene Wallace.osexp,C:\Users\18177\OneDrive\Documents\School\Grad School\Fall 2020\Lab 2 FlankerTask,no,mono,no,18,no,white,no,yes,768,legacy,52,79,C:/Users/18177/OneDrive/Documents/School/Grad School/Fall 2020/Lab 2 FlankerTask/RW-subject-3.csv,legacy,Lentiform Loewenfeld,3.3.3,0,H,NA,S,S,NA,H,504,NA,34493,6341,NA,504,2,legacy,1024,2,48000,-16,experiment,HHHHH,3,odd,38710,181045,NA,242265,4207,233815,NA,268315,4216,174704,NA,267268,268418,268923,268313,268418,Flanker Task,130,66388,133,yes,1024
97.76119403,97.76119403,498.6268657,498.6268657,black,legacy,legacy,legacy,0,congruent,uniform,1,undefined,1,h,0,0,0,133,0,133,0,133,0,0,0,133,133,133,133,133,9/16/2020 21:19,600,The main experiment item,yes,FlankerTask Rene Wallace.osexp,C:\Users\18177\OneDrive\Documents\School\Grad School\Fall 2020\Lab 2 FlankerTask,no,mono,no,18,no,white,no,yes,768,legacy,53,79,C:/Users/18177/OneDrive/Documents/School/Grad School/Fall 2020/Lab 2 FlankerTask/RW-subject-3.csv,legacy,Lentiform Loewenfeld,3.3.3,0,H,NA,S,S,NA,H,428,NA,34493,6341,NA,428,2,legacy,1024,2,48000,-16,experiment,HHHHH,3,odd,38710,181045,NA,242265,4207,233815,NA,269996,4216,174704,NA,268927,270097,270526,269994,270097,Flanker Task,131,66816,134,yes,1024
97.77777778,97.77777778,498.4296296,498.4296296,black,legacy,legacy,legacy,0,congruent,uniform,1,undefined,1,s,0,0,0,134,0,134,0,134,0,0,0,134,134,134,134,134,9/16/2020 21:19,600,The main experiment item,yes,FlankerTask Rene Wallace.osexp,C:\Users\18177\OneDrive\Documents\School\Grad School\Fall 2020\Lab 2 FlankerTask,no,mono,no,18,no,white,no,yes,768,legacy,54,79,C:/Users/18177/OneDrive/Documents/School/Grad School/Fall 2020/Lab 2 FlankerTask/RW-subject-3.csv,legacy,Lentiform Loewenfeld,3.3.3,0,S,NA,S,S,NA,S,472,NA,34493,6341,NA,472,2,legacy,1024,2,48000,-16,experiment,SSSSS,3,odd,38710,181045,NA,242265,4207,233815,NA,271605,4216,174704,NA,270539,271708,272181,271603,271708,Flanker Task,132,67288,135,yes,1024
97.79411765,97.79411765,497.7279412,497.7279412,black,legacy,legacy,legacy,0,congruent,uniform,1,undefined,1,s,0,0,0,135,0,135,0,135,0,0,0,135,135,135,135,135,9/16/2020 21:19,600,The main experiment item,yes,FlankerTask Rene Wallace.osexp,C:\Users\18177\OneDrive\Documents\School\Grad School\Fall 2020\Lab 2 FlankerTask,no,mono,no,18,no,white,no,yes,768,legacy,55,79,C:/Users/18177/OneDrive/Documents/School/Grad School/Fall 2020/Lab 2 FlankerTask/RW-subject-3.csv,legacy,Lentiform Loewenfeld,3.3.3,0,S,NA,S,S,NA,S,403,NA,34493,6341,NA,403,2,legacy,1024,2,48000,-16,experiment,SSSSS,3,odd,38710,181045,NA,242265,4207,233815,NA,273242,4216,174704,NA,272193,273346,273750,273241,273346,Flanker Task,133,67691,136,yes,1024
97.81021898,97.81021898,497.379562,497.379562,black,legacy,legacy,legacy,0,incongruent,uniform,1,undefined,1,s,0,0,0,136,0,136,0,136,0,0,0,136,136,136,136,136,9/16/2020 21:19,600,The main experiment item,yes,FlankerTask Rene Wallace.osexp,C:\Users\18177\OneDrive\Documents\School\Grad School\Fall 2020\Lab 2 FlankerTask,no,mono,no,18,no,white,no,yes,768,legacy,56,79,C:/Users/18177/OneDrive/Documents/School/Grad School/Fall 2020/Lab 2 FlankerTask/RW-subject-3.csv,legacy,Lentiform Loewenfeld,3.3.3,0,S,NA,S,S,NA,S,450,NA,34493,6341,NA,450,2,legacy,1024,2,48000,-16,experiment,HHSHH,3,odd,38710,181045,NA,242265,4207,233815,NA,274801,4216,174704,NA,273754,274904,275355,274799,274903,Flanker Task,134,68141,137,yes,1024
97.82608696,97.82608696,497.1884058,497.1884058,black,legacy,legacy,legacy,0,congruent,uniform,1,undefined,1,h,0,0,0,137,0,137,0,137,0,0,0,137,137,137,137,137,9/16/2020 21:19,600,The main experiment item,yes,FlankerTask Rene Wallace.osexp,C:\Users\18177\OneDrive\Documents\School\Grad School\Fall 2020\Lab 2 FlankerTask,no,mono,no,18,no,white,no,yes,768,legacy,57,79,C:/Users/18177/OneDrive/Documents/School/Grad School/Fall 2020/Lab 2 FlankerTask/RW-subject-3.csv,legacy,Lentiform Loewenfeld,3.3.3,0,H,NA,S,S,NA,H,471,NA,34493,6341,NA,471,2,legacy,1024,2,48000,-16,experiment,HHHHH,3,odd,38710,181045,NA,242265,4207,233815,NA,276416,4216,174704,NA,275367,276520,276992,276413,276520,Flanker Task,135,68612,138,yes,1024
97.84172662,97.84172662,497.1726619,497.1726619,black,legacy,legacy,legacy,0,incongruent,uniform,1,undefined,1,h,0,0,0,138,0,138,0,138,0,0,0,138,138,138,138,138,9/16/2020 21:19,600,The main experiment item,yes,FlankerTask Rene Wallace.osexp,C:\Users\18177\OneDrive\Documents\School\Grad School\Fall 2020\Lab 2 FlankerTask,no,mono,no,18,no,white,no,yes,768,legacy,58,79,C:/Users/18177/OneDrive/Documents/School/Grad School/Fall 2020/Lab 2 FlankerTask/RW-subject-3.csv,legacy,Lentiform Loewenfeld,3.3.3,0,H,NA,S,S,NA,H,495,NA,34493,6341,NA,495,2,legacy,1024,2,48000,-16,experiment,SSHSS,3,odd,38710,181045,NA,242265,4207,233815,NA,278060,4216,174704,NA,277004,278162,278658,278058,278162,Flanker Task,136,69107,139,yes,1024
97.85714286,97.85714286,496.9428571,496.9428571,black,legacy,legacy,legacy,0,congruent,uniform,1,undefined,1,h,0,0,0,139,0,139,0,139,0,0,0,139,139,139,139,139,9/16/2020 21:19,600,The main experiment item,yes,FlankerTask Rene Wallace.osexp,C:\Users\18177\OneDrive\Documents\School\Grad School\Fall 2020\Lab 2 FlankerTask,no,mono,no,18,no,white,no,yes,768,legacy,59,79,C:/Users/18177/OneDrive/Documents/School/Grad School/Fall 2020/Lab 2 FlankerTask/RW-subject-3.csv,legacy,Lentiform Loewenfeld,3.3.3,0,H,NA,S,S,NA,H,465,NA,34493,6341,NA,465,2,legacy,1024,2,48000,-16,experiment,HHHHH,3,odd,38710,181045,NA,242265,4207,233815,NA,279720,4216,174704,NA,278671,279823,280289,279718,279823,Flanker Task,137,69572,140,yes,1024
