"acc","accuracy","average_response_time","avg_rt","background","canvas_backend","clock_backend","color_backend","compensation","condition","coordinates","correct","correct_instructions","correct_keyboard_response","correct_response","count_ISI","count_block1","count_block2","count_block3","count_errorFeedback","count_experiment","count_faster","count_finish","count_fixation","count_instructions","count_instructions2","count_instructions3","count_keyboard_response","count_logger","count_sequence","count_stimulus","datetime","deadline","description","disable_garbage_collection","experiment_file","experiment_path","font_bold","font_family","font_italic","font_size","font_underline","foreground","form_clicks","fullscreen","height","keyboard_backend","live_row","live_row_block1","logfile","mouse_backend","opensesame_codename","opensesame_version","repeat_cycle","response","response_finish","response_instructions","response_instructions2","response_instructions3","response_keyboard_response","response_time","response_time_finish","response_time_instructions","response_time_instructions2","response_time_instructions3","response_time_keyboard_response","round_decimals","sampler_backend","sound_buf_size","sound_channels","sound_freq","sound_sample_size","start","stimulus","subject_nr","subject_parity","time_ISI","time_block1","time_block2","time_block3","time_errorFeedback","time_experiment","time_faster","time_finish","time_fixation","time_instructions","time_instructions2","time_instructions3","time_keyboard_response","time_logger","time_sequence","time_stimulus","title","total_correct","total_response_time","total_responses","uniform_coordinates","width"
"100","100","704","704","black","legacy","legacy","legacy","0","congruent","uniform","1","undefined","1","h","0","0","0","0","0","0","0","0","0","0","0","0","0","0","0","0","Sat Sep 26 14:00:28 2020","1500","The main experiment item","yes","FlankerTask.osexp","/Users/suzannejosey","no","mono","no","18","no","white","no","yes","768","legacy","0","0","/Users/suzannejosey/subject-2.csv","legacy","Lentiform Loewenfeld","3.3.3","0","h","NA","h","NA","NA","h","704","NA","623708","NA","NA","704","2","legacy","1024","2","48000","-16","experiment","HHHHH","2","even","NA","626700","NA","NA","NA","2961","NA","NA","626761","2973","NA","NA","626875","627580","626751","626875","Flanker Task","1","704","1","yes","1024"
"100","100","577.5","577.5","black","legacy","legacy","legacy","0","congruent","uniform","1","undefined","1","s","1","0","0","0","1","0","1","0","1","0","0","0","1","1","1","1","Sat Sep 26 14:00:28 2020","1500","The main experiment item","yes","FlankerTask.osexp","/Users/suzannejosey","no","mono","no","18","no","white","no","yes","768","legacy","1","1","/Users/suzannejosey/subject-2.csv","legacy","Lentiform Loewenfeld","3.3.3","0","s","NA","h","NA","NA","s","451","NA","623708","NA","NA","451","2","legacy","1024","2","48000","-16","experiment","SSSSS","2","even","627595","626700","NA","NA","NA","2961","NA","NA","628665","2973","NA","NA","628778","629229","628656","628778","Flanker Task","2","1155","2","yes","1024"
"100","100","522.3333333333334","522.3333333333334","black","legacy","legacy","legacy","0","congruent","uniform","1","undefined","1","s","2","0","0","0","2","0","2","0","2","0","0","0","2","2","2","2","Sat Sep 26 14:00:28 2020","1500","The main experiment item","yes","FlankerTask.osexp","/Users/suzannejosey","no","mono","no","18","no","white","no","yes","768","legacy","2","2","/Users/suzannejosey/subject-2.csv","legacy","Lentiform Loewenfeld","3.3.3","0","s","NA","h","NA","NA","s","412","NA","623708","NA","NA","412","2","legacy","1024","2","48000","-16","experiment","SSSSS","2","even","629242","626700","NA","NA","NA","2961","NA","NA","630306","2973","NA","NA","630420","630833","630294","630420","Flanker Task","3","1567","3","yes","1024"
"100","100","530.75","530.75","black","legacy","legacy","legacy","0","incongruent","uniform","1","undefined","1","h","3","0","0","0","3","0","3","0","3","0","0","0","3","3","3","3","Sat Sep 26 14:00:28 2020","1500","The main experiment item","yes","FlankerTask.osexp","/Users/suzannejosey","no","mono","no","18","no","white","no","yes","768","legacy","3","3","/Users/suzannejosey/subject-2.csv","legacy","Lentiform Loewenfeld","3.3.3","0","h","NA","h","NA","NA","h","556","NA","623708","NA","NA","556","2","legacy","1024","2","48000","-16","experiment","SSHSS","2","even","630845","626700","NA","NA","NA","2961","NA","NA","631918","2973","NA","NA","632031","632588","631906","632031","Flanker Task","4","2123","4","yes","1024"
"100","100","510","510","black","legacy","legacy","legacy","0","congruent","uniform","1","undefined","1","h","4","0","0","0","4","0","4","0","4","0","0","0","4","4","4","4","Sat Sep 26 14:00:28 2020","1500","The main experiment item","yes","FlankerTask.osexp","/Users/suzannejosey","no","mono","no","18","no","white","no","yes","768","legacy","4","4","/Users/suzannejosey/subject-2.csv","legacy","Lentiform Loewenfeld","3.3.3","0","h","NA","h","NA","NA","h","427","NA","623708","NA","NA","427","2","legacy","1024","2","48000","-16","experiment","HHHHH","2","even","632601","626700","NA","NA","NA","2961","NA","NA","633674","2973","NA","NA","633788","634216","633662","633788","Flanker Task","5","2550","5","yes","1024"
"100","100","492.5","492.5","black","legacy","legacy","legacy","0","congruent","uniform","1","undefined","1","h","5","0","0","0","5","0","5","0","5","0","0","0","5","5","5","5","Sat Sep 26 14:00:28 2020","1500","The main experiment item","yes","FlankerTask.osexp","/Users/suzannejosey","no","mono","no","18","no","white","no","yes","768","legacy","5","5","/Users/suzannejosey/subject-2.csv","legacy","Lentiform Loewenfeld","3.3.3","0","h","NA","h","NA","NA","h","405","NA","623708","NA","NA","405","2","legacy","1024","2","48000","-16","experiment","HHHHH","2","even","634228","626700","NA","NA","NA","2961","NA","NA","635302","2973","NA","NA","635414","635820","635290","635414","Flanker Task","6","2955","6","yes","1024"
"100","100","486.14285714285717","486.14285714285717","black","legacy","legacy","legacy","0","incongruent","uniform","1","undefined","1","s","6","0","0","0","6","0","6","0","6","0","0","0","6","6","6","6","Sat Sep 26 14:00:28 2020","1500","The main experiment item","yes","FlankerTask.osexp","/Users/suzannejosey","no","mono","no","18","no","white","no","yes","768","legacy","6","6","/Users/suzannejosey/subject-2.csv","legacy","Lentiform Loewenfeld","3.3.3","0","s","NA","h","NA","NA","s","448","NA","623708","NA","NA","448","2","legacy","1024","2","48000","-16","experiment","HHSHH","2","even","635832","626700","NA","NA","NA","2961","NA","NA","636905","2973","NA","NA","637019","637467","636893","637019","Flanker Task","7","3403","7","yes","1024"
"100","100","479.5","479.5","black","legacy","legacy","legacy","0","congruent","uniform","1","undefined","1","h","7","0","0","0","7","0","7","0","7","0","0","0","7","7","7","7","Sat Sep 26 14:00:28 2020","1500","The main experiment item","yes","FlankerTask.osexp","/Users/suzannejosey","no","mono","no","18","no","white","no","yes","768","legacy","7","7","/Users/suzannejosey/subject-2.csv","legacy","Lentiform Loewenfeld","3.3.3","0","h","NA","h","NA","NA","h","433","NA","623708","NA","NA","433","2","legacy","1024","2","48000","-16","experiment","HHHHH","2","even","637480","626700","NA","NA","NA","2961","NA","NA","638556","2973","NA","NA","638670","639104","638544","638670","Flanker Task","8","3836","8","yes","1024"
"100","100","523.4444444444445","523.4444444444445","black","legacy","legacy","legacy","0","incongruent","uniform","1","undefined","1","h","8","0","0","0","8","0","8","0","8","0","0","0","8","8","8","8","Sat Sep 26 14:00:28 2020","1500","The main experiment item","yes","FlankerTask.osexp","/Users/suzannejosey","no","mono","no","18","no","white","no","yes","768","legacy","8","8","/Users/suzannejosey/subject-2.csv","legacy","Lentiform Loewenfeld","3.3.3","0","h","NA","h","NA","NA","h","875","NA","623708","NA","NA","875","2","legacy","1024","2","48000","-16","experiment","SSHSS","2","even","639115","626700","NA","NA","NA","2961","NA","NA","640188","2973","NA","NA","640300","641176","640176","640299","Flanker Task","9","4711","9","yes","1024"
"100","100","516","516","black","legacy","legacy","legacy","0","congruent","uniform","1","undefined","1","s","9","0","0","0","9","0","9","0","9","0","0","0","9","9","9","9","Sat Sep 26 14:00:28 2020","1500","The main experiment item","yes","FlankerTask.osexp","/Users/suzannejosey","no","mono","no","18","no","white","no","yes","768","legacy","9","9","/Users/suzannejosey/subject-2.csv","legacy","Lentiform Loewenfeld","3.3.3","0","s","NA","h","NA","NA","s","449","NA","623708","NA","NA","449","2","legacy","1024","2","48000","-16","experiment","SSSSS","2","even","641188","626700","NA","NA","NA","2961","NA","NA","642261","2973","NA","NA","642375","642825","642249","642375","Flanker Task","10","5160","10","yes","1024"
"100","100","501.45454545454544","501.45454545454544","black","legacy","legacy","legacy","0","congruent","uniform","1","undefined","1","h","10","0","0","0","10","0","10","0","10","0","0","0","10","10","10","10","Sat Sep 26 14:00:28 2020","1500","The main experiment item","yes","FlankerTask.osexp","/Users/suzannejosey","no","mono","no","18","no","white","no","yes","768","legacy","10","10","/Users/suzannejosey/subject-2.csv","legacy","Lentiform Loewenfeld","3.3.3","0","h","NA","h","NA","NA","h","356","NA","623708","NA","NA","356","2","legacy","1024","2","48000","-16","experiment","HHHHH","2","even","642839","626700","NA","NA","NA","2961","NA","NA","643912","2973","NA","NA","644026","644383","643900","644025","Flanker Task","11","5516","11","yes","1024"
"100","100","503.6666666666667","503.6666666666667","black","legacy","legacy","legacy","0","congruent","uniform","1","undefined","1","s","11","0","0","0","11","0","11","0","11","0","0","0","11","11","11","11","Sat Sep 26 14:00:28 2020","1500","The main experiment item","yes","FlankerTask.osexp","/Users/suzannejosey","no","mono","no","18","no","white","no","yes","768","legacy","11","11","/Users/suzannejosey/subject-2.csv","legacy","Lentiform Loewenfeld","3.3.3","0","s","NA","h","NA","NA","s","528","NA","623708","NA","NA","528","2","legacy","1024","2","48000","-16","experiment","SSSSS","2","even","644397","626700","NA","NA","NA","2961","NA","NA","645470","2973","NA","NA","645584","646113","645458","645584","Flanker Task","12","6044","12","yes","1024"
"100","100","503.61538461538464","503.61538461538464","black","legacy","legacy","legacy","0","incongruent","uniform","1","undefined","1","h","12","0","0","0","12","0","12","0","12","0","0","0","12","12","12","12","Sat Sep 26 14:00:28 2020","1500","The main experiment item","yes","FlankerTask.osexp","/Users/suzannejosey","no","mono","no","18","no","white","no","yes","768","legacy","12","12","/Users/suzannejosey/subject-2.csv","legacy","Lentiform Loewenfeld","3.3.3","0","h","NA","h","NA","NA","h","503","NA","623708","NA","NA","503","2","legacy","1024","2","48000","-16","experiment","SSHSS","2","even","646127","626700","NA","NA","NA","2961","NA","NA","647201","2973","NA","NA","647315","647819","647189","647314","Flanker Task","13","6547","13","yes","1024"
"100","100","517.1428571428571","517.1428571428571","black","legacy","legacy","legacy","0","incongruent","uniform","1","undefined","1","s","13","0","0","0","13","0","13","0","13","0","0","0","13","13","13","13","Sat Sep 26 14:00:28 2020","1500","The main experiment item","yes","FlankerTask.osexp","/Users/suzannejosey","no","mono","no","18","no","white","no","yes","768","legacy","13","13","/Users/suzannejosey/subject-2.csv","legacy","Lentiform Loewenfeld","3.3.3","0","s","NA","h","NA","NA","s","693","NA","623708","NA","NA","693","2","legacy","1024","2","48000","-16","experiment","HHSHH","2","even","647833","626700","NA","NA","NA","2961","NA","NA","648907","2973","NA","NA","649019","649713","648895","649018","Flanker Task","14","7240","14","yes","1024"
"100","100","517.0666666666667","517.0666666666667","black","legacy","legacy","legacy","0","congruent","uniform","1","undefined","1","h","14","0","0","0","14","0","14","0","14","0","0","0","14","14","14","14","Sat Sep 26 14:00:28 2020","1500","The main experiment item","yes","FlankerTask.osexp","/Users/suzannejosey","no","mono","no","18","no","white","no","yes","768","legacy","14","14","/Users/suzannejosey/subject-2.csv","legacy","Lentiform Loewenfeld","3.3.3","0","h","NA","h","NA","NA","h","516","NA","623708","NA","NA","516","2","legacy","1024","2","48000","-16","experiment","HHHHH","2","even","649727","626700","NA","NA","NA","2961","NA","NA","650800","2973","NA","NA","650912","651429","650788","650912","Flanker Task","15","7756","15","yes","1024"
"100","100","517.6875","517.6875","black","legacy","legacy","legacy","0","incongruent","uniform","1","undefined","1","h","15","0","0","0","15","0","15","0","15","0","0","0","15","15","15","15","Sat Sep 26 14:00:28 2020","1500","The main experiment item","yes","FlankerTask.osexp","/Users/suzannejosey","no","mono","no","18","no","white","no","yes","768","legacy","15","15","/Users/suzannejosey/subject-2.csv","legacy","Lentiform Loewenfeld","3.3.3","0","h","NA","h","NA","NA","h","527","NA","623708","NA","NA","527","2","legacy","1024","2","48000","-16","experiment","SSHSS","2","even","651440","626700","NA","NA","NA","2961","NA","NA","652516","2973","NA","NA","652631","653159","652504","652630","Flanker Task","16","8283","16","yes","1024"
"100","100","521.2352941176471","521.2352941176471","black","legacy","legacy","legacy","0","incongruent","uniform","1","undefined","1","s","16","0","0","0","16","0","16","0","16","0","0","0","16","16","16","16","Sat Sep 26 14:00:28 2020","1500","The main experiment item","yes","FlankerTask.osexp","/Users/suzannejosey","no","mono","no","18","no","white","no","yes","768","legacy","16","16","/Users/suzannejosey/subject-2.csv","legacy","Lentiform Loewenfeld","3.3.3","0","s","NA","h","NA","NA","s","578","NA","623708","NA","NA","578","2","legacy","1024","2","48000","-16","experiment","HHSHH","2","even","653172","626700","NA","NA","NA","2961","NA","NA","654249","2973","NA","NA","654363","654942","654237","654362","Flanker Task","17","8861","17","yes","1024"
"100","100","517.0555555555555","517.0555555555555","black","legacy","legacy","legacy","0","congruent","uniform","1","undefined","1","h","17","0","0","0","17","0","17","0","17","0","0","0","17","17","17","17","Sat Sep 26 14:00:28 2020","1500","The main experiment item","yes","FlankerTask.osexp","/Users/suzannejosey","no","mono","no","18","no","white","no","yes","768","legacy","17","17","/Users/suzannejosey/subject-2.csv","legacy","Lentiform Loewenfeld","3.3.3","0","h","NA","h","NA","NA","h","446","NA","623708","NA","NA","446","2","legacy","1024","2","48000","-16","experiment","HHHHH","2","even","654955","626700","NA","NA","NA","2961","NA","NA","656027","2973","NA","NA","656141","656588","656015","656141","Flanker Task","18","9307","18","yes","1024"
"100","100","514","514","black","legacy","legacy","legacy","0","congruent","uniform","1","undefined","1","h","18","0","0","0","18","0","18","0","18","0","0","0","18","18","18","18","Sat Sep 26 14:00:28 2020","1500","The main experiment item","yes","FlankerTask.osexp","/Users/suzannejosey","no","mono","no","18","no","white","no","yes","768","legacy","18","18","/Users/suzannejosey/subject-2.csv","legacy","Lentiform Loewenfeld","3.3.3","0","h","NA","h","NA","NA","h","459","NA","623708","NA","NA","459","2","legacy","1024","2","48000","-16","experiment","HHHHH","2","even","656604","626700","NA","NA","NA","2961","NA","NA","657678","2973","NA","NA","657792","658252","657666","657792","Flanker Task","19","9766","19","yes","1024"
"100","100","511.1","511.1","black","legacy","legacy","legacy","0","incongruent","uniform","1","undefined","1","s","19","0","0","0","19","0","19","0","19","0","0","0","19","19","19","19","Sat Sep 26 14:00:28 2020","1500","The main experiment item","yes","FlankerTask.osexp","/Users/suzannejosey","no","mono","no","18","no","white","no","yes","768","legacy","19","19","/Users/suzannejosey/subject-2.csv","legacy","Lentiform Loewenfeld","3.3.3","0","s","NA","h","NA","NA","s","456","NA","623708","NA","NA","456","2","legacy","1024","2","48000","-16","experiment","HHSHH","2","even","658265","626700","NA","NA","NA","2961","NA","NA","659337","2973","NA","NA","659450","659907","659325","659450","Flanker Task","20","10222","20","yes","1024"
"100","100","511.7142857142857","511.7142857142857","black","legacy","legacy","legacy","0","incongruent","uniform","1","undefined","1","s","20","0","0","0","20","0","20","0","20","0","0","0","20","20","20","20","Sat Sep 26 14:00:28 2020","1500","The main experiment item","yes","FlankerTask.osexp","/Users/suzannejosey","no","mono","no","18","no","white","no","yes","768","legacy","20","20","/Users/suzannejosey/subject-2.csv","legacy","Lentiform Loewenfeld","3.3.3","0","s","NA","h","NA","NA","s","524","NA","623708","NA","NA","524","2","legacy","1024","2","48000","-16","experiment","HHSHH","2","even","659920","626700","NA","NA","NA","2961","NA","NA","660994","2973","NA","NA","661108","661633","660983","661108","Flanker Task","21","10746","21","yes","1024"
"100","100","503.72727272727275","503.72727272727275","black","legacy","legacy","legacy","0","congruent","uniform","1","undefined","1","s","21","0","0","0","21","0","21","0","21","0","0","0","21","21","21","21","Sat Sep 26 14:00:28 2020","1500","The main experiment item","yes","FlankerTask.osexp","/Users/suzannejosey","no","mono","no","18","no","white","no","yes","768","legacy","21","21","/Users/suzannejosey/subject-2.csv","legacy","Lentiform Loewenfeld","3.3.3","0","s","NA","h","NA","NA","s","336","NA","623708","NA","NA","336","2","legacy","1024","2","48000","-16","experiment","SSSSS","2","even","661646","626700","NA","NA","NA","2961","NA","NA","662719","2973","NA","NA","662833","663170","662707","662833","Flanker Task","22","11082","22","yes","1024"
"100","100","499.69565217391306","499.69565217391306","black","legacy","legacy","legacy","0","congruent","uniform","1","undefined","1","s","22","0","0","0","22","0","22","0","22","0","0","0","22","22","22","22","Sat Sep 26 14:00:28 2020","1500","The main experiment item","yes","FlankerTask.osexp","/Users/suzannejosey","no","mono","no","18","no","white","no","yes","768","legacy","22","22","/Users/suzannejosey/subject-2.csv","legacy","Lentiform Loewenfeld","3.3.3","0","s","NA","h","NA","NA","s","411","NA","623708","NA","NA","411","2","legacy","1024","2","48000","-16","experiment","SSSSS","2","even","663183","626700","NA","NA","NA","2961","NA","NA","664256","2973","NA","NA","664371","664783","664245","664370","Flanker Task","23","11493","23","yes","1024"
"100","100","499.75","499.75","black","legacy","legacy","legacy","0","congruent","uniform","1","undefined","1","s","23","0","0","0","23","0","23","0","23","0","0","0","23","23","23","23","Sat Sep 26 14:00:28 2020","1500","The main experiment item","yes","FlankerTask.osexp","/Users/suzannejosey","no","mono","no","18","no","white","no","yes","768","legacy","23","23","/Users/suzannejosey/subject-2.csv","legacy","Lentiform Loewenfeld","3.3.3","0","s","NA","h","NA","NA","s","501","NA","623708","NA","NA","501","2","legacy","1024","2","48000","-16","experiment","SSSSS","2","even","664796","626700","NA","NA","NA","2961","NA","NA","665869","2973","NA","NA","665983","666485","665857","665983","Flanker Task","24","11994","24","yes","1024"
"100","100","496.6","496.6","black","legacy","legacy","legacy","0","congruent","uniform","1","undefined","1","s","24","0","0","0","24","0","24","0","24","0","0","0","24","24","24","24","Sat Sep 26 14:00:28 2020","1500","The main experiment item","yes","FlankerTask.osexp","/Users/suzannejosey","no","mono","no","18","no","white","no","yes","768","legacy","24","24","/Users/suzannejosey/subject-2.csv","legacy","Lentiform Loewenfeld","3.3.3","0","s","NA","h","NA","NA","s","421","NA","623708","NA","NA","421","2","legacy","1024","2","48000","-16","experiment","SSSSS","2","even","666499","626700","NA","NA","NA","2961","NA","NA","667572","2973","NA","NA","667687","668109","667560","667686","Flanker Task","25","12415","25","yes","1024"
"100","100","496.38461538461536","496.38461538461536","black","legacy","legacy","legacy","0","incongruent","uniform","1","undefined","1","s","25","0","0","0","25","0","25","0","25","0","0","0","25","25","25","25","Sat Sep 26 14:00:28 2020","1500","The main experiment item","yes","FlankerTask.osexp","/Users/suzannejosey","no","mono","no","18","no","white","no","yes","768","legacy","25","25","/Users/suzannejosey/subject-2.csv","legacy","Lentiform Loewenfeld","3.3.3","0","s","NA","h","NA","NA","s","491","NA","623708","NA","NA","491","2","legacy","1024","2","48000","-16","experiment","HHSHH","2","even","668123","626700","NA","NA","NA","2961","NA","NA","669199","2973","NA","NA","669313","669805","669187","669313","Flanker Task","26","12906","26","yes","1024"
"100","100","494.2962962962963","494.2962962962963","black","legacy","legacy","legacy","0","incongruent","uniform","1","undefined","1","s","26","0","0","0","26","0","26","0","26","0","0","0","26","26","26","26","Sat Sep 26 14:00:28 2020","1500","The main experiment item","yes","FlankerTask.osexp","/Users/suzannejosey","no","mono","no","18","no","white","no","yes","768","legacy","26","26","/Users/suzannejosey/subject-2.csv","legacy","Lentiform Loewenfeld","3.3.3","0","s","NA","h","NA","NA","s","440","NA","623708","NA","NA","440","2","legacy","1024","2","48000","-16","experiment","HHSHH","2","even","669818","626700","NA","NA","NA","2961","NA","NA","670891","2973","NA","NA","671002","671443","670879","671002","Flanker Task","27","13346","27","yes","1024"
"100","100","493.32142857142856","493.32142857142856","black","legacy","legacy","legacy","0","congruent","uniform","1","undefined","1","h","27","0","0","0","27","0","27","0","27","0","0","0","27","27","27","27","Sat Sep 26 14:00:28 2020","1500","The main experiment item","yes","FlankerTask.osexp","/Users/suzannejosey","no","mono","no","18","no","white","no","yes","768","legacy","27","27","/Users/suzannejosey/subject-2.csv","legacy","Lentiform Loewenfeld","3.3.3","0","h","NA","h","NA","NA","h","467","NA","623708","NA","NA","467","2","legacy","1024","2","48000","-16","experiment","HHHHH","2","even","671456","626700","NA","NA","NA","2961","NA","NA","672532","2973","NA","NA","672646","673114","672519","672646","Flanker Task","28","13813","28","yes","1024"
"96.55172413793103","96.55172413793103","487.48275862068965","487.48275862068965","black","legacy","legacy","legacy","0","incongruent","uniform","0","undefined","0","s","28","0","0","0","28","0","28","0","28","0","0","0","28","28","28","28","Sat Sep 26 14:00:28 2020","1500","The main experiment item","yes","FlankerTask.osexp","/Users/suzannejosey","no","mono","no","18","no","white","no","yes","768","legacy","28","28","/Users/suzannejosey/subject-2.csv","legacy","Lentiform Loewenfeld","3.3.3","0","h","NA","h","NA","NA","h","324","NA","623708","NA","NA","324","2","legacy","1024","2","48000","-16","experiment","HHSHH","2","even","673127","626700","NA","NA","NA","2961","NA","NA","674201","2973","NA","NA","674315","674640","674189","674315","Flanker Task","28","14137","29","yes","1024"
"96.66666666666667","96.66666666666667","494.93333333333334","494.93333333333334","black","legacy","legacy","legacy","0","incongruent","uniform","1","undefined","1","s","29","0","0","0","29","0","29","0","29","0","0","0","29","29","29","29","Sat Sep 26 14:00:28 2020","1500","The main experiment item","yes","FlankerTask.osexp","/Users/suzannejosey","no","mono","no","18","no","white","no","yes","768","legacy","29","29","/Users/suzannejosey/subject-2.csv","legacy","Lentiform Loewenfeld","3.3.3","0","s","NA","h","NA","NA","s","711","NA","623708","NA","NA","711","2","legacy","1024","2","48000","-16","experiment","HHSHH","2","even","675165","626700","NA","NA","674653","2961","NA","NA","676239","2973","NA","NA","676353","677065","676226","676353","Flanker Task","29","14848","30","yes","1024"
"96.7741935483871","96.7741935483871","497","497","black","legacy","legacy","legacy","0","incongruent","uniform","1","undefined","1","h","30","0","0","0","30","0","30","0","30","0","0","0","30","30","30","30","Sat Sep 26 14:00:28 2020","1500","The main experiment item","yes","FlankerTask.osexp","/Users/suzannejosey","no","mono","no","18","no","white","no","yes","768","legacy","30","30","/Users/suzannejosey/subject-2.csv","legacy","Lentiform Loewenfeld","3.3.3","0","h","NA","h","NA","NA","h","559","NA","623708","NA","NA","559","2","legacy","1024","2","48000","-16","experiment","SSHSS","2","even","677078","626700","NA","NA","674653","2961","NA","NA","678151","2973","NA","NA","678266","678826","678140","678265","Flanker Task","30","15407","31","yes","1024"
"96.875","96.875","497.03125","497.03125","black","legacy","legacy","legacy","0","incongruent","uniform","1","undefined","1","h","31","0","0","0","31","0","31","0","31","0","0","0","31","31","31","31","Sat Sep 26 14:00:28 2020","1500","The main experiment item","yes","FlankerTask.osexp","/Users/suzannejosey","no","mono","no","18","no","white","no","yes","768","legacy","31","31","/Users/suzannejosey/subject-2.csv","legacy","Lentiform Loewenfeld","3.3.3","0","h","NA","h","NA","NA","h","498","NA","623708","NA","NA","498","2","legacy","1024","2","48000","-16","experiment","SSHSS","2","even","678839","626700","NA","NA","674653","2961","NA","NA","679915","2973","NA","NA","680028","680527","679903","680028","Flanker Task","31","15905","32","yes","1024"
"96.96969696969697","96.96969696969697","495.3636363636364","495.3636363636364","black","legacy","legacy","legacy","0","congruent","uniform","1","undefined","1","h","32","0","0","0","32","0","32","0","32","0","0","0","32","32","32","32","Sat Sep 26 14:00:28 2020","1500","The main experiment item","yes","FlankerTask.osexp","/Users/suzannejosey","no","mono","no","18","no","white","no","yes","768","legacy","32","32","/Users/suzannejosey/subject-2.csv","legacy","Lentiform Loewenfeld","3.3.3","0","h","NA","h","NA","NA","h","442","NA","623708","NA","NA","442","2","legacy","1024","2","48000","-16","experiment","HHHHH","2","even","680540","626700","NA","NA","674653","2961","NA","NA","681615","2973","NA","NA","681729","682172","681603","681728","Flanker Task","32","16347","33","yes","1024"
"97.05882352941177","97.05882352941177","492.7647058823529","492.7647058823529","black","legacy","legacy","legacy","0","incongruent","uniform","1","undefined","1","s","33","0","0","0","33","0","33","0","33","0","0","0","33","33","33","33","Sat Sep 26 14:00:28 2020","1500","The main experiment item","yes","FlankerTask.osexp","/Users/suzannejosey","no","mono","no","18","no","white","no","yes","768","legacy","33","33","/Users/suzannejosey/subject-2.csv","legacy","Lentiform Loewenfeld","3.3.3","0","s","NA","h","NA","NA","s","407","NA","623708","NA","NA","407","2","legacy","1024","2","48000","-16","experiment","HHSHH","2","even","682185","626700","NA","NA","674653","2961","NA","NA","683258","2973","NA","NA","683370","683778","683247","683369","Flanker Task","33","16754","34","yes","1024"
"97.14285714285714","97.14285714285714","491.0857142857143","491.0857142857143","black","legacy","legacy","legacy","0","congruent","uniform","1","undefined","1","s","34","0","0","0","34","0","34","0","34","0","0","0","34","34","34","34","Sat Sep 26 14:00:28 2020","1500","The main experiment item","yes","FlankerTask.osexp","/Users/suzannejosey","no","mono","no","18","no","white","no","yes","768","legacy","34","34","/Users/suzannejosey/subject-2.csv","legacy","Lentiform Loewenfeld","3.3.3","0","s","NA","h","NA","NA","s","434","NA","623708","NA","NA","434","2","legacy","1024","2","48000","-16","experiment","SSSSS","2","even","683791","626700","NA","NA","674653","2961","NA","NA","684865","2973","NA","NA","684979","685414","684853","684979","Flanker Task","34","17188","35","yes","1024"
"97.22222222222223","97.22222222222223","490.3333333333333","490.3333333333333","black","legacy","legacy","legacy","0","incongruent","uniform","1","undefined","1","h","35","0","0","0","35","0","35","0","35","0","0","0","35","35","35","35","Sat Sep 26 14:00:28 2020","1500","The main experiment item","yes","FlankerTask.osexp","/Users/suzannejosey","no","mono","no","18","no","white","no","yes","768","legacy","35","35","/Users/suzannejosey/subject-2.csv","legacy","Lentiform Loewenfeld","3.3.3","0","h","NA","h","NA","NA","h","464","NA","623708","NA","NA","464","2","legacy","1024","2","48000","-16","experiment","SSHSS","2","even","685427","626700","NA","NA","674653","2961","NA","NA","686501","2973","NA","NA","686614","687079","686489","686614","Flanker Task","35","17652","36","yes","1024"
"97.29729729729729","97.29729729729729","487.97297297297297","487.97297297297297","black","legacy","legacy","legacy","0","incongruent","uniform","1","undefined","1","h","36","0","0","0","36","0","36","0","36","0","0","0","36","36","36","36","Sat Sep 26 14:00:28 2020","1500","The main experiment item","yes","FlankerTask.osexp","/Users/suzannejosey","no","mono","no","18","no","white","no","yes","768","legacy","36","36","/Users/suzannejosey/subject-2.csv","legacy","Lentiform Loewenfeld","3.3.3","0","h","NA","h","NA","NA","h","403","NA","623708","NA","NA","403","2","legacy","1024","2","48000","-16","experiment","SSHSS","2","even","687092","626700","NA","NA","674653","2961","NA","NA","688166","2973","NA","NA","688280","688684","688154","688280","Flanker Task","36","18055","37","yes","1024"
"97.36842105263158","97.36842105263158","487.9736842105263","487.9736842105263","black","legacy","legacy","legacy","0","incongruent","uniform","1","undefined","1","s","37","0","0","0","37","0","37","0","37","0","0","0","37","37","37","37","Sat Sep 26 14:00:28 2020","1500","The main experiment item","yes","FlankerTask.osexp","/Users/suzannejosey","no","mono","no","18","no","white","no","yes","768","legacy","37","37","/Users/suzannejosey/subject-2.csv","legacy","Lentiform Loewenfeld","3.3.3","0","s","NA","h","NA","NA","s","488","NA","623708","NA","NA","488","2","legacy","1024","2","48000","-16","experiment","HHSHH","2","even","688697","626700","NA","NA","674653","2961","NA","NA","689771","2973","NA","NA","689886","690375","689760","689885","Flanker Task","37","18543","38","yes","1024"
"97.43589743589743","97.43589743589743","492.53846153846155","492.53846153846155","black","legacy","legacy","legacy","0","incongruent","uniform","1","undefined","1","s","38","0","0","0","38","0","38","0","38","0","0","0","38","38","38","38","Sat Sep 26 14:00:28 2020","1500","The main experiment item","yes","FlankerTask.osexp","/Users/suzannejosey","no","mono","no","18","no","white","no","yes","768","legacy","38","38","/Users/suzannejosey/subject-2.csv","legacy","Lentiform Loewenfeld","3.3.3","0","s","NA","h","NA","NA","s","666","NA","623708","NA","NA","666","2","legacy","1024","2","48000","-16","experiment","HHSHH","2","even","690388","626700","NA","NA","674653","2961","NA","NA","691461","2973","NA","NA","691576","692243","691449","691576","Flanker Task","38","19209","39","yes","1024"
"97.5","97.5","491.075","491.075","black","legacy","legacy","legacy","0","congruent","uniform","1","undefined","1","s","39","0","0","0","39","0","39","0","39","0","0","0","39","39","39","39","Sat Sep 26 14:00:28 2020","1500","The main experiment item","yes","FlankerTask.osexp","/Users/suzannejosey","no","mono","no","18","no","white","no","yes","768","legacy","39","39","/Users/suzannejosey/subject-2.csv","legacy","Lentiform Loewenfeld","3.3.3","0","s","NA","h","NA","NA","s","434","NA","623708","NA","NA","434","2","legacy","1024","2","48000","-16","experiment","SSSSS","2","even","692256","626700","NA","NA","674653","2961","NA","NA","693328","2973","NA","NA","693442","693877","693316","693441","Flanker Task","39","19643","40","yes","1024"
"97.5609756097561","97.5609756097561","490.2926829268293","490.2926829268293","black","legacy","legacy","legacy","0","incongruent","uniform","1","undefined","1","h","40","0","0","0","40","0","40","0","40","0","0","0","40","40","40","40","Sat Sep 26 14:00:28 2020","1500","The main experiment item","yes","FlankerTask.osexp","/Users/suzannejosey","no","mono","no","18","no","white","no","yes","768","legacy","40","40","/Users/suzannejosey/subject-2.csv","legacy","Lentiform Loewenfeld","3.3.3","0","h","NA","h","NA","NA","h","459","NA","623708","NA","NA","459","2","legacy","1024","2","48000","-16","experiment","SSHSS","2","even","693890","626700","NA","NA","674653","2961","NA","NA","694964","2973","NA","NA","695077","695537","694952","695077","Flanker Task","40","20102","41","yes","1024"
"97.61904761904762","97.61904761904762","492.35714285714283","492.35714285714283","black","legacy","legacy","legacy","0","incongruent","uniform","1","undefined","1","s","41","0","0","0","41","0","41","0","41","0","0","0","41","41","41","41","Sat Sep 26 14:00:28 2020","1500","The main experiment item","yes","FlankerTask.osexp","/Users/suzannejosey","no","mono","no","18","no","white","no","yes","768","legacy","41","41","/Users/suzannejosey/subject-2.csv","legacy","Lentiform Loewenfeld","3.3.3","0","s","NA","h","NA","NA","s","577","NA","623708","NA","NA","577","2","legacy","1024","2","48000","-16","experiment","HHSHH","2","even","695551","626700","NA","NA","674653","2961","NA","NA","696626","2973","NA","NA","696739","697317","696614","696739","Flanker Task","41","20679","42","yes","1024"
"97.67441860465117","97.67441860465117","495.4418604651163","495.4418604651163","black","legacy","legacy","legacy","0","incongruent","uniform","1","undefined","1","h","42","0","0","0","42","0","42","0","42","0","0","0","42","42","42","42","Sat Sep 26 14:00:28 2020","1500","The main experiment item","yes","FlankerTask.osexp","/Users/suzannejosey","no","mono","no","18","no","white","no","yes","768","legacy","42","42","/Users/suzannejosey/subject-2.csv","legacy","Lentiform Loewenfeld","3.3.3","0","h","NA","h","NA","NA","h","625","NA","623708","NA","NA","625","2","legacy","1024","2","48000","-16","experiment","SSHSS","2","even","697330","626700","NA","NA","674653","2961","NA","NA","698403","2973","NA","NA","698517","699143","698391","698517","Flanker Task","42","21304","43","yes","1024"
"97.72727272727273","97.72727272727273","495.47727272727275","495.47727272727275","black","legacy","legacy","legacy","0","incongruent","uniform","1","undefined","1","s","43","0","0","0","43","0","43","0","43","0","0","0","43","43","43","43","Sat Sep 26 14:00:28 2020","1500","The main experiment item","yes","FlankerTask.osexp","/Users/suzannejosey","no","mono","no","18","no","white","no","yes","768","legacy","43","43","/Users/suzannejosey/subject-2.csv","legacy","Lentiform Loewenfeld","3.3.3","0","s","NA","h","NA","NA","s","497","NA","623708","NA","NA","497","2","legacy","1024","2","48000","-16","experiment","HHSHH","2","even","699156","626700","NA","NA","674653","2961","NA","NA","700230","2973","NA","NA","700344","700843","700218","700344","Flanker Task","43","21801","44","yes","1024"
"97.77777777777777","97.77777777777777","496.7111111111111","496.7111111111111","black","legacy","legacy","legacy","0","congruent","uniform","1","undefined","1","h","44","0","0","0","44","0","44","0","44","0","0","0","44","44","44","44","Sat Sep 26 14:00:28 2020","1500","The main experiment item","yes","FlankerTask.osexp","/Users/suzannejosey","no","mono","no","18","no","white","no","yes","768","legacy","44","44","/Users/suzannejosey/subject-2.csv","legacy","Lentiform Loewenfeld","3.3.3","0","h","NA","h","NA","NA","h","551","NA","623708","NA","NA","551","2","legacy","1024","2","48000","-16","experiment","HHHHH","2","even","700855","626700","NA","NA","674653","2961","NA","NA","701930","2973","NA","NA","702043","702595","701918","702043","Flanker Task","44","22352","45","yes","1024"
"97.82608695652173","97.82608695652173","499.1304347826087","499.1304347826087","black","legacy","legacy","legacy","0","incongruent","uniform","1","undefined","1","h","45","0","0","0","45","0","45","0","45","0","0","0","45","45","45","45","Sat Sep 26 14:00:28 2020","1500","The main experiment item","yes","FlankerTask.osexp","/Users/suzannejosey","no","mono","no","18","no","white","no","yes","768","legacy","45","45","/Users/suzannejosey/subject-2.csv","legacy","Lentiform Loewenfeld","3.3.3","0","h","NA","h","NA","NA","h","608","NA","623708","NA","NA","608","2","legacy","1024","2","48000","-16","experiment","SSHSS","2","even","702608","626700","NA","NA","674653","2961","NA","NA","703681","2973","NA","NA","703794","704403","703669","703794","Flanker Task","45","22960","46","yes","1024"
"97.87234042553192","97.87234042553192","498.3191489361702","498.3191489361702","black","legacy","legacy","legacy","0","congruent","uniform","1","undefined","1","s","46","0","0","0","46","0","46","0","46","0","0","0","46","46","46","46","Sat Sep 26 14:00:28 2020","1500","The main experiment item","yes","FlankerTask.osexp","/Users/suzannejosey","no","mono","no","18","no","white","no","yes","768","legacy","46","46","/Users/suzannejosey/subject-2.csv","legacy","Lentiform Loewenfeld","3.3.3","0","s","NA","h","NA","NA","s","461","NA","623708","NA","NA","461","2","legacy","1024","2","48000","-16","experiment","SSSSS","2","even","704417","626700","NA","NA","674653","2961","NA","NA","705489","2973","NA","NA","705604","706067","705478","705604","Flanker Task","46","23421","47","yes","1024"
"97.91666666666667","97.91666666666667","498.1041666666667","498.1041666666667","black","legacy","legacy","legacy","0","congruent","uniform","1","undefined","1","h","47","0","0","0","47","0","47","0","47","0","0","0","47","47","47","47","Sat Sep 26 14:00:28 2020","1500","The main experiment item","yes","FlankerTask.osexp","/Users/suzannejosey","no","mono","no","18","no","white","no","yes","768","legacy","47","47","/Users/suzannejosey/subject-2.csv","legacy","Lentiform Loewenfeld","3.3.3","0","h","NA","h","NA","NA","h","488","NA","623708","NA","NA","488","2","legacy","1024","2","48000","-16","experiment","HHHHH","2","even","706079","626700","NA","NA","674653","2961","NA","NA","707156","2973","NA","NA","707270","707759","707144","707269","Flanker Task","47","23909","48","yes","1024"
"97.95918367346938","97.95918367346938","508.265306122449","508.265306122449","black","legacy","legacy","legacy","0","incongruent","uniform","1","undefined","1","s","48","0","0","0","48","0","48","0","48","0","0","0","48","48","48","48","Sat Sep 26 14:00:28 2020","1500","The main experiment item","yes","FlankerTask.osexp","/Users/suzannejosey","no","mono","no","18","no","white","no","yes","768","legacy","48","48","/Users/suzannejosey/subject-2.csv","legacy","Lentiform Loewenfeld","3.3.3","0","s","NA","h","NA","NA","s","996","NA","623708","NA","NA","996","2","legacy","1024","2","48000","-16","experiment","HHSHH","2","even","707773","626700","NA","NA","674653","2961","NA","NA","708846","2973","NA","NA","708958","709956","708835","708958","Flanker Task","48","24905","49","yes","1024"
"98","98","506.9","506.9","black","legacy","legacy","legacy","0","congruent","uniform","1","undefined","1","h","49","0","0","0","49","0","49","0","49","0","0","0","49","49","49","49","Sat Sep 26 14:00:28 2020","1500","The main experiment item","yes","FlankerTask.osexp","/Users/suzannejosey","no","mono","no","18","no","white","no","yes","768","legacy","49","49","/Users/suzannejosey/subject-2.csv","legacy","Lentiform Loewenfeld","3.3.3","0","h","NA","h","NA","NA","h","440","NA","623708","NA","NA","440","2","legacy","1024","2","48000","-16","experiment","HHHHH","2","even","709969","626700","NA","NA","674653","2961","NA","NA","711043","2973","NA","NA","711157","711599","711031","711157","Flanker Task","49","25345","50","yes","1024"
"96.07843137254902","96.07843137254902","506.45098039215685","506.45098039215685","black","legacy","legacy","legacy","0","incongruent","uniform","0","undefined","0","h","50","0","0","0","50","0","50","0","50","0","0","0","50","50","50","50","Sat Sep 26 14:00:28 2020","1500","The main experiment item","yes","FlankerTask.osexp","/Users/suzannejosey","no","mono","no","18","no","white","no","yes","768","legacy","50","50","/Users/suzannejosey/subject-2.csv","legacy","Lentiform Loewenfeld","3.3.3","0","s","NA","h","NA","NA","s","484","NA","623708","NA","NA","484","2","legacy","1024","2","48000","-16","experiment","SSHSS","2","even","711611","626700","NA","NA","674653","2961","NA","NA","712685","2973","NA","NA","712799","713284","712673","712799","Flanker Task","49","25829","51","yes","1024"
"96.15384615384616","96.15384615384616","510.25","510.25","black","legacy","legacy","legacy","0","congruent","uniform","1","undefined","1","h","51","0","0","0","51","0","51","0","51","0","0","0","51","51","51","51","Sat Sep 26 14:00:28 2020","1500","The main experiment item","yes","FlankerTask.osexp","/Users/suzannejosey","no","mono","no","18","no","white","no","yes","768","legacy","51","51","/Users/suzannejosey/subject-2.csv","legacy","Lentiform Loewenfeld","3.3.3","0","h","NA","h","NA","NA","h","704","NA","623708","NA","NA","704","2","legacy","1024","2","48000","-16","experiment","HHHHH","2","even","713811","626700","NA","NA","713298","2961","NA","NA","714884","2973","NA","NA","714998","715703","714873","714998","Flanker Task","50","26533","52","yes","1024"
"96.22641509433963","96.22641509433963","508.07547169811323","508.07547169811323","black","legacy","legacy","legacy","0","incongruent","uniform","1","undefined","1","h","52","0","0","0","52","0","52","0","52","0","0","0","52","52","52","52","Sat Sep 26 14:00:28 2020","1500","The main experiment item","yes","FlankerTask.osexp","/Users/suzannejosey","no","mono","no","18","no","white","no","yes","768","legacy","52","52","/Users/suzannejosey/subject-2.csv","legacy","Lentiform Loewenfeld","3.3.3","0","h","NA","h","NA","NA","h","395","NA","623708","NA","NA","395","2","legacy","1024","2","48000","-16","experiment","SSHSS","2","even","715717","626700","NA","NA","713298","2961","NA","NA","716790","2973","NA","NA","716904","717300","716779","716904","Flanker Task","51","26928","53","yes","1024"
"96.29629629629629","96.29629629629629","506.77777777777777","506.77777777777777","black","legacy","legacy","legacy","0","congruent","uniform","1","undefined","1","s","53","0","0","0","53","0","53","0","53","0","0","0","53","53","53","53","Sat Sep 26 14:00:28 2020","1500","The main experiment item","yes","FlankerTask.osexp","/Users/suzannejosey","no","mono","no","18","no","white","no","yes","768","legacy","53","53","/Users/suzannejosey/subject-2.csv","legacy","Lentiform Loewenfeld","3.3.3","0","s","NA","h","NA","NA","s","438","NA","623708","NA","NA","438","2","legacy","1024","2","48000","-16","experiment","SSSSS","2","even","717312","626700","NA","NA","713298","2961","NA","NA","718386","2973","NA","NA","718500","718940","718374","718500","Flanker Task","52","27366","54","yes","1024"
"96.36363636363636","96.36363636363636","506.9818181818182","506.9818181818182","black","legacy","legacy","legacy","0","incongruent","uniform","1","undefined","1","s","54","0","0","0","54","0","54","0","54","0","0","0","54","54","54","54","Sat Sep 26 14:00:28 2020","1500","The main experiment item","yes","FlankerTask.osexp","/Users/suzannejosey","no","mono","no","18","no","white","no","yes","768","legacy","54","54","/Users/suzannejosey/subject-2.csv","legacy","Lentiform Loewenfeld","3.3.3","0","s","NA","h","NA","NA","s","518","NA","623708","NA","NA","518","2","legacy","1024","2","48000","-16","experiment","HHSHH","2","even","718952","626700","NA","NA","713298","2961","NA","NA","720025","2973","NA","NA","720139","720658","720013","720139","Flanker Task","53","27884","55","yes","1024"
"96.42857142857143","96.42857142857143","505.4107142857143","505.4107142857143","black","legacy","legacy","legacy","0","congruent","uniform","1","undefined","1","h","55","0","0","0","55","0","55","0","55","0","0","0","55","55","55","55","Sat Sep 26 14:00:28 2020","1500","The main experiment item","yes","FlankerTask.osexp","/Users/suzannejosey","no","mono","no","18","no","white","no","yes","768","legacy","55","55","/Users/suzannejosey/subject-2.csv","legacy","Lentiform Loewenfeld","3.3.3","0","h","NA","h","NA","NA","h","419","NA","623708","NA","NA","419","2","legacy","1024","2","48000","-16","experiment","HHHHH","2","even","720671","626700","NA","NA","713298","2961","NA","NA","721745","2973","NA","NA","721859","722279","721732","721859","Flanker Task","54","28303","56","yes","1024"
"96.49122807017544","96.49122807017544","505.7368421052632","505.7368421052632","black","legacy","legacy","legacy","0","congruent","uniform","1","undefined","1","s","56","0","0","0","56","0","56","0","56","0","0","0","56","56","56","56","Sat Sep 26 14:00:28 2020","1500","The main experiment item","yes","FlankerTask.osexp","/Users/suzannejosey","no","mono","no","18","no","white","no","yes","768","legacy","56","56","/Users/suzannejosey/subject-2.csv","legacy","Lentiform Loewenfeld","3.3.3","0","s","NA","h","NA","NA","s","524","NA","623708","NA","NA","524","2","legacy","1024","2","48000","-16","experiment","SSSSS","2","even","722292","626700","NA","NA","713298","2961","NA","NA","723366","2973","NA","NA","723481","724006","723355","723481","Flanker Task","55","28827","57","yes","1024"
"96.55172413793103","96.55172413793103","508.12068965517244","508.12068965517244","black","legacy","legacy","legacy","0","congruent","uniform","1","undefined","1","s","57","0","0","0","57","0","57","0","57","0","0","0","57","57","57","57","Sat Sep 26 14:00:28 2020","1500","The main experiment item","yes","FlankerTask.osexp","/Users/suzannejosey","no","mono","no","18","no","white","no","yes","768","legacy","57","57","/Users/suzannejosey/subject-2.csv","legacy","Lentiform Loewenfeld","3.3.3","0","s","NA","h","NA","NA","s","644","NA","623708","NA","NA","644","2","legacy","1024","2","48000","-16","experiment","SSSSS","2","even","724019","626700","NA","NA","713298","2961","NA","NA","725092","2973","NA","NA","725204","725849","725080","725204","Flanker Task","56","29471","58","yes","1024"
"96.61016949152543","96.61016949152543","509.47457627118644","509.47457627118644","black","legacy","legacy","legacy","0","incongruent","uniform","1","undefined","1","s","58","0","0","0","58","0","58","0","58","0","0","0","58","58","58","58","Sat Sep 26 14:00:28 2020","1500","The main experiment item","yes","FlankerTask.osexp","/Users/suzannejosey","no","mono","no","18","no","white","no","yes","768","legacy","58","58","/Users/suzannejosey/subject-2.csv","legacy","Lentiform Loewenfeld","3.3.3","0","s","NA","h","NA","NA","s","588","NA","623708","NA","NA","588","2","legacy","1024","2","48000","-16","experiment","HHSHH","2","even","725862","626700","NA","NA","713298","2961","NA","NA","726936","2973","NA","NA","727049","727638","726924","727049","Flanker Task","57","30059","59","yes","1024"
"96.66666666666667","96.66666666666667","511.6166666666667","511.6166666666667","black","legacy","legacy","legacy","0","incongruent","uniform","1","undefined","1","h","59","0","0","0","59","0","59","0","59","0","0","0","59","59","59","59","Sat Sep 26 14:00:28 2020","1500","The main experiment item","yes","FlankerTask.osexp","/Users/suzannejosey","no","mono","no","18","no","white","no","yes","768","legacy","59","59","/Users/suzannejosey/subject-2.csv","legacy","Lentiform Loewenfeld","3.3.3","0","h","NA","h","NA","NA","h","638","NA","623708","NA","NA","638","2","legacy","1024","2","48000","-16","experiment","SSHSS","2","even","727651","626700","NA","NA","713298","2961","NA","NA","728723","2973","NA","NA","728837","729476","728711","728836","Flanker Task","58","30697","60","yes","1024"
"96.72131147540983","96.72131147540983","512.1311475409836","512.1311475409836","black","legacy","legacy","legacy","0","congruent","uniform","1","undefined","1","s","60","0","0","0","60","0","60","0","60","0","0","0","60","60","60","60","Sat Sep 26 14:00:28 2020","1500","The main experiment item","yes","FlankerTask.osexp","/Users/suzannejosey","no","mono","no","18","no","white","no","yes","768","legacy","60","60","/Users/suzannejosey/subject-2.csv","legacy","Lentiform Loewenfeld","3.3.3","0","s","NA","h","NA","NA","s","543","NA","623708","NA","NA","543","2","legacy","1024","2","48000","-16","experiment","SSSSS","2","even","729490","626700","NA","NA","713298","2961","NA","NA","730564","2973","NA","NA","730678","731222","730552","730678","Flanker Task","59","31240","61","yes","1024"
"96.7741935483871","96.7741935483871","511.9193548387097","511.9193548387097","black","legacy","legacy","legacy","0","congruent","uniform","1","undefined","1","s","61","0","0","0","61","0","61","0","61","0","0","0","61","61","61","61","Sat Sep 26 14:00:28 2020","1500","The main experiment item","yes","FlankerTask.osexp","/Users/suzannejosey","no","mono","no","18","no","white","no","yes","768","legacy","61","61","/Users/suzannejosey/subject-2.csv","legacy","Lentiform Loewenfeld","3.3.3","0","s","NA","h","NA","NA","s","499","NA","623708","NA","NA","499","2","legacy","1024","2","48000","-16","experiment","SSSSS","2","even","731236","626700","NA","NA","713298","2961","NA","NA","732309","2973","NA","NA","732423","732923","732297","732423","Flanker Task","60","31739","62","yes","1024"
"96.82539682539682","96.82539682539682","511.6031746031746","511.6031746031746","black","legacy","legacy","legacy","0","congruent","uniform","1","undefined","1","s","62","0","0","0","62","0","62","0","62","0","0","0","62","62","62","62","Sat Sep 26 14:00:28 2020","1500","The main experiment item","yes","FlankerTask.osexp","/Users/suzannejosey","no","mono","no","18","no","white","no","yes","768","legacy","62","62","/Users/suzannejosey/subject-2.csv","legacy","Lentiform Loewenfeld","3.3.3","0","s","NA","h","NA","NA","s","492","NA","623708","NA","NA","492","2","legacy","1024","2","48000","-16","experiment","SSSSS","2","even","732936","626700","NA","NA","713298","2961","NA","NA","734009","2973","NA","NA","734123","734617","733998","734123","Flanker Task","61","32231","63","yes","1024"
"96.875","96.875","513.5","513.5","black","legacy","legacy","legacy","0","incongruent","uniform","1","undefined","1","s","63","0","0","0","63","0","63","0","63","0","0","0","63","63","63","63","Sat Sep 26 14:00:28 2020","1500","The main experiment item","yes","FlankerTask.osexp","/Users/suzannejosey","no","mono","no","18","no","white","no","yes","768","legacy","63","63","/Users/suzannejosey/subject-2.csv","legacy","Lentiform Loewenfeld","3.3.3","0","s","NA","h","NA","NA","s","633","NA","623708","NA","NA","633","2","legacy","1024","2","48000","-16","experiment","HHSHH","2","even","734630","626700","NA","NA","713298","2961","NA","NA","735705","2973","NA","NA","735818","736452","735692","735818","Flanker Task","62","32864","64","yes","1024"
"96.92307692307692","96.92307692307692","515.1846153846154","515.1846153846154","black","legacy","legacy","legacy","0","incongruent","uniform","1","undefined","1","h","64","0","0","0","64","0","64","0","64","0","0","0","64","64","64","64","Sat Sep 26 14:00:28 2020","1500","The main experiment item","yes","FlankerTask.osexp","/Users/suzannejosey","no","mono","no","18","no","white","no","yes","768","legacy","64","64","/Users/suzannejosey/subject-2.csv","legacy","Lentiform Loewenfeld","3.3.3","0","h","NA","h","NA","NA","h","623","NA","623708","NA","NA","623","2","legacy","1024","2","48000","-16","experiment","SSHSS","2","even","736465","626700","NA","NA","713298","2961","NA","NA","737539","2973","NA","NA","737653","738277","737528","737653","Flanker Task","63","33487","65","yes","1024"
"96.96969696969697","96.96969696969697","514.8333333333334","514.8333333333334","black","legacy","legacy","legacy","0","incongruent","uniform","1","undefined","1","h","65","0","0","0","65","0","65","0","65","0","0","0","65","65","65","65","Sat Sep 26 14:00:28 2020","1500","The main experiment item","yes","FlankerTask.osexp","/Users/suzannejosey","no","mono","no","18","no","white","no","yes","768","legacy","65","65","/Users/suzannejosey/subject-2.csv","legacy","Lentiform Loewenfeld","3.3.3","0","h","NA","h","NA","NA","h","492","NA","623708","NA","NA","492","2","legacy","1024","2","48000","-16","experiment","SSHSS","2","even","738291","626700","NA","NA","713298","2961","NA","NA","739364","2973","NA","NA","739478","739971","739352","739478","Flanker Task","64","33979","66","yes","1024"
"97.01492537313433","97.01492537313433","512.2089552238806","512.2089552238806","black","legacy","legacy","legacy","0","congruent","uniform","1","undefined","1","h","66","0","0","0","66","0","66","0","66","0","0","0","66","66","66","66","Sat Sep 26 14:00:28 2020","1500","The main experiment item","yes","FlankerTask.osexp","/Users/suzannejosey","no","mono","no","18","no","white","no","yes","768","legacy","66","66","/Users/suzannejosey/subject-2.csv","legacy","Lentiform Loewenfeld","3.3.3","0","h","NA","h","NA","NA","h","339","NA","623708","NA","NA","339","2","legacy","1024","2","48000","-16","experiment","HHHHH","2","even","739984","626700","NA","NA","713298","2961","NA","NA","741057","2973","NA","NA","741171","741511","741045","741171","Flanker Task","65","34318","67","yes","1024"
"97.05882352941177","97.05882352941177","511.8235294117647","511.8235294117647","black","legacy","legacy","legacy","0","incongruent","uniform","1","undefined","1","h","67","0","0","0","67","0","67","0","67","0","0","0","67","67","67","67","Sat Sep 26 14:00:28 2020","1500","The main experiment item","yes","FlankerTask.osexp","/Users/suzannejosey","no","mono","no","18","no","white","no","yes","768","legacy","67","67","/Users/suzannejosey/subject-2.csv","legacy","Lentiform Loewenfeld","3.3.3","0","h","NA","h","NA","NA","h","486","NA","623708","NA","NA","486","2","legacy","1024","2","48000","-16","experiment","SSHSS","2","even","741526","626700","NA","NA","713298","2961","NA","NA","742599","2973","NA","NA","742712","743199","742587","742712","Flanker Task","66","34804","68","yes","1024"
"97.10144927536231","97.10144927536231","509.6811594202899","509.6811594202899","black","legacy","legacy","legacy","0","congruent","uniform","1","undefined","1","h","68","0","0","0","68","0","68","0","68","0","0","0","68","68","68","68","Sat Sep 26 14:00:28 2020","1500","The main experiment item","yes","FlankerTask.osexp","/Users/suzannejosey","no","mono","no","18","no","white","no","yes","768","legacy","68","68","/Users/suzannejosey/subject-2.csv","legacy","Lentiform Loewenfeld","3.3.3","0","h","NA","h","NA","NA","h","364","NA","623708","NA","NA","364","2","legacy","1024","2","48000","-16","experiment","HHHHH","2","even","743212","626700","NA","NA","713298","2961","NA","NA","744285","2973","NA","NA","744399","744764","744273","744399","Flanker Task","67","35168","69","yes","1024"
"97.14285714285714","97.14285714285714","510.1714285714286","510.1714285714286","black","legacy","legacy","legacy","0","incongruent","uniform","1","undefined","1","s","69","0","0","0","69","0","69","0","69","0","0","0","69","69","69","69","Sat Sep 26 14:00:28 2020","1500","The main experiment item","yes","FlankerTask.osexp","/Users/suzannejosey","no","mono","no","18","no","white","no","yes","768","legacy","69","69","/Users/suzannejosey/subject-2.csv","legacy","Lentiform Loewenfeld","3.3.3","0","s","NA","h","NA","NA","s","544","NA","623708","NA","NA","544","2","legacy","1024","2","48000","-16","experiment","HHSHH","2","even","744777","626700","NA","NA","713298","2961","NA","NA","745852","2973","NA","NA","745965","746510","745840","745965","Flanker Task","68","35712","70","yes","1024"
"97.1830985915493","97.1830985915493","509.16901408450707","509.16901408450707","black","legacy","legacy","legacy","0","congruent","uniform","1","undefined","1","h","70","0","0","0","70","0","70","0","70","0","0","0","70","70","70","70","Sat Sep 26 14:00:28 2020","1500","The main experiment item","yes","FlankerTask.osexp","/Users/suzannejosey","no","mono","no","18","no","white","no","yes","768","legacy","70","70","/Users/suzannejosey/subject-2.csv","legacy","Lentiform Loewenfeld","3.3.3","0","h","NA","h","NA","NA","h","439","NA","623708","NA","NA","439","2","legacy","1024","2","48000","-16","experiment","HHHHH","2","even","746524","626700","NA","NA","713298","2961","NA","NA","747598","2973","NA","NA","747712","748152","747586","747712","Flanker Task","69","36151","71","yes","1024"
"97.22222222222223","97.22222222222223","508.31944444444446","508.31944444444446","black","legacy","legacy","legacy","0","congruent","uniform","1","undefined","1","h","71","0","0","0","71","0","71","0","71","0","0","0","71","71","71","71","Sat Sep 26 14:00:28 2020","1500","The main experiment item","yes","FlankerTask.osexp","/Users/suzannejosey","no","mono","no","18","no","white","no","yes","768","legacy","71","71","/Users/suzannejosey/subject-2.csv","legacy","Lentiform Loewenfeld","3.3.3","0","h","NA","h","NA","NA","h","448","NA","623708","NA","NA","448","2","legacy","1024","2","48000","-16","experiment","HHHHH","2","even","748165","626700","NA","NA","713298","2961","NA","NA","749241","2973","NA","NA","749353","749802","749229","749353","Flanker Task","70","36599","72","yes","1024"
"97.26027397260275","97.26027397260275","511.2191780821918","511.2191780821918","black","legacy","legacy","legacy","0","congruent","uniform","1","undefined","1","s","72","0","0","0","72","0","72","0","72","0","0","0","72","72","72","72","Sat Sep 26 14:00:28 2020","1500","The main experiment item","yes","FlankerTask.osexp","/Users/suzannejosey","no","mono","no","18","no","white","no","yes","768","legacy","72","72","/Users/suzannejosey/subject-2.csv","legacy","Lentiform Loewenfeld","3.3.3","0","s","NA","h","NA","NA","s","720","NA","623708","NA","NA","720","2","legacy","1024","2","48000","-16","experiment","SSSSS","2","even","749815","626700","NA","NA","713298","2961","NA","NA","750887","2973","NA","NA","751000","751721","750875","751000","Flanker Task","71","37319","73","yes","1024"
"97.29729729729729","97.29729729729729","511.7972972972973","511.7972972972973","black","legacy","legacy","legacy","0","incongruent","uniform","1","undefined","1","s","73","0","0","0","73","0","73","0","73","0","0","0","73","73","73","73","Sat Sep 26 14:00:28 2020","1500","The main experiment item","yes","FlankerTask.osexp","/Users/suzannejosey","no","mono","no","18","no","white","no","yes","768","legacy","73","73","/Users/suzannejosey/subject-2.csv","legacy","Lentiform Loewenfeld","3.3.3","0","s","NA","h","NA","NA","s","554","NA","623708","NA","NA","554","2","legacy","1024","2","48000","-16","experiment","HHSHH","2","even","751734","626700","NA","NA","713298","2961","NA","NA","752809","2973","NA","NA","752921","753476","752798","752921","Flanker Task","72","37873","74","yes","1024"
"97.33333333333333","97.33333333333333","511.18666666666667","511.18666666666667","black","legacy","legacy","legacy","0","congruent","uniform","1","undefined","1","s","74","0","0","0","74","0","74","0","74","0","0","0","74","74","74","74","Sat Sep 26 14:00:28 2020","1500","The main experiment item","yes","FlankerTask.osexp","/Users/suzannejosey","no","mono","no","18","no","white","no","yes","768","legacy","74","74","/Users/suzannejosey/subject-2.csv","legacy","Lentiform Loewenfeld","3.3.3","0","s","NA","h","NA","NA","s","466","NA","623708","NA","NA","466","2","legacy","1024","2","48000","-16","experiment","SSSSS","2","even","753489","626700","NA","NA","713298","2961","NA","NA","754563","2973","NA","NA","754677","755144","754551","754677","Flanker Task","73","38339","75","yes","1024"
"97.36842105263158","97.36842105263158","510.5657894736842","510.5657894736842","black","legacy","legacy","legacy","0","incongruent","uniform","1","undefined","1","h","75","0","0","0","75","0","75","0","75","0","0","0","75","75","75","75","Sat Sep 26 14:00:28 2020","1500","The main experiment item","yes","FlankerTask.osexp","/Users/suzannejosey","no","mono","no","18","no","white","no","yes","768","legacy","75","75","/Users/suzannejosey/subject-2.csv","legacy","Lentiform Loewenfeld","3.3.3","0","h","NA","h","NA","NA","h","464","NA","623708","NA","NA","464","2","legacy","1024","2","48000","-16","experiment","SSHSS","2","even","755157","626700","NA","NA","713298","2961","NA","NA","756231","2973","NA","NA","756343","756808","756220","756342","Flanker Task","74","38803","76","yes","1024"
"97.40259740259741","97.40259740259741","510.53246753246754","510.53246753246754","black","legacy","legacy","legacy","0","incongruent","uniform","1","undefined","1","h","76","0","0","0","76","0","76","0","76","0","0","0","76","76","76","76","Sat Sep 26 14:00:28 2020","1500","The main experiment item","yes","FlankerTask.osexp","/Users/suzannejosey","no","mono","no","18","no","white","no","yes","768","legacy","76","76","/Users/suzannejosey/subject-2.csv","legacy","Lentiform Loewenfeld","3.3.3","0","h","NA","h","NA","NA","h","508","NA","623708","NA","NA","508","2","legacy","1024","2","48000","-16","experiment","SSHSS","2","even","756821","626700","NA","NA","713298","2961","NA","NA","757897","2973","NA","NA","758010","758519","757885","758010","Flanker Task","75","39311","77","yes","1024"
"97.43589743589743","97.43589743589743","510.06410256410254","510.06410256410254","black","legacy","legacy","legacy","0","incongruent","uniform","1","undefined","1","h","77","0","0","0","77","0","77","0","77","0","0","0","77","77","77","77","Sat Sep 26 14:00:28 2020","1500","The main experiment item","yes","FlankerTask.osexp","/Users/suzannejosey","no","mono","no","18","no","white","no","yes","768","legacy","77","77","/Users/suzannejosey/subject-2.csv","legacy","Lentiform Loewenfeld","3.3.3","0","h","NA","h","NA","NA","h","474","NA","623708","NA","NA","474","2","legacy","1024","2","48000","-16","experiment","SSHSS","2","even","758533","626700","NA","NA","713298","2961","NA","NA","759606","2973","NA","NA","759720","760195","759594","759720","Flanker Task","76","39785","78","yes","1024"
"97.46835443037975","97.46835443037975","512.2151898734177","512.2151898734177","black","legacy","legacy","legacy","0","congruent","uniform","1","undefined","1","h","78","0","0","0","78","0","78","0","78","0","0","0","78","78","78","78","Sat Sep 26 14:00:28 2020","1500","The main experiment item","yes","FlankerTask.osexp","/Users/suzannejosey","no","mono","no","18","no","white","no","yes","768","legacy","78","78","/Users/suzannejosey/subject-2.csv","legacy","Lentiform Loewenfeld","3.3.3","0","h","NA","h","NA","NA","h","680","NA","623708","NA","NA","680","2","legacy","1024","2","48000","-16","experiment","HHHHH","2","even","760208","626700","NA","NA","713298","2961","NA","NA","761280","2973","NA","NA","761394","762075","761269","761394","Flanker Task","77","40465","79","yes","1024"
"96.25","96.25","524.5625","524.5625","black","legacy","legacy","legacy","0","congruent","uniform","0","undefined","0","s","79","0","0","0","79","0","79","0","79","0","0","0","79","79","79","79","Sat Sep 26 14:00:28 2020","1500","The main experiment item","yes","FlankerTask.osexp","/Users/suzannejosey","no","mono","no","18","no","white","no","yes","768","legacy","79","79","/Users/suzannejosey/subject-2.csv","legacy","Lentiform Loewenfeld","3.3.3","0","None","NA","h","NA","NA","None","1500","NA","623708","NA","NA","1500","2","legacy","1024","2","48000","-16","experiment","SSSSS","2","even","762088","626700","NA","NA","713298","2961","NA","NA","763160","2973","NA","NA","763274","764774","763148","763274","Flanker Task","77","41965","80","yes","1024"
"96.29629629629629","96.29629629629629","523.9753086419753","523.9753086419753","black","legacy","legacy","legacy","0","incongruent","uniform","1","undefined","1","h","80","0","0","0","80","0","80","0","80","0","0","0","80","80","80","80","Sat Sep 26 14:00:28 2020","600","The main experiment item","yes","FlankerTask.osexp","/Users/suzannejosey","no","mono","no","18","no","white","no","yes","768","legacy","0","79","/Users/suzannejosey/subject-2.csv","legacy","Lentiform Loewenfeld","3.3.3","0","h","NA","h","h","NA","h","477","NA","623708","7646","NA","477","2","legacy","1024","2","48000","-16","experiment","SSHSS","2","even","765300","626700","773990","NA","764788","2961","NA","NA","774029","2973","766342","NA","774143","774622","774020","774143","Flanker Task","78","42442","81","yes","1024"
"95.1219512195122","95.1219512195122","535.8780487804878","535.8780487804878","black","legacy","legacy","legacy","0","incongruent","uniform","0","undefined","0","s","81","0","0","0","81","0","81","0","81","0","0","0","81","81","81","81","Sat Sep 26 14:00:28 2020","600","The main experiment item","yes","FlankerTask.osexp","/Users/suzannejosey","no","mono","no","18","no","white","no","yes","768","legacy","1","79","/Users/suzannejosey/subject-2.csv","legacy","Lentiform Loewenfeld","3.3.3","0","None","NA","h","h","NA","None","1500","NA","623708","7646","NA","1500","2","legacy","1024","2","48000","-16","experiment","HHSHH","2","even","774635","626700","773990","NA","764788","2961","NA","NA","775708","2973","766342","NA","775822","777322","775696","775822","Flanker Task","78","43942","82","yes","1024"
"95.18072289156626","95.18072289156626","536.8192771084338","536.8192771084338","black","legacy","legacy","legacy","0","incongruent","uniform","1","undefined","1","s","82","0","0","0","82","0","82","0","82","0","0","0","82","82","82","82","Sat Sep 26 14:00:28 2020","600","The main experiment item","yes","FlankerTask.osexp","/Users/suzannejosey","no","mono","no","18","no","white","no","yes","768","legacy","2","79","/Users/suzannejosey/subject-2.csv","legacy","Lentiform Loewenfeld","3.3.3","0","s","NA","h","h","NA","s","614","NA","623708","7646","NA","614","2","legacy","1024","2","48000","-16","experiment","HHSHH","2","even","778361","626700","773990","NA","777335","2961","777849","NA","779436","2973","766342","NA","779550","780166","779424","779550","Flanker Task","79","44556","83","yes","1024"
"95.23809523809524","95.23809523809524","535.7619047619048","535.7619047619048","black","legacy","legacy","legacy","0","congruent","uniform","1","undefined","1","s","83","0","0","0","83","0","83","0","83","0","0","0","83","83","83","83","Sat Sep 26 14:00:28 2020","600","The main experiment item","yes","FlankerTask.osexp","/Users/suzannejosey","no","mono","no","18","no","white","no","yes","768","legacy","3","79","/Users/suzannejosey/subject-2.csv","legacy","Lentiform Loewenfeld","3.3.3","0","s","NA","h","h","NA","s","448","NA","623708","7646","NA","448","2","legacy","1024","2","48000","-16","experiment","SSSSS","2","even","780691","626700","773990","NA","777335","2961","780178","NA","781765","2973","766342","NA","781879","782328","781754","781879","Flanker Task","80","45004","84","yes","1024"
"95.29411764705883","95.29411764705883","533.6941176470589","533.6941176470589","black","legacy","legacy","legacy","0","congruent","uniform","1","undefined","1","h","84","0","0","0","84","0","84","0","84","0","0","0","84","84","84","84","Sat Sep 26 14:00:28 2020","600","The main experiment item","yes","FlankerTask.osexp","/Users/suzannejosey","no","mono","no","18","no","white","no","yes","768","legacy","4","79","/Users/suzannejosey/subject-2.csv","legacy","Lentiform Loewenfeld","3.3.3","0","h","NA","h","h","NA","h","360","NA","623708","7646","NA","360","2","legacy","1024","2","48000","-16","experiment","HHHHH","2","even","782342","626700","773990","NA","777335","2961","780178","NA","783416","2973","766342","NA","783529","783890","783405","783529","Flanker Task","81","45364","85","yes","1024"
"95.34883720930233","95.34883720930233","531.7906976744187","531.7906976744187","black","legacy","legacy","legacy","0","congruent","uniform","1","undefined","1","h","85","0","0","0","85","0","85","0","85","0","0","0","85","85","85","85","Sat Sep 26 14:00:28 2020","600","The main experiment item","yes","FlankerTask.osexp","/Users/suzannejosey","no","mono","no","18","no","white","no","yes","768","legacy","5","79","/Users/suzannejosey/subject-2.csv","legacy","Lentiform Loewenfeld","3.3.3","0","h","NA","h","h","NA","h","370","NA","623708","7646","NA","370","2","legacy","1024","2","48000","-16","experiment","HHHHH","2","even","783903","626700","773990","NA","777335","2961","780178","NA","784977","2973","766342","NA","785090","785461","784965","785090","Flanker Task","82","45734","86","yes","1024"
"95.40229885057471","95.40229885057471","530.3448275862069","530.3448275862069","black","legacy","legacy","legacy","0","congruent","uniform","1","undefined","1","h","86","0","0","0","86","0","86","0","86","0","0","0","86","86","86","86","Sat Sep 26 14:00:28 2020","600","The main experiment item","yes","FlankerTask.osexp","/Users/suzannejosey","no","mono","no","18","no","white","no","yes","768","legacy","6","79","/Users/suzannejosey/subject-2.csv","legacy","Lentiform Loewenfeld","3.3.3","0","h","NA","h","h","NA","h","406","NA","623708","7646","NA","406","2","legacy","1024","2","48000","-16","experiment","HHHHH","2","even","785473","626700","773990","NA","777335","2961","780178","NA","786548","2973","766342","NA","786660","787067","786537","786660","Flanker Task","83","46140","87","yes","1024"
"95.45454545454545","95.45454545454545","529.1818181818181","529.1818181818181","black","legacy","legacy","legacy","0","incongruent","uniform","1","undefined","1","s","87","0","0","0","87","0","87","0","87","0","0","0","87","87","87","87","Sat Sep 26 14:00:28 2020","600","The main experiment item","yes","FlankerTask.osexp","/Users/suzannejosey","no","mono","no","18","no","white","no","yes","768","legacy","7","79","/Users/suzannejosey/subject-2.csv","legacy","Lentiform Loewenfeld","3.3.3","0","s","NA","h","h","NA","s","428","NA","623708","7646","NA","428","2","legacy","1024","2","48000","-16","experiment","HHSHH","2","even","787081","626700","773990","NA","777335","2961","780178","NA","788156","2973","766342","NA","788270","788699","788145","788270","Flanker Task","84","46568","88","yes","1024"
"95.50561797752809","95.50561797752809","527.9325842696629","527.9325842696629","black","legacy","legacy","legacy","0","congruent","uniform","1","undefined","1","s","88","0","0","0","88","0","88","0","88","0","0","0","88","88","88","88","Sat Sep 26 14:00:28 2020","600","The main experiment item","yes","FlankerTask.osexp","/Users/suzannejosey","no","mono","no","18","no","white","no","yes","768","legacy","8","79","/Users/suzannejosey/subject-2.csv","legacy","Lentiform Loewenfeld","3.3.3","0","s","NA","h","h","NA","s","418","NA","623708","7646","NA","418","2","legacy","1024","2","48000","-16","experiment","SSSSS","2","even","788712","626700","773990","NA","777335","2961","780178","NA","789787","2973","766342","NA","789901","790320","789776","789901","Flanker Task","85","46986","89","yes","1024"
"95.55555555555556","95.55555555555556","525.8","525.8","black","legacy","legacy","legacy","0","congruent","uniform","1","undefined","1","s","89","0","0","0","89","0","89","0","89","0","0","0","89","89","89","89","Sat Sep 26 14:00:28 2020","600","The main experiment item","yes","FlankerTask.osexp","/Users/suzannejosey","no","mono","no","18","no","white","no","yes","768","legacy","9","79","/Users/suzannejosey/subject-2.csv","legacy","Lentiform Loewenfeld","3.3.3","0","s","NA","h","h","NA","s","336","NA","623708","7646","NA","336","2","legacy","1024","2","48000","-16","experiment","SSSSS","2","even","790333","626700","773990","NA","777335","2961","780178","NA","791408","2973","766342","NA","791520","791857","791396","791520","Flanker Task","86","47322","90","yes","1024"
"95.6043956043956","95.6043956043956","525.3406593406594","525.3406593406594","black","legacy","legacy","legacy","0","incongruent","uniform","1","undefined","1","s","90","0","0","0","90","0","90","0","90","0","0","0","90","90","90","90","Sat Sep 26 14:00:28 2020","600","The main experiment item","yes","FlankerTask.osexp","/Users/suzannejosey","no","mono","no","18","no","white","no","yes","768","legacy","10","79","/Users/suzannejosey/subject-2.csv","legacy","Lentiform Loewenfeld","3.3.3","0","s","NA","h","h","NA","s","484","NA","623708","7646","NA","484","2","legacy","1024","2","48000","-16","experiment","HHSHH","2","even","791870","626700","773990","NA","777335","2961","780178","NA","792944","2973","766342","NA","793058","793543","792932","793058","Flanker Task","87","47806","91","yes","1024"
"95.65217391304348","95.65217391304348","524.5","524.5","black","legacy","legacy","legacy","0","incongruent","uniform","1","undefined","1","s","91","0","0","0","91","0","91","0","91","0","0","0","91","91","91","91","Sat Sep 26 14:00:28 2020","600","The main experiment item","yes","FlankerTask.osexp","/Users/suzannejosey","no","mono","no","18","no","white","no","yes","768","legacy","11","79","/Users/suzannejosey/subject-2.csv","legacy","Lentiform Loewenfeld","3.3.3","0","s","NA","h","h","NA","s","448","NA","623708","7646","NA","448","2","legacy","1024","2","48000","-16","experiment","HHSHH","2","even","793556","626700","773990","NA","777335","2961","780178","NA","794627","2973","766342","NA","794741","795190","794615","794740","Flanker Task","88","48254","92","yes","1024"
"95.6989247311828","95.6989247311828","522.1505376344086","522.1505376344086","black","legacy","legacy","legacy","0","congruent","uniform","1","undefined","1","s","92","0","0","0","92","0","92","0","92","0","0","0","92","92","92","92","Sat Sep 26 14:00:28 2020","600","The main experiment item","yes","FlankerTask.osexp","/Users/suzannejosey","no","mono","no","18","no","white","no","yes","768","legacy","12","79","/Users/suzannejosey/subject-2.csv","legacy","Lentiform Loewenfeld","3.3.3","0","s","NA","h","h","NA","s","306","NA","623708","7646","NA","306","2","legacy","1024","2","48000","-16","experiment","SSSSS","2","even","795202","626700","773990","NA","777335","2961","780178","NA","796277","2973","766342","NA","796390","796697","796265","796390","Flanker Task","89","48560","93","yes","1024"
"95.74468085106383","95.74468085106383","521.2127659574468","521.2127659574468","black","legacy","legacy","legacy","0","incongruent","uniform","1","undefined","1","s","93","0","0","0","93","0","93","0","93","0","0","0","93","93","93","93","Sat Sep 26 14:00:28 2020","600","The main experiment item","yes","FlankerTask.osexp","/Users/suzannejosey","no","mono","no","18","no","white","no","yes","768","legacy","13","79","/Users/suzannejosey/subject-2.csv","legacy","Lentiform Loewenfeld","3.3.3","0","s","NA","h","h","NA","s","434","NA","623708","7646","NA","434","2","legacy","1024","2","48000","-16","experiment","HHSHH","2","even","796711","626700","773990","NA","777335","2961","780178","NA","797785","2973","766342","NA","797899","798334","797773","797898","Flanker Task","90","48994","94","yes","1024"
"95.78947368421052","95.78947368421052","519.7263157894737","519.7263157894737","black","legacy","legacy","legacy","0","incongruent","uniform","1","undefined","1","s","94","0","0","0","94","0","94","0","94","0","0","0","94","94","94","94","Sat Sep 26 14:00:28 2020","600","The main experiment item","yes","FlankerTask.osexp","/Users/suzannejosey","no","mono","no","18","no","white","no","yes","768","legacy","14","79","/Users/suzannejosey/subject-2.csv","legacy","Lentiform Loewenfeld","3.3.3","0","s","NA","h","h","NA","s","380","NA","623708","7646","NA","380","2","legacy","1024","2","48000","-16","experiment","HHSHH","2","even","798347","626700","773990","NA","777335","2961","780178","NA","799420","2973","766342","NA","799532","799913","799409","799532","Flanker Task","91","49374","95","yes","1024"
"94.79166666666667","94.79166666666667","518.1875","518.1875","black","legacy","legacy","legacy","0","incongruent","uniform","0","undefined","0","h","95","0","0","0","95","0","95","0","95","0","0","0","95","95","95","95","Sat Sep 26 14:00:28 2020","600","The main experiment item","yes","FlankerTask.osexp","/Users/suzannejosey","no","mono","no","18","no","white","no","yes","768","legacy","15","79","/Users/suzannejosey/subject-2.csv","legacy","Lentiform Loewenfeld","3.3.3","0","s","NA","h","h","NA","s","372","NA","623708","7646","NA","372","2","legacy","1024","2","48000","-16","experiment","SSHSS","2","even","799926","626700","773990","NA","777335","2961","780178","NA","801000","2973","766342","NA","801114","801487","800988","801113","Flanker Task","91","49746","96","yes","1024"
"94.84536082474227","94.84536082474227","517.6185567010309","517.6185567010309","black","legacy","legacy","legacy","0","congruent","uniform","1","undefined","1","s","96","0","0","0","96","0","96","0","96","0","0","0","96","96","96","96","Sat Sep 26 14:00:28 2020","600","The main experiment item","yes","FlankerTask.osexp","/Users/suzannejosey","no","mono","no","18","no","white","no","yes","768","legacy","16","79","/Users/suzannejosey/subject-2.csv","legacy","Lentiform Loewenfeld","3.3.3","0","s","NA","h","h","NA","s","463","NA","623708","7646","NA","463","2","legacy","1024","2","48000","-16","experiment","SSSSS","2","even","802014","626700","773990","NA","801501","2961","780178","NA","803090","2973","766342","NA","803204","803668","803079","803204","Flanker Task","92","50209","97","yes","1024"
"94.89795918367346","94.89795918367346","516.234693877551","516.234693877551","black","legacy","legacy","legacy","0","congruent","uniform","1","undefined","1","s","97","0","0","0","97","0","97","0","97","0","0","0","97","97","97","97","Sat Sep 26 14:00:28 2020","600","The main experiment item","yes","FlankerTask.osexp","/Users/suzannejosey","no","mono","no","18","no","white","no","yes","768","legacy","17","79","/Users/suzannejosey/subject-2.csv","legacy","Lentiform Loewenfeld","3.3.3","0","s","NA","h","h","NA","s","382","NA","623708","7646","NA","382","2","legacy","1024","2","48000","-16","experiment","SSSSS","2","even","803680","626700","773990","NA","801501","2961","780178","NA","804753","2973","766342","NA","804868","805251","804742","804867","Flanker Task","93","50591","98","yes","1024"
"94.94949494949495","94.94949494949495","515.1313131313132","515.1313131313132","black","legacy","legacy","legacy","0","incongruent","uniform","1","undefined","1","s","98","0","0","0","98","0","98","0","98","0","0","0","98","98","98","98","Sat Sep 26 14:00:28 2020","600","The main experiment item","yes","FlankerTask.osexp","/Users/suzannejosey","no","mono","no","18","no","white","no","yes","768","legacy","18","79","/Users/suzannejosey/subject-2.csv","legacy","Lentiform Loewenfeld","3.3.3","0","s","NA","h","h","NA","s","407","NA","623708","7646","NA","407","2","legacy","1024","2","48000","-16","experiment","HHSHH","2","even","805264","626700","773990","NA","801501","2961","780178","NA","806335","2973","766342","NA","806450","806858","806324","806449","Flanker Task","94","50998","99","yes","1024"
"95","95","514.28","514.28","black","legacy","legacy","legacy","0","congruent","uniform","1","undefined","1","h","99","0","0","0","99","0","99","0","99","0","0","0","99","99","99","99","Sat Sep 26 14:00:28 2020","600","The main experiment item","yes","FlankerTask.osexp","/Users/suzannejosey","no","mono","no","18","no","white","no","yes","768","legacy","19","79","/Users/suzannejosey/subject-2.csv","legacy","Lentiform Loewenfeld","3.3.3","0","h","NA","h","h","NA","h","430","NA","623708","7646","NA","430","2","legacy","1024","2","48000","-16","experiment","HHHHH","2","even","806871","626700","773990","NA","801501","2961","780178","NA","807945","2973","766342","NA","808059","808490","807934","808059","Flanker Task","95","51428","100","yes","1024"
"95.04950495049505","95.04950495049505","513.039603960396","513.039603960396","black","legacy","legacy","legacy","0","congruent","uniform","1","undefined","1","h","100","0","0","0","100","0","100","0","100","0","0","0","100","100","100","100","Sat Sep 26 14:00:28 2020","600","The main experiment item","yes","FlankerTask.osexp","/Users/suzannejosey","no","mono","no","18","no","white","no","yes","768","legacy","20","79","/Users/suzannejosey/subject-2.csv","legacy","Lentiform Loewenfeld","3.3.3","0","h","NA","h","h","NA","h","389","NA","623708","7646","NA","389","2","legacy","1024","2","48000","-16","experiment","HHHHH","2","even","808503","626700","773990","NA","801501","2961","780178","NA","809577","2973","766342","NA","809691","810081","809565","809691","Flanker Task","96","51817","101","yes","1024"
"95.09803921568627","95.09803921568627","511.4313725490196","511.4313725490196","black","legacy","legacy","legacy","0","congruent","uniform","1","undefined","1","h","101","0","0","0","101","0","101","0","101","0","0","0","101","101","101","101","Sat Sep 26 14:00:28 2020","600","The main experiment item","yes","FlankerTask.osexp","/Users/suzannejosey","no","mono","no","18","no","white","no","yes","768","legacy","21","79","/Users/suzannejosey/subject-2.csv","legacy","Lentiform Loewenfeld","3.3.3","0","h","NA","h","h","NA","h","349","NA","623708","7646","NA","349","2","legacy","1024","2","48000","-16","experiment","HHHHH","2","even","810094","626700","773990","NA","801501","2961","780178","NA","811167","2973","766342","NA","811282","811632","811156","811282","Flanker Task","97","52166","102","yes","1024"
"95.14563106796116","95.14563106796116","510.40776699029124","510.40776699029124","black","legacy","legacy","legacy","0","congruent","uniform","1","undefined","1","s","102","0","0","0","102","0","102","0","102","0","0","0","102","102","102","102","Sat Sep 26 14:00:28 2020","600","The main experiment item","yes","FlankerTask.osexp","/Users/suzannejosey","no","mono","no","18","no","white","no","yes","768","legacy","22","79","/Users/suzannejosey/subject-2.csv","legacy","Lentiform Loewenfeld","3.3.3","0","s","NA","h","h","NA","s","406","NA","623708","7646","NA","406","2","legacy","1024","2","48000","-16","experiment","SSSSS","2","even","811645","626700","773990","NA","801501","2961","780178","NA","812718","2973","766342","NA","812831","813238","812706","812831","Flanker Task","98","52572","103","yes","1024"
"95.1923076923077","95.1923076923077","510.625","510.625","black","legacy","legacy","legacy","0","incongruent","uniform","1","undefined","1","s","103","0","0","0","103","0","103","0","103","0","0","0","103","103","103","103","Sat Sep 26 14:00:28 2020","600","The main experiment item","yes","FlankerTask.osexp","/Users/suzannejosey","no","mono","no","18","no","white","no","yes","768","legacy","23","79","/Users/suzannejosey/subject-2.csv","legacy","Lentiform Loewenfeld","3.3.3","0","s","NA","h","h","NA","s","533","NA","623708","7646","NA","533","2","legacy","1024","2","48000","-16","experiment","HHSHH","2","even","813250","626700","773990","NA","801501","2961","780178","NA","814324","2973","766342","NA","814438","814972","814312","814438","Flanker Task","99","53105","104","yes","1024"
"95.23809523809524","95.23809523809524","509.62857142857143","509.62857142857143","black","legacy","legacy","legacy","0","congruent","uniform","1","undefined","1","h","104","0","0","0","104","0","104","0","104","0","0","0","104","104","104","104","Sat Sep 26 14:00:28 2020","600","The main experiment item","yes","FlankerTask.osexp","/Users/suzannejosey","no","mono","no","18","no","white","no","yes","768","legacy","24","79","/Users/suzannejosey/subject-2.csv","legacy","Lentiform Loewenfeld","3.3.3","0","h","NA","h","h","NA","h","406","NA","623708","7646","NA","406","2","legacy","1024","2","48000","-16","experiment","HHHHH","2","even","814985","626700","773990","NA","801501","2961","780178","NA","816056","2973","766342","NA","816170","816577","816045","816170","Flanker Task","100","53511","105","yes","1024"
"95.28301886792453","95.28301886792453","508.3207547169811","508.3207547169811","black","legacy","legacy","legacy","0","congruent","uniform","1","undefined","1","s","105","0","0","0","105","0","105","0","105","0","0","0","105","105","105","105","Sat Sep 26 14:00:28 2020","600","The main experiment item","yes","FlankerTask.osexp","/Users/suzannejosey","no","mono","no","18","no","white","no","yes","768","legacy","25","79","/Users/suzannejosey/subject-2.csv","legacy","Lentiform Loewenfeld","3.3.3","0","s","NA","h","h","NA","s","371","NA","623708","7646","NA","371","2","legacy","1024","2","48000","-16","experiment","SSSSS","2","even","816590","626700","773990","NA","801501","2961","780178","NA","817664","2973","766342","NA","817779","818151","817653","817779","Flanker Task","101","53882","106","yes","1024"
"95.32710280373831","95.32710280373831","509.5607476635514","509.5607476635514","black","legacy","legacy","legacy","0","incongruent","uniform","1","undefined","1","h","106","0","0","0","106","0","106","0","106","0","0","0","106","106","106","106","Sat Sep 26 14:00:28 2020","600","The main experiment item","yes","FlankerTask.osexp","/Users/suzannejosey","no","mono","no","18","no","white","no","yes","768","legacy","26","79","/Users/suzannejosey/subject-2.csv","legacy","Lentiform Loewenfeld","3.3.3","0","h","NA","h","h","NA","h","641","NA","623708","7646","NA","641","2","legacy","1024","2","48000","-16","experiment","SSHSS","2","even","818164","626700","773990","NA","801501","2961","780178","NA","819238","2973","766342","NA","819352","819994","819226","819352","Flanker Task","102","54523","107","yes","1024"
"95.37037037037037","95.37037037037037","509.00925925925924","509.00925925925924","black","legacy","legacy","legacy","0","congruent","uniform","1","undefined","1","s","107","0","0","0","107","0","107","0","107","0","0","0","107","107","107","107","Sat Sep 26 14:00:28 2020","600","The main experiment item","yes","FlankerTask.osexp","/Users/suzannejosey","no","mono","no","18","no","white","no","yes","768","legacy","27","79","/Users/suzannejosey/subject-2.csv","legacy","Lentiform Loewenfeld","3.3.3","0","s","NA","h","h","NA","s","450","NA","623708","7646","NA","450","2","legacy","1024","2","48000","-16","experiment","SSSSS","2","even","820519","626700","773990","NA","801501","2961","820007","NA","821593","2973","766342","NA","821707","822158","821581","821707","Flanker Task","103","54973","108","yes","1024"
"95.41284403669725","95.41284403669725","508.04587155963304","508.04587155963304","black","legacy","legacy","legacy","0","incongruent","uniform","1","undefined","1","h","108","0","0","0","108","0","108","0","108","0","0","0","108","108","108","108","Sat Sep 26 14:00:28 2020","600","The main experiment item","yes","FlankerTask.osexp","/Users/suzannejosey","no","mono","no","18","no","white","no","yes","768","legacy","28","79","/Users/suzannejosey/subject-2.csv","legacy","Lentiform Loewenfeld","3.3.3","0","h","NA","h","h","NA","h","404","NA","623708","7646","NA","404","2","legacy","1024","2","48000","-16","experiment","SSHSS","2","even","822171","626700","773990","NA","801501","2961","820007","NA","823243","2973","766342","NA","823357","823762","823232","823357","Flanker Task","104","55377","109","yes","1024"
"95.45454545454545","95.45454545454545","507.4909090909091","507.4909090909091","black","legacy","legacy","legacy","0","congruent","uniform","1","undefined","1","s","109","0","0","0","109","0","109","0","109","0","0","0","109","109","109","109","Sat Sep 26 14:00:28 2020","600","The main experiment item","yes","FlankerTask.osexp","/Users/suzannejosey","no","mono","no","18","no","white","no","yes","768","legacy","29","79","/Users/suzannejosey/subject-2.csv","legacy","Lentiform Loewenfeld","3.3.3","0","s","NA","h","h","NA","s","447","NA","623708","7646","NA","447","2","legacy","1024","2","48000","-16","experiment","SSSSS","2","even","823775","626700","773990","NA","801501","2961","820007","NA","824851","2973","766342","NA","824965","825413","824839","824965","Flanker Task","105","55824","110","yes","1024"
"94.5945945945946","94.5945945945946","506.22522522522524","506.22522522522524","black","legacy","legacy","legacy","0","congruent","uniform","0","undefined","0","s","110","0","0","0","110","0","110","0","110","0","0","0","110","110","110","110","Sat Sep 26 14:00:28 2020","600","The main experiment item","yes","FlankerTask.osexp","/Users/suzannejosey","no","mono","no","18","no","white","no","yes","768","legacy","30","79","/Users/suzannejosey/subject-2.csv","legacy","Lentiform Loewenfeld","3.3.3","0","h","NA","h","h","NA","h","367","NA","623708","7646","NA","367","2","legacy","1024","2","48000","-16","experiment","SSSSS","2","even","825426","626700","773990","NA","801501","2961","820007","NA","826501","2973","766342","NA","826616","826984","826489","826616","Flanker Task","105","56191","111","yes","1024"
"94.64285714285714","94.64285714285714","506.41964285714283","506.41964285714283","black","legacy","legacy","legacy","0","incongruent","uniform","1","undefined","1","h","111","0","0","0","111","0","111","0","111","0","0","0","111","111","111","111","Sat Sep 26 14:00:28 2020","600","The main experiment item","yes","FlankerTask.osexp","/Users/suzannejosey","no","mono","no","18","no","white","no","yes","768","legacy","31","79","/Users/suzannejosey/subject-2.csv","legacy","Lentiform Loewenfeld","3.3.3","0","h","NA","h","h","NA","h","528","NA","623708","7646","NA","528","2","legacy","1024","2","48000","-16","experiment","SSHSS","2","even","827509","626700","773990","NA","826997","2961","820007","NA","828585","2973","766342","NA","828699","829228","828574","828699","Flanker Task","106","56719","112","yes","1024"
"94.69026548672566","94.69026548672566","506.7433628318584","506.7433628318584","black","legacy","legacy","legacy","0","incongruent","uniform","1","undefined","1","h","112","0","0","0","112","0","112","0","112","0","0","0","112","112","112","112","Sat Sep 26 14:00:28 2020","600","The main experiment item","yes","FlankerTask.osexp","/Users/suzannejosey","no","mono","no","18","no","white","no","yes","768","legacy","32","79","/Users/suzannejosey/subject-2.csv","legacy","Lentiform Loewenfeld","3.3.3","0","h","NA","h","h","NA","h","543","NA","623708","7646","NA","543","2","legacy","1024","2","48000","-16","experiment","SSHSS","2","even","829241","626700","773990","NA","826997","2961","820007","NA","830315","2973","766342","NA","830429","830973","830304","830429","Flanker Task","107","57262","113","yes","1024"
"94.73684210526316","94.73684210526316","505.7894736842105","505.7894736842105","black","legacy","legacy","legacy","0","incongruent","uniform","1","undefined","1","h","113","0","0","0","113","0","113","0","113","0","0","0","113","113","113","113","Sat Sep 26 14:00:28 2020","600","The main experiment item","yes","FlankerTask.osexp","/Users/suzannejosey","no","mono","no","18","no","white","no","yes","768","legacy","33","79","/Users/suzannejosey/subject-2.csv","legacy","Lentiform Loewenfeld","3.3.3","0","h","NA","h","h","NA","h","398","NA","623708","7646","NA","398","2","legacy","1024","2","48000","-16","experiment","SSHSS","2","even","830985","626700","773990","NA","826997","2961","820007","NA","832059","2973","766342","NA","832173","832573","832047","832173","Flanker Task","108","57660","114","yes","1024"
"94.78260869565217","94.78260869565217","504.495652173913","504.495652173913","black","legacy","legacy","legacy","0","congruent","uniform","1","undefined","1","h","114","0","0","0","114","0","114","0","114","0","0","0","114","114","114","114","Sat Sep 26 14:00:28 2020","600","The main experiment item","yes","FlankerTask.osexp","/Users/suzannejosey","no","mono","no","18","no","white","no","yes","768","legacy","34","79","/Users/suzannejosey/subject-2.csv","legacy","Lentiform Loewenfeld","3.3.3","0","h","NA","h","h","NA","h","357","NA","623708","7646","NA","357","2","legacy","1024","2","48000","-16","experiment","HHHHH","2","even","832585","626700","773990","NA","826997","2961","820007","NA","833659","2973","766342","NA","833773","834132","833648","833773","Flanker Task","109","58017","115","yes","1024"
"94.82758620689656","94.82758620689656","503.37068965517244","503.37068965517244","black","legacy","legacy","legacy","0","congruent","uniform","1","undefined","1","h","115","0","0","0","115","0","115","0","115","0","0","0","115","115","115","115","Sat Sep 26 14:00:28 2020","600","The main experiment item","yes","FlankerTask.osexp","/Users/suzannejosey","no","mono","no","18","no","white","no","yes","768","legacy","35","79","/Users/suzannejosey/subject-2.csv","legacy","Lentiform Loewenfeld","3.3.3","0","h","NA","h","h","NA","h","374","NA","623708","7646","NA","374","2","legacy","1024","2","48000","-16","experiment","HHHHH","2","even","834145","626700","773990","NA","826997","2961","820007","NA","835231","2973","766342","NA","835345","835721","835220","835345","Flanker Task","110","58391","116","yes","1024"
"94.87179487179488","94.87179487179488","503.5982905982906","503.5982905982906","black","legacy","legacy","legacy","0","congruent","uniform","1","undefined","1","s","116","0","0","0","116","0","116","0","116","0","0","0","116","116","116","116","Sat Sep 26 14:00:28 2020","600","The main experiment item","yes","FlankerTask.osexp","/Users/suzannejosey","no","mono","no","18","no","white","no","yes","768","legacy","36","79","/Users/suzannejosey/subject-2.csv","legacy","Lentiform Loewenfeld","3.3.3","0","s","NA","h","h","NA","s","530","NA","623708","7646","NA","530","2","legacy","1024","2","48000","-16","experiment","SSSSS","2","even","835734","626700","773990","NA","826997","2961","820007","NA","836807","2973","766342","NA","836921","837453","836795","836921","Flanker Task","111","58921","117","yes","1024"
"94.91525423728814","94.91525423728814","503.2881355932203","503.2881355932203","black","legacy","legacy","legacy","0","congruent","uniform","1","undefined","1","s","117","0","0","0","117","0","117","0","117","0","0","0","117","117","117","117","Sat Sep 26 14:00:28 2020","600","The main experiment item","yes","FlankerTask.osexp","/Users/suzannejosey","no","mono","no","18","no","white","no","yes","768","legacy","37","79","/Users/suzannejosey/subject-2.csv","legacy","Lentiform Loewenfeld","3.3.3","0","s","NA","h","h","NA","s","467","NA","623708","7646","NA","467","2","legacy","1024","2","48000","-16","experiment","SSSSS","2","even","837466","626700","773990","NA","826997","2961","820007","NA","838540","2973","766342","NA","838655","839124","838529","838655","Flanker Task","112","59388","118","yes","1024"
"94.11764705882354","94.11764705882354","511.66386554621846","511.66386554621846","black","legacy","legacy","legacy","0","congruent","uniform","0","undefined","0","s","118","0","0","0","118","0","118","0","118","0","0","0","118","118","118","118","Sat Sep 26 14:00:28 2020","600","The main experiment item","yes","FlankerTask.osexp","/Users/suzannejosey","no","mono","no","18","no","white","no","yes","768","legacy","38","79","/Users/suzannejosey/subject-2.csv","legacy","Lentiform Loewenfeld","3.3.3","0","None","NA","h","h","NA","None","1500","NA","623708","7646","NA","1500","2","legacy","1024","2","48000","-16","experiment","SSSSS","2","even","839136","626700","773990","NA","826997","2961","820007","NA","840211","2973","766342","NA","840324","841824","840199","840324","Flanker Task","112","60888","119","yes","1024"
"94.16666666666667","94.16666666666667","511.10833333333335","511.10833333333335","black","legacy","legacy","legacy","0","incongruent","uniform","1","undefined","1","h","119","0","0","0","119","0","119","0","119","0","0","0","119","119","119","119","Sat Sep 26 14:00:28 2020","600","The main experiment item","yes","FlankerTask.osexp","/Users/suzannejosey","no","mono","no","18","no","white","no","yes","768","legacy","39","79","/Users/suzannejosey/subject-2.csv","legacy","Lentiform Loewenfeld","3.3.3","0","h","NA","h","h","NA","h","445","NA","623708","7646","NA","445","2","legacy","1024","2","48000","-16","experiment","SSHSS","2","even","842863","626700","773990","NA","841837","2961","842350","NA","843937","2973","766342","NA","844051","844498","843926","844050","Flanker Task","113","61333","120","yes","1024"
"94.21487603305785","94.21487603305785","509.5123966942149","509.5123966942149","black","legacy","legacy","legacy","0","congruent","uniform","1","undefined","1","h","120","0","0","0","120","0","120","0","120","0","0","0","120","120","120","120","Sat Sep 26 14:00:28 2020","600","The main experiment item","yes","FlankerTask.osexp","/Users/suzannejosey","no","mono","no","18","no","white","no","yes","768","legacy","40","79","/Users/suzannejosey/subject-2.csv","legacy","Lentiform Loewenfeld","3.3.3","0","h","NA","h","h","NA","h","318","NA","623708","7646","NA","318","2","legacy","1024","2","48000","-16","experiment","HHHHH","2","even","844510","626700","773990","NA","841837","2961","842350","NA","845586","2973","766342","NA","845700","846020","845574","845700","Flanker Task","114","61651","121","yes","1024"
"94.26229508196721","94.26229508196721","509.3360655737705","509.3360655737705","black","legacy","legacy","legacy","0","incongruent","uniform","1","undefined","1","h","121","0","0","0","121","0","121","0","121","0","0","0","121","121","121","121","Sat Sep 26 14:00:28 2020","600","The main experiment item","yes","FlankerTask.osexp","/Users/suzannejosey","no","mono","no","18","no","white","no","yes","768","legacy","41","79","/Users/suzannejosey/subject-2.csv","legacy","Lentiform Loewenfeld","3.3.3","0","h","NA","h","h","NA","h","488","NA","623708","7646","NA","488","2","legacy","1024","2","48000","-16","experiment","SSHSS","2","even","846032","626700","773990","NA","841837","2961","842350","NA","847106","2973","766342","NA","847219","847709","847094","847219","Flanker Task","115","62139","122","yes","1024"
"94.3089430894309","94.3089430894309","508.2845528455285","508.2845528455285","black","legacy","legacy","legacy","0","incongruent","uniform","1","undefined","1","h","122","0","0","0","122","0","122","0","122","0","0","0","122","122","122","122","Sat Sep 26 14:00:28 2020","600","The main experiment item","yes","FlankerTask.osexp","/Users/suzannejosey","no","mono","no","18","no","white","no","yes","768","legacy","42","79","/Users/suzannejosey/subject-2.csv","legacy","Lentiform Loewenfeld","3.3.3","0","h","NA","h","h","NA","h","380","NA","623708","7646","NA","380","2","legacy","1024","2","48000","-16","experiment","SSHSS","2","even","847722","626700","773990","NA","841837","2961","842350","NA","848795","2973","766342","NA","848909","849290","848783","848909","Flanker Task","116","62519","123","yes","1024"
"93.54838709677419","93.54838709677419","507.1209677419355","507.1209677419355","black","legacy","legacy","legacy","0","incongruent","uniform","0","undefined","0","s","123","0","0","0","123","0","123","0","123","0","0","0","123","123","123","123","Sat Sep 26 14:00:28 2020","600","The main experiment item","yes","FlankerTask.osexp","/Users/suzannejosey","no","mono","no","18","no","white","no","yes","768","legacy","43","79","/Users/suzannejosey/subject-2.csv","legacy","Lentiform Loewenfeld","3.3.3","0","h","NA","h","h","NA","h","364","NA","623708","7646","NA","364","2","legacy","1024","2","48000","-16","experiment","HHSHH","2","even","849304","626700","773990","NA","841837","2961","842350","NA","850378","2973","766342","NA","850491","850857","850366","850491","Flanker Task","116","62883","124","yes","1024"
"93.6","93.6","506.952","506.952","black","legacy","legacy","legacy","0","congruent","uniform","1","undefined","1","h","124","0","0","0","124","0","124","0","124","0","0","0","124","124","124","124","Sat Sep 26 14:00:28 2020","600","The main experiment item","yes","FlankerTask.osexp","/Users/suzannejosey","no","mono","no","18","no","white","no","yes","768","legacy","44","79","/Users/suzannejosey/subject-2.csv","legacy","Lentiform Loewenfeld","3.3.3","0","h","NA","h","h","NA","h","486","NA","623708","7646","NA","486","2","legacy","1024","2","48000","-16","experiment","HHHHH","2","even","851383","626700","773990","NA","850870","2961","842350","NA","852455","2973","766342","NA","852570","853058","852443","852570","Flanker Task","117","63369","125","yes","1024"
