"acc","accuracy","average_response_time","avg_rt","background","canvas_backend","clock_backend","color_backend","compensation","condition","coordinates","correct","correct_instructions1","correct_keyboard_response","correct_response","count_ISI","count_block1","count_block2","count_block3","count_errorFeedback","count_experiment","count_faster","count_fixation","count_instructions1","count_instructions2","count_instructions3","count_keyboard_response","count_logger","count_sequence","count_stimulus","datetime","deadline","description","disable_garbage_collection","experiment_file","experiment_path","font_bold","font_family","font_italic","font_size","font_underline","foreground","form_clicks","fullscreen","height","keyboard_backend","live_row","live_row_block1","logfile","mouse_backend","opensesame_codename","opensesame_version","repeat_cycle","response","response_instructions1","response_instructions2","response_instructions3","response_keyboard_response","response_time","response_time_instructions1","response_time_instructions2","response_time_instructions3","response_time_keyboard_response","round_decimals","sampler_backend","sound_buf_size","sound_channels","sound_freq","sound_sample_size","start","stimulus","subject_nr","subject_parity","time_ISI","time_block1","time_block2","time_block3","time_errorFeedback","time_experiment","time_faster","time_fixation","time_instructions1","time_instructions2","time_instructions3","time_keyboard_response","time_logger","time_sequence","time_stimulus","title","total_correct","total_response_time","total_responses","uniform_coordinates","width"
"100","100","655","655","black","legacy","legacy","legacy","0","congruent","uniform","1","undefined","1","s","0","0","0","0","0","0","0","0","0","0","0","0","0","0","0","Sun Sep 27 15:54:33 2020","1500","The main experiment item","yes","FlankerTask.osexp","C:\Users\chris\OneDrive\Desktop\lab","no","mono","no","18","no","white","no","yes","768","legacy","0","0","C:/Users/chris/OneDrive/Desktop/lab/CM-subject-3.csv","legacy","Lentiform Loewenfeld","3.3.3","0","s","h","NA","NA","s","655","19313","NA","NA","655","2","legacy","1024","2","48000","-16","experiment","SSSSS","3","odd","NA","22691","NA","NA","NA","3373","NA","22874","3377","NA","NA","22979","23634","22870","22979","Flanker Task","1","655","1","yes","1024"
"100","100","579","579","black","legacy","legacy","legacy","0","congruent","uniform","1","undefined","1","h","1","0","0","0","1","0","1","1","0","0","0","1","1","1","1","Sun Sep 27 15:54:33 2020","1500","The main experiment item","yes","FlankerTask.osexp","C:\Users\chris\OneDrive\Desktop\lab","no","mono","no","18","no","white","no","yes","768","legacy","1","1","C:/Users/chris/OneDrive/Desktop/lab/CM-subject-3.csv","legacy","Lentiform Loewenfeld","3.3.3","0","h","h","NA","NA","h","503","19313","NA","NA","503","2","legacy","1024","2","48000","-16","experiment","HHHHH","3","odd","23648","22691","NA","NA","NA","3373","NA","24816","3377","NA","NA","24922","25425","24814","24922","Flanker Task","2","1158","2","yes","1024"
"100","100","568.6666666666666","568.6666666666666","black","legacy","legacy","legacy","0","incongruent","uniform","1","undefined","1","h","2","0","0","0","2","0","2","2","0","0","0","2","2","2","2","Sun Sep 27 15:54:33 2020","1500","The main experiment item","yes","FlankerTask.osexp","C:\Users\chris\OneDrive\Desktop\lab","no","mono","no","18","no","white","no","yes","768","legacy","2","2","C:/Users/chris/OneDrive/Desktop/lab/CM-subject-3.csv","legacy","Lentiform Loewenfeld","3.3.3","0","h","h","NA","NA","h","548","19313","NA","NA","548","2","legacy","1024","2","48000","-16","experiment","SSHSS","3","odd","25435","22691","NA","NA","NA","3373","NA","26576","3377","NA","NA","26683","27231","26573","26683","Flanker Task","3","1706","3","yes","1024"
"100","100","537","537","black","legacy","legacy","legacy","0","incongruent","uniform","1","undefined","1","h","3","0","0","0","3","0","3","3","0","0","0","3","3","3","3","Sun Sep 27 15:54:33 2020","1500","The main experiment item","yes","FlankerTask.osexp","C:\Users\chris\OneDrive\Desktop\lab","no","mono","no","18","no","white","no","yes","768","legacy","3","3","C:/Users/chris/OneDrive/Desktop/lab/CM-subject-3.csv","legacy","Lentiform Loewenfeld","3.3.3","0","h","h","NA","NA","h","442","19313","NA","NA","442","2","legacy","1024","2","48000","-16","experiment","SSHSS","3","odd","27236","22691","NA","NA","NA","3373","NA","28362","3377","NA","NA","28467","28910","28359","28467","Flanker Task","4","2148","4","yes","1024"
"100","100","532.4","532.4","black","legacy","legacy","legacy","0","incongruent","uniform","1","undefined","1","s","4","0","0","0","4","0","4","4","0","0","0","4","4","4","4","Sun Sep 27 15:54:33 2020","1500","The main experiment item","yes","FlankerTask.osexp","C:\Users\chris\OneDrive\Desktop\lab","no","mono","no","18","no","white","no","yes","768","legacy","4","4","C:/Users/chris/OneDrive/Desktop/lab/CM-subject-3.csv","legacy","Lentiform Loewenfeld","3.3.3","0","s","h","NA","NA","s","514","19313","NA","NA","514","2","legacy","1024","2","48000","-16","experiment","HHSHH","3","odd","28923","22691","NA","NA","NA","3373","NA","30054","3377","NA","NA","30159","30675","30052","30159","Flanker Task","5","2662","5","yes","1024"
"83.33333333333333","83.33333333333333","514.6666666666666","514.6666666666666","black","legacy","legacy","legacy","0","congruent","uniform","0","undefined","0","s","5","0","0","0","5","0","5","5","0","0","0","5","5","5","5","Sun Sep 27 15:54:33 2020","1500","The main experiment item","yes","FlankerTask.osexp","C:\Users\chris\OneDrive\Desktop\lab","no","mono","no","18","no","white","no","yes","768","legacy","5","5","C:/Users/chris/OneDrive/Desktop/lab/CM-subject-3.csv","legacy","Lentiform Loewenfeld","3.3.3","0","h","h","NA","NA","h","426","19313","NA","NA","426","2","legacy","1024","2","48000","-16","experiment","SSSSS","3","odd","30691","22691","NA","NA","NA","3373","NA","31854","3377","NA","NA","31959","32386","31852","31959","Flanker Task","5","3088","6","yes","1024"
"85.71428571428571","85.71428571428571","521.5714285714286","521.5714285714286","black","legacy","legacy","legacy","0","congruent","uniform","1","undefined","1","h","6","0","0","0","6","0","6","6","0","0","0","6","6","6","6","Sun Sep 27 15:54:33 2020","1500","The main experiment item","yes","FlankerTask.osexp","C:\Users\chris\OneDrive\Desktop\lab","no","mono","no","18","no","white","no","yes","768","legacy","6","6","C:/Users/chris/OneDrive/Desktop/lab/CM-subject-3.csv","legacy","Lentiform Loewenfeld","3.3.3","0","h","h","NA","NA","h","563","19313","NA","NA","563","2","legacy","1024","2","48000","-16","experiment","HHHHH","3","odd","32905","22691","NA","NA","32398","3373","NA","34054","3377","NA","NA","34159","34723","34051","34159","Flanker Task","6","3651","7","yes","1024"
"87.5","87.5","519","519","black","legacy","legacy","legacy","0","incongruent","uniform","1","undefined","1","s","7","0","0","0","7","0","7","7","0","0","0","7","7","7","7","Sun Sep 27 15:54:33 2020","1500","The main experiment item","yes","FlankerTask.osexp","C:\Users\chris\OneDrive\Desktop\lab","no","mono","no","18","no","white","no","yes","768","legacy","7","7","C:/Users/chris/OneDrive/Desktop/lab/CM-subject-3.csv","legacy","Lentiform Loewenfeld","3.3.3","0","s","h","NA","NA","s","501","19313","NA","NA","501","2","legacy","1024","2","48000","-16","experiment","HHSHH","3","odd","34732","22691","NA","NA","32398","3373","NA","35865","3377","NA","NA","35970","36471","35862","35970","Flanker Task","7","4152","8","yes","1024"
"88.88888888888889","88.88888888888889","515","515","black","legacy","legacy","legacy","0","congruent","uniform","1","undefined","1","h","8","0","0","0","8","0","8","8","0","0","0","8","8","8","8","Sun Sep 27 15:54:33 2020","1500","The main experiment item","yes","FlankerTask.osexp","C:\Users\chris\OneDrive\Desktop\lab","no","mono","no","18","no","white","no","yes","768","legacy","8","8","C:/Users/chris/OneDrive/Desktop/lab/CM-subject-3.csv","legacy","Lentiform Loewenfeld","3.3.3","0","h","h","NA","NA","h","483","19313","NA","NA","483","2","legacy","1024","2","48000","-16","experiment","HHHHH","3","odd","36480","22691","NA","NA","32398","3373","NA","37610","3377","NA","NA","37715","38198","37608","37715","Flanker Task","8","4635","9","yes","1024"
"80","80","518.2","518.2","black","legacy","legacy","legacy","0","incongruent","uniform","0","undefined","0","h","9","0","0","0","9","0","9","9","0","0","0","9","9","9","9","Sun Sep 27 15:54:33 2020","1500","The main experiment item","yes","FlankerTask.osexp","C:\Users\chris\OneDrive\Desktop\lab","no","mono","no","18","no","white","no","yes","768","legacy","9","9","C:/Users/chris/OneDrive/Desktop/lab/CM-subject-3.csv","legacy","Lentiform Loewenfeld","3.3.3","0","s","h","NA","NA","s","547","19313","NA","NA","547","2","legacy","1024","2","48000","-16","experiment","SSHSS","3","odd","38211","22691","NA","NA","32398","3373","NA","39376","3377","NA","NA","39479","40028","39374","39479","Flanker Task","8","5182","10","yes","1024"
"81.81818181818181","81.81818181818181","518.8181818181819","518.8181818181819","black","legacy","legacy","legacy","0","incongruent","uniform","1","undefined","1","s","10","0","0","0","10","0","10","10","0","0","0","10","10","10","10","Sun Sep 27 15:54:33 2020","1500","The main experiment item","yes","FlankerTask.osexp","C:\Users\chris\OneDrive\Desktop\lab","no","mono","no","18","no","white","no","yes","768","legacy","10","10","C:/Users/chris/OneDrive/Desktop/lab/CM-subject-3.csv","legacy","Lentiform Loewenfeld","3.3.3","0","s","h","NA","NA","s","525","19313","NA","NA","525","2","legacy","1024","2","48000","-16","experiment","HHSHH","3","odd","40548","22691","NA","NA","40043","3373","NA","41664","3377","NA","NA","41769","42294","41662","41769","Flanker Task","9","5707","11","yes","1024"
"83.33333333333333","83.33333333333333","511.75","511.75","black","legacy","legacy","legacy","0","congruent","uniform","1","undefined","1","s","11","0","0","0","11","0","11","11","0","0","0","11","11","11","11","Sun Sep 27 15:54:33 2020","1500","The main experiment item","yes","FlankerTask.osexp","C:\Users\chris\OneDrive\Desktop\lab","no","mono","no","18","no","white","no","yes","768","legacy","11","11","C:/Users/chris/OneDrive/Desktop/lab/CM-subject-3.csv","legacy","Lentiform Loewenfeld","3.3.3","0","s","h","NA","NA","s","434","19313","NA","NA","434","2","legacy","1024","2","48000","-16","experiment","SSSSS","3","odd","42306","22691","NA","NA","40043","3373","NA","43416","3377","NA","NA","43522","43956","43413","43521","Flanker Task","10","6141","12","yes","1024"
"84.61538461538461","84.61538461538461","508.7692307692308","508.7692307692308","black","legacy","legacy","legacy","0","congruent","uniform","1","undefined","1","h","12","0","0","0","12","0","12","12","0","0","0","12","12","12","12","Sun Sep 27 15:54:33 2020","1500","The main experiment item","yes","FlankerTask.osexp","C:\Users\chris\OneDrive\Desktop\lab","no","mono","no","18","no","white","no","yes","768","legacy","12","12","C:/Users/chris/OneDrive/Desktop/lab/CM-subject-3.csv","legacy","Lentiform Loewenfeld","3.3.3","0","h","h","NA","NA","h","473","19313","NA","NA","473","2","legacy","1024","2","48000","-16","experiment","HHHHH","3","odd","43967","22691","NA","NA","40043","3373","NA","45089","3377","NA","NA","45194","45668","45087","45194","Flanker Task","11","6614","13","yes","1024"
"85.71428571428571","85.71428571428571","510.57142857142856","510.57142857142856","black","legacy","legacy","legacy","0","congruent","uniform","1","undefined","1","s","13","0","0","0","13","0","13","13","0","0","0","13","13","13","13","Sun Sep 27 15:54:33 2020","1500","The main experiment item","yes","FlankerTask.osexp","C:\Users\chris\OneDrive\Desktop\lab","no","mono","no","18","no","white","no","yes","768","legacy","13","13","C:/Users/chris/OneDrive/Desktop/lab/CM-subject-3.csv","legacy","Lentiform Loewenfeld","3.3.3","0","s","h","NA","NA","s","534","19313","NA","NA","534","2","legacy","1024","2","48000","-16","experiment","SSSSS","3","odd","45677","22691","NA","NA","40043","3373","NA","46841","3377","NA","NA","46946","47481","46838","46946","Flanker Task","12","7148","14","yes","1024"
"86.66666666666667","86.66666666666667","513.6666666666666","513.6666666666666","black","legacy","legacy","legacy","0","congruent","uniform","1","undefined","1","s","14","0","0","0","14","0","14","14","0","0","0","14","14","14","14","Sun Sep 27 15:54:33 2020","1500","The main experiment item","yes","FlankerTask.osexp","C:\Users\chris\OneDrive\Desktop\lab","no","mono","no","18","no","white","no","yes","768","legacy","14","14","C:/Users/chris/OneDrive/Desktop/lab/CM-subject-3.csv","legacy","Lentiform Loewenfeld","3.3.3","0","s","h","NA","NA","s","557","19313","NA","NA","557","2","legacy","1024","2","48000","-16","experiment","SSSSS","3","odd","47496","22691","NA","NA","40043","3373","NA","48671","3377","NA","NA","48776","49334","48668","48776","Flanker Task","13","7705","15","yes","1024"
"87.5","87.5","516","516","black","legacy","legacy","legacy","0","congruent","uniform","1","undefined","1","h","15","0","0","0","15","0","15","15","0","0","0","15","15","15","15","Sun Sep 27 15:54:33 2020","1500","The main experiment item","yes","FlankerTask.osexp","C:\Users\chris\OneDrive\Desktop\lab","no","mono","no","18","no","white","no","yes","768","legacy","15","15","C:/Users/chris/OneDrive/Desktop/lab/CM-subject-3.csv","legacy","Lentiform Loewenfeld","3.3.3","0","h","h","NA","NA","h","551","19313","NA","NA","551","2","legacy","1024","2","48000","-16","experiment","HHHHH","3","odd","49349","22691","NA","NA","40043","3373","NA","50556","3377","NA","NA","50661","51214","50553","50661","Flanker Task","14","8256","16","yes","1024"
"88.23529411764706","88.23529411764706","509.94117647058823","509.94117647058823","black","legacy","legacy","legacy","0","incongruent","uniform","1","undefined","1","s","16","0","0","0","16","0","16","16","0","0","0","16","16","16","16","Sun Sep 27 15:54:33 2020","1500","The main experiment item","yes","FlankerTask.osexp","C:\Users\chris\OneDrive\Desktop\lab","no","mono","no","18","no","white","no","yes","768","legacy","16","16","C:/Users/chris/OneDrive/Desktop/lab/CM-subject-3.csv","legacy","Lentiform Loewenfeld","3.3.3","0","s","h","NA","NA","s","413","19313","NA","NA","413","2","legacy","1024","2","48000","-16","experiment","HHSHH","3","odd","51229","22691","NA","NA","40043","3373","NA","52378","3377","NA","NA","52484","52897","52376","52483","Flanker Task","15","8669","17","yes","1024"
"83.33333333333333","83.33333333333333","508.3333333333333","508.3333333333333","black","legacy","legacy","legacy","0","incongruent","uniform","0","undefined","0","h","17","0","0","0","17","0","17","17","0","0","0","17","17","17","17","Sun Sep 27 15:54:33 2020","1500","The main experiment item","yes","FlankerTask.osexp","C:\Users\chris\OneDrive\Desktop\lab","no","mono","no","18","no","white","no","yes","768","legacy","17","17","C:/Users/chris/OneDrive/Desktop/lab/CM-subject-3.csv","legacy","Lentiform Loewenfeld","3.3.3","0","s","h","NA","NA","s","481","19313","NA","NA","481","2","legacy","1024","2","48000","-16","experiment","SSHSS","3","odd","52906","22691","NA","NA","40043","3373","NA","54029","3377","NA","NA","54134","54615","54026","54134","Flanker Task","15","9150","18","yes","1024"
"84.21052631578948","84.21052631578948","507.6842105263158","507.6842105263158","black","legacy","legacy","legacy","0","congruent","uniform","1","undefined","1","h","18","0","0","0","18","0","18","18","0","0","0","18","18","18","18","Sun Sep 27 15:54:33 2020","1500","The main experiment item","yes","FlankerTask.osexp","C:\Users\chris\OneDrive\Desktop\lab","no","mono","no","18","no","white","no","yes","768","legacy","18","18","C:/Users/chris/OneDrive/Desktop/lab/CM-subject-3.csv","legacy","Lentiform Loewenfeld","3.3.3","0","h","h","NA","NA","h","496","19313","NA","NA","496","2","legacy","1024","2","48000","-16","experiment","HHHHH","3","odd","55132","22691","NA","NA","54627","3373","NA","56266","3377","NA","NA","56371","56868","56263","56371","Flanker Task","16","9646","19","yes","1024"
"85","85","512.35","512.35","black","legacy","legacy","legacy","0","incongruent","uniform","1","undefined","1","s","19","0","0","0","19","0","19","19","0","0","0","19","19","19","19","Sun Sep 27 15:54:33 2020","1500","The main experiment item","yes","FlankerTask.osexp","C:\Users\chris\OneDrive\Desktop\lab","no","mono","no","18","no","white","no","yes","768","legacy","19","19","C:/Users/chris/OneDrive/Desktop/lab/CM-subject-3.csv","legacy","Lentiform Loewenfeld","3.3.3","0","s","h","NA","NA","s","601","19313","NA","NA","601","2","legacy","1024","2","48000","-16","experiment","HHSHH","3","odd","56879","22691","NA","NA","54627","3373","NA","58012","3377","NA","NA","58117","58719","58009","58117","Flanker Task","17","10247","20","yes","1024"
"85.71428571428571","85.71428571428571","507.3809523809524","507.3809523809524","black","legacy","legacy","legacy","0","congruent","uniform","1","undefined","1","s","20","0","0","0","20","0","20","20","0","0","0","20","20","20","20","Sun Sep 27 15:54:33 2020","1500","The main experiment item","yes","FlankerTask.osexp","C:\Users\chris\OneDrive\Desktop\lab","no","mono","no","18","no","white","no","yes","768","legacy","20","20","C:/Users/chris/OneDrive/Desktop/lab/CM-subject-3.csv","legacy","Lentiform Loewenfeld","3.3.3","0","s","h","NA","NA","s","408","19313","NA","NA","408","2","legacy","1024","2","48000","-16","experiment","SSSSS","3","odd","58732","22691","NA","NA","54627","3373","NA","59868","3377","NA","NA","59973","60382","59865","59973","Flanker Task","18","10655","21","yes","1024"
"86.36363636363636","86.36363636363636","506.5","506.5","black","legacy","legacy","legacy","0","congruent","uniform","1","undefined","1","h","21","0","0","0","21","0","21","21","0","0","0","21","21","21","21","Sun Sep 27 15:54:33 2020","1500","The main experiment item","yes","FlankerTask.osexp","C:\Users\chris\OneDrive\Desktop\lab","no","mono","no","18","no","white","no","yes","768","legacy","21","21","C:/Users/chris/OneDrive/Desktop/lab/CM-subject-3.csv","legacy","Lentiform Loewenfeld","3.3.3","0","h","h","NA","NA","h","488","19313","NA","NA","488","2","legacy","1024","2","48000","-16","experiment","HHHHH","3","odd","60394","22691","NA","NA","54627","3373","NA","61547","3377","NA","NA","61653","62142","61544","61652","Flanker Task","19","11143","22","yes","1024"
"86.95652173913044","86.95652173913044","504.8695652173913","504.8695652173913","black","legacy","legacy","legacy","0","congruent","uniform","1","undefined","1","s","22","0","0","0","22","0","22","22","0","0","0","22","22","22","22","Sun Sep 27 15:54:33 2020","1500","The main experiment item","yes","FlankerTask.osexp","C:\Users\chris\OneDrive\Desktop\lab","no","mono","no","18","no","white","no","yes","768","legacy","22","22","C:/Users/chris/OneDrive/Desktop/lab/CM-subject-3.csv","legacy","Lentiform Loewenfeld","3.3.3","0","s","h","NA","NA","s","469","19313","NA","NA","469","2","legacy","1024","2","48000","-16","experiment","SSSSS","3","odd","62154","22691","NA","NA","54627","3373","NA","63275","3377","NA","NA","63380","63850","63272","63380","Flanker Task","20","11612","23","yes","1024"
"87.5","87.5","502.2083333333333","502.2083333333333","black","legacy","legacy","legacy","0","congruent","uniform","1","undefined","1","s","23","0","0","0","23","0","23","23","0","0","0","23","23","23","23","Sun Sep 27 15:54:33 2020","1500","The main experiment item","yes","FlankerTask.osexp","C:\Users\chris\OneDrive\Desktop\lab","no","mono","no","18","no","white","no","yes","768","legacy","23","23","C:/Users/chris/OneDrive/Desktop/lab/CM-subject-3.csv","legacy","Lentiform Loewenfeld","3.3.3","0","s","h","NA","NA","s","441","19313","NA","NA","441","2","legacy","1024","2","48000","-16","experiment","SSSSS","3","odd","63859","22691","NA","NA","54627","3373","NA","64990","3377","NA","NA","65095","65537","64986","65095","Flanker Task","21","12053","24","yes","1024"
"88","88","500.96","500.96","black","legacy","legacy","legacy","0","incongruent","uniform","1","undefined","1","h","24","0","0","0","24","0","24","24","0","0","0","24","24","24","24","Sun Sep 27 15:54:33 2020","1500","The main experiment item","yes","FlankerTask.osexp","C:\Users\chris\OneDrive\Desktop\lab","no","mono","no","18","no","white","no","yes","768","legacy","24","24","C:/Users/chris/OneDrive/Desktop/lab/CM-subject-3.csv","legacy","Lentiform Loewenfeld","3.3.3","0","h","h","NA","NA","h","471","19313","NA","NA","471","2","legacy","1024","2","48000","-16","experiment","SSHSS","3","odd","65551","22691","NA","NA","54627","3373","NA","66713","3377","NA","NA","66816","67288","66710","66816","Flanker Task","22","12524","25","yes","1024"
"88.46153846153847","88.46153846153847","503","503","black","legacy","legacy","legacy","0","congruent","uniform","1","undefined","1","s","25","0","0","0","25","0","25","25","0","0","0","25","25","25","25","Sun Sep 27 15:54:33 2020","1500","The main experiment item","yes","FlankerTask.osexp","C:\Users\chris\OneDrive\Desktop\lab","no","mono","no","18","no","white","no","yes","768","legacy","25","25","C:/Users/chris/OneDrive/Desktop/lab/CM-subject-3.csv","legacy","Lentiform Loewenfeld","3.3.3","0","s","h","NA","NA","s","554","19313","NA","NA","554","2","legacy","1024","2","48000","-16","experiment","SSSSS","3","odd","67294","22691","NA","NA","54627","3373","NA","68444","3377","NA","NA","68547","69103","68441","68547","Flanker Task","23","13078","26","yes","1024"
"88.88888888888889","88.88888888888889","503.8888888888889","503.8888888888889","black","legacy","legacy","legacy","0","congruent","uniform","1","undefined","1","h","26","0","0","0","26","0","26","26","0","0","0","26","26","26","26","Sun Sep 27 15:54:33 2020","1500","The main experiment item","yes","FlankerTask.osexp","C:\Users\chris\OneDrive\Desktop\lab","no","mono","no","18","no","white","no","yes","768","legacy","26","26","C:/Users/chris/OneDrive/Desktop/lab/CM-subject-3.csv","legacy","Lentiform Loewenfeld","3.3.3","0","h","h","NA","NA","h","527","19313","NA","NA","527","2","legacy","1024","2","48000","-16","experiment","HHHHH","3","odd","69110","22691","NA","NA","54627","3373","NA","70222","3377","NA","NA","70325","70853","70219","70324","Flanker Task","24","13605","27","yes","1024"
"85.71428571428571","85.71428571428571","501.60714285714283","501.60714285714283","black","legacy","legacy","legacy","0","incongruent","uniform","0","undefined","0","h","27","0","0","0","27","0","27","27","0","0","0","27","27","27","27","Sun Sep 27 15:54:33 2020","1500","The main experiment item","yes","FlankerTask.osexp","C:\Users\chris\OneDrive\Desktop\lab","no","mono","no","18","no","white","no","yes","768","legacy","27","27","C:/Users/chris/OneDrive/Desktop/lab/CM-subject-3.csv","legacy","Lentiform Loewenfeld","3.3.3","0","s","h","NA","NA","s","440","19313","NA","NA","440","2","legacy","1024","2","48000","-16","experiment","SSHSS","3","odd","70859","22691","NA","NA","54627","3373","NA","71979","3377","NA","NA","72081","72522","71976","72081","Flanker Task","24","14045","28","yes","1024"
"86.20689655172414","86.20689655172414","500.86206896551727","500.86206896551727","black","legacy","legacy","legacy","0","incongruent","uniform","1","undefined","1","h","28","0","0","0","28","0","28","28","0","0","0","28","28","28","28","Sun Sep 27 15:54:33 2020","1500","The main experiment item","yes","FlankerTask.osexp","C:\Users\chris\OneDrive\Desktop\lab","no","mono","no","18","no","white","no","yes","768","legacy","28","28","C:/Users/chris/OneDrive/Desktop/lab/CM-subject-3.csv","legacy","Lentiform Loewenfeld","3.3.3","0","h","h","NA","NA","h","480","19313","NA","NA","480","2","legacy","1024","2","48000","-16","experiment","SSHSS","3","odd","73035","22691","NA","NA","72527","3373","NA","74152","3377","NA","NA","74254","74734","74149","74253","Flanker Task","25","14525","29","yes","1024"
"83.33333333333333","83.33333333333333","497.56666666666666","497.56666666666666","black","legacy","legacy","legacy","0","congruent","uniform","0","undefined","0","h","29","0","0","0","29","0","29","29","0","0","0","29","29","29","29","Sun Sep 27 15:54:33 2020","1500","The main experiment item","yes","FlankerTask.osexp","C:\Users\chris\OneDrive\Desktop\lab","no","mono","no","18","no","white","no","yes","768","legacy","29","29","C:/Users/chris/OneDrive/Desktop/lab/CM-subject-3.csv","legacy","Lentiform Loewenfeld","3.3.3","0","s","h","NA","NA","s","402","19313","NA","NA","402","2","legacy","1024","2","48000","-16","experiment","HHHHH","3","odd","74744","22691","NA","NA","72527","3373","NA","75866","3377","NA","NA","75968","76372","75863","75968","Flanker Task","25","14927","30","yes","1024"
"83.87096774193549","83.87096774193549","496.93548387096774","496.93548387096774","black","legacy","legacy","legacy","0","congruent","uniform","1","undefined","1","h","30","0","0","0","30","0","30","30","0","0","0","30","30","30","30","Sun Sep 27 15:54:33 2020","1500","The main experiment item","yes","FlankerTask.osexp","C:\Users\chris\OneDrive\Desktop\lab","no","mono","no","18","no","white","no","yes","768","legacy","30","30","C:/Users/chris/OneDrive/Desktop/lab/CM-subject-3.csv","legacy","Lentiform Loewenfeld","3.3.3","0","h","h","NA","NA","h","478","19313","NA","NA","478","2","legacy","1024","2","48000","-16","experiment","HHHHH","3","odd","76880","22691","NA","NA","76378","3373","NA","77979","3377","NA","NA","78082","78561","77977","78082","Flanker Task","26","15405","31","yes","1024"
"84.375","84.375","495.90625","495.90625","black","legacy","legacy","legacy","0","incongruent","uniform","1","undefined","1","h","31","0","0","0","31","0","31","31","0","0","0","31","31","31","31","Sun Sep 27 15:54:33 2020","1500","The main experiment item","yes","FlankerTask.osexp","C:\Users\chris\OneDrive\Desktop\lab","no","mono","no","18","no","white","no","yes","768","legacy","31","31","C:/Users/chris/OneDrive/Desktop/lab/CM-subject-3.csv","legacy","Lentiform Loewenfeld","3.3.3","0","h","h","NA","NA","h","464","19313","NA","NA","464","2","legacy","1024","2","48000","-16","experiment","SSHSS","3","odd","78572","22691","NA","NA","76378","3373","NA","79727","3377","NA","NA","79831","80295","79724","79831","Flanker Task","27","15869","32","yes","1024"
"84.84848484848484","84.84848484848484","499.09090909090907","499.09090909090907","black","legacy","legacy","legacy","0","incongruent","uniform","1","undefined","1","s","32","0","0","0","32","0","32","32","0","0","0","32","32","32","32","Sun Sep 27 15:54:33 2020","1500","The main experiment item","yes","FlankerTask.osexp","C:\Users\chris\OneDrive\Desktop\lab","no","mono","no","18","no","white","no","yes","768","legacy","32","32","C:/Users/chris/OneDrive/Desktop/lab/CM-subject-3.csv","legacy","Lentiform Loewenfeld","3.3.3","0","s","h","NA","NA","s","601","19313","NA","NA","601","2","legacy","1024","2","48000","-16","experiment","HHSHH","3","odd","80304","22691","NA","NA","76378","3373","NA","81441","3377","NA","NA","81546","82147","81439","81546","Flanker Task","28","16470","33","yes","1024"
"85.29411764705883","85.29411764705883","496.6764705882353","496.6764705882353","black","legacy","legacy","legacy","0","congruent","uniform","1","undefined","1","h","33","0","0","0","33","0","33","33","0","0","0","33","33","33","33","Sun Sep 27 15:54:33 2020","1500","The main experiment item","yes","FlankerTask.osexp","C:\Users\chris\OneDrive\Desktop\lab","no","mono","no","18","no","white","no","yes","768","legacy","33","33","C:/Users/chris/OneDrive/Desktop/lab/CM-subject-3.csv","legacy","Lentiform Loewenfeld","3.3.3","0","h","h","NA","NA","h","417","19313","NA","NA","417","2","legacy","1024","2","48000","-16","experiment","HHHHH","3","odd","82157","22691","NA","NA","76378","3373","NA","83259","3377","NA","NA","83362","83780","83256","83362","Flanker Task","29","16887","34","yes","1024"
"82.85714285714286","82.85714285714286","497.48571428571427","497.48571428571427","black","legacy","legacy","legacy","0","incongruent","uniform","0","undefined","0","h","34","0","0","0","34","0","34","34","0","0","0","34","34","34","34","Sun Sep 27 15:54:33 2020","1500","The main experiment item","yes","FlankerTask.osexp","C:\Users\chris\OneDrive\Desktop\lab","no","mono","no","18","no","white","no","yes","768","legacy","34","34","C:/Users/chris/OneDrive/Desktop/lab/CM-subject-3.csv","legacy","Lentiform Loewenfeld","3.3.3","0","s","h","NA","NA","s","525","19313","NA","NA","525","2","legacy","1024","2","48000","-16","experiment","SSHSS","3","odd","83785","22691","NA","NA","76378","3373","NA","84909","3377","NA","NA","85011","85537","84906","85011","Flanker Task","29","17412","35","yes","1024"
"83.33333333333333","83.33333333333333","498.8888888888889","498.8888888888889","black","legacy","legacy","legacy","0","congruent","uniform","1","undefined","1","h","35","0","0","0","35","0","35","35","0","0","0","35","35","35","35","Sun Sep 27 15:54:33 2020","1500","The main experiment item","yes","FlankerTask.osexp","C:\Users\chris\OneDrive\Desktop\lab","no","mono","no","18","no","white","no","yes","768","legacy","35","35","C:/Users/chris/OneDrive/Desktop/lab/CM-subject-3.csv","legacy","Lentiform Loewenfeld","3.3.3","0","h","h","NA","NA","h","548","19313","NA","NA","548","2","legacy","1024","2","48000","-16","experiment","HHHHH","3","odd","86054","22691","NA","NA","85549","3373","NA","87175","3377","NA","NA","87281","87831","87172","87281","Flanker Task","30","17960","36","yes","1024"
"83.78378378378379","83.78378378378379","497.9189189189189","497.9189189189189","black","legacy","legacy","legacy","0","congruent","uniform","1","undefined","1","h","36","0","0","0","36","0","36","36","0","0","0","36","36","36","36","Sun Sep 27 15:54:33 2020","1500","The main experiment item","yes","FlankerTask.osexp","C:\Users\chris\OneDrive\Desktop\lab","no","mono","no","18","no","white","no","yes","768","legacy","36","36","C:/Users/chris/OneDrive/Desktop/lab/CM-subject-3.csv","legacy","Lentiform Loewenfeld","3.3.3","0","h","h","NA","NA","h","463","19313","NA","NA","463","2","legacy","1024","2","48000","-16","experiment","HHHHH","3","odd","87841","22691","NA","NA","85549","3373","NA","88955","3377","NA","NA","89060","89523","88952","89060","Flanker Task","31","18423","37","yes","1024"
"84.21052631578948","84.21052631578948","498.94736842105266","498.94736842105266","black","legacy","legacy","legacy","0","incongruent","uniform","1","undefined","1","s","37","0","0","0","37","0","37","37","0","0","0","37","37","37","37","Sun Sep 27 15:54:33 2020","1500","The main experiment item","yes","FlankerTask.osexp","C:\Users\chris\OneDrive\Desktop\lab","no","mono","no","18","no","white","no","yes","768","legacy","37","37","C:/Users/chris/OneDrive/Desktop/lab/CM-subject-3.csv","legacy","Lentiform Loewenfeld","3.3.3","0","s","h","NA","NA","s","537","19313","NA","NA","537","2","legacy","1024","2","48000","-16","experiment","HHSHH","3","odd","89533","22691","NA","NA","85549","3373","NA","90664","3377","NA","NA","90766","91304","90661","90766","Flanker Task","32","18960","38","yes","1024"
"84.61538461538461","84.61538461538461","498.28205128205127","498.28205128205127","black","legacy","legacy","legacy","0","congruent","uniform","1","undefined","1","s","38","0","0","0","38","0","38","38","0","0","0","38","38","38","38","Sun Sep 27 15:54:33 2020","1500","The main experiment item","yes","FlankerTask.osexp","C:\Users\chris\OneDrive\Desktop\lab","no","mono","no","18","no","white","no","yes","768","legacy","38","38","C:/Users/chris/OneDrive/Desktop/lab/CM-subject-3.csv","legacy","Lentiform Loewenfeld","3.3.3","0","s","h","NA","NA","s","473","19313","NA","NA","473","2","legacy","1024","2","48000","-16","experiment","SSSSS","3","odd","91309","22691","NA","NA","85549","3373","NA","92436","3377","NA","NA","92541","93017","92433","92541","Flanker Task","33","19433","39","yes","1024"
"85","85","497.975","497.975","black","legacy","legacy","legacy","0","incongruent","uniform","1","undefined","1","h","39","0","0","0","39","0","39","39","0","0","0","39","39","39","39","Sun Sep 27 15:54:33 2020","1500","The main experiment item","yes","FlankerTask.osexp","C:\Users\chris\OneDrive\Desktop\lab","no","mono","no","18","no","white","no","yes","768","legacy","39","39","C:/Users/chris/OneDrive/Desktop/lab/CM-subject-3.csv","legacy","Lentiform Loewenfeld","3.3.3","0","h","h","NA","NA","h","486","19313","NA","NA","486","2","legacy","1024","2","48000","-16","experiment","SSHSS","3","odd","93030","22691","NA","NA","85549","3373","NA","94175","3377","NA","NA","94280","94767","94173","94280","Flanker Task","34","19919","40","yes","1024"
"85.36585365853658","85.36585365853658","497.5365853658537","497.5365853658537","black","legacy","legacy","legacy","0","congruent","uniform","1","undefined","1","s","40","0","0","0","40","0","40","40","0","0","0","40","40","40","40","Sun Sep 27 15:54:33 2020","1500","The main experiment item","yes","FlankerTask.osexp","C:\Users\chris\OneDrive\Desktop\lab","no","mono","no","18","no","white","no","yes","768","legacy","40","40","C:/Users/chris/OneDrive/Desktop/lab/CM-subject-3.csv","legacy","Lentiform Loewenfeld","3.3.3","0","s","h","NA","NA","s","480","19313","NA","NA","480","2","legacy","1024","2","48000","-16","experiment","SSSSS","3","odd","94776","22691","NA","NA","85549","3373","NA","95917","3377","NA","NA","96019","96500","95914","96019","Flanker Task","35","20399","41","yes","1024"
"85.71428571428571","85.71428571428571","499.42857142857144","499.42857142857144","black","legacy","legacy","legacy","0","incongruent","uniform","1","undefined","1","h","41","0","0","0","41","0","41","41","0","0","0","41","41","41","41","Sun Sep 27 15:54:33 2020","1500","The main experiment item","yes","FlankerTask.osexp","C:\Users\chris\OneDrive\Desktop\lab","no","mono","no","18","no","white","no","yes","768","legacy","41","41","C:/Users/chris/OneDrive/Desktop/lab/CM-subject-3.csv","legacy","Lentiform Loewenfeld","3.3.3","0","h","h","NA","NA","h","577","19313","NA","NA","577","2","legacy","1024","2","48000","-16","experiment","SSHSS","3","odd","96509","22691","NA","NA","85549","3373","NA","97628","3377","NA","NA","97730","98308","97625","97730","Flanker Task","36","20976","42","yes","1024"
"86.04651162790698","86.04651162790698","499.3488372093023","499.3488372093023","black","legacy","legacy","legacy","0","incongruent","uniform","1","undefined","1","s","42","0","0","0","42","0","42","42","0","0","0","42","42","42","42","Sun Sep 27 15:54:33 2020","1500","The main experiment item","yes","FlankerTask.osexp","C:\Users\chris\OneDrive\Desktop\lab","no","mono","no","18","no","white","no","yes","768","legacy","42","42","C:/Users/chris/OneDrive/Desktop/lab/CM-subject-3.csv","legacy","Lentiform Loewenfeld","3.3.3","0","s","h","NA","NA","s","496","19313","NA","NA","496","2","legacy","1024","2","48000","-16","experiment","HHSHH","3","odd","98313","22691","NA","NA","85549","3373","NA","99417","3377","NA","NA","99519","100016","99414","99519","Flanker Task","37","21472","43","yes","1024"
"84.0909090909091","84.0909090909091","499.54545454545456","499.54545454545456","black","legacy","legacy","legacy","0","incongruent","uniform","0","undefined","0","s","43","0","0","0","43","0","43","43","0","0","0","43","43","43","43","Sun Sep 27 15:54:33 2020","1500","The main experiment item","yes","FlankerTask.osexp","C:\Users\chris\OneDrive\Desktop\lab","no","mono","no","18","no","white","no","yes","768","legacy","43","43","C:/Users/chris/OneDrive/Desktop/lab/CM-subject-3.csv","legacy","Lentiform Loewenfeld","3.3.3","0","h","h","NA","NA","h","508","19313","NA","NA","508","2","legacy","1024","2","48000","-16","experiment","HHSHH","3","odd","100025","22691","NA","NA","85549","3373","NA","101124","3377","NA","NA","101228","101737","101121","101227","Flanker Task","37","21980","44","yes","1024"
"84.44444444444444","84.44444444444444","498.6666666666667","498.6666666666667","black","legacy","legacy","legacy","0","congruent","uniform","1","undefined","1","s","44","0","0","0","44","0","44","44","0","0","0","44","44","44","44","Sun Sep 27 15:54:33 2020","1500","The main experiment item","yes","FlankerTask.osexp","C:\Users\chris\OneDrive\Desktop\lab","no","mono","no","18","no","white","no","yes","768","legacy","44","44","C:/Users/chris/OneDrive/Desktop/lab/CM-subject-3.csv","legacy","Lentiform Loewenfeld","3.3.3","0","s","h","NA","NA","s","460","19313","NA","NA","460","2","legacy","1024","2","48000","-16","experiment","SSSSS","3","odd","102245","22691","NA","NA","101743","3373","NA","103337","3377","NA","NA","103439","103900","103335","103438","Flanker Task","38","22440","45","yes","1024"
"84.78260869565217","84.78260869565217","498.10869565217394","498.10869565217394","black","legacy","legacy","legacy","0","incongruent","uniform","1","undefined","1","h","45","0","0","0","45","0","45","45","0","0","0","45","45","45","45","Sun Sep 27 15:54:33 2020","1500","The main experiment item","yes","FlankerTask.osexp","C:\Users\chris\OneDrive\Desktop\lab","no","mono","no","18","no","white","no","yes","768","legacy","45","45","C:/Users/chris/OneDrive/Desktop/lab/CM-subject-3.csv","legacy","Lentiform Loewenfeld","3.3.3","0","h","h","NA","NA","h","473","19313","NA","NA","473","2","legacy","1024","2","48000","-16","experiment","SSHSS","3","odd","103905","22691","NA","NA","101743","3373","NA","105013","3377","NA","NA","105115","105588","105010","105115","Flanker Task","39","22913","46","yes","1024"
"85.1063829787234","85.1063829787234","498.1276595744681","498.1276595744681","black","legacy","legacy","legacy","0","incongruent","uniform","1","undefined","1","s","46","0","0","0","46","0","46","46","0","0","0","46","46","46","46","Sun Sep 27 15:54:33 2020","1500","The main experiment item","yes","FlankerTask.osexp","C:\Users\chris\OneDrive\Desktop\lab","no","mono","no","18","no","white","no","yes","768","legacy","46","46","C:/Users/chris/OneDrive/Desktop/lab/CM-subject-3.csv","legacy","Lentiform Loewenfeld","3.3.3","0","s","h","NA","NA","s","499","19313","NA","NA","499","2","legacy","1024","2","48000","-16","experiment","HHSHH","3","odd","105598","22691","NA","NA","101743","3373","NA","106695","3377","NA","NA","106798","107298","106693","106798","Flanker Task","40","23412","47","yes","1024"
"85.41666666666667","85.41666666666667","497.2916666666667","497.2916666666667","black","legacy","legacy","legacy","0","incongruent","uniform","1","undefined","1","s","47","0","0","0","47","0","47","47","0","0","0","47","47","47","47","Sun Sep 27 15:54:33 2020","1500","The main experiment item","yes","FlankerTask.osexp","C:\Users\chris\OneDrive\Desktop\lab","no","mono","no","18","no","white","no","yes","768","legacy","47","47","C:/Users/chris/OneDrive/Desktop/lab/CM-subject-3.csv","legacy","Lentiform Loewenfeld","3.3.3","0","s","h","NA","NA","s","458","19313","NA","NA","458","2","legacy","1024","2","48000","-16","experiment","HHSHH","3","odd","107302","22691","NA","NA","101743","3373","NA","108407","3377","NA","NA","108510","108969","108404","108510","Flanker Task","41","23870","48","yes","1024"
"85.71428571428571","85.71428571428571","497.42857142857144","497.42857142857144","black","legacy","legacy","legacy","0","congruent","uniform","1","undefined","1","h","48","0","0","0","48","0","48","48","0","0","0","48","48","48","48","Sun Sep 27 15:54:33 2020","1500","The main experiment item","yes","FlankerTask.osexp","C:\Users\chris\OneDrive\Desktop\lab","no","mono","no","18","no","white","no","yes","768","legacy","48","48","C:/Users/chris/OneDrive/Desktop/lab/CM-subject-3.csv","legacy","Lentiform Loewenfeld","3.3.3","0","h","h","NA","NA","h","504","19313","NA","NA","504","2","legacy","1024","2","48000","-16","experiment","HHHHH","3","odd","108978","22691","NA","NA","101743","3373","NA","110074","3377","NA","NA","110177","110682","110072","110177","Flanker Task","42","24374","49","yes","1024"
"86","86","497.14","497.14","black","legacy","legacy","legacy","0","congruent","uniform","1","undefined","1","h","49","0","0","0","49","0","49","49","0","0","0","49","49","49","49","Sun Sep 27 15:54:33 2020","1500","The main experiment item","yes","FlankerTask.osexp","C:\Users\chris\OneDrive\Desktop\lab","no","mono","no","18","no","white","no","yes","768","legacy","49","49","C:/Users/chris/OneDrive/Desktop/lab/CM-subject-3.csv","legacy","Lentiform Loewenfeld","3.3.3","0","h","h","NA","NA","h","483","19313","NA","NA","483","2","legacy","1024","2","48000","-16","experiment","HHHHH","3","odd","110693","22691","NA","NA","101743","3373","NA","111799","3377","NA","NA","111901","112385","111796","111901","Flanker Task","43","24857","50","yes","1024"
"86.27450980392157","86.27450980392157","497.0980392156863","497.0980392156863","black","legacy","legacy","legacy","0","incongruent","uniform","1","undefined","1","s","50","0","0","0","50","0","50","50","0","0","0","50","50","50","50","Sun Sep 27 15:54:33 2020","1500","The main experiment item","yes","FlankerTask.osexp","C:\Users\chris\OneDrive\Desktop\lab","no","mono","no","18","no","white","no","yes","768","legacy","50","50","C:/Users/chris/OneDrive/Desktop/lab/CM-subject-3.csv","legacy","Lentiform Loewenfeld","3.3.3","0","s","h","NA","NA","s","495","19313","NA","NA","495","2","legacy","1024","2","48000","-16","experiment","HHSHH","3","odd","112390","22691","NA","NA","101743","3373","NA","113533","3377","NA","NA","113638","114134","113530","113638","Flanker Task","44","25352","51","yes","1024"
"86.53846153846153","86.53846153846153","500.28846153846155","500.28846153846155","black","legacy","legacy","legacy","0","incongruent","uniform","1","undefined","1","h","51","0","0","0","51","0","51","51","0","0","0","51","51","51","51","Sun Sep 27 15:54:33 2020","1500","The main experiment item","yes","FlankerTask.osexp","C:\Users\chris\OneDrive\Desktop\lab","no","mono","no","18","no","white","no","yes","768","legacy","51","51","C:/Users/chris/OneDrive/Desktop/lab/CM-subject-3.csv","legacy","Lentiform Loewenfeld","3.3.3","0","h","h","NA","NA","h","663","19313","NA","NA","663","2","legacy","1024","2","48000","-16","experiment","SSHSS","3","odd","114147","22691","NA","NA","101743","3373","NA","115267","3377","NA","NA","115373","116037","115265","115372","Flanker Task","45","26015","52","yes","1024"
"86.79245283018868","86.79245283018868","500.66037735849056","500.66037735849056","black","legacy","legacy","legacy","0","congruent","uniform","1","undefined","1","s","52","0","0","0","52","0","52","52","0","0","0","52","52","52","52","Sun Sep 27 15:54:33 2020","1500","The main experiment item","yes","FlankerTask.osexp","C:\Users\chris\OneDrive\Desktop\lab","no","mono","no","18","no","white","no","yes","768","legacy","52","52","C:/Users/chris/OneDrive/Desktop/lab/CM-subject-3.csv","legacy","Lentiform Loewenfeld","3.3.3","0","s","h","NA","NA","s","520","19313","NA","NA","520","2","legacy","1024","2","48000","-16","experiment","SSSSS","3","odd","116047","22691","NA","NA","101743","3373","NA","117208","3377","NA","NA","117314","117836","117205","117313","Flanker Task","46","26535","53","yes","1024"
"87.03703703703704","87.03703703703704","500.51851851851853","500.51851851851853","black","legacy","legacy","legacy","0","congruent","uniform","1","undefined","1","h","53","0","0","0","53","0","53","53","0","0","0","53","53","53","53","Sun Sep 27 15:54:33 2020","1500","The main experiment item","yes","FlankerTask.osexp","C:\Users\chris\OneDrive\Desktop\lab","no","mono","no","18","no","white","no","yes","768","legacy","53","53","C:/Users/chris/OneDrive/Desktop/lab/CM-subject-3.csv","legacy","Lentiform Loewenfeld","3.3.3","0","h","h","NA","NA","h","493","19313","NA","NA","493","2","legacy","1024","2","48000","-16","experiment","HHHHH","3","odd","117847","22691","NA","NA","101743","3373","NA","118971","3377","NA","NA","119077","119571","118968","119077","Flanker Task","47","27028","54","yes","1024"
"87.27272727272727","87.27272727272727","501.8363636363636","501.8363636363636","black","legacy","legacy","legacy","0","incongruent","uniform","1","undefined","1","h","54","0","0","0","54","0","54","54","0","0","0","54","54","54","54","Sun Sep 27 15:54:33 2020","1500","The main experiment item","yes","FlankerTask.osexp","C:\Users\chris\OneDrive\Desktop\lab","no","mono","no","18","no","white","no","yes","768","legacy","54","54","C:/Users/chris/OneDrive/Desktop/lab/CM-subject-3.csv","legacy","Lentiform Loewenfeld","3.3.3","0","h","h","NA","NA","h","573","19313","NA","NA","573","2","legacy","1024","2","48000","-16","experiment","SSHSS","3","odd","119581","22691","NA","NA","101743","3373","NA","120721","3377","NA","NA","120827","121401","120718","120826","Flanker Task","48","27601","55","yes","1024"
"87.5","87.5","501.26785714285717","501.26785714285717","black","legacy","legacy","legacy","0","incongruent","uniform","1","undefined","1","s","55","0","0","0","55","0","55","55","0","0","0","55","55","55","55","Sun Sep 27 15:54:33 2020","1500","The main experiment item","yes","FlankerTask.osexp","C:\Users\chris\OneDrive\Desktop\lab","no","mono","no","18","no","white","no","yes","768","legacy","55","55","C:/Users/chris/OneDrive/Desktop/lab/CM-subject-3.csv","legacy","Lentiform Loewenfeld","3.3.3","0","s","h","NA","NA","s","470","19313","NA","NA","470","2","legacy","1024","2","48000","-16","experiment","HHSHH","3","odd","121411","22691","NA","NA","101743","3373","NA","122559","3377","NA","NA","122664","123135","122556","122664","Flanker Task","49","28071","56","yes","1024"
"87.71929824561404","87.71929824561404","501.82456140350877","501.82456140350877","black","legacy","legacy","legacy","0","congruent","uniform","1","undefined","1","s","56","0","0","0","56","0","56","56","0","0","0","56","56","56","56","Sun Sep 27 15:54:33 2020","1500","The main experiment item","yes","FlankerTask.osexp","C:\Users\chris\OneDrive\Desktop\lab","no","mono","no","18","no","white","no","yes","768","legacy","56","56","C:/Users/chris/OneDrive/Desktop/lab/CM-subject-3.csv","legacy","Lentiform Loewenfeld","3.3.3","0","s","h","NA","NA","s","533","19313","NA","NA","533","2","legacy","1024","2","48000","-16","experiment","SSSSS","3","odd","123146","22691","NA","NA","101743","3373","NA","124262","3377","NA","NA","124368","124902","124259","124368","Flanker Task","50","28604","57","yes","1024"
"87.93103448275862","87.93103448275862","503.0344827586207","503.0344827586207","black","legacy","legacy","legacy","0","congruent","uniform","1","undefined","1","h","57","0","0","0","57","0","57","57","0","0","0","57","57","57","57","Sun Sep 27 15:54:33 2020","1500","The main experiment item","yes","FlankerTask.osexp","C:\Users\chris\OneDrive\Desktop\lab","no","mono","no","18","no","white","no","yes","768","legacy","57","57","C:/Users/chris/OneDrive/Desktop/lab/CM-subject-3.csv","legacy","Lentiform Loewenfeld","3.3.3","0","h","h","NA","NA","h","572","19313","NA","NA","572","2","legacy","1024","2","48000","-16","experiment","HHHHH","3","odd","124914","22691","NA","NA","101743","3373","NA","126072","3377","NA","NA","126177","126750","126069","126177","Flanker Task","51","29176","58","yes","1024"
"88.13559322033899","88.13559322033899","504.33898305084745","504.33898305084745","black","legacy","legacy","legacy","0","congruent","uniform","1","undefined","1","s","58","0","0","0","58","0","58","58","0","0","0","58","58","58","58","Sun Sep 27 15:54:33 2020","1500","The main experiment item","yes","FlankerTask.osexp","C:\Users\chris\OneDrive\Desktop\lab","no","mono","no","18","no","white","no","yes","768","legacy","58","58","C:/Users/chris/OneDrive/Desktop/lab/CM-subject-3.csv","legacy","Lentiform Loewenfeld","3.3.3","0","s","h","NA","NA","s","580","19313","NA","NA","580","2","legacy","1024","2","48000","-16","experiment","SSSSS","3","odd","126756","22691","NA","NA","101743","3373","NA","127899","3377","NA","NA","128006","128587","127896","128005","Flanker Task","52","29756","59","yes","1024"
"88.33333333333333","88.33333333333333","504.8","504.8","black","legacy","legacy","legacy","0","incongruent","uniform","1","undefined","1","h","59","0","0","0","59","0","59","59","0","0","0","59","59","59","59","Sun Sep 27 15:54:33 2020","1500","The main experiment item","yes","FlankerTask.osexp","C:\Users\chris\OneDrive\Desktop\lab","no","mono","no","18","no","white","no","yes","768","legacy","59","59","C:/Users/chris/OneDrive/Desktop/lab/CM-subject-3.csv","legacy","Lentiform Loewenfeld","3.3.3","0","h","h","NA","NA","h","532","19313","NA","NA","532","2","legacy","1024","2","48000","-16","experiment","SSHSS","3","odd","128596","22691","NA","NA","101743","3373","NA","129741","3377","NA","NA","129846","130378","129738","129846","Flanker Task","53","30288","60","yes","1024"
"88.52459016393442","88.52459016393442","505.655737704918","505.655737704918","black","legacy","legacy","legacy","0","incongruent","uniform","1","undefined","1","s","60","0","0","0","60","0","60","60","0","0","0","60","60","60","60","Sun Sep 27 15:54:33 2020","1500","The main experiment item","yes","FlankerTask.osexp","C:\Users\chris\OneDrive\Desktop\lab","no","mono","no","18","no","white","no","yes","768","legacy","60","60","C:/Users/chris/OneDrive/Desktop/lab/CM-subject-3.csv","legacy","Lentiform Loewenfeld","3.3.3","0","s","h","NA","NA","s","557","19313","NA","NA","557","2","legacy","1024","2","48000","-16","experiment","HHSHH","3","odd","130388","22691","NA","NA","101743","3373","NA","131520","3377","NA","NA","131626","132183","131518","131626","Flanker Task","54","30845","61","yes","1024"
"88.70967741935483","88.70967741935483","505.7258064516129","505.7258064516129","black","legacy","legacy","legacy","0","incongruent","uniform","1","undefined","1","s","61","0","0","0","61","0","61","61","0","0","0","61","61","61","61","Sun Sep 27 15:54:33 2020","1500","The main experiment item","yes","FlankerTask.osexp","C:\Users\chris\OneDrive\Desktop\lab","no","mono","no","18","no","white","no","yes","768","legacy","61","61","C:/Users/chris/OneDrive/Desktop/lab/CM-subject-3.csv","legacy","Lentiform Loewenfeld","3.3.3","0","s","h","NA","NA","s","510","19313","NA","NA","510","2","legacy","1024","2","48000","-16","experiment","HHSHH","3","odd","132192","22691","NA","NA","101743","3373","NA","133343","3377","NA","NA","133448","133959","133340","133448","Flanker Task","55","31355","62","yes","1024"
"88.88888888888889","88.88888888888889","505.6984126984127","505.6984126984127","black","legacy","legacy","legacy","0","incongruent","uniform","1","undefined","1","h","62","0","0","0","62","0","62","62","0","0","0","62","62","62","62","Sun Sep 27 15:54:33 2020","1500","The main experiment item","yes","FlankerTask.osexp","C:\Users\chris\OneDrive\Desktop\lab","no","mono","no","18","no","white","no","yes","768","legacy","62","62","C:/Users/chris/OneDrive/Desktop/lab/CM-subject-3.csv","legacy","Lentiform Loewenfeld","3.3.3","0","h","h","NA","NA","h","504","19313","NA","NA","504","2","legacy","1024","2","48000","-16","experiment","SSHSS","3","odd","133971","22691","NA","NA","101743","3373","NA","135079","3377","NA","NA","135183","135687","135076","135183","Flanker Task","56","31859","63","yes","1024"
"89.0625","89.0625","504.609375","504.609375","black","legacy","legacy","legacy","0","congruent","uniform","1","undefined","1","s","63","0","0","0","63","0","63","63","0","0","0","63","63","63","63","Sun Sep 27 15:54:33 2020","1500","The main experiment item","yes","FlankerTask.osexp","C:\Users\chris\OneDrive\Desktop\lab","no","mono","no","18","no","white","no","yes","768","legacy","63","63","C:/Users/chris/OneDrive/Desktop/lab/CM-subject-3.csv","legacy","Lentiform Loewenfeld","3.3.3","0","s","h","NA","NA","s","436","19313","NA","NA","436","2","legacy","1024","2","48000","-16","experiment","SSSSS","3","odd","135696","22691","NA","NA","101743","3373","NA","136838","3377","NA","NA","136943","137380","136834","136943","Flanker Task","57","32295","64","yes","1024"
"89.23076923076923","89.23076923076923","504.0615384615385","504.0615384615385","black","legacy","legacy","legacy","0","congruent","uniform","1","undefined","1","h","64","0","0","0","64","0","64","64","0","0","0","64","64","64","64","Sun Sep 27 15:54:33 2020","1500","The main experiment item","yes","FlankerTask.osexp","C:\Users\chris\OneDrive\Desktop\lab","no","mono","no","18","no","white","no","yes","768","legacy","64","64","C:/Users/chris/OneDrive/Desktop/lab/CM-subject-3.csv","legacy","Lentiform Loewenfeld","3.3.3","0","h","h","NA","NA","h","469","19313","NA","NA","469","2","legacy","1024","2","48000","-16","experiment","HHHHH","3","odd","137390","22691","NA","NA","101743","3373","NA","138543","3377","NA","NA","138648","139118","138540","138648","Flanker Task","58","32764","65","yes","1024"
"89.39393939393939","89.39393939393939","505.74242424242425","505.74242424242425","black","legacy","legacy","legacy","0","incongruent","uniform","1","undefined","1","s","65","0","0","0","65","0","65","65","0","0","0","65","65","65","65","Sun Sep 27 15:54:33 2020","1500","The main experiment item","yes","FlankerTask.osexp","C:\Users\chris\OneDrive\Desktop\lab","no","mono","no","18","no","white","no","yes","768","legacy","65","65","C:/Users/chris/OneDrive/Desktop/lab/CM-subject-3.csv","legacy","Lentiform Loewenfeld","3.3.3","0","s","h","NA","NA","s","615","19313","NA","NA","615","2","legacy","1024","2","48000","-16","experiment","HHSHH","3","odd","139127","22691","NA","NA","101743","3373","NA","140249","3377","NA","NA","140354","140970","140246","140354","Flanker Task","59","33379","66","yes","1024"
"89.55223880597015","89.55223880597015","506.9850746268657","506.9850746268657","black","legacy","legacy","legacy","0","incongruent","uniform","1","undefined","1","s","66","0","0","0","66","0","66","66","0","0","0","66","66","66","66","Sun Sep 27 15:54:33 2020","1500","The main experiment item","yes","FlankerTask.osexp","C:\Users\chris\OneDrive\Desktop\lab","no","mono","no","18","no","white","no","yes","768","legacy","66","66","C:/Users/chris/OneDrive/Desktop/lab/CM-subject-3.csv","legacy","Lentiform Loewenfeld","3.3.3","0","s","h","NA","NA","s","589","19313","NA","NA","589","2","legacy","1024","2","48000","-16","experiment","HHSHH","3","odd","140982","22691","NA","NA","101743","3373","NA","142106","3377","NA","NA","142211","142801","142103","142211","Flanker Task","60","33968","67","yes","1024"
"89.70588235294117","89.70588235294117","507.6029411764706","507.6029411764706","black","legacy","legacy","legacy","0","incongruent","uniform","1","undefined","1","h","67","0","0","0","67","0","67","67","0","0","0","67","67","67","67","Sun Sep 27 15:54:33 2020","1500","The main experiment item","yes","FlankerTask.osexp","C:\Users\chris\OneDrive\Desktop\lab","no","mono","no","18","no","white","no","yes","768","legacy","67","67","C:/Users/chris/OneDrive/Desktop/lab/CM-subject-3.csv","legacy","Lentiform Loewenfeld","3.3.3","0","h","h","NA","NA","h","549","19313","NA","NA","549","2","legacy","1024","2","48000","-16","experiment","SSHSS","3","odd","142811","22691","NA","NA","101743","3373","NA","143962","3377","NA","NA","144067","144618","143959","144067","Flanker Task","61","34517","68","yes","1024"
"89.85507246376811","89.85507246376811","508.07246376811594","508.07246376811594","black","legacy","legacy","legacy","0","incongruent","uniform","1","undefined","1","h","68","0","0","0","68","0","68","68","0","0","0","68","68","68","68","Sun Sep 27 15:54:33 2020","1500","The main experiment item","yes","FlankerTask.osexp","C:\Users\chris\OneDrive\Desktop\lab","no","mono","no","18","no","white","no","yes","768","legacy","68","68","C:/Users/chris/OneDrive/Desktop/lab/CM-subject-3.csv","legacy","Lentiform Loewenfeld","3.3.3","0","h","h","NA","NA","h","540","19313","NA","NA","540","2","legacy","1024","2","48000","-16","experiment","SSHSS","3","odd","144631","22691","NA","NA","101743","3373","NA","145786","3377","NA","NA","145891","146433","145783","145891","Flanker Task","62","35057","69","yes","1024"
"90","90","507.62857142857143","507.62857142857143","black","legacy","legacy","legacy","0","incongruent","uniform","1","undefined","1","s","69","0","0","0","69","0","69","69","0","0","0","69","69","69","69","Sun Sep 27 15:54:33 2020","1500","The main experiment item","yes","FlankerTask.osexp","C:\Users\chris\OneDrive\Desktop\lab","no","mono","no","18","no","white","no","yes","768","legacy","69","69","C:/Users/chris/OneDrive/Desktop/lab/CM-subject-3.csv","legacy","Lentiform Loewenfeld","3.3.3","0","s","h","NA","NA","s","477","19313","NA","NA","477","2","legacy","1024","2","48000","-16","experiment","HHSHH","3","odd","146445","22691","NA","NA","101743","3373","NA","147590","3377","NA","NA","147695","148175","147587","147695","Flanker Task","63","35534","70","yes","1024"
"90.14084507042253","90.14084507042253","507.46478873239437","507.46478873239437","black","legacy","legacy","legacy","0","incongruent","uniform","1","undefined","1","h","70","0","0","0","70","0","70","70","0","0","0","70","70","70","70","Sun Sep 27 15:54:33 2020","1500","The main experiment item","yes","FlankerTask.osexp","C:\Users\chris\OneDrive\Desktop\lab","no","mono","no","18","no","white","no","yes","768","legacy","70","70","C:/Users/chris/OneDrive/Desktop/lab/CM-subject-3.csv","legacy","Lentiform Loewenfeld","3.3.3","0","h","h","NA","NA","h","496","19313","NA","NA","496","2","legacy","1024","2","48000","-16","experiment","SSHSS","3","odd","148190","22691","NA","NA","101743","3373","NA","149347","3377","NA","NA","149452","149949","149344","149452","Flanker Task","64","36030","71","yes","1024"
"90.27777777777777","90.27777777777777","507.2083333333333","507.2083333333333","black","legacy","legacy","legacy","0","congruent","uniform","1","undefined","1","s","71","0","0","0","71","0","71","71","0","0","0","71","71","71","71","Sun Sep 27 15:54:33 2020","1500","The main experiment item","yes","FlankerTask.osexp","C:\Users\chris\OneDrive\Desktop\lab","no","mono","no","18","no","white","no","yes","768","legacy","71","71","C:/Users/chris/OneDrive/Desktop/lab/CM-subject-3.csv","legacy","Lentiform Loewenfeld","3.3.3","0","s","h","NA","NA","s","489","19313","NA","NA","489","2","legacy","1024","2","48000","-16","experiment","SSSSS","3","odd","149953","22691","NA","NA","101743","3373","NA","151095","3377","NA","NA","151201","151692","151092","151200","Flanker Task","65","36519","72","yes","1024"
"90.41095890410959","90.41095890410959","506.52054794520546","506.52054794520546","black","legacy","legacy","legacy","0","congruent","uniform","1","undefined","1","s","72","0","0","0","72","0","72","72","0","0","0","72","72","72","72","Sun Sep 27 15:54:33 2020","1500","The main experiment item","yes","FlankerTask.osexp","C:\Users\chris\OneDrive\Desktop\lab","no","mono","no","18","no","white","no","yes","768","legacy","72","72","C:/Users/chris/OneDrive/Desktop/lab/CM-subject-3.csv","legacy","Lentiform Loewenfeld","3.3.3","0","s","h","NA","NA","s","457","19313","NA","NA","457","2","legacy","1024","2","48000","-16","experiment","SSSSS","3","odd","151703","22691","NA","NA","101743","3373","NA","152839","3377","NA","NA","152944","153403","152836","152944","Flanker Task","66","36976","73","yes","1024"
"90.54054054054055","90.54054054054055","505.93243243243245","505.93243243243245","black","legacy","legacy","legacy","0","incongruent","uniform","1","undefined","1","h","73","0","0","0","73","0","73","73","0","0","0","73","73","73","73","Sun Sep 27 15:54:33 2020","1500","The main experiment item","yes","FlankerTask.osexp","C:\Users\chris\OneDrive\Desktop\lab","no","mono","no","18","no","white","no","yes","768","legacy","73","73","C:/Users/chris/OneDrive/Desktop/lab/CM-subject-3.csv","legacy","Lentiform Loewenfeld","3.3.3","0","h","h","NA","NA","h","463","19313","NA","NA","463","2","legacy","1024","2","48000","-16","experiment","SSHSS","3","odd","153414","22691","NA","NA","101743","3373","NA","154560","3377","NA","NA","154666","155130","154558","154665","Flanker Task","67","37439","74","yes","1024"
"90.66666666666667","90.66666666666667","506.04","506.04","black","legacy","legacy","legacy","0","incongruent","uniform","1","undefined","1","s","74","0","0","0","74","0","74","74","0","0","0","74","74","74","74","Sun Sep 27 15:54:33 2020","1500","The main experiment item","yes","FlankerTask.osexp","C:\Users\chris\OneDrive\Desktop\lab","no","mono","no","18","no","white","no","yes","768","legacy","74","74","C:/Users/chris/OneDrive/Desktop/lab/CM-subject-3.csv","legacy","Lentiform Loewenfeld","3.3.3","0","s","h","NA","NA","s","514","19313","NA","NA","514","2","legacy","1024","2","48000","-16","experiment","HHSHH","3","odd","155139","22691","NA","NA","101743","3373","NA","156291","3377","NA","NA","156397","156912","156288","156396","Flanker Task","68","37953","75","yes","1024"
"90.78947368421052","90.78947368421052","505.5","505.5","black","legacy","legacy","legacy","0","congruent","uniform","1","undefined","1","h","75","0","0","0","75","0","75","75","0","0","0","75","75","75","75","Sun Sep 27 15:54:33 2020","1500","The main experiment item","yes","FlankerTask.osexp","C:\Users\chris\OneDrive\Desktop\lab","no","mono","no","18","no","white","no","yes","768","legacy","75","75","C:/Users/chris/OneDrive/Desktop/lab/CM-subject-3.csv","legacy","Lentiform Loewenfeld","3.3.3","0","h","h","NA","NA","h","465","19313","NA","NA","465","2","legacy","1024","2","48000","-16","experiment","HHHHH","3","odd","156926","22691","NA","NA","101743","3373","NA","158085","3377","NA","NA","158191","158657","158082","158191","Flanker Task","69","38418","76","yes","1024"
"90.9090909090909","90.9090909090909","505.7792207792208","505.7792207792208","black","legacy","legacy","legacy","0","congruent","uniform","1","undefined","1","h","76","0","0","0","76","0","76","76","0","0","0","76","76","76","76","Sun Sep 27 15:54:33 2020","1500","The main experiment item","yes","FlankerTask.osexp","C:\Users\chris\OneDrive\Desktop\lab","no","mono","no","18","no","white","no","yes","768","legacy","76","76","C:/Users/chris/OneDrive/Desktop/lab/CM-subject-3.csv","legacy","Lentiform Loewenfeld","3.3.3","0","h","h","NA","NA","h","527","19313","NA","NA","527","2","legacy","1024","2","48000","-16","experiment","HHHHH","3","odd","158667","22691","NA","NA","101743","3373","NA","159846","3377","NA","NA","159951","160482","159843","159951","Flanker Task","70","38945","77","yes","1024"
"91.02564102564102","91.02564102564102","505.4102564102564","505.4102564102564","black","legacy","legacy","legacy","0","congruent","uniform","1","undefined","1","s","77","0","0","0","77","0","77","77","0","0","0","77","77","77","77","Sun Sep 27 15:54:33 2020","1500","The main experiment item","yes","FlankerTask.osexp","C:\Users\chris\OneDrive\Desktop\lab","no","mono","no","18","no","white","no","yes","768","legacy","77","77","C:/Users/chris/OneDrive/Desktop/lab/CM-subject-3.csv","legacy","Lentiform Loewenfeld","3.3.3","0","s","h","NA","NA","s","477","19313","NA","NA","477","2","legacy","1024","2","48000","-16","experiment","SSSSS","3","odd","160497","22691","NA","NA","101743","3373","NA","161637","3377","NA","NA","161742","162221","161635","161742","Flanker Task","71","39422","78","yes","1024"
"91.13924050632912","91.13924050632912","505.7088607594937","505.7088607594937","black","legacy","legacy","legacy","0","congruent","uniform","1","undefined","1","s","78","0","0","0","78","0","78","78","0","0","0","78","78","78","78","Sun Sep 27 15:54:33 2020","1500","The main experiment item","yes","FlankerTask.osexp","C:\Users\chris\OneDrive\Desktop\lab","no","mono","no","18","no","white","no","yes","768","legacy","78","78","C:/Users/chris/OneDrive/Desktop/lab/CM-subject-3.csv","legacy","Lentiform Loewenfeld","3.3.3","0","s","h","NA","NA","s","529","19313","NA","NA","529","2","legacy","1024","2","48000","-16","experiment","SSSSS","3","odd","162228","22691","NA","NA","101743","3373","NA","163401","3377","NA","NA","163506","164036","163398","163506","Flanker Task","72","39951","79","yes","1024"
"91.25","91.25","509.1625","509.1625","black","legacy","legacy","legacy","0","incongruent","uniform","1","undefined","1","s","79","0","0","0","79","0","79","79","0","0","0","79","79","79","79","Sun Sep 27 15:54:33 2020","1500","The main experiment item","yes","FlankerTask.osexp","C:\Users\chris\OneDrive\Desktop\lab","no","mono","no","18","no","white","no","yes","768","legacy","79","79","C:/Users/chris/OneDrive/Desktop/lab/CM-subject-3.csv","legacy","Lentiform Loewenfeld","3.3.3","0","s","h","NA","NA","s","782","19313","NA","NA","782","2","legacy","1024","2","48000","-16","experiment","HHSHH","3","odd","164046","22691","NA","NA","101743","3373","NA","165225","3377","NA","NA","165330","166113","165222","165330","Flanker Task","73","40733","80","yes","1024"
"91.35802469135803","91.35802469135803","509.2962962962963","509.2962962962963","black","legacy","legacy","legacy","0","incongruent","uniform","1","undefined","1","s","80","0","0","0","80","0","80","80","0","0","0","80","80","80","80","Sun Sep 27 15:54:33 2020","600","The main experiment item","yes","FlankerTask.osexp","C:\Users\chris\OneDrive\Desktop\lab","no","mono","no","18","no","white","no","yes","768","legacy","0","79","C:/Users/chris/OneDrive/Desktop/lab/CM-subject-3.csv","legacy","Lentiform Loewenfeld","3.3.3","0","s","h","h","NA","s","520","19313","19639","NA","520","2","legacy","1024","2","48000","-16","experiment","HHSHH","3","odd","166122","22691","186824","NA","101743","3373","NA","186940","3377","167183","NA","187047","187569","186938","187046","Flanker Task","74","41253","81","yes","1024"
"91.46341463414635","91.46341463414635","508.3170731707317","508.3170731707317","black","legacy","legacy","legacy","0","congruent","uniform","1","undefined","1","s","81","0","0","0","81","0","81","81","0","0","0","81","81","81","81","Sun Sep 27 15:54:33 2020","600","The main experiment item","yes","FlankerTask.osexp","C:\Users\chris\OneDrive\Desktop\lab","no","mono","no","18","no","white","no","yes","768","legacy","1","79","C:/Users/chris/OneDrive/Desktop/lab/CM-subject-3.csv","legacy","Lentiform Loewenfeld","3.3.3","0","s","h","h","NA","s","429","19313","19639","NA","429","2","legacy","1024","2","48000","-16","experiment","SSSSS","3","odd","187583","22691","186824","NA","101743","3373","NA","188736","3377","167183","NA","188841","189271","188734","188841","Flanker Task","75","41682","82","yes","1024"
"91.56626506024097","91.56626506024097","507.7831325301205","507.7831325301205","black","legacy","legacy","legacy","0","congruent","uniform","1","undefined","1","h","82","0","0","0","82","0","82","82","0","0","0","82","82","82","82","Sun Sep 27 15:54:33 2020","600","The main experiment item","yes","FlankerTask.osexp","C:\Users\chris\OneDrive\Desktop\lab","no","mono","no","18","no","white","no","yes","768","legacy","2","79","C:/Users/chris/OneDrive/Desktop/lab/CM-subject-3.csv","legacy","Lentiform Loewenfeld","3.3.3","0","h","h","h","NA","h","464","19313","19639","NA","464","2","legacy","1024","2","48000","-16","experiment","HHHHH","3","odd","189280","22691","186824","NA","101743","3373","NA","190429","3377","167183","NA","190535","191000","190426","190535","Flanker Task","76","42146","83","yes","1024"
"91.66666666666667","91.66666666666667","506.73809523809524","506.73809523809524","black","legacy","legacy","legacy","0","congruent","uniform","1","undefined","1","s","83","0","0","0","83","0","83","83","0","0","0","83","83","83","83","Sun Sep 27 15:54:33 2020","600","The main experiment item","yes","FlankerTask.osexp","C:\Users\chris\OneDrive\Desktop\lab","no","mono","no","18","no","white","no","yes","768","legacy","3","79","C:/Users/chris/OneDrive/Desktop/lab/CM-subject-3.csv","legacy","Lentiform Loewenfeld","3.3.3","0","s","h","h","NA","s","420","19313","19639","NA","420","2","legacy","1024","2","48000","-16","experiment","SSSSS","3","odd","191009","22691","186824","NA","101743","3373","NA","192151","3377","167183","NA","192256","192677","192148","192256","Flanker Task","77","42566","84","yes","1024"
"91.76470588235294","91.76470588235294","505.7176470588235","505.7176470588235","black","legacy","legacy","legacy","0","incongruent","uniform","1","undefined","1","s","84","0","0","0","84","0","84","84","0","0","0","84","84","84","84","Sun Sep 27 15:54:33 2020","600","The main experiment item","yes","FlankerTask.osexp","C:\Users\chris\OneDrive\Desktop\lab","no","mono","no","18","no","white","no","yes","768","legacy","4","79","C:/Users/chris/OneDrive/Desktop/lab/CM-subject-3.csv","legacy","Lentiform Loewenfeld","3.3.3","0","s","h","h","NA","s","420","19313","19639","NA","420","2","legacy","1024","2","48000","-16","experiment","HHSHH","3","odd","192690","22691","186824","NA","101743","3373","NA","193847","3377","167183","NA","193952","194375","193844","193952","Flanker Task","78","42986","85","yes","1024"
"91.86046511627907","91.86046511627907","504.13953488372096","504.13953488372096","black","legacy","legacy","legacy","0","incongruent","uniform","1","undefined","1","s","85","0","0","0","85","0","85","85","0","0","0","85","85","85","85","Sun Sep 27 15:54:33 2020","600","The main experiment item","yes","FlankerTask.osexp","C:\Users\chris\OneDrive\Desktop\lab","no","mono","no","18","no","white","no","yes","768","legacy","5","79","C:/Users/chris/OneDrive/Desktop/lab/CM-subject-3.csv","legacy","Lentiform Loewenfeld","3.3.3","0","s","h","h","NA","s","370","19313","19639","NA","370","2","legacy","1024","2","48000","-16","experiment","HHSHH","3","odd","194386","22691","186824","NA","101743","3373","NA","195551","3377","167183","NA","195657","196028","195548","195656","Flanker Task","79","43356","86","yes","1024"
"91.95402298850574","91.95402298850574","502.64367816091954","502.64367816091954","black","legacy","legacy","legacy","0","congruent","uniform","1","undefined","1","s","86","0","0","0","86","0","86","86","0","0","0","86","86","86","86","Sun Sep 27 15:54:33 2020","600","The main experiment item","yes","FlankerTask.osexp","C:\Users\chris\OneDrive\Desktop\lab","no","mono","no","18","no","white","no","yes","768","legacy","6","79","C:/Users/chris/OneDrive/Desktop/lab/CM-subject-3.csv","legacy","Lentiform Loewenfeld","3.3.3","0","s","h","h","NA","s","374","19313","19639","NA","374","2","legacy","1024","2","48000","-16","experiment","SSSSS","3","odd","196037","22691","186824","NA","101743","3373","NA","197180","3377","167183","NA","197285","197660","197177","197285","Flanker Task","80","43730","87","yes","1024"
"92.04545454545455","92.04545454545455","502.17045454545456","502.17045454545456","black","legacy","legacy","legacy","0","congruent","uniform","1","undefined","1","h","87","0","0","0","87","0","87","87","0","0","0","87","87","87","87","Sun Sep 27 15:54:33 2020","600","The main experiment item","yes","FlankerTask.osexp","C:\Users\chris\OneDrive\Desktop\lab","no","mono","no","18","no","white","no","yes","768","legacy","7","79","C:/Users/chris/OneDrive/Desktop/lab/CM-subject-3.csv","legacy","Lentiform Loewenfeld","3.3.3","0","h","h","h","NA","h","461","19313","19639","NA","461","2","legacy","1024","2","48000","-16","experiment","HHHHH","3","odd","197664","22691","186824","NA","101743","3373","NA","198813","3377","167183","NA","198918","199381","198811","198918","Flanker Task","81","44191","88","yes","1024"
"91.01123595505618","91.01123595505618","502.0674157303371","502.0674157303371","black","legacy","legacy","legacy","0","incongruent","uniform","0","undefined","0","h","88","0","0","0","88","0","88","88","0","0","0","88","88","88","88","Sun Sep 27 15:54:33 2020","600","The main experiment item","yes","FlankerTask.osexp","C:\Users\chris\OneDrive\Desktop\lab","no","mono","no","18","no","white","no","yes","768","legacy","8","79","C:/Users/chris/OneDrive/Desktop/lab/CM-subject-3.csv","legacy","Lentiform Loewenfeld","3.3.3","0","s","h","h","NA","s","493","19313","19639","NA","493","2","legacy","1024","2","48000","-16","experiment","SSHSS","3","odd","199394","22691","186824","NA","101743","3373","NA","200501","3377","167183","NA","200604","201099","200499","200604","Flanker Task","81","44684","89","yes","1024"
"91.11111111111111","91.11111111111111","501.05555555555554","501.05555555555554","black","legacy","legacy","legacy","0","congruent","uniform","1","undefined","1","s","89","0","0","0","89","0","89","89","0","0","0","89","89","89","89","Sun Sep 27 15:54:33 2020","600","The main experiment item","yes","FlankerTask.osexp","C:\Users\chris\OneDrive\Desktop\lab","no","mono","no","18","no","white","no","yes","768","legacy","9","79","C:/Users/chris/OneDrive/Desktop/lab/CM-subject-3.csv","legacy","Lentiform Loewenfeld","3.3.3","0","s","h","h","NA","s","411","19313","19639","NA","411","2","legacy","1024","2","48000","-16","experiment","SSSSS","3","odd","201614","22691","186824","NA","201108","3373","NA","202730","3377","167183","NA","202836","203249","202728","202836","Flanker Task","82","45095","90","yes","1024"
"91.20879120879121","91.20879120879121","500.53846153846155","500.53846153846155","black","legacy","legacy","legacy","0","congruent","uniform","1","undefined","1","h","90","0","0","0","90","0","90","90","0","0","0","90","90","90","90","Sun Sep 27 15:54:33 2020","600","The main experiment item","yes","FlankerTask.osexp","C:\Users\chris\OneDrive\Desktop\lab","no","mono","no","18","no","white","no","yes","768","legacy","10","79","C:/Users/chris/OneDrive/Desktop/lab/CM-subject-3.csv","legacy","Lentiform Loewenfeld","3.3.3","0","h","h","h","NA","h","454","19313","19639","NA","454","2","legacy","1024","2","48000","-16","experiment","HHHHH","3","odd","203261","22691","186824","NA","201108","3373","NA","204401","3377","167183","NA","204506","204962","204398","204506","Flanker Task","83","45549","91","yes","1024"
"91.30434782608695","91.30434782608695","500.2391304347826","500.2391304347826","black","legacy","legacy","legacy","0","congruent","uniform","1","undefined","1","h","91","0","0","0","91","0","91","91","0","0","0","91","91","91","91","Sun Sep 27 15:54:33 2020","600","The main experiment item","yes","FlankerTask.osexp","C:\Users\chris\OneDrive\Desktop\lab","no","mono","no","18","no","white","no","yes","768","legacy","11","79","C:/Users/chris/OneDrive/Desktop/lab/CM-subject-3.csv","legacy","Lentiform Loewenfeld","3.3.3","0","h","h","h","NA","h","473","19313","19639","NA","473","2","legacy","1024","2","48000","-16","experiment","HHHHH","3","odd","204974","22691","186824","NA","201108","3373","NA","206125","3377","167183","NA","206230","206704","206119","206230","Flanker Task","84","46022","92","yes","1024"
"91.39784946236558","91.39784946236558","499.5483870967742","499.5483870967742","black","legacy","legacy","legacy","0","incongruent","uniform","1","undefined","1","s","92","0","0","0","92","0","92","92","0","0","0","92","92","92","92","Sun Sep 27 15:54:33 2020","600","The main experiment item","yes","FlankerTask.osexp","C:\Users\chris\OneDrive\Desktop\lab","no","mono","no","18","no","white","no","yes","768","legacy","12","79","C:/Users/chris/OneDrive/Desktop/lab/CM-subject-3.csv","legacy","Lentiform Loewenfeld","3.3.3","0","s","h","h","NA","s","436","19313","19639","NA","436","2","legacy","1024","2","48000","-16","experiment","HHSHH","3","odd","206713","22691","186824","NA","201108","3373","NA","207863","3377","167183","NA","207969","208406","207861","207969","Flanker Task","85","46458","93","yes","1024"
"91.48936170212765","91.48936170212765","499.0425531914894","499.0425531914894","black","legacy","legacy","legacy","0","congruent","uniform","1","undefined","1","h","93","0","0","0","93","0","93","93","0","0","0","93","93","93","93","Sun Sep 27 15:54:33 2020","600","The main experiment item","yes","FlankerTask.osexp","C:\Users\chris\OneDrive\Desktop\lab","no","mono","no","18","no","white","no","yes","768","legacy","13","79","C:/Users/chris/OneDrive/Desktop/lab/CM-subject-3.csv","legacy","Lentiform Loewenfeld","3.3.3","0","h","h","h","NA","h","452","19313","19639","NA","452","2","legacy","1024","2","48000","-16","experiment","HHHHH","3","odd","208415","22691","186824","NA","201108","3373","NA","209593","3377","167183","NA","209698","210153","209588","209698","Flanker Task","86","46910","94","yes","1024"
"91.57894736842105","91.57894736842105","498.7157894736842","498.7157894736842","black","legacy","legacy","legacy","0","congruent","uniform","1","undefined","1","s","94","0","0","0","94","0","94","94","0","0","0","94","94","94","94","Sun Sep 27 15:54:33 2020","600","The main experiment item","yes","FlankerTask.osexp","C:\Users\chris\OneDrive\Desktop\lab","no","mono","no","18","no","white","no","yes","768","legacy","14","79","C:/Users/chris/OneDrive/Desktop/lab/CM-subject-3.csv","legacy","Lentiform Loewenfeld","3.3.3","0","s","h","h","NA","s","468","19313","19639","NA","468","2","legacy","1024","2","48000","-16","experiment","SSSSS","3","odd","210167","22691","186824","NA","201108","3373","NA","211343","3377","167183","NA","211448","211917","211340","211448","Flanker Task","87","47378","95","yes","1024"
"90.625","90.625","497.7708333333333","497.7708333333333","black","legacy","legacy","legacy","0","incongruent","uniform","0","undefined","0","s","95","0","0","0","95","0","95","95","0","0","0","95","95","95","95","Sun Sep 27 15:54:33 2020","600","The main experiment item","yes","FlankerTask.osexp","C:\Users\chris\OneDrive\Desktop\lab","no","mono","no","18","no","white","no","yes","768","legacy","15","79","C:/Users/chris/OneDrive/Desktop/lab/CM-subject-3.csv","legacy","Lentiform Loewenfeld","3.3.3","0","h","h","h","NA","h","408","19313","19639","NA","408","2","legacy","1024","2","48000","-16","experiment","HHSHH","3","odd","211926","22691","186824","NA","201108","3373","NA","213060","3377","167183","NA","213165","213574","213057","213165","Flanker Task","87","47786","96","yes","1024"
"90.72164948453609","90.72164948453609","497.17525773195877","497.17525773195877","black","legacy","legacy","legacy","0","congruent","uniform","1","undefined","1","h","96","0","0","0","96","0","96","96","0","0","0","96","96","96","96","Sun Sep 27 15:54:33 2020","600","The main experiment item","yes","FlankerTask.osexp","C:\Users\chris\OneDrive\Desktop\lab","no","mono","no","18","no","white","no","yes","768","legacy","16","79","C:/Users/chris/OneDrive/Desktop/lab/CM-subject-3.csv","legacy","Lentiform Loewenfeld","3.3.3","0","h","h","h","NA","h","440","19313","19639","NA","440","2","legacy","1024","2","48000","-16","experiment","HHHHH","3","odd","214088","22691","186824","NA","213583","3373","NA","215210","3377","167183","NA","215315","215758","215207","215315","Flanker Task","88","48226","97","yes","1024"
"90.81632653061224","90.81632653061224","496.6020408163265","496.6020408163265","black","legacy","legacy","legacy","0","congruent","uniform","1","undefined","1","h","97","0","0","0","97","0","97","97","0","0","0","97","97","97","97","Sun Sep 27 15:54:33 2020","600","The main experiment item","yes","FlankerTask.osexp","C:\Users\chris\OneDrive\Desktop\lab","no","mono","no","18","no","white","no","yes","768","legacy","17","79","C:/Users/chris/OneDrive/Desktop/lab/CM-subject-3.csv","legacy","Lentiform Loewenfeld","3.3.3","0","h","h","h","NA","h","441","19313","19639","NA","441","2","legacy","1024","2","48000","-16","experiment","HHHHH","3","odd","215774","22691","186824","NA","213583","3373","NA","216912","3377","167183","NA","217017","217459","216909","217017","Flanker Task","89","48667","98","yes","1024"
"90.9090909090909","90.9090909090909","495.73737373737373","495.73737373737373","black","legacy","legacy","legacy","0","congruent","uniform","1","undefined","1","h","98","0","0","0","98","0","98","98","0","0","0","98","98","98","98","Sun Sep 27 15:54:33 2020","600","The main experiment item","yes","FlankerTask.osexp","C:\Users\chris\OneDrive\Desktop\lab","no","mono","no","18","no","white","no","yes","768","legacy","18","79","C:/Users/chris/OneDrive/Desktop/lab/CM-subject-3.csv","legacy","Lentiform Loewenfeld","3.3.3","0","h","h","h","NA","h","411","19313","19639","NA","411","2","legacy","1024","2","48000","-16","experiment","HHHHH","3","odd","217467","22691","186824","NA","213583","3373","NA","218604","3377","167183","NA","218710","219122","218602","218710","Flanker Task","90","49078","99","yes","1024"
"90","90","496.89","496.89","black","legacy","legacy","legacy","0","incongruent","uniform","0","undefined","0","h","99","0","0","0","99","0","99","99","0","0","0","99","99","99","99","Sun Sep 27 15:54:33 2020","600","The main experiment item","yes","FlankerTask.osexp","C:\Users\chris\OneDrive\Desktop\lab","no","mono","no","18","no","white","no","yes","768","legacy","19","79","C:/Users/chris/OneDrive/Desktop/lab/CM-subject-3.csv","legacy","Lentiform Loewenfeld","3.3.3","0","s","h","h","NA","s","611","19313","19639","NA","611","2","legacy","1024","2","48000","-16","experiment","SSHSS","3","odd","219132","22691","186824","NA","213583","3373","NA","220280","3377","167183","NA","220387","220999","220277","220387","Flanker Task","90","49689","100","yes","1024"
"90.0990099009901","90.0990099009901","497.7920792079208","497.7920792079208","black","legacy","legacy","legacy","0","incongruent","uniform","1","undefined","1","h","100","0","0","0","100","0","100","100","0","0","0","100","100","100","100","Sun Sep 27 15:54:33 2020","600","The main experiment item","yes","FlankerTask.osexp","C:\Users\chris\OneDrive\Desktop\lab","no","mono","no","18","no","white","no","yes","768","legacy","20","79","C:/Users/chris/OneDrive/Desktop/lab/CM-subject-3.csv","legacy","Lentiform Loewenfeld","3.3.3","0","h","h","h","NA","h","588","19313","19639","NA","588","2","legacy","1024","2","48000","-16","experiment","SSHSS","3","odd","222019","22691","186824","NA","221008","3373","221514","223164","3377","167183","NA","223270","223859","223162","223270","Flanker Task","91","50277","101","yes","1024"
"90.19607843137256","90.19607843137256","499.9019607843137","499.9019607843137","black","legacy","legacy","legacy","0","incongruent","uniform","1","undefined","1","s","101","0","0","0","101","0","101","101","0","0","0","101","101","101","101","Sun Sep 27 15:54:33 2020","600","The main experiment item","yes","FlankerTask.osexp","C:\Users\chris\OneDrive\Desktop\lab","no","mono","no","18","no","white","no","yes","768","legacy","21","79","C:/Users/chris/OneDrive/Desktop/lab/CM-subject-3.csv","legacy","Lentiform Loewenfeld","3.3.3","0","s","h","h","NA","s","713","19313","19639","NA","713","2","legacy","1024","2","48000","-16","experiment","HHSHH","3","odd","223868","22691","186824","NA","221008","3373","221514","225021","3377","167183","NA","225126","225841","225018","225126","Flanker Task","92","50990","102","yes","1024"
"90.29126213592232","90.29126213592232","499.68932038834953","499.68932038834953","black","legacy","legacy","legacy","0","incongruent","uniform","1","undefined","1","h","102","0","0","0","102","0","102","102","0","0","0","102","102","102","102","Sun Sep 27 15:54:33 2020","600","The main experiment item","yes","FlankerTask.osexp","C:\Users\chris\OneDrive\Desktop\lab","no","mono","no","18","no","white","no","yes","768","legacy","22","79","C:/Users/chris/OneDrive/Desktop/lab/CM-subject-3.csv","legacy","Lentiform Loewenfeld","3.3.3","0","h","h","h","NA","h","478","19313","19639","NA","478","2","legacy","1024","2","48000","-16","experiment","SSHSS","3","odd","226360","22691","186824","NA","221008","3373","225853","227479","3377","167183","NA","227584","228064","227476","227584","Flanker Task","93","51468","103","yes","1024"
"90.38461538461539","90.38461538461539","498.9519230769231","498.9519230769231","black","legacy","legacy","legacy","0","congruent","uniform","1","undefined","1","s","103","0","0","0","103","0","103","103","0","0","0","103","103","103","103","Sun Sep 27 15:54:33 2020","600","The main experiment item","yes","FlankerTask.osexp","C:\Users\chris\OneDrive\Desktop\lab","no","mono","no","18","no","white","no","yes","768","legacy","23","79","C:/Users/chris/OneDrive/Desktop/lab/CM-subject-3.csv","legacy","Lentiform Loewenfeld","3.3.3","0","s","h","h","NA","s","423","19313","19639","NA","423","2","legacy","1024","2","48000","-16","experiment","SSSSS","3","odd","228074","22691","186824","NA","221008","3373","225853","229221","3377","167183","NA","229326","229752","229218","229326","Flanker Task","94","51891","104","yes","1024"
"89.52380952380952","89.52380952380952","498.43809523809523","498.43809523809523","black","legacy","legacy","legacy","0","congruent","uniform","0","undefined","0","s","104","0","0","0","104","0","104","104","0","0","0","104","104","104","104","Sun Sep 27 15:54:33 2020","600","The main experiment item","yes","FlankerTask.osexp","C:\Users\chris\OneDrive\Desktop\lab","no","mono","no","18","no","white","no","yes","768","legacy","24","79","C:/Users/chris/OneDrive/Desktop/lab/CM-subject-3.csv","legacy","Lentiform Loewenfeld","3.3.3","0","h","h","h","NA","h","445","19313","19639","NA","445","2","legacy","1024","2","48000","-16","experiment","SSSSS","3","odd","229766","22691","186824","NA","221008","3373","225853","230912","3377","167183","NA","231017","231463","230909","231017","Flanker Task","94","52336","105","yes","1024"
"89.62264150943396","89.62264150943396","498.60377358490564","498.60377358490564","black","legacy","legacy","legacy","0","congruent","uniform","1","undefined","1","h","105","0","0","0","105","0","105","105","0","0","0","105","105","105","105","Sun Sep 27 15:54:33 2020","600","The main experiment item","yes","FlankerTask.osexp","C:\Users\chris\OneDrive\Desktop\lab","no","mono","no","18","no","white","no","yes","768","legacy","25","79","C:/Users/chris/OneDrive/Desktop/lab/CM-subject-3.csv","legacy","Lentiform Loewenfeld","3.3.3","0","h","h","h","NA","h","516","19313","19639","NA","516","2","legacy","1024","2","48000","-16","experiment","HHHHH","3","odd","231978","22691","186824","NA","231473","3373","225853","233109","3377","167183","NA","233214","233732","233107","233214","Flanker Task","95","52852","106","yes","1024"
"89.7196261682243","89.7196261682243","497.4579439252336","497.4579439252336","black","legacy","legacy","legacy","0","congruent","uniform","1","undefined","1","s","106","0","0","0","106","0","106","106","0","0","0","106","106","106","106","Sun Sep 27 15:54:33 2020","600","The main experiment item","yes","FlankerTask.osexp","C:\Users\chris\OneDrive\Desktop\lab","no","mono","no","18","no","white","no","yes","768","legacy","26","79","C:/Users/chris/OneDrive/Desktop/lab/CM-subject-3.csv","legacy","Lentiform Loewenfeld","3.3.3","0","s","h","h","NA","s","376","19313","19639","NA","376","2","legacy","1024","2","48000","-16","experiment","SSSSS","3","odd","233744","22691","186824","NA","231473","3373","225853","234871","3377","167183","NA","234976","235353","234868","234976","Flanker Task","96","53228","107","yes","1024"
"89.81481481481481","89.81481481481481","497","497","black","legacy","legacy","legacy","0","congruent","uniform","1","undefined","1","h","107","0","0","0","107","0","107","107","0","0","0","107","107","107","107","Sun Sep 27 15:54:33 2020","600","The main experiment item","yes","FlankerTask.osexp","C:\Users\chris\OneDrive\Desktop\lab","no","mono","no","18","no","white","no","yes","768","legacy","27","79","C:/Users/chris/OneDrive/Desktop/lab/CM-subject-3.csv","legacy","Lentiform Loewenfeld","3.3.3","0","h","h","h","NA","h","448","19313","19639","NA","448","2","legacy","1024","2","48000","-16","experiment","HHHHH","3","odd","235363","22691","186824","NA","231473","3373","225853","236510","3377","167183","NA","236617","237068","236507","236617","Flanker Task","97","53676","108","yes","1024"
"88.9908256880734","88.9908256880734","496.79816513761466","496.79816513761466","black","legacy","legacy","legacy","0","incongruent","uniform","0","undefined","0","h","108","0","0","0","108","0","108","108","0","0","0","108","108","108","108","Sun Sep 27 15:54:33 2020","600","The main experiment item","yes","FlankerTask.osexp","C:\Users\chris\OneDrive\Desktop\lab","no","mono","no","18","no","white","no","yes","768","legacy","28","79","C:/Users/chris/OneDrive/Desktop/lab/CM-subject-3.csv","legacy","Lentiform Loewenfeld","3.3.3","0","s","h","h","NA","s","475","19313","19639","NA","475","2","legacy","1024","2","48000","-16","experiment","SSHSS","3","odd","237080","22691","186824","NA","231473","3373","225853","238219","3377","167183","NA","238324","238801","238217","238324","Flanker Task","97","54151","109","yes","1024"
"89.0909090909091","89.0909090909091","496.55454545454546","496.55454545454546","black","legacy","legacy","legacy","0","incongruent","uniform","1","undefined","1","s","109","0","0","0","109","0","109","109","0","0","0","109","109","109","109","Sun Sep 27 15:54:33 2020","600","The main experiment item","yes","FlankerTask.osexp","C:\Users\chris\OneDrive\Desktop\lab","no","mono","no","18","no","white","no","yes","768","legacy","29","79","C:/Users/chris/OneDrive/Desktop/lab/CM-subject-3.csv","legacy","Lentiform Loewenfeld","3.3.3","0","s","h","h","NA","s","470","19313","19639","NA","470","2","legacy","1024","2","48000","-16","experiment","HHSHH","3","odd","239319","22691","186824","NA","238813","3373","225853","240476","3377","167183","NA","240582","241054","240473","240581","Flanker Task","98","54621","110","yes","1024"
"89.1891891891892","89.1891891891892","496.2972972972973","496.2972972972973","black","legacy","legacy","legacy","0","incongruent","uniform","1","undefined","1","h","110","0","0","0","110","0","110","110","0","0","0","110","110","110","110","Sun Sep 27 15:54:33 2020","600","The main experiment item","yes","FlankerTask.osexp","C:\Users\chris\OneDrive\Desktop\lab","no","mono","no","18","no","white","no","yes","768","legacy","30","79","C:/Users/chris/OneDrive/Desktop/lab/CM-subject-3.csv","legacy","Lentiform Loewenfeld","3.3.3","0","h","h","h","NA","h","468","19313","19639","NA","468","2","legacy","1024","2","48000","-16","experiment","SSHSS","3","odd","241063","22691","186824","NA","238813","3373","225853","242225","3377","167183","NA","242330","242802","242222","242330","Flanker Task","99","55089","111","yes","1024"
"89.28571428571429","89.28571428571429","496.67857142857144","496.67857142857144","black","legacy","legacy","legacy","0","incongruent","uniform","1","undefined","1","s","111","0","0","0","111","0","111","111","0","0","0","111","111","111","111","Sun Sep 27 15:54:33 2020","600","The main experiment item","yes","FlankerTask.osexp","C:\Users\chris\OneDrive\Desktop\lab","no","mono","no","18","no","white","no","yes","768","legacy","31","79","C:/Users/chris/OneDrive/Desktop/lab/CM-subject-3.csv","legacy","Lentiform Loewenfeld","3.3.3","0","s","h","h","NA","s","539","19313","19639","NA","539","2","legacy","1024","2","48000","-16","experiment","HHSHH","3","odd","242818","22691","186824","NA","238813","3373","225853","243951","3377","167183","NA","244056","244598","243949","244056","Flanker Task","100","55628","112","yes","1024"
"89.38053097345133","89.38053097345133","496.85840707964604","496.85840707964604","black","legacy","legacy","legacy","0","incongruent","uniform","1","undefined","1","h","112","0","0","0","112","0","112","112","0","0","0","112","112","112","112","Sun Sep 27 15:54:33 2020","600","The main experiment item","yes","FlankerTask.osexp","C:\Users\chris\OneDrive\Desktop\lab","no","mono","no","18","no","white","no","yes","768","legacy","32","79","C:/Users/chris/OneDrive/Desktop/lab/CM-subject-3.csv","legacy","Lentiform Loewenfeld","3.3.3","0","h","h","h","NA","h","517","19313","19639","NA","517","2","legacy","1024","2","48000","-16","experiment","SSHSS","3","odd","244609","22691","186824","NA","238813","3373","225853","245822","3377","167183","NA","245927","246446","245817","245927","Flanker Task","101","56145","113","yes","1024"
"89.47368421052632","89.47368421052632","496.89473684210526","496.89473684210526","black","legacy","legacy","legacy","0","incongruent","uniform","1","undefined","1","h","113","0","0","0","113","0","113","113","0","0","0","113","113","113","113","Sun Sep 27 15:54:33 2020","600","The main experiment item","yes","FlankerTask.osexp","C:\Users\chris\OneDrive\Desktop\lab","no","mono","no","18","no","white","no","yes","768","legacy","33","79","C:/Users/chris/OneDrive/Desktop/lab/CM-subject-3.csv","legacy","Lentiform Loewenfeld","3.3.3","0","h","h","h","NA","h","501","19313","19639","NA","501","2","legacy","1024","2","48000","-16","experiment","SSHSS","3","odd","246458","22691","186824","NA","238813","3373","225853","247637","3377","167183","NA","247742","248246","247633","247742","Flanker Task","102","56646","114","yes","1024"
"89.56521739130434","89.56521739130434","496.81739130434784","496.81739130434784","black","legacy","legacy","legacy","0","incongruent","uniform","1","undefined","1","s","114","0","0","0","114","0","114","114","0","0","0","114","114","114","114","Sun Sep 27 15:54:33 2020","600","The main experiment item","yes","FlankerTask.osexp","C:\Users\chris\OneDrive\Desktop\lab","no","mono","no","18","no","white","no","yes","768","legacy","34","79","C:/Users/chris/OneDrive/Desktop/lab/CM-subject-3.csv","legacy","Lentiform Loewenfeld","3.3.3","0","s","h","h","NA","s","488","19313","19639","NA","488","2","legacy","1024","2","48000","-16","experiment","HHSHH","3","odd","248261","22691","186824","NA","238813","3373","225853","249400","3377","167183","NA","249505","249996","249397","249505","Flanker Task","103","57134","115","yes","1024"
"89.65517241379311","89.65517241379311","496.37068965517244","496.37068965517244","black","legacy","legacy","legacy","0","congruent","uniform","1","undefined","1","h","115","0","0","0","115","0","115","115","0","0","0","115","115","115","115","Sun Sep 27 15:54:33 2020","600","The main experiment item","yes","FlankerTask.osexp","C:\Users\chris\OneDrive\Desktop\lab","no","mono","no","18","no","white","no","yes","768","legacy","35","79","C:/Users/chris/OneDrive/Desktop/lab/CM-subject-3.csv","legacy","Lentiform Loewenfeld","3.3.3","0","h","h","h","NA","h","445","19313","19639","NA","445","2","legacy","1024","2","48000","-16","experiment","HHHHH","3","odd","250010","22691","186824","NA","238813","3373","225853","251131","3377","167183","NA","251237","251684","251128","251236","Flanker Task","104","57579","116","yes","1024"
"89.74358974358974","89.74358974358974","495.77777777777777","495.77777777777777","black","legacy","legacy","legacy","0","congruent","uniform","1","undefined","1","s","116","0","0","0","116","0","116","116","0","0","0","116","116","116","116","Sun Sep 27 15:54:33 2020","600","The main experiment item","yes","FlankerTask.osexp","C:\Users\chris\OneDrive\Desktop\lab","no","mono","no","18","no","white","no","yes","768","legacy","36","79","C:/Users/chris/OneDrive/Desktop/lab/CM-subject-3.csv","legacy","Lentiform Loewenfeld","3.3.3","0","s","h","h","NA","s","427","19313","19639","NA","427","2","legacy","1024","2","48000","-16","experiment","SSSSS","3","odd","251694","22691","186824","NA","238813","3373","225853","252836","3377","167183","NA","252941","253372","252833","252941","Flanker Task","105","58006","117","yes","1024"
"89.83050847457628","89.83050847457628","495.40677966101697","495.40677966101697","black","legacy","legacy","legacy","0","congruent","uniform","1","undefined","1","h","117","0","0","0","117","0","117","117","0","0","0","117","117","117","117","Sun Sep 27 15:54:33 2020","600","The main experiment item","yes","FlankerTask.osexp","C:\Users\chris\OneDrive\Desktop\lab","no","mono","no","18","no","white","no","yes","768","legacy","37","79","C:/Users/chris/OneDrive/Desktop/lab/CM-subject-3.csv","legacy","Lentiform Loewenfeld","3.3.3","0","h","h","h","NA","h","452","19313","19639","NA","452","2","legacy","1024","2","48000","-16","experiment","HHHHH","3","odd","253385","22691","186824","NA","238813","3373","225853","254515","3377","167183","NA","254621","255075","254512","254621","Flanker Task","106","58458","118","yes","1024"
"89.91596638655462","89.91596638655462","495.10084033613447","495.10084033613447","black","legacy","legacy","legacy","0","incongruent","uniform","1","undefined","1","s","118","0","0","0","118","0","118","118","0","0","0","118","118","118","118","Sun Sep 27 15:54:33 2020","600","The main experiment item","yes","FlankerTask.osexp","C:\Users\chris\OneDrive\Desktop\lab","no","mono","no","18","no","white","no","yes","768","legacy","38","79","C:/Users/chris/OneDrive/Desktop/lab/CM-subject-3.csv","legacy","Lentiform Loewenfeld","3.3.3","0","s","h","h","NA","s","459","19313","19639","NA","459","2","legacy","1024","2","48000","-16","experiment","HHSHH","3","odd","255087","22691","186824","NA","238813","3373","225853","256219","3377","167183","NA","256325","256785","256217","256325","Flanker Task","107","58917","119","yes","1024"
"90","90","494.875","494.875","black","legacy","legacy","legacy","0","congruent","uniform","1","undefined","1","h","119","0","0","0","119","0","119","119","0","0","0","119","119","119","119","Sun Sep 27 15:54:33 2020","600","The main experiment item","yes","FlankerTask.osexp","C:\Users\chris\OneDrive\Desktop\lab","no","mono","no","18","no","white","no","yes","768","legacy","39","79","C:/Users/chris/OneDrive/Desktop/lab/CM-subject-3.csv","legacy","Lentiform Loewenfeld","3.3.3","0","h","h","h","NA","h","468","19313","19639","NA","468","2","legacy","1024","2","48000","-16","experiment","HHHHH","3","odd","256796","22691","186824","NA","238813","3373","225853","257940","3377","167183","NA","258045","258517","257937","258045","Flanker Task","108","59385","120","yes","1024"
"90.08264462809917","90.08264462809917","494.6363636363636","494.6363636363636","black","legacy","legacy","legacy","0","congruent","uniform","1","undefined","1","s","120","0","0","0","120","0","120","120","0","0","0","120","120","120","120","Sun Sep 27 15:54:33 2020","600","The main experiment item","yes","FlankerTask.osexp","C:\Users\chris\OneDrive\Desktop\lab","no","mono","no","18","no","white","no","yes","768","legacy","40","79","C:/Users/chris/OneDrive/Desktop/lab/CM-subject-3.csv","legacy","Lentiform Loewenfeld","3.3.3","0","s","h","h","NA","s","466","19313","19639","NA","466","2","legacy","1024","2","48000","-16","experiment","SSSSS","3","odd","258532","22691","186824","NA","238813","3373","225853","259675","3377","167183","NA","259781","260249","259672","259780","Flanker Task","109","59851","121","yes","1024"
"90.1639344262295","90.1639344262295","498.5983606557377","498.5983606557377","black","legacy","legacy","legacy","0","incongruent","uniform","1","undefined","1","s","121","0","0","0","121","0","121","121","0","0","0","121","121","121","121","Sun Sep 27 15:54:33 2020","600","The main experiment item","yes","FlankerTask.osexp","C:\Users\chris\OneDrive\Desktop\lab","no","mono","no","18","no","white","no","yes","768","legacy","41","79","C:/Users/chris/OneDrive/Desktop/lab/CM-subject-3.csv","legacy","Lentiform Loewenfeld","3.3.3","0","s","h","h","NA","s","978","19313","19639","NA","978","2","legacy","1024","2","48000","-16","experiment","HHSHH","3","odd","260262","22691","186824","NA","238813","3373","225853","261402","3377","167183","NA","261507","262490","261399","261507","Flanker Task","110","60829","122","yes","1024"
