"acc","accuracy","average_response_time","avg_rt","background","canvas_backend","clock_backend","color_backend","compensation","condition","coordinates","correct","correct_instructions1","correct_keyboard_response","correct_response","count_ISI","count_block1","count_block2","count_block3","count_errorFeedback","count_experiment","count_faster","count_finish","count_fixation","count_instructions1","count_instructions2","count_instructions3","count_keyboard_response","count_new_logger","count_sequence","count_stimulus","datetime","deadline","description","disable_garbage_collection","experiment_file","experiment_path","font_bold","font_family","font_italic","font_size","font_underline","foreground","form_clicks","fullscreen","height","keyboard_backend","live_row","live_row_block1","logfile","mouse_backend","opensesame_codename","opensesame_version","repeat_cycle","response","response_finish","response_instructions1","response_instructions2","response_instructions3","response_keyboard_response","response_time","response_time_finish","response_time_instructions1","response_time_instructions2","response_time_instructions3","response_time_keyboard_response","round_decimals","sampler_backend","sound_buf_size","sound_channels","sound_freq","sound_sample_size","start","stimulus","subject_nr","subject_parity","time_ISI","time_block1","time_block2","time_block3","time_errorFeedback","time_experiment","time_faster","time_finish","time_fixation","time_instructions1","time_instructions2","time_instructions3","time_keyboard_response","time_new_logger","time_sequence","time_stimulus","title","total_correct","total_response_time","total_responses","uniform_coordinates","width"
"100","100","589","589","black","legacy","legacy","legacy","0","congruent","uniform","1","undefined","1","h","0","0","0","0","0","0","0","0","0","0","0","0","0","0","0","0","Sat Sep 19 18:43:02 2020","1500","The main experiment item","yes","Flankertask.osexp","/Users/annielenoir/Desktop","no","mono","no","18","no","white","no","yes","768","legacy","0","0","/Users/annielenoir/Desktop/AL-subject-1.csv","legacy","Lentiform Loewenfeld","3.3.3","0","h","NA","s","NA","NA","h","589","NA","20088","NA","NA","589","2","legacy","1024","2","48000","-16","experiment","HHHHH","1","odd","NA","22602","NA","NA","NA","2489","NA","NA","22659","2502","NA","NA","22772","23362","22647","22772","Flanker task","1","589","1","yes","1024"
"100","100","505","505","black","legacy","legacy","legacy","0","congruent","uniform","1","undefined","1","h","1","0","0","0","1","0","1","0","1","0","0","0","1","1","1","1","Sat Sep 19 18:43:02 2020","1500","The main experiment item","yes","Flankertask.osexp","/Users/annielenoir/Desktop","no","mono","no","18","no","white","no","yes","768","legacy","1","1","/Users/annielenoir/Desktop/AL-subject-1.csv","legacy","Lentiform Loewenfeld","3.3.3","0","h","NA","s","NA","NA","h","421","NA","20088","NA","NA","421","2","legacy","1024","2","48000","-16","experiment","HHHHH","1","odd","23377","22602","NA","NA","NA","2489","NA","NA","24457","2502","NA","NA","24572","24995","24443","24572","Flanker task","2","1010","2","yes","1024"
"100","100","476","476","black","legacy","legacy","legacy","0","incongruent","uniform","1","undefined","1","s","2","0","0","0","2","0","2","0","2","0","0","0","2","2","2","2","Sat Sep 19 18:43:02 2020","1500","The main experiment item","yes","Flankertask.osexp","/Users/annielenoir/Desktop","no","mono","no","18","no","white","no","yes","768","legacy","2","2","/Users/annielenoir/Desktop/AL-subject-1.csv","legacy","Lentiform Loewenfeld","3.3.3","0","s","NA","s","NA","NA","s","418","NA","20088","NA","NA","418","2","legacy","1024","2","48000","-16","experiment","HHSHH","1","odd","25007","22602","NA","NA","NA","2489","NA","NA","26063","2502","NA","NA","26175","26595","26051","26175","Flanker task","3","1428","3","yes","1024"
"75","75","448","448","black","legacy","legacy","legacy","0","incongruent","uniform","0","undefined","0","h","3","0","0","0","3","0","3","0","3","0","0","0","3","3","3","3","Sat Sep 19 18:43:02 2020","1500","The main experiment item","yes","Flankertask.osexp","/Users/annielenoir/Desktop","no","mono","no","18","no","white","no","yes","768","legacy","3","3","/Users/annielenoir/Desktop/AL-subject-1.csv","legacy","Lentiform Loewenfeld","3.3.3","0","s","NA","s","NA","NA","s","364","NA","20088","NA","NA","364","2","legacy","1024","2","48000","-16","experiment","SSHSS","1","odd","26615","22602","NA","NA","NA","2489","NA","NA","27681","2502","NA","NA","27797","28163","27666","27797","Flanker task","3","1792","4","yes","1024"
"80","80","473.6","473.6","black","legacy","legacy","legacy","0","incongruent","uniform","1","undefined","1","h","4","0","0","0","4","0","4","0","4","0","0","0","4","4","4","4","Sat Sep 19 18:43:02 2020","1500","The main experiment item","yes","Flankertask.osexp","/Users/annielenoir/Desktop","no","mono","no","18","no","white","no","yes","768","legacy","4","4","/Users/annielenoir/Desktop/AL-subject-1.csv","legacy","Lentiform Loewenfeld","3.3.3","0","h","NA","s","NA","NA","h","576","NA","20088","NA","NA","576","2","legacy","1024","2","48000","-16","experiment","SSHSS","1","odd","28697","22602","NA","NA","28182","2489","NA","NA","29768","2502","NA","NA","29883","30460","29753","29883","Flanker task","4","2368","5","yes","1024"
"83.33333333333333","83.33333333333333","464.3333333333333","464.3333333333333","black","legacy","legacy","legacy","0","congruent","uniform","1","undefined","1","h","5","0","0","0","5","0","5","0","5","0","0","0","5","5","5","5","Sat Sep 19 18:43:02 2020","1500","The main experiment item","yes","Flankertask.osexp","/Users/annielenoir/Desktop","no","mono","no","18","no","white","no","yes","768","legacy","5","5","/Users/annielenoir/Desktop/AL-subject-1.csv","legacy","Lentiform Loewenfeld","3.3.3","0","h","NA","s","NA","NA","h","418","NA","20088","NA","NA","418","2","legacy","1024","2","48000","-16","experiment","HHHHH","1","odd","30481","22602","NA","NA","28182","2489","NA","NA","31550","2502","NA","NA","31665","32084","31535","31665","Flanker task","5","2786","6","yes","1024"
"85.71428571428571","85.71428571428571","473.14285714285717","473.14285714285717","black","legacy","legacy","legacy","0","congruent","uniform","1","undefined","1","s","6","0","0","0","6","0","6","0","6","0","0","0","6","6","6","6","Sat Sep 19 18:43:02 2020","1500","The main experiment item","yes","Flankertask.osexp","/Users/annielenoir/Desktop","no","mono","no","18","no","white","no","yes","768","legacy","6","6","/Users/annielenoir/Desktop/AL-subject-1.csv","legacy","Lentiform Loewenfeld","3.3.3","0","s","NA","s","NA","NA","s","526","NA","20088","NA","NA","526","2","legacy","1024","2","48000","-16","experiment","SSSSS","1","odd","32105","22602","NA","NA","28182","2489","NA","NA","33179","2502","NA","NA","33294","33821","33164","33294","Flanker task","6","3312","7","yes","1024"
"87.5","87.5","465.625","465.625","black","legacy","legacy","legacy","0","incongruent","uniform","1","undefined","1","h","7","0","0","0","7","0","7","0","7","0","0","0","7","7","7","7","Sat Sep 19 18:43:02 2020","1500","The main experiment item","yes","Flankertask.osexp","/Users/annielenoir/Desktop","no","mono","no","18","no","white","no","yes","768","legacy","7","7","/Users/annielenoir/Desktop/AL-subject-1.csv","legacy","Lentiform Loewenfeld","3.3.3","0","h","NA","s","NA","NA","h","413","NA","20088","NA","NA","413","2","legacy","1024","2","48000","-16","experiment","SSHSS","1","odd","33841","22602","NA","NA","28182","2489","NA","NA","34909","2502","NA","NA","35024","35438","34894","35024","Flanker task","7","3725","8","yes","1024"
"88.88888888888889","88.88888888888889","469.44444444444446","469.44444444444446","black","legacy","legacy","legacy","0","incongruent","uniform","1","undefined","1","h","8","0","0","0","8","0","8","0","8","0","0","0","8","8","8","8","Sat Sep 19 18:43:02 2020","1500","The main experiment item","yes","Flankertask.osexp","/Users/annielenoir/Desktop","no","mono","no","18","no","white","no","yes","768","legacy","8","8","/Users/annielenoir/Desktop/AL-subject-1.csv","legacy","Lentiform Loewenfeld","3.3.3","0","h","NA","s","NA","NA","h","500","NA","20088","NA","NA","500","2","legacy","1024","2","48000","-16","experiment","SSHSS","1","odd","35458","22602","NA","NA","28182","2489","NA","NA","36527","2502","NA","NA","36643","37144","36512","36643","Flanker task","8","4225","9","yes","1024"
"90","90","473.5","473.5","black","legacy","legacy","legacy","0","incongruent","uniform","1","undefined","1","s","9","0","0","0","9","0","9","0","9","0","0","0","9","9","9","9","Sat Sep 19 18:43:02 2020","1500","The main experiment item","yes","Flankertask.osexp","/Users/annielenoir/Desktop","no","mono","no","18","no","white","no","yes","768","legacy","9","9","/Users/annielenoir/Desktop/AL-subject-1.csv","legacy","Lentiform Loewenfeld","3.3.3","0","s","NA","s","NA","NA","s","510","NA","20088","NA","NA","510","2","legacy","1024","2","48000","-16","experiment","HHSHH","1","odd","37164","22602","NA","NA","28182","2489","NA","NA","38233","2502","NA","NA","38348","38859","38218","38348","Flanker task","9","4735","10","yes","1024"
"90.9090909090909","90.9090909090909","475.90909090909093","475.90909090909093","black","legacy","legacy","legacy","0","incongruent","uniform","1","undefined","1","h","10","0","0","0","10","0","10","0","10","0","0","0","10","10","10","10","Sat Sep 19 18:43:02 2020","1500","The main experiment item","yes","Flankertask.osexp","/Users/annielenoir/Desktop","no","mono","no","18","no","white","no","yes","768","legacy","10","10","/Users/annielenoir/Desktop/AL-subject-1.csv","legacy","Lentiform Loewenfeld","3.3.3","0","h","NA","s","NA","NA","h","500","NA","20088","NA","NA","500","2","legacy","1024","2","48000","-16","experiment","SSHSS","1","odd","38879","22602","NA","NA","28182","2489","NA","NA","39949","2502","NA","NA","40065","40566","39934","40065","Flanker task","10","5235","11","yes","1024"
"91.66666666666667","91.66666666666667","475.6666666666667","475.6666666666667","black","legacy","legacy","legacy","0","congruent","uniform","1","undefined","1","s","11","0","0","0","11","0","11","0","11","0","0","0","11","11","11","11","Sat Sep 19 18:43:02 2020","1500","The main experiment item","yes","Flankertask.osexp","/Users/annielenoir/Desktop","no","mono","no","18","no","white","no","yes","768","legacy","11","11","/Users/annielenoir/Desktop/AL-subject-1.csv","legacy","Lentiform Loewenfeld","3.3.3","0","s","NA","s","NA","NA","s","473","NA","20088","NA","NA","473","2","legacy","1024","2","48000","-16","experiment","SSSSS","1","odd","40580","22602","NA","NA","28182","2489","NA","NA","41646","2502","NA","NA","41760","42235","41631","41760","Flanker task","11","5708","12","yes","1024"
"92.3076923076923","92.3076923076923","473.2307692307692","473.2307692307692","black","legacy","legacy","legacy","0","incongruent","uniform","1","undefined","1","s","12","0","0","0","12","0","12","0","12","0","0","0","12","12","12","12","Sat Sep 19 18:43:02 2020","1500","The main experiment item","yes","Flankertask.osexp","/Users/annielenoir/Desktop","no","mono","no","18","no","white","no","yes","768","legacy","12","12","/Users/annielenoir/Desktop/AL-subject-1.csv","legacy","Lentiform Loewenfeld","3.3.3","0","s","NA","s","NA","NA","s","444","NA","20088","NA","NA","444","2","legacy","1024","2","48000","-16","experiment","HHSHH","1","odd","42254","22602","NA","NA","28182","2489","NA","NA","43323","2502","NA","NA","43439","43884","43308","43438","Flanker task","12","6152","13","yes","1024"
"92.85714285714286","92.85714285714286","476.5","476.5","black","legacy","legacy","legacy","0","congruent","uniform","1","undefined","1","h","13","0","0","0","13","0","13","0","13","0","0","0","13","13","13","13","Sat Sep 19 18:43:02 2020","1500","The main experiment item","yes","Flankertask.osexp","/Users/annielenoir/Desktop","no","mono","no","18","no","white","no","yes","768","legacy","13","13","/Users/annielenoir/Desktop/AL-subject-1.csv","legacy","Lentiform Loewenfeld","3.3.3","0","h","NA","s","NA","NA","h","519","NA","20088","NA","NA","519","2","legacy","1024","2","48000","-16","experiment","HHHHH","1","odd","43904","22602","NA","NA","28182","2489","NA","NA","44973","2502","NA","NA","45090","45610","44958","45090","Flanker task","13","6671","14","yes","1024"
"93.33333333333333","93.33333333333333","478.2","478.2","black","legacy","legacy","legacy","0","congruent","uniform","1","undefined","1","h","14","0","0","0","14","0","14","0","14","0","0","0","14","14","14","14","Sat Sep 19 18:43:02 2020","1500","The main experiment item","yes","Flankertask.osexp","/Users/annielenoir/Desktop","no","mono","no","18","no","white","no","yes","768","legacy","14","14","/Users/annielenoir/Desktop/AL-subject-1.csv","legacy","Lentiform Loewenfeld","3.3.3","0","h","NA","s","NA","NA","h","502","NA","20088","NA","NA","502","2","legacy","1024","2","48000","-16","experiment","HHHHH","1","odd","45632","22602","NA","NA","28182","2489","NA","NA","46705","2502","NA","NA","46821","47324","46689","46820","Flanker task","14","7173","15","yes","1024"
"93.75","93.75","478.5625","478.5625","black","legacy","legacy","legacy","0","incongruent","uniform","1","undefined","1","h","15","0","0","0","15","0","15","0","15","0","0","0","15","15","15","15","Sat Sep 19 18:43:02 2020","1500","The main experiment item","yes","Flankertask.osexp","/Users/annielenoir/Desktop","no","mono","no","18","no","white","no","yes","768","legacy","15","15","/Users/annielenoir/Desktop/AL-subject-1.csv","legacy","Lentiform Loewenfeld","3.3.3","0","h","NA","s","NA","NA","h","484","NA","20088","NA","NA","484","2","legacy","1024","2","48000","-16","experiment","SSHSS","1","odd","47344","22602","NA","NA","28182","2489","NA","NA","48415","2502","NA","NA","48531","49016","48400","48531","Flanker task","15","7657","16","yes","1024"
"94.11764705882354","94.11764705882354","474.70588235294116","474.70588235294116","black","legacy","legacy","legacy","0","congruent","uniform","1","undefined","1","s","16","0","0","0","16","0","16","0","16","0","0","0","16","16","16","16","Sat Sep 19 18:43:02 2020","1500","The main experiment item","yes","Flankertask.osexp","/Users/annielenoir/Desktop","no","mono","no","18","no","white","no","yes","768","legacy","16","16","/Users/annielenoir/Desktop/AL-subject-1.csv","legacy","Lentiform Loewenfeld","3.3.3","0","s","NA","s","NA","NA","s","413","NA","20088","NA","NA","413","2","legacy","1024","2","48000","-16","experiment","SSSSS","1","odd","49036","22602","NA","NA","28182","2489","NA","NA","50108","2502","NA","NA","50225","50639","50093","50225","Flanker task","16","8070","17","yes","1024"
"94.44444444444444","94.44444444444444","470.1111111111111","470.1111111111111","black","legacy","legacy","legacy","0","incongruent","uniform","1","undefined","1","s","17","0","0","0","17","0","17","0","17","0","0","0","17","17","17","17","Sat Sep 19 18:43:02 2020","1500","The main experiment item","yes","Flankertask.osexp","/Users/annielenoir/Desktop","no","mono","no","18","no","white","no","yes","768","legacy","17","17","/Users/annielenoir/Desktop/AL-subject-1.csv","legacy","Lentiform Loewenfeld","3.3.3","0","s","NA","s","NA","NA","s","392","NA","20088","NA","NA","392","2","legacy","1024","2","48000","-16","experiment","HHSHH","1","odd","50659","22602","NA","NA","28182","2489","NA","NA","51733","2502","NA","NA","51849","52243","51718","51848","Flanker task","17","8462","18","yes","1024"
"94.73684210526316","94.73684210526316","468.5263157894737","468.5263157894737","black","legacy","legacy","legacy","0","congruent","uniform","1","undefined","1","h","18","0","0","0","18","0","18","0","18","0","0","0","18","18","18","18","Sat Sep 19 18:43:02 2020","1500","The main experiment item","yes","Flankertask.osexp","/Users/annielenoir/Desktop","no","mono","no","18","no","white","no","yes","768","legacy","18","18","/Users/annielenoir/Desktop/AL-subject-1.csv","legacy","Lentiform Loewenfeld","3.3.3","0","h","NA","s","NA","NA","h","440","NA","20088","NA","NA","440","2","legacy","1024","2","48000","-16","experiment","HHHHH","1","odd","52262","22602","NA","NA","28182","2489","NA","NA","53332","2502","NA","NA","53448","53889","53317","53448","Flanker task","18","8902","19","yes","1024"
"95","95","470.55","470.55","black","legacy","legacy","legacy","0","congruent","uniform","1","undefined","1","s","19","0","0","0","19","0","19","0","19","0","0","0","19","19","19","19","Sat Sep 19 18:43:02 2020","1500","The main experiment item","yes","Flankertask.osexp","/Users/annielenoir/Desktop","no","mono","no","18","no","white","no","yes","768","legacy","19","19","/Users/annielenoir/Desktop/AL-subject-1.csv","legacy","Lentiform Loewenfeld","3.3.3","0","s","NA","s","NA","NA","s","509","NA","20088","NA","NA","509","2","legacy","1024","2","48000","-16","experiment","SSSSS","1","odd","53910","22602","NA","NA","28182","2489","NA","NA","54981","2502","NA","NA","55097","55607","54965","55097","Flanker task","19","9411","20","yes","1024"
"95.23809523809524","95.23809523809524","468.57142857142856","468.57142857142856","black","legacy","legacy","legacy","0","incongruent","uniform","1","undefined","1","s","20","0","0","0","20","0","20","0","20","0","0","0","20","20","20","20","Sat Sep 19 18:43:02 2020","1500","The main experiment item","yes","Flankertask.osexp","/Users/annielenoir/Desktop","no","mono","no","18","no","white","no","yes","768","legacy","20","20","/Users/annielenoir/Desktop/AL-subject-1.csv","legacy","Lentiform Loewenfeld","3.3.3","0","s","NA","s","NA","NA","s","429","NA","20088","NA","NA","429","2","legacy","1024","2","48000","-16","experiment","HHSHH","1","odd","55627","22602","NA","NA","28182","2489","NA","NA","56700","2502","NA","NA","56816","57247","56684","56816","Flanker task","20","9840","21","yes","1024"
"95.45454545454545","95.45454545454545","465.22727272727275","465.22727272727275","black","legacy","legacy","legacy","0","congruent","uniform","1","undefined","1","s","21","0","0","0","21","0","21","0","21","0","0","0","21","21","21","21","Sat Sep 19 18:43:02 2020","1500","The main experiment item","yes","Flankertask.osexp","/Users/annielenoir/Desktop","no","mono","no","18","no","white","no","yes","768","legacy","21","21","/Users/annielenoir/Desktop/AL-subject-1.csv","legacy","Lentiform Loewenfeld","3.3.3","0","s","NA","s","NA","NA","s","395","NA","20088","NA","NA","395","2","legacy","1024","2","48000","-16","experiment","SSSSS","1","odd","57267","22602","NA","NA","28182","2489","NA","NA","58337","2502","NA","NA","58454","58851","58322","58454","Flanker task","21","10235","22","yes","1024"
"91.30434782608695","91.30434782608695","462.39130434782606","462.39130434782606","black","legacy","legacy","legacy","0","incongruent","uniform","0","undefined","0","h","22","0","0","0","22","0","22","0","22","0","0","0","22","22","22","22","Sat Sep 19 18:43:02 2020","1500","The main experiment item","yes","Flankertask.osexp","/Users/annielenoir/Desktop","no","mono","no","18","no","white","no","yes","768","legacy","22","22","/Users/annielenoir/Desktop/AL-subject-1.csv","legacy","Lentiform Loewenfeld","3.3.3","0","s","NA","s","NA","NA","s","400","NA","20088","NA","NA","400","2","legacy","1024","2","48000","-16","experiment","SSHSS","1","odd","58872","22602","NA","NA","28182","2489","NA","NA","59941","2502","NA","NA","60056","60457","59926","60056","Flanker task","21","10635","23","yes","1024"
"91.66666666666667","91.66666666666667","466.25","466.25","black","legacy","legacy","legacy","0","incongruent","uniform","1","undefined","1","h","23","0","0","0","23","0","23","0","23","0","0","0","23","23","23","23","Sat Sep 19 18:43:02 2020","1500","The main experiment item","yes","Flankertask.osexp","/Users/annielenoir/Desktop","no","mono","no","18","no","white","no","yes","768","legacy","23","23","/Users/annielenoir/Desktop/AL-subject-1.csv","legacy","Lentiform Loewenfeld","3.3.3","0","h","NA","s","NA","NA","h","555","NA","20088","NA","NA","555","2","legacy","1024","2","48000","-16","experiment","SSHSS","1","odd","60993","22602","NA","NA","60478","2489","NA","NA","62061","2502","NA","NA","62177","62734","62046","62176","Flanker task","22","11190","24","yes","1024"
"92","92","462.44","462.44","black","legacy","legacy","legacy","0","congruent","uniform","1","undefined","1","s","24","0","0","0","24","0","24","0","24","0","0","0","24","24","24","24","Sat Sep 19 18:43:02 2020","1500","The main experiment item","yes","Flankertask.osexp","/Users/annielenoir/Desktop","no","mono","no","18","no","white","no","yes","768","legacy","24","24","/Users/annielenoir/Desktop/AL-subject-1.csv","legacy","Lentiform Loewenfeld","3.3.3","0","s","NA","s","NA","NA","s","371","NA","20088","NA","NA","371","2","legacy","1024","2","48000","-16","experiment","SSSSS","1","odd","62756","22602","NA","NA","60478","2489","NA","NA","63826","2502","NA","NA","63942","64314","63811","63942","Flanker task","23","11561","25","yes","1024"
"92.3076923076923","92.3076923076923","461.88461538461536","461.88461538461536","black","legacy","legacy","legacy","0","incongruent","uniform","1","undefined","1","h","25","0","0","0","25","0","25","0","25","0","0","0","25","25","25","25","Sat Sep 19 18:43:02 2020","1500","The main experiment item","yes","Flankertask.osexp","/Users/annielenoir/Desktop","no","mono","no","18","no","white","no","yes","768","legacy","25","25","/Users/annielenoir/Desktop/AL-subject-1.csv","legacy","Lentiform Loewenfeld","3.3.3","0","h","NA","s","NA","NA","h","448","NA","20088","NA","NA","448","2","legacy","1024","2","48000","-16","experiment","SSHSS","1","odd","64328","22602","NA","NA","60478","2489","NA","NA","65400","2502","NA","NA","65516","65965","65384","65515","Flanker task","24","12009","26","yes","1024"
"92.5925925925926","92.5925925925926","458.85185185185185","458.85185185185185","black","legacy","legacy","legacy","0","congruent","uniform","1","undefined","1","s","26","0","0","0","26","0","26","0","26","0","0","0","26","26","26","26","Sat Sep 19 18:43:02 2020","1500","The main experiment item","yes","Flankertask.osexp","/Users/annielenoir/Desktop","no","mono","no","18","no","white","no","yes","768","legacy","26","26","/Users/annielenoir/Desktop/AL-subject-1.csv","legacy","Lentiform Loewenfeld","3.3.3","0","s","NA","s","NA","NA","s","380","NA","20088","NA","NA","380","2","legacy","1024","2","48000","-16","experiment","SSSSS","1","odd","65986","22602","NA","NA","60478","2489","NA","NA","67055","2502","NA","NA","67170","67552","67039","67170","Flanker task","25","12389","27","yes","1024"
"92.85714285714286","92.85714285714286","459.75","459.75","black","legacy","legacy","legacy","0","congruent","uniform","1","undefined","1","s","27","0","0","0","27","0","27","0","27","0","0","0","27","27","27","27","Sat Sep 19 18:43:02 2020","1500","The main experiment item","yes","Flankertask.osexp","/Users/annielenoir/Desktop","no","mono","no","18","no","white","no","yes","768","legacy","27","27","/Users/annielenoir/Desktop/AL-subject-1.csv","legacy","Lentiform Loewenfeld","3.3.3","0","s","NA","s","NA","NA","s","484","NA","20088","NA","NA","484","2","legacy","1024","2","48000","-16","experiment","SSSSS","1","odd","67572","22602","NA","NA","60478","2489","NA","NA","68640","2502","NA","NA","68757","69243","68625","68757","Flanker task","26","12873","28","yes","1024"
"93.10344827586206","93.10344827586206","457.62068965517244","457.62068965517244","black","legacy","legacy","legacy","0","congruent","uniform","1","undefined","1","s","28","0","0","0","28","0","28","0","28","0","0","0","28","28","28","28","Sat Sep 19 18:43:02 2020","1500","The main experiment item","yes","Flankertask.osexp","/Users/annielenoir/Desktop","no","mono","no","18","no","white","no","yes","768","legacy","28","28","/Users/annielenoir/Desktop/AL-subject-1.csv","legacy","Lentiform Loewenfeld","3.3.3","0","s","NA","s","NA","NA","s","398","NA","20088","NA","NA","398","2","legacy","1024","2","48000","-16","experiment","SSSSS","1","odd","69262","22602","NA","NA","60478","2489","NA","NA","70332","2502","NA","NA","70447","70847","70317","70447","Flanker task","27","13271","29","yes","1024"
"93.33333333333333","93.33333333333333","461.56666666666666","461.56666666666666","black","legacy","legacy","legacy","0","incongruent","uniform","1","undefined","1","s","29","0","0","0","29","0","29","0","29","0","0","0","29","29","29","29","Sat Sep 19 18:43:02 2020","1500","The main experiment item","yes","Flankertask.osexp","/Users/annielenoir/Desktop","no","mono","no","18","no","white","no","yes","768","legacy","29","29","/Users/annielenoir/Desktop/AL-subject-1.csv","legacy","Lentiform Loewenfeld","3.3.3","0","s","NA","s","NA","NA","s","576","NA","20088","NA","NA","576","2","legacy","1024","2","48000","-16","experiment","HHSHH","1","odd","70868","22602","NA","NA","60478","2489","NA","NA","71942","2502","NA","NA","72055","72633","71926","72055","Flanker task","28","13847","30","yes","1024"
"93.54838709677419","93.54838709677419","461.6774193548387","461.6774193548387","black","legacy","legacy","legacy","0","incongruent","uniform","1","undefined","1","h","30","0","0","0","30","0","30","0","30","0","0","0","30","30","30","30","Sat Sep 19 18:43:02 2020","1500","The main experiment item","yes","Flankertask.osexp","/Users/annielenoir/Desktop","no","mono","no","18","no","white","no","yes","768","legacy","30","30","/Users/annielenoir/Desktop/AL-subject-1.csv","legacy","Lentiform Loewenfeld","3.3.3","0","h","NA","s","NA","NA","h","465","NA","20088","NA","NA","465","2","legacy","1024","2","48000","-16","experiment","SSHSS","1","odd","72654","22602","NA","NA","60478","2489","NA","NA","73727","2502","NA","NA","73843","74310","73712","73843","Flanker task","29","14312","31","yes","1024"
"93.75","93.75","460.875","460.875","black","legacy","legacy","legacy","0","congruent","uniform","1","undefined","1","h","31","0","0","0","31","0","31","0","31","0","0","0","31","31","31","31","Sat Sep 19 18:43:02 2020","1500","The main experiment item","yes","Flankertask.osexp","/Users/annielenoir/Desktop","no","mono","no","18","no","white","no","yes","768","legacy","31","31","/Users/annielenoir/Desktop/AL-subject-1.csv","legacy","Lentiform Loewenfeld","3.3.3","0","h","NA","s","NA","NA","h","436","NA","20088","NA","NA","436","2","legacy","1024","2","48000","-16","experiment","HHHHH","1","odd","74329","22602","NA","NA","60478","2489","NA","NA","75402","2502","NA","NA","75518","75955","75387","75518","Flanker task","30","14748","32","yes","1024"
"93.93939393939394","93.93939393939394","458.8484848484849","458.8484848484849","black","legacy","legacy","legacy","0","congruent","uniform","1","undefined","1","h","32","0","0","0","32","0","32","0","32","0","0","0","32","32","32","32","Sat Sep 19 18:43:02 2020","1500","The main experiment item","yes","Flankertask.osexp","/Users/annielenoir/Desktop","no","mono","no","18","no","white","no","yes","768","legacy","32","32","/Users/annielenoir/Desktop/AL-subject-1.csv","legacy","Lentiform Loewenfeld","3.3.3","0","h","NA","s","NA","NA","h","394","NA","20088","NA","NA","394","2","legacy","1024","2","48000","-16","experiment","HHHHH","1","odd","75976","22602","NA","NA","60478","2489","NA","NA","77045","2502","NA","NA","77160","77556","77030","77160","Flanker task","31","15142","33","yes","1024"
"94.11764705882354","94.11764705882354","461.02941176470586","461.02941176470586","black","legacy","legacy","legacy","0","incongruent","uniform","1","undefined","1","s","33","0","0","0","33","0","33","0","33","0","0","0","33","33","33","33","Sat Sep 19 18:43:02 2020","1500","The main experiment item","yes","Flankertask.osexp","/Users/annielenoir/Desktop","no","mono","no","18","no","white","no","yes","768","legacy","33","33","/Users/annielenoir/Desktop/AL-subject-1.csv","legacy","Lentiform Loewenfeld","3.3.3","0","s","NA","s","NA","NA","s","533","NA","20088","NA","NA","533","2","legacy","1024","2","48000","-16","experiment","HHSHH","1","odd","77577","22602","NA","NA","60478","2489","NA","NA","78649","2502","NA","NA","78766","79301","78634","78766","Flanker task","32","15675","34","yes","1024"
"94.28571428571429","94.28571428571429","459.2","459.2","black","legacy","legacy","legacy","0","congruent","uniform","1","undefined","1","s","34","0","0","0","34","0","34","0","34","0","0","0","34","34","34","34","Sat Sep 19 18:43:02 2020","1500","The main experiment item","yes","Flankertask.osexp","/Users/annielenoir/Desktop","no","mono","no","18","no","white","no","yes","768","legacy","34","34","/Users/annielenoir/Desktop/AL-subject-1.csv","legacy","Lentiform Loewenfeld","3.3.3","0","s","NA","s","NA","NA","s","397","NA","20088","NA","NA","397","2","legacy","1024","2","48000","-16","experiment","SSSSS","1","odd","79322","22602","NA","NA","60478","2489","NA","NA","80393","2502","NA","NA","80508","80907","80377","80508","Flanker task","33","16072","35","yes","1024"
"94.44444444444444","94.44444444444444","459.1666666666667","459.1666666666667","black","legacy","legacy","legacy","0","congruent","uniform","1","undefined","1","h","35","0","0","0","35","0","35","0","35","0","0","0","35","35","35","35","Sat Sep 19 18:43:02 2020","1500","The main experiment item","yes","Flankertask.osexp","/Users/annielenoir/Desktop","no","mono","no","18","no","white","no","yes","768","legacy","35","35","/Users/annielenoir/Desktop/AL-subject-1.csv","legacy","Lentiform Loewenfeld","3.3.3","0","h","NA","s","NA","NA","h","458","NA","20088","NA","NA","458","2","legacy","1024","2","48000","-16","experiment","HHHHH","1","odd","80926","22602","NA","NA","60478","2489","NA","NA","81996","2502","NA","NA","82112","82571","81980","82111","Flanker task","34","16530","36","yes","1024"
"94.5945945945946","94.5945945945946","458.02702702702703","458.02702702702703","black","legacy","legacy","legacy","0","incongruent","uniform","1","undefined","1","h","36","0","0","0","36","0","36","0","36","0","0","0","36","36","36","36","Sat Sep 19 18:43:02 2020","1500","The main experiment item","yes","Flankertask.osexp","/Users/annielenoir/Desktop","no","mono","no","18","no","white","no","yes","768","legacy","36","36","/Users/annielenoir/Desktop/AL-subject-1.csv","legacy","Lentiform Loewenfeld","3.3.3","0","h","NA","s","NA","NA","h","417","NA","20088","NA","NA","417","2","legacy","1024","2","48000","-16","experiment","SSHSS","1","odd","82592","22602","NA","NA","60478","2489","NA","NA","83662","2502","NA","NA","83778","84196","83647","83778","Flanker task","35","16947","37","yes","1024"
"94.73684210526316","94.73684210526316","459.5","459.5","black","legacy","legacy","legacy","0","incongruent","uniform","1","undefined","1","s","37","0","0","0","37","0","37","0","37","0","0","0","37","37","37","37","Sat Sep 19 18:43:02 2020","1500","The main experiment item","yes","Flankertask.osexp","/Users/annielenoir/Desktop","no","mono","no","18","no","white","no","yes","768","legacy","37","37","/Users/annielenoir/Desktop/AL-subject-1.csv","legacy","Lentiform Loewenfeld","3.3.3","0","s","NA","s","NA","NA","s","514","NA","20088","NA","NA","514","2","legacy","1024","2","48000","-16","experiment","HHSHH","1","odd","84217","22602","NA","NA","60478","2489","NA","NA","85287","2502","NA","NA","85403","85918","85272","85403","Flanker task","36","17461","38","yes","1024"
"94.87179487179488","94.87179487179488","459.20512820512823","459.20512820512823","black","legacy","legacy","legacy","0","congruent","uniform","1","undefined","1","h","38","0","0","0","38","0","38","0","38","0","0","0","38","38","38","38","Sat Sep 19 18:43:02 2020","1500","The main experiment item","yes","Flankertask.osexp","/Users/annielenoir/Desktop","no","mono","no","18","no","white","no","yes","768","legacy","38","38","/Users/annielenoir/Desktop/AL-subject-1.csv","legacy","Lentiform Loewenfeld","3.3.3","0","h","NA","s","NA","NA","h","448","NA","20088","NA","NA","448","2","legacy","1024","2","48000","-16","experiment","HHHHH","1","odd","85939","22602","NA","NA","60478","2489","NA","NA","87013","2502","NA","NA","87129","87578","86998","87128","Flanker task","37","17909","39","yes","1024"
"95","95","458.95","458.95","black","legacy","legacy","legacy","0","incongruent","uniform","1","undefined","1","s","39","0","0","0","39","0","39","0","39","0","0","0","39","39","39","39","Sat Sep 19 18:43:02 2020","1500","The main experiment item","yes","Flankertask.osexp","/Users/annielenoir/Desktop","no","mono","no","18","no","white","no","yes","768","legacy","39","39","/Users/annielenoir/Desktop/AL-subject-1.csv","legacy","Lentiform Loewenfeld","3.3.3","0","s","NA","s","NA","NA","s","449","NA","20088","NA","NA","449","2","legacy","1024","2","48000","-16","experiment","HHSHH","1","odd","87598","22602","NA","NA","60478","2489","NA","NA","88655","2502","NA","NA","88767","89217","88642","88767","Flanker task","38","18358","40","yes","1024"
"95.1219512195122","95.1219512195122","457.8536585365854","457.8536585365854","black","legacy","legacy","legacy","0","congruent","uniform","1","undefined","1","s","40","0","0","0","40","0","40","0","40","0","0","0","40","40","40","40","Sat Sep 19 18:43:02 2020","1500","The main experiment item","yes","Flankertask.osexp","/Users/annielenoir/Desktop","no","mono","no","18","no","white","no","yes","768","legacy","40","40","/Users/annielenoir/Desktop/AL-subject-1.csv","legacy","Lentiform Loewenfeld","3.3.3","0","s","NA","s","NA","NA","s","414","NA","20088","NA","NA","414","2","legacy","1024","2","48000","-16","experiment","SSSSS","1","odd","89239","22602","NA","NA","60478","2489","NA","NA","90310","2502","NA","NA","90425","90840","90294","90425","Flanker task","39","18772","41","yes","1024"
"95.23809523809524","95.23809523809524","458.14285714285717","458.14285714285717","black","legacy","legacy","legacy","0","incongruent","uniform","1","undefined","1","s","41","0","0","0","41","0","41","0","41","0","0","0","41","41","41","41","Sat Sep 19 18:43:02 2020","1500","The main experiment item","yes","Flankertask.osexp","/Users/annielenoir/Desktop","no","mono","no","18","no","white","no","yes","768","legacy","41","41","/Users/annielenoir/Desktop/AL-subject-1.csv","legacy","Lentiform Loewenfeld","3.3.3","0","s","NA","s","NA","NA","s","470","NA","20088","NA","NA","470","2","legacy","1024","2","48000","-16","experiment","HHSHH","1","odd","90860","22602","NA","NA","60478","2489","NA","NA","91930","2502","NA","NA","92045","92517","91915","92045","Flanker task","40","19242","42","yes","1024"
"95.34883720930233","95.34883720930233","458.8139534883721","458.8139534883721","black","legacy","legacy","legacy","0","incongruent","uniform","1","undefined","1","h","42","0","0","0","42","0","42","0","42","0","0","0","42","42","42","42","Sat Sep 19 18:43:02 2020","1500","The main experiment item","yes","Flankertask.osexp","/Users/annielenoir/Desktop","no","mono","no","18","no","white","no","yes","768","legacy","42","42","/Users/annielenoir/Desktop/AL-subject-1.csv","legacy","Lentiform Loewenfeld","3.3.3","0","h","NA","s","NA","NA","h","487","NA","20088","NA","NA","487","2","legacy","1024","2","48000","-16","experiment","SSHSS","1","odd","92536","22602","NA","NA","60478","2489","NA","NA","93605","2502","NA","NA","93721","94209","93589","93720","Flanker task","41","19729","43","yes","1024"
"95.45454545454545","95.45454545454545","457.20454545454544","457.20454545454544","black","legacy","legacy","legacy","0","congruent","uniform","1","undefined","1","s","43","0","0","0","43","0","43","0","43","0","0","0","43","43","43","43","Sat Sep 19 18:43:02 2020","1500","The main experiment item","yes","Flankertask.osexp","/Users/annielenoir/Desktop","no","mono","no","18","no","white","no","yes","768","legacy","43","43","/Users/annielenoir/Desktop/AL-subject-1.csv","legacy","Lentiform Loewenfeld","3.3.3","0","s","NA","s","NA","NA","s","388","NA","20088","NA","NA","388","2","legacy","1024","2","48000","-16","experiment","SSSSS","1","odd","94230","22602","NA","NA","60478","2489","NA","NA","95299","2502","NA","NA","95414","95803","95284","95414","Flanker task","42","20117","44","yes","1024"
"95.55555555555556","95.55555555555556","457.22222222222223","457.22222222222223","black","legacy","legacy","legacy","0","congruent","uniform","1","undefined","1","s","44","0","0","0","44","0","44","0","44","0","0","0","44","44","44","44","Sat Sep 19 18:43:02 2020","1500","The main experiment item","yes","Flankertask.osexp","/Users/annielenoir/Desktop","no","mono","no","18","no","white","no","yes","768","legacy","44","44","/Users/annielenoir/Desktop/AL-subject-1.csv","legacy","Lentiform Loewenfeld","3.3.3","0","s","NA","s","NA","NA","s","458","NA","20088","NA","NA","458","2","legacy","1024","2","48000","-16","experiment","SSSSS","1","odd","95825","22602","NA","NA","60478","2489","NA","NA","96895","2502","NA","NA","97010","97469","96880","97010","Flanker task","43","20575","45","yes","1024"
"95.65217391304348","95.65217391304348","457.6521739130435","457.6521739130435","black","legacy","legacy","legacy","0","incongruent","uniform","1","undefined","1","h","45","0","0","0","45","0","45","0","45","0","0","0","45","45","45","45","Sat Sep 19 18:43:02 2020","1500","The main experiment item","yes","Flankertask.osexp","/Users/annielenoir/Desktop","no","mono","no","18","no","white","no","yes","768","legacy","45","45","/Users/annielenoir/Desktop/AL-subject-1.csv","legacy","Lentiform Loewenfeld","3.3.3","0","h","NA","s","NA","NA","h","477","NA","20088","NA","NA","477","2","legacy","1024","2","48000","-16","experiment","SSHSS","1","odd","97491","22602","NA","NA","60478","2489","NA","NA","98565","2502","NA","NA","98681","99159","98549","98680","Flanker task","44","21052","46","yes","1024"
"95.74468085106383","95.74468085106383","456.3829787234043","456.3829787234043","black","legacy","legacy","legacy","0","incongruent","uniform","1","undefined","1","s","46","0","0","0","46","0","46","0","46","0","0","0","46","46","46","46","Sat Sep 19 18:43:02 2020","1500","The main experiment item","yes","Flankertask.osexp","/Users/annielenoir/Desktop","no","mono","no","18","no","white","no","yes","768","legacy","46","46","/Users/annielenoir/Desktop/AL-subject-1.csv","legacy","Lentiform Loewenfeld","3.3.3","0","s","NA","s","NA","NA","s","398","NA","20088","NA","NA","398","2","legacy","1024","2","48000","-16","experiment","HHSHH","1","odd","99180","22602","NA","NA","60478","2489","NA","NA","100251","2502","NA","NA","100367","100766","100236","100366","Flanker task","45","21450","47","yes","1024"
"95.83333333333333","95.83333333333333","456.6041666666667","456.6041666666667","black","legacy","legacy","legacy","0","incongruent","uniform","1","undefined","1","s","47","0","0","0","47","0","47","0","47","0","0","0","47","47","47","47","Sat Sep 19 18:43:02 2020","1500","The main experiment item","yes","Flankertask.osexp","/Users/annielenoir/Desktop","no","mono","no","18","no","white","no","yes","768","legacy","47","47","/Users/annielenoir/Desktop/AL-subject-1.csv","legacy","Lentiform Loewenfeld","3.3.3","0","s","NA","s","NA","NA","s","467","NA","20088","NA","NA","467","2","legacy","1024","2","48000","-16","experiment","HHSHH","1","odd","100788","22602","NA","NA","60478","2489","NA","NA","101857","2502","NA","NA","101973","102441","101841","101973","Flanker task","46","21917","48","yes","1024"
"95.91836734693878","95.91836734693878","456.14285714285717","456.14285714285717","black","legacy","legacy","legacy","0","incongruent","uniform","1","undefined","1","s","48","0","0","0","48","0","48","0","48","0","0","0","48","48","48","48","Sat Sep 19 18:43:02 2020","1500","The main experiment item","yes","Flankertask.osexp","/Users/annielenoir/Desktop","no","mono","no","18","no","white","no","yes","768","legacy","48","48","/Users/annielenoir/Desktop/AL-subject-1.csv","legacy","Lentiform Loewenfeld","3.3.3","0","s","NA","s","NA","NA","s","434","NA","20088","NA","NA","434","2","legacy","1024","2","48000","-16","experiment","HHSHH","1","odd","102463","22602","NA","NA","60478","2489","NA","NA","103535","2502","NA","NA","103651","104087","103520","103651","Flanker task","47","22351","49","yes","1024"
"96","96","455.98","455.98","black","legacy","legacy","legacy","0","incongruent","uniform","1","undefined","1","h","49","0","0","0","49","0","49","0","49","0","0","0","49","49","49","49","Sat Sep 19 18:43:02 2020","1500","The main experiment item","yes","Flankertask.osexp","/Users/annielenoir/Desktop","no","mono","no","18","no","white","no","yes","768","legacy","49","49","/Users/annielenoir/Desktop/AL-subject-1.csv","legacy","Lentiform Loewenfeld","3.3.3","0","h","NA","s","NA","NA","h","448","NA","20088","NA","NA","448","2","legacy","1024","2","48000","-16","experiment","SSHSS","1","odd","104107","22602","NA","NA","60478","2489","NA","NA","105179","2502","NA","NA","105295","105744","105164","105295","Flanker task","48","22799","50","yes","1024"
"96.07843137254902","96.07843137254902","454.5098039215686","454.5098039215686","black","legacy","legacy","legacy","0","incongruent","uniform","1","undefined","1","h","50","0","0","0","50","0","50","0","50","0","0","0","50","50","50","50","Sat Sep 19 18:43:02 2020","1500","The main experiment item","yes","Flankertask.osexp","/Users/annielenoir/Desktop","no","mono","no","18","no","white","no","yes","768","legacy","50","50","/Users/annielenoir/Desktop/AL-subject-1.csv","legacy","Lentiform Loewenfeld","3.3.3","0","h","NA","s","NA","NA","h","381","NA","20088","NA","NA","381","2","legacy","1024","2","48000","-16","experiment","SSHSS","1","odd","105766","22602","NA","NA","60478","2489","NA","NA","106835","2502","NA","NA","106952","107334","106820","106952","Flanker task","49","23180","51","yes","1024"
"96.15384615384616","96.15384615384616","453.13461538461536","453.13461538461536","black","legacy","legacy","legacy","0","congruent","uniform","1","undefined","1","h","51","0","0","0","51","0","51","0","51","0","0","0","51","51","51","51","Sat Sep 19 18:43:02 2020","1500","The main experiment item","yes","Flankertask.osexp","/Users/annielenoir/Desktop","no","mono","no","18","no","white","no","yes","768","legacy","51","51","/Users/annielenoir/Desktop/AL-subject-1.csv","legacy","Lentiform Loewenfeld","3.3.3","0","h","NA","s","NA","NA","h","383","NA","20088","NA","NA","383","2","legacy","1024","2","48000","-16","experiment","HHHHH","1","odd","107355","22602","NA","NA","60478","2489","NA","NA","108425","2502","NA","NA","108541","108925","108410","108541","Flanker task","50","23563","52","yes","1024"
"96.22641509433963","96.22641509433963","453.8679245283019","453.8679245283019","black","legacy","legacy","legacy","0","incongruent","uniform","1","undefined","1","s","52","0","0","0","52","0","52","0","52","0","0","0","52","52","52","52","Sat Sep 19 18:43:02 2020","1500","The main experiment item","yes","Flankertask.osexp","/Users/annielenoir/Desktop","no","mono","no","18","no","white","no","yes","768","legacy","52","52","/Users/annielenoir/Desktop/AL-subject-1.csv","legacy","Lentiform Loewenfeld","3.3.3","0","s","NA","s","NA","NA","s","492","NA","20088","NA","NA","492","2","legacy","1024","2","48000","-16","experiment","HHSHH","1","odd","108947","22602","NA","NA","60478","2489","NA","NA","110020","2502","NA","NA","110136","110629","110005","110135","Flanker task","51","24055","53","yes","1024"
"96.29629629629629","96.29629629629629","453.1111111111111","453.1111111111111","black","legacy","legacy","legacy","0","congruent","uniform","1","undefined","1","s","53","0","0","0","53","0","53","0","53","0","0","0","53","53","53","53","Sat Sep 19 18:43:02 2020","1500","The main experiment item","yes","Flankertask.osexp","/Users/annielenoir/Desktop","no","mono","no","18","no","white","no","yes","768","legacy","53","53","/Users/annielenoir/Desktop/AL-subject-1.csv","legacy","Lentiform Loewenfeld","3.3.3","0","s","NA","s","NA","NA","s","413","NA","20088","NA","NA","413","2","legacy","1024","2","48000","-16","experiment","SSSSS","1","odd","110649","22602","NA","NA","60478","2489","NA","NA","111721","2502","NA","NA","111837","112251","111705","111836","Flanker task","52","24468","54","yes","1024"
"94.54545454545455","94.54545454545455","452.27272727272725","452.27272727272725","black","legacy","legacy","legacy","0","incongruent","uniform","0","undefined","0","s","54","0","0","0","54","0","54","0","54","0","0","0","54","54","54","54","Sat Sep 19 18:43:02 2020","1500","The main experiment item","yes","Flankertask.osexp","/Users/annielenoir/Desktop","no","mono","no","18","no","white","no","yes","768","legacy","54","54","/Users/annielenoir/Desktop/AL-subject-1.csv","legacy","Lentiform Loewenfeld","3.3.3","0","h","NA","s","NA","NA","h","407","NA","20088","NA","NA","407","2","legacy","1024","2","48000","-16","experiment","HHSHH","1","odd","112274","22602","NA","NA","60478","2489","NA","NA","113343","2502","NA","NA","113458","113866","113328","113458","Flanker task","52","24875","55","yes","1024"
"94.64285714285714","94.64285714285714","452.35714285714283","452.35714285714283","black","legacy","legacy","legacy","0","incongruent","uniform","1","undefined","1","s","55","0","0","0","55","0","55","0","55","0","0","0","55","55","55","55","Sat Sep 19 18:43:02 2020","1500","The main experiment item","yes","Flankertask.osexp","/Users/annielenoir/Desktop","no","mono","no","18","no","white","no","yes","768","legacy","55","55","/Users/annielenoir/Desktop/AL-subject-1.csv","legacy","Lentiform Loewenfeld","3.3.3","0","s","NA","s","NA","NA","s","457","NA","20088","NA","NA","457","2","legacy","1024","2","48000","-16","experiment","HHSHH","1","odd","114401","22602","NA","NA","113886","2489","NA","NA","115471","2502","NA","NA","115587","116045","115456","115587","Flanker task","53","25332","56","yes","1024"
"94.73684210526316","94.73684210526316","451.280701754386","451.280701754386","black","legacy","legacy","legacy","0","congruent","uniform","1","undefined","1","s","56","0","0","0","56","0","56","0","56","0","0","0","56","56","56","56","Sat Sep 19 18:43:02 2020","1500","The main experiment item","yes","Flankertask.osexp","/Users/annielenoir/Desktop","no","mono","no","18","no","white","no","yes","768","legacy","56","56","/Users/annielenoir/Desktop/AL-subject-1.csv","legacy","Lentiform Loewenfeld","3.3.3","0","s","NA","s","NA","NA","s","391","NA","20088","NA","NA","391","2","legacy","1024","2","48000","-16","experiment","SSSSS","1","odd","116064","22602","NA","NA","113886","2489","NA","NA","117134","2502","NA","NA","117249","117642","117119","117249","Flanker task","54","25723","57","yes","1024"
"94.82758620689656","94.82758620689656","451.0689655172414","451.0689655172414","black","legacy","legacy","legacy","0","incongruent","uniform","1","undefined","1","h","57","0","0","0","57","0","57","0","57","0","0","0","57","57","57","57","Sat Sep 19 18:43:02 2020","1500","The main experiment item","yes","Flankertask.osexp","/Users/annielenoir/Desktop","no","mono","no","18","no","white","no","yes","768","legacy","57","57","/Users/annielenoir/Desktop/AL-subject-1.csv","legacy","Lentiform Loewenfeld","3.3.3","0","h","NA","s","NA","NA","h","439","NA","20088","NA","NA","439","2","legacy","1024","2","48000","-16","experiment","SSHSS","1","odd","117662","22602","NA","NA","113886","2489","NA","NA","118731","2502","NA","NA","118847","119288","118716","118847","Flanker task","55","26162","58","yes","1024"
"94.91525423728814","94.91525423728814","448.79661016949154","448.79661016949154","black","legacy","legacy","legacy","0","incongruent","uniform","1","undefined","1","s","58","0","0","0","58","0","58","0","58","0","0","0","58","58","58","58","Sat Sep 19 18:43:02 2020","1500","The main experiment item","yes","Flankertask.osexp","/Users/annielenoir/Desktop","no","mono","no","18","no","white","no","yes","768","legacy","58","58","/Users/annielenoir/Desktop/AL-subject-1.csv","legacy","Lentiform Loewenfeld","3.3.3","0","s","NA","s","NA","NA","s","317","NA","20088","NA","NA","317","2","legacy","1024","2","48000","-16","experiment","HHSHH","1","odd","119310","22602","NA","NA","113886","2489","NA","NA","120380","2502","NA","NA","120495","120814","120365","120495","Flanker task","56","26479","59","yes","1024"
"95","95","448.81666666666666","448.81666666666666","black","legacy","legacy","legacy","0","congruent","uniform","1","undefined","1","h","59","0","0","0","59","0","59","0","59","0","0","0","59","59","59","59","Sat Sep 19 18:43:02 2020","1500","The main experiment item","yes","Flankertask.osexp","/Users/annielenoir/Desktop","no","mono","no","18","no","white","no","yes","768","legacy","59","59","/Users/annielenoir/Desktop/AL-subject-1.csv","legacy","Lentiform Loewenfeld","3.3.3","0","h","NA","s","NA","NA","h","450","NA","20088","NA","NA","450","2","legacy","1024","2","48000","-16","experiment","HHHHH","1","odd","120835","22602","NA","NA","113886","2489","NA","NA","121908","2502","NA","NA","122024","122476","121893","122024","Flanker task","57","26929","60","yes","1024"
"95.08196721311475","95.08196721311475","447.1967213114754","447.1967213114754","black","legacy","legacy","legacy","0","congruent","uniform","1","undefined","1","s","60","0","0","0","60","0","60","0","60","0","0","0","60","60","60","60","Sat Sep 19 18:43:02 2020","1500","The main experiment item","yes","Flankertask.osexp","/Users/annielenoir/Desktop","no","mono","no","18","no","white","no","yes","768","legacy","60","60","/Users/annielenoir/Desktop/AL-subject-1.csv","legacy","Lentiform Loewenfeld","3.3.3","0","s","NA","s","NA","NA","s","350","NA","20088","NA","NA","350","2","legacy","1024","2","48000","-16","experiment","SSSSS","1","odd","122497","22602","NA","NA","113886","2489","NA","NA","123570","2502","NA","NA","123686","124038","123554","123686","Flanker task","58","27279","61","yes","1024"
"95.16129032258064","95.16129032258064","446.8709677419355","446.8709677419355","black","legacy","legacy","legacy","0","congruent","uniform","1","undefined","1","s","61","0","0","0","61","0","61","0","61","0","0","0","61","61","61","61","Sat Sep 19 18:43:02 2020","1500","The main experiment item","yes","Flankertask.osexp","/Users/annielenoir/Desktop","no","mono","no","18","no","white","no","yes","768","legacy","61","61","/Users/annielenoir/Desktop/AL-subject-1.csv","legacy","Lentiform Loewenfeld","3.3.3","0","s","NA","s","NA","NA","s","427","NA","20088","NA","NA","427","2","legacy","1024","2","48000","-16","experiment","SSSSS","1","odd","124059","22602","NA","NA","113886","2489","NA","NA","125132","2502","NA","NA","125247","125676","125117","125247","Flanker task","59","27706","62","yes","1024"
"95.23809523809524","95.23809523809524","448.36507936507934","448.36507936507934","black","legacy","legacy","legacy","0","incongruent","uniform","1","undefined","1","s","62","0","0","0","62","0","62","0","62","0","0","0","62","62","62","62","Sat Sep 19 18:43:02 2020","1500","The main experiment item","yes","Flankertask.osexp","/Users/annielenoir/Desktop","no","mono","no","18","no","white","no","yes","768","legacy","62","62","/Users/annielenoir/Desktop/AL-subject-1.csv","legacy","Lentiform Loewenfeld","3.3.3","0","s","NA","s","NA","NA","s","541","NA","20088","NA","NA","541","2","legacy","1024","2","48000","-16","experiment","HHSHH","1","odd","125698","22602","NA","NA","113886","2489","NA","NA","126772","2502","NA","NA","126888","127431","126757","126888","Flanker task","60","28247","63","yes","1024"
"95.3125","95.3125","448.015625","448.015625","black","legacy","legacy","legacy","0","congruent","uniform","1","undefined","1","h","63","0","0","0","63","0","63","0","63","0","0","0","63","63","63","63","Sat Sep 19 18:43:02 2020","1500","The main experiment item","yes","Flankertask.osexp","/Users/annielenoir/Desktop","no","mono","no","18","no","white","no","yes","768","legacy","63","63","/Users/annielenoir/Desktop/AL-subject-1.csv","legacy","Lentiform Loewenfeld","3.3.3","0","h","NA","s","NA","NA","h","426","NA","20088","NA","NA","426","2","legacy","1024","2","48000","-16","experiment","HHHHH","1","odd","127453","22602","NA","NA","113886","2489","NA","NA","128525","2502","NA","NA","128641","129069","128510","128640","Flanker task","61","28673","64","yes","1024"
"95.38461538461539","95.38461538461539","448.2","448.2","black","legacy","legacy","legacy","0","incongruent","uniform","1","undefined","1","h","64","0","0","0","64","0","64","0","64","0","0","0","64","64","64","64","Sat Sep 19 18:43:02 2020","1500","The main experiment item","yes","Flankertask.osexp","/Users/annielenoir/Desktop","no","mono","no","18","no","white","no","yes","768","legacy","64","64","/Users/annielenoir/Desktop/AL-subject-1.csv","legacy","Lentiform Loewenfeld","3.3.3","0","h","NA","s","NA","NA","h","460","NA","20088","NA","NA","460","2","legacy","1024","2","48000","-16","experiment","SSHSS","1","odd","129090","22602","NA","NA","113886","2489","NA","NA","130163","2502","NA","NA","130278","130740","130147","130278","Flanker task","62","29133","65","yes","1024"
"95.45454545454545","95.45454545454545","448.95454545454544","448.95454545454544","black","legacy","legacy","legacy","0","congruent","uniform","1","undefined","1","h","65","0","0","0","65","0","65","0","65","0","0","0","65","65","65","65","Sat Sep 19 18:43:02 2020","1500","The main experiment item","yes","Flankertask.osexp","/Users/annielenoir/Desktop","no","mono","no","18","no","white","no","yes","768","legacy","65","65","/Users/annielenoir/Desktop/AL-subject-1.csv","legacy","Lentiform Loewenfeld","3.3.3","0","h","NA","s","NA","NA","h","498","NA","20088","NA","NA","498","2","legacy","1024","2","48000","-16","experiment","HHHHH","1","odd","130761","22602","NA","NA","113886","2489","NA","NA","131814","2502","NA","NA","131927","132427","131802","131927","Flanker task","63","29631","66","yes","1024"
"95.5223880597015","95.5223880597015","449.97014925373134","449.97014925373134","black","legacy","legacy","legacy","0","congruent","uniform","1","undefined","1","h","66","0","0","0","66","0","66","0","66","0","0","0","66","66","66","66","Sat Sep 19 18:43:02 2020","1500","The main experiment item","yes","Flankertask.osexp","/Users/annielenoir/Desktop","no","mono","no","18","no","white","no","yes","768","legacy","66","66","/Users/annielenoir/Desktop/AL-subject-1.csv","legacy","Lentiform Loewenfeld","3.3.3","0","h","NA","s","NA","NA","h","517","NA","20088","NA","NA","517","2","legacy","1024","2","48000","-16","experiment","HHHHH","1","odd","132446","22602","NA","NA","113886","2489","NA","NA","133500","2502","NA","NA","133613","134132","133488","133613","Flanker task","64","30148","67","yes","1024"
"95.58823529411765","95.58823529411765","450.05882352941177","450.05882352941177","black","legacy","legacy","legacy","0","congruent","uniform","1","undefined","1","h","67","0","0","0","67","0","67","0","67","0","0","0","67","67","67","67","Sat Sep 19 18:43:02 2020","1500","The main experiment item","yes","Flankertask.osexp","/Users/annielenoir/Desktop","no","mono","no","18","no","white","no","yes","768","legacy","67","67","/Users/annielenoir/Desktop/AL-subject-1.csv","legacy","Lentiform Loewenfeld","3.3.3","0","h","NA","s","NA","NA","h","456","NA","20088","NA","NA","456","2","legacy","1024","2","48000","-16","experiment","HHHHH","1","odd","134151","22602","NA","NA","113886","2489","NA","NA","135205","2502","NA","NA","135318","135776","135193","135318","Flanker task","65","30604","68","yes","1024"
"95.65217391304348","95.65217391304348","449.8840579710145","449.8840579710145","black","legacy","legacy","legacy","0","congruent","uniform","1","undefined","1","h","68","0","0","0","68","0","68","0","68","0","0","0","68","68","68","68","Sat Sep 19 18:43:02 2020","1500","The main experiment item","yes","Flankertask.osexp","/Users/annielenoir/Desktop","no","mono","no","18","no","white","no","yes","768","legacy","68","68","/Users/annielenoir/Desktop/AL-subject-1.csv","legacy","Lentiform Loewenfeld","3.3.3","0","h","NA","s","NA","NA","h","438","NA","20088","NA","NA","438","2","legacy","1024","2","48000","-16","experiment","HHHHH","1","odd","135796","22602","NA","NA","113886","2489","NA","NA","136850","2502","NA","NA","136964","137404","136838","136963","Flanker task","66","31042","69","yes","1024"
"95.71428571428571","95.71428571428571","448.8857142857143","448.8857142857143","black","legacy","legacy","legacy","0","congruent","uniform","1","undefined","1","h","69","0","0","0","69","0","69","0","69","0","0","0","69","69","69","69","Sat Sep 19 18:43:02 2020","1500","The main experiment item","yes","Flankertask.osexp","/Users/annielenoir/Desktop","no","mono","no","18","no","white","no","yes","768","legacy","69","69","/Users/annielenoir/Desktop/AL-subject-1.csv","legacy","Lentiform Loewenfeld","3.3.3","0","h","NA","s","NA","NA","h","380","NA","20088","NA","NA","380","2","legacy","1024","2","48000","-16","experiment","HHHHH","1","odd","137425","22602","NA","NA","113886","2489","NA","NA","138479","2502","NA","NA","138592","138974","138467","138592","Flanker task","67","31422","70","yes","1024"
"95.77464788732394","95.77464788732394","448.7464788732394","448.7464788732394","black","legacy","legacy","legacy","0","incongruent","uniform","1","undefined","1","s","70","0","0","0","70","0","70","0","70","0","0","0","70","70","70","70","Sat Sep 19 18:43:02 2020","1500","The main experiment item","yes","Flankertask.osexp","/Users/annielenoir/Desktop","no","mono","no","18","no","white","no","yes","768","legacy","70","70","/Users/annielenoir/Desktop/AL-subject-1.csv","legacy","Lentiform Loewenfeld","3.3.3","0","s","NA","s","NA","NA","s","439","NA","20088","NA","NA","439","2","legacy","1024","2","48000","-16","experiment","HHSHH","1","odd","138995","22602","NA","NA","113886","2489","NA","NA","140048","2502","NA","NA","140162","140603","140036","140162","Flanker task","68","31861","71","yes","1024"
"95.83333333333333","95.83333333333333","448.1666666666667","448.1666666666667","black","legacy","legacy","legacy","0","congruent","uniform","1","undefined","1","s","71","0","0","0","71","0","71","0","71","0","0","0","71","71","71","71","Sat Sep 19 18:43:02 2020","1500","The main experiment item","yes","Flankertask.osexp","/Users/annielenoir/Desktop","no","mono","no","18","no","white","no","yes","768","legacy","71","71","/Users/annielenoir/Desktop/AL-subject-1.csv","legacy","Lentiform Loewenfeld","3.3.3","0","s","NA","s","NA","NA","s","407","NA","20088","NA","NA","407","2","legacy","1024","2","48000","-16","experiment","SSSSS","1","odd","140622","22602","NA","NA","113886","2489","NA","NA","141676","2502","NA","NA","141789","142198","141664","141789","Flanker task","69","32268","72","yes","1024"
"95.89041095890411","95.89041095890411","447.0821917808219","447.0821917808219","black","legacy","legacy","legacy","0","congruent","uniform","1","undefined","1","s","72","0","0","0","72","0","72","0","72","0","0","0","72","72","72","72","Sat Sep 19 18:43:02 2020","1500","The main experiment item","yes","Flankertask.osexp","/Users/annielenoir/Desktop","no","mono","no","18","no","white","no","yes","768","legacy","72","72","/Users/annielenoir/Desktop/AL-subject-1.csv","legacy","Lentiform Loewenfeld","3.3.3","0","s","NA","s","NA","NA","s","369","NA","20088","NA","NA","369","2","legacy","1024","2","48000","-16","experiment","SSSSS","1","odd","142219","22602","NA","NA","113886","2489","NA","NA","143292","2502","NA","NA","143408","143778","143277","143407","Flanker task","70","32637","73","yes","1024"
"95.94594594594595","95.94594594594595","446.0945945945946","446.0945945945946","black","legacy","legacy","legacy","0","congruent","uniform","1","undefined","1","s","73","0","0","0","73","0","73","0","73","0","0","0","73","73","73","73","Sat Sep 19 18:43:02 2020","1500","The main experiment item","yes","Flankertask.osexp","/Users/annielenoir/Desktop","no","mono","no","18","no","white","no","yes","768","legacy","73","73","/Users/annielenoir/Desktop/AL-subject-1.csv","legacy","Lentiform Loewenfeld","3.3.3","0","s","NA","s","NA","NA","s","374","NA","20088","NA","NA","374","2","legacy","1024","2","48000","-16","experiment","SSSSS","1","odd","143799","22602","NA","NA","113886","2489","NA","NA","144871","2502","NA","NA","144987","145362","144856","144987","Flanker task","71","33011","74","yes","1024"
"96","96","446.0933333333333","446.0933333333333","black","legacy","legacy","legacy","0","congruent","uniform","1","undefined","1","h","74","0","0","0","74","0","74","0","74","0","0","0","74","74","74","74","Sat Sep 19 18:43:02 2020","1500","The main experiment item","yes","Flankertask.osexp","/Users/annielenoir/Desktop","no","mono","no","18","no","white","no","yes","768","legacy","74","74","/Users/annielenoir/Desktop/AL-subject-1.csv","legacy","Lentiform Loewenfeld","3.3.3","0","h","NA","s","NA","NA","h","446","NA","20088","NA","NA","446","2","legacy","1024","2","48000","-16","experiment","HHHHH","1","odd","145384","22602","NA","NA","113886","2489","NA","NA","146457","2502","NA","NA","146573","147020","146441","146572","Flanker task","72","33457","75","yes","1024"
"96.05263157894737","96.05263157894737","445.5394736842105","445.5394736842105","black","legacy","legacy","legacy","0","congruent","uniform","1","undefined","1","h","75","0","0","0","75","0","75","0","75","0","0","0","75","75","75","75","Sat Sep 19 18:43:02 2020","1500","The main experiment item","yes","Flankertask.osexp","/Users/annielenoir/Desktop","no","mono","no","18","no","white","no","yes","768","legacy","75","75","/Users/annielenoir/Desktop/AL-subject-1.csv","legacy","Lentiform Loewenfeld","3.3.3","0","h","NA","s","NA","NA","h","404","NA","20088","NA","NA","404","2","legacy","1024","2","48000","-16","experiment","HHHHH","1","odd","147041","22602","NA","NA","113886","2489","NA","NA","148111","2502","NA","NA","148227","148632","148096","148227","Flanker task","73","33861","76","yes","1024"
"94.8051948051948","94.8051948051948","445.06493506493507","445.06493506493507","black","legacy","legacy","legacy","0","incongruent","uniform","0","undefined","0","h","76","0","0","0","76","0","76","0","76","0","0","0","76","76","76","76","Sat Sep 19 18:43:02 2020","1500","The main experiment item","yes","Flankertask.osexp","/Users/annielenoir/Desktop","no","mono","no","18","no","white","no","yes","768","legacy","76","76","/Users/annielenoir/Desktop/AL-subject-1.csv","legacy","Lentiform Loewenfeld","3.3.3","0","s","NA","s","NA","NA","s","409","NA","20088","NA","NA","409","2","legacy","1024","2","48000","-16","experiment","SSHSS","1","odd","148654","22602","NA","NA","113886","2489","NA","NA","149723","2502","NA","NA","149839","150249","149707","149839","Flanker task","73","34270","77","yes","1024"
"94.87179487179488","94.87179487179488","445.4230769230769","445.4230769230769","black","legacy","legacy","legacy","0","incongruent","uniform","1","undefined","1","h","77","0","0","0","77","0","77","0","77","0","0","0","77","77","77","77","Sat Sep 19 18:43:02 2020","1500","The main experiment item","yes","Flankertask.osexp","/Users/annielenoir/Desktop","no","mono","no","18","no","white","no","yes","768","legacy","77","77","/Users/annielenoir/Desktop/AL-subject-1.csv","legacy","Lentiform Loewenfeld","3.3.3","0","h","NA","s","NA","NA","h","473","NA","20088","NA","NA","473","2","legacy","1024","2","48000","-16","experiment","SSHSS","1","odd","150786","22602","NA","NA","150271","2489","NA","NA","151854","2502","NA","NA","151970","152444","151839","151969","Flanker task","74","34743","78","yes","1024"
"94.9367088607595","94.9367088607595","445.746835443038","445.746835443038","black","legacy","legacy","legacy","0","incongruent","uniform","1","undefined","1","h","78","0","0","0","78","0","78","0","78","0","0","0","78","78","78","78","Sat Sep 19 18:43:02 2020","1500","The main experiment item","yes","Flankertask.osexp","/Users/annielenoir/Desktop","no","mono","no","18","no","white","no","yes","768","legacy","78","78","/Users/annielenoir/Desktop/AL-subject-1.csv","legacy","Lentiform Loewenfeld","3.3.3","0","h","NA","s","NA","NA","h","471","NA","20088","NA","NA","471","2","legacy","1024","2","48000","-16","experiment","SSHSS","1","odd","152466","22602","NA","NA","150271","2489","NA","NA","153536","2502","NA","NA","153652","154124","153521","153651","Flanker task","75","35214","79","yes","1024"
"95","95","446.9625","446.9625","black","legacy","legacy","legacy","0","incongruent","uniform","1","undefined","1","s","79","0","0","0","79","0","79","0","79","0","0","0","79","79","79","79","Sat Sep 19 18:43:02 2020","1500","The main experiment item","yes","Flankertask.osexp","/Users/annielenoir/Desktop","no","mono","no","18","no","white","no","yes","768","legacy","79","79","/Users/annielenoir/Desktop/AL-subject-1.csv","legacy","Lentiform Loewenfeld","3.3.3","0","s","NA","s","NA","NA","s","543","NA","20088","NA","NA","543","2","legacy","1024","2","48000","-16","experiment","HHSHH","1","odd","154150","22602","NA","NA","150271","2489","NA","NA","155220","2502","NA","NA","155336","155880","155205","155336","Flanker task","76","35757","80","yes","1024"
"93.82716049382717","93.82716049382717","449.2716049382716","449.2716049382716","black","legacy","legacy","legacy","0","incongruent","uniform","0","undefined","0","s","80","0","0","0","80","0","80","0","80","0","0","0","80","80","80","80","Sat Sep 19 18:43:02 2020","600","The main experiment item","yes","Flankertask.osexp","/Users/annielenoir/Desktop","no","mono","no","18","no","white","no","yes","768","legacy","0","79","/Users/annielenoir/Desktop/AL-subject-1.csv","legacy","Lentiform Loewenfeld","3.3.3","0","h","NA","s","s","NA","h","634","NA","20088","26496","NA","634","2","legacy","1024","2","48000","-16","experiment","HHSHH","1","odd","155901","22602","183440","NA","150271","2489","NA","NA","183479","2502","156942","NA","183595","184231","183467","183595","Flanker task","76","36391","81","yes","1024"
"93.90243902439025","93.90243902439025","449.2926829268293","449.2926829268293","black","legacy","legacy","legacy","0","incongruent","uniform","1","undefined","1","h","81","0","0","0","81","0","81","0","81","0","0","0","81","81","81","81","Sat Sep 19 18:43:02 2020","600","The main experiment item","yes","Flankertask.osexp","/Users/annielenoir/Desktop","no","mono","no","18","no","white","no","yes","768","legacy","1","79","/Users/annielenoir/Desktop/AL-subject-1.csv","legacy","Lentiform Loewenfeld","3.3.3","0","h","NA","s","s","NA","h","451","NA","20088","26496","NA","451","2","legacy","1024","2","48000","-16","experiment","SSHSS","1","odd","185286","22602","183440","NA","184255","2489","184771","NA","186355","2502","156942","NA","186471","186924","186339","186471","Flanker task","77","36842","82","yes","1024"
"93.97590361445783","93.97590361445783","448.9759036144578","448.9759036144578","black","legacy","legacy","legacy","0","incongruent","uniform","1","undefined","1","s","82","0","0","0","82","0","82","0","82","0","0","0","82","82","82","82","Sat Sep 19 18:43:02 2020","600","The main experiment item","yes","Flankertask.osexp","/Users/annielenoir/Desktop","no","mono","no","18","no","white","no","yes","768","legacy","2","79","/Users/annielenoir/Desktop/AL-subject-1.csv","legacy","Lentiform Loewenfeld","3.3.3","0","s","NA","s","s","NA","s","423","NA","20088","26496","NA","423","2","legacy","1024","2","48000","-16","experiment","HHSHH","1","odd","186944","22602","183440","NA","184255","2489","184771","NA","188013","2502","156942","NA","188128","188553","187998","188128","Flanker task","78","37265","83","yes","1024"
"94.04761904761905","94.04761904761905","448.76190476190476","448.76190476190476","black","legacy","legacy","legacy","0","incongruent","uniform","1","undefined","1","h","83","0","0","0","83","0","83","0","83","0","0","0","83","83","83","83","Sat Sep 19 18:43:02 2020","600","The main experiment item","yes","Flankertask.osexp","/Users/annielenoir/Desktop","no","mono","no","18","no","white","no","yes","768","legacy","3","79","/Users/annielenoir/Desktop/AL-subject-1.csv","legacy","Lentiform Loewenfeld","3.3.3","0","h","NA","s","s","NA","h","431","NA","20088","26496","NA","431","2","legacy","1024","2","48000","-16","experiment","SSHSS","1","odd","188574","22602","183440","NA","184255","2489","184771","NA","189645","2502","156942","NA","189762","190194","189630","189761","Flanker task","79","37696","84","yes","1024"
"94.11764705882354","94.11764705882354","447.5882352941176","447.5882352941176","black","legacy","legacy","legacy","0","congruent","uniform","1","undefined","1","s","84","0","0","0","84","0","84","0","84","0","0","0","84","84","84","84","Sat Sep 19 18:43:02 2020","600","The main experiment item","yes","Flankertask.osexp","/Users/annielenoir/Desktop","no","mono","no","18","no","white","no","yes","768","legacy","4","79","/Users/annielenoir/Desktop/AL-subject-1.csv","legacy","Lentiform Loewenfeld","3.3.3","0","s","NA","s","s","NA","s","349","NA","20088","26496","NA","349","2","legacy","1024","2","48000","-16","experiment","SSSSS","1","odd","190217","22602","183440","NA","184255","2489","184771","NA","191288","2502","156942","NA","191403","191754","191273","191403","Flanker task","80","38045","85","yes","1024"
"94.18604651162791","94.18604651162791","446.4767441860465","446.4767441860465","black","legacy","legacy","legacy","0","congruent","uniform","1","undefined","1","s","85","0","0","0","85","0","85","0","85","0","0","0","85","85","85","85","Sat Sep 19 18:43:02 2020","600","The main experiment item","yes","Flankertask.osexp","/Users/annielenoir/Desktop","no","mono","no","18","no","white","no","yes","768","legacy","5","79","/Users/annielenoir/Desktop/AL-subject-1.csv","legacy","Lentiform Loewenfeld","3.3.3","0","s","NA","s","s","NA","s","352","NA","20088","26496","NA","352","2","legacy","1024","2","48000","-16","experiment","SSSSS","1","odd","191774","22602","183440","NA","184255","2489","184771","NA","192841","2502","156942","NA","192956","193310","192826","192956","Flanker task","81","38397","86","yes","1024"
"94.25287356321839","94.25287356321839","446.264367816092","446.264367816092","black","legacy","legacy","legacy","0","incongruent","uniform","1","undefined","1","h","86","0","0","0","86","0","86","0","86","0","0","0","86","86","86","86","Sat Sep 19 18:43:02 2020","600","The main experiment item","yes","Flankertask.osexp","/Users/annielenoir/Desktop","no","mono","no","18","no","white","no","yes","768","legacy","6","79","/Users/annielenoir/Desktop/AL-subject-1.csv","legacy","Lentiform Loewenfeld","3.3.3","0","h","NA","s","s","NA","h","428","NA","20088","26496","NA","428","2","legacy","1024","2","48000","-16","experiment","SSHSS","1","odd","193330","22602","183440","NA","184255","2489","184771","NA","194401","2502","156942","NA","194517","194946","194386","194517","Flanker task","82","38825","87","yes","1024"
"94.31818181818181","94.31818181818181","446.3068181818182","446.3068181818182","black","legacy","legacy","legacy","0","incongruent","uniform","1","undefined","1","s","87","0","0","0","87","0","87","0","87","0","0","0","87","87","87","87","Sat Sep 19 18:43:02 2020","600","The main experiment item","yes","Flankertask.osexp","/Users/annielenoir/Desktop","no","mono","no","18","no","white","no","yes","768","legacy","7","79","/Users/annielenoir/Desktop/AL-subject-1.csv","legacy","Lentiform Loewenfeld","3.3.3","0","s","NA","s","s","NA","s","450","NA","20088","26496","NA","450","2","legacy","1024","2","48000","-16","experiment","HHSHH","1","odd","194966","22602","183440","NA","184255","2489","184771","NA","196036","2502","156942","NA","196151","196603","196021","196151","Flanker task","83","39275","88","yes","1024"
"94.38202247191012","94.38202247191012","446.4943820224719","446.4943820224719","black","legacy","legacy","legacy","0","incongruent","uniform","1","undefined","1","s","88","0","0","0","88","0","88","0","88","0","0","0","88","88","88","88","Sat Sep 19 18:43:02 2020","600","The main experiment item","yes","Flankertask.osexp","/Users/annielenoir/Desktop","no","mono","no","18","no","white","no","yes","768","legacy","8","79","/Users/annielenoir/Desktop/AL-subject-1.csv","legacy","Lentiform Loewenfeld","3.3.3","0","s","NA","s","s","NA","s","463","NA","20088","26496","NA","463","2","legacy","1024","2","48000","-16","experiment","HHSHH","1","odd","196624","22602","183440","NA","184255","2489","184771","NA","197696","2502","156942","NA","197812","198276","197681","197812","Flanker task","84","39738","89","yes","1024"
"94.44444444444444","94.44444444444444","445.72222222222223","445.72222222222223","black","legacy","legacy","legacy","0","incongruent","uniform","1","undefined","1","h","89","0","0","0","89","0","89","0","89","0","0","0","89","89","89","89","Sat Sep 19 18:43:02 2020","600","The main experiment item","yes","Flankertask.osexp","/Users/annielenoir/Desktop","no","mono","no","18","no","white","no","yes","768","legacy","9","79","/Users/annielenoir/Desktop/AL-subject-1.csv","legacy","Lentiform Loewenfeld","3.3.3","0","h","NA","s","s","NA","h","377","NA","20088","26496","NA","377","2","legacy","1024","2","48000","-16","experiment","SSHSS","1","odd","198297","22602","183440","NA","184255","2489","184771","NA","199367","2502","156942","NA","199483","199862","199352","199483","Flanker task","85","40115","90","yes","1024"
"94.50549450549451","94.50549450549451","445.38461538461536","445.38461538461536","black","legacy","legacy","legacy","0","incongruent","uniform","1","undefined","1","s","90","0","0","0","90","0","90","0","90","0","0","0","90","90","90","90","Sat Sep 19 18:43:02 2020","600","The main experiment item","yes","Flankertask.osexp","/Users/annielenoir/Desktop","no","mono","no","18","no","white","no","yes","768","legacy","10","79","/Users/annielenoir/Desktop/AL-subject-1.csv","legacy","Lentiform Loewenfeld","3.3.3","0","s","NA","s","s","NA","s","415","NA","20088","26496","NA","415","2","legacy","1024","2","48000","-16","experiment","HHSHH","1","odd","199883","22602","183440","NA","184255","2489","184771","NA","200957","2502","156942","NA","201073","201490","200941","201072","Flanker task","86","40530","91","yes","1024"
"94.56521739130434","94.56521739130434","445.05434782608694","445.05434782608694","black","legacy","legacy","legacy","0","congruent","uniform","1","undefined","1","s","91","0","0","0","91","0","91","0","91","0","0","0","91","91","91","91","Sat Sep 19 18:43:02 2020","600","The main experiment item","yes","Flankertask.osexp","/Users/annielenoir/Desktop","no","mono","no","18","no","white","no","yes","768","legacy","11","79","/Users/annielenoir/Desktop/AL-subject-1.csv","legacy","Lentiform Loewenfeld","3.3.3","0","s","NA","s","s","NA","s","415","NA","20088","26496","NA","415","2","legacy","1024","2","48000","-16","experiment","SSSSS","1","odd","201512","22602","183440","NA","184255","2489","184771","NA","202584","2502","156942","NA","202700","203117","202568","202700","Flanker task","87","40945","92","yes","1024"
"94.6236559139785","94.6236559139785","444.6559139784946","444.6559139784946","black","legacy","legacy","legacy","0","congruent","uniform","1","undefined","1","h","92","0","0","0","92","0","92","0","92","0","0","0","92","92","92","92","Sat Sep 19 18:43:02 2020","600","The main experiment item","yes","Flankertask.osexp","/Users/annielenoir/Desktop","no","mono","no","18","no","white","no","yes","768","legacy","12","79","/Users/annielenoir/Desktop/AL-subject-1.csv","legacy","Lentiform Loewenfeld","3.3.3","0","h","NA","s","s","NA","h","408","NA","20088","26496","NA","408","2","legacy","1024","2","48000","-16","experiment","HHHHH","1","odd","203138","22602","183440","NA","184255","2489","184771","NA","204208","2502","156942","NA","204324","204733","204193","204324","Flanker task","88","41353","93","yes","1024"
"93.61702127659575","93.61702127659575","443.0425531914894","443.0425531914894","black","legacy","legacy","legacy","0","congruent","uniform","0","undefined","0","h","93","0","0","0","93","0","93","0","93","0","0","0","93","93","93","93","Sat Sep 19 18:43:02 2020","600","The main experiment item","yes","Flankertask.osexp","/Users/annielenoir/Desktop","no","mono","no","18","no","white","no","yes","768","legacy","13","79","/Users/annielenoir/Desktop/AL-subject-1.csv","legacy","Lentiform Loewenfeld","3.3.3","0","s","NA","s","s","NA","s","293","NA","20088","26496","NA","293","2","legacy","1024","2","48000","-16","experiment","HHHHH","1","odd","204755","22602","183440","NA","184255","2489","184771","NA","205823","2502","156942","NA","205939","206234","205808","205939","Flanker task","88","41646","94","yes","1024"
"93.6842105263158","93.6842105263158","441.93684210526317","441.93684210526317","black","legacy","legacy","legacy","0","incongruent","uniform","1","undefined","1","h","94","0","0","0","94","0","94","0","94","0","0","0","94","94","94","94","Sat Sep 19 18:43:02 2020","600","The main experiment item","yes","Flankertask.osexp","/Users/annielenoir/Desktop","no","mono","no","18","no","white","no","yes","768","legacy","14","79","/Users/annielenoir/Desktop/AL-subject-1.csv","legacy","Lentiform Loewenfeld","3.3.3","0","h","NA","s","s","NA","h","338","NA","20088","26496","NA","338","2","legacy","1024","2","48000","-16","experiment","SSHSS","1","odd","206768","22602","183440","NA","206253","2489","184771","NA","207840","2502","156942","NA","207955","208294","207825","207955","Flanker task","89","41984","95","yes","1024"
"93.75","93.75","442.4791666666667","442.4791666666667","black","legacy","legacy","legacy","0","incongruent","uniform","1","undefined","1","h","95","0","0","0","95","0","95","0","95","0","0","0","95","95","95","95","Sat Sep 19 18:43:02 2020","600","The main experiment item","yes","Flankertask.osexp","/Users/annielenoir/Desktop","no","mono","no","18","no","white","no","yes","768","legacy","15","79","/Users/annielenoir/Desktop/AL-subject-1.csv","legacy","Lentiform Loewenfeld","3.3.3","0","h","NA","s","s","NA","h","494","NA","20088","26496","NA","494","2","legacy","1024","2","48000","-16","experiment","SSHSS","1","odd","208314","22602","183440","NA","206253","2489","184771","NA","209383","2502","156942","NA","209498","209994","209368","209498","Flanker task","90","42478","96","yes","1024"
"93.81443298969072","93.81443298969072","442.64948453608247","442.64948453608247","black","legacy","legacy","legacy","0","congruent","uniform","1","undefined","1","h","96","0","0","0","96","0","96","0","96","0","0","0","96","96","96","96","Sat Sep 19 18:43:02 2020","600","The main experiment item","yes","Flankertask.osexp","/Users/annielenoir/Desktop","no","mono","no","18","no","white","no","yes","768","legacy","16","79","/Users/annielenoir/Desktop/AL-subject-1.csv","legacy","Lentiform Loewenfeld","3.3.3","0","h","NA","s","s","NA","h","459","NA","20088","26496","NA","459","2","legacy","1024","2","48000","-16","experiment","HHHHH","1","odd","210014","22602","183440","NA","206253","2489","184771","NA","211083","2502","156942","NA","211199","211659","211068","211199","Flanker task","91","42937","97","yes","1024"
"93.87755102040816","93.87755102040816","442.7040816326531","442.7040816326531","black","legacy","legacy","legacy","0","congruent","uniform","1","undefined","1","s","97","0","0","0","97","0","97","0","97","0","0","0","97","97","97","97","Sat Sep 19 18:43:02 2020","600","The main experiment item","yes","Flankertask.osexp","/Users/annielenoir/Desktop","no","mono","no","18","no","white","no","yes","768","legacy","17","79","/Users/annielenoir/Desktop/AL-subject-1.csv","legacy","Lentiform Loewenfeld","3.3.3","0","s","NA","s","s","NA","s","448","NA","20088","26496","NA","448","2","legacy","1024","2","48000","-16","experiment","SSSSS","1","odd","211681","22602","183440","NA","206253","2489","184771","NA","212750","2502","156942","NA","212870","213320","212735","212870","Flanker task","92","43385","98","yes","1024"
"93.93939393939394","93.93939393939394","442.6363636363636","442.6363636363636","black","legacy","legacy","legacy","0","congruent","uniform","1","undefined","1","h","98","0","0","0","98","0","98","0","98","0","0","0","98","98","98","98","Sat Sep 19 18:43:02 2020","600","The main experiment item","yes","Flankertask.osexp","/Users/annielenoir/Desktop","no","mono","no","18","no","white","no","yes","768","legacy","18","79","/Users/annielenoir/Desktop/AL-subject-1.csv","legacy","Lentiform Loewenfeld","3.3.3","0","h","NA","s","s","NA","h","436","NA","20088","26496","NA","436","2","legacy","1024","2","48000","-16","experiment","HHHHH","1","odd","213345","22602","183440","NA","206253","2489","184771","NA","214417","2502","156942","NA","214533","214970","214401","214533","Flanker task","93","43821","99","yes","1024"
"94","94","442.18","442.18","black","legacy","legacy","legacy","0","congruent","uniform","1","undefined","1","s","99","0","0","0","99","0","99","0","99","0","0","0","99","99","99","99","Sat Sep 19 18:43:02 2020","600","The main experiment item","yes","Flankertask.osexp","/Users/annielenoir/Desktop","no","mono","no","18","no","white","no","yes","768","legacy","19","79","/Users/annielenoir/Desktop/AL-subject-1.csv","legacy","Lentiform Loewenfeld","3.3.3","0","s","NA","s","s","NA","s","397","NA","20088","26496","NA","397","2","legacy","1024","2","48000","-16","experiment","SSSSS","1","odd","214992","22602","183440","NA","206253","2489","184771","NA","216063","2502","156942","NA","216179","216577","216048","216178","Flanker task","94","44218","100","yes","1024"
"94.05940594059406","94.05940594059406","444.86138613861385","444.86138613861385","black","legacy","legacy","legacy","0","incongruent","uniform","1","undefined","1","s","100","0","0","0","100","0","100","0","100","0","0","0","100","100","100","100","Sat Sep 19 18:43:02 2020","600","The main experiment item","yes","Flankertask.osexp","/Users/annielenoir/Desktop","no","mono","no","18","no","white","no","yes","768","legacy","20","79","/Users/annielenoir/Desktop/AL-subject-1.csv","legacy","Lentiform Loewenfeld","3.3.3","0","s","NA","s","s","NA","s","713","NA","20088","26496","NA","713","2","legacy","1024","2","48000","-16","experiment","HHSHH","1","odd","216598","22602","183440","NA","206253","2489","184771","NA","217667","2502","156942","NA","217783","218497","217651","217783","Flanker task","95","44931","101","yes","1024"
"93.13725490196079","93.13725490196079","443.98039215686276","443.98039215686276","black","legacy","legacy","legacy","0","incongruent","uniform","0","undefined","0","s","101","0","0","0","101","0","101","0","101","0","0","0","101","101","101","101","Sat Sep 19 18:43:02 2020","600","The main experiment item","yes","Flankertask.osexp","/Users/annielenoir/Desktop","no","mono","no","18","no","white","no","yes","768","legacy","21","79","/Users/annielenoir/Desktop/AL-subject-1.csv","legacy","Lentiform Loewenfeld","3.3.3","0","h","NA","s","s","NA","h","355","NA","20088","26496","NA","355","2","legacy","1024","2","48000","-16","experiment","HHSHH","1","odd","219034","22602","183440","NA","206253","2489","218518","NA","220103","2502","156942","NA","220218","220574","220088","220218","Flanker task","95","45286","102","yes","1024"
"93.20388349514563","93.20388349514563","443.19417475728153","443.19417475728153","black","legacy","legacy","legacy","0","congruent","uniform","1","undefined","1","s","102","0","0","0","102","0","102","0","102","0","0","0","102","102","102","102","Sat Sep 19 18:43:02 2020","600","The main experiment item","yes","Flankertask.osexp","/Users/annielenoir/Desktop","no","mono","no","18","no","white","no","yes","768","legacy","22","79","/Users/annielenoir/Desktop/AL-subject-1.csv","legacy","Lentiform Loewenfeld","3.3.3","0","s","NA","s","s","NA","s","363","NA","20088","26496","NA","363","2","legacy","1024","2","48000","-16","experiment","SSSSS","1","odd","221110","22602","183440","NA","220595","2489","218518","NA","222180","2502","156942","NA","222295","222659","222165","222295","Flanker task","96","45649","103","yes","1024"
"93.26923076923077","93.26923076923077","443.4807692307692","443.4807692307692","black","legacy","legacy","legacy","0","incongruent","uniform","1","undefined","1","s","103","0","0","0","103","0","103","0","103","0","0","0","103","103","103","103","Sat Sep 19 18:43:02 2020","600","The main experiment item","yes","Flankertask.osexp","/Users/annielenoir/Desktop","no","mono","no","18","no","white","no","yes","768","legacy","23","79","/Users/annielenoir/Desktop/AL-subject-1.csv","legacy","Lentiform Loewenfeld","3.3.3","0","s","NA","s","s","NA","s","473","NA","20088","26496","NA","473","2","legacy","1024","2","48000","-16","experiment","HHSHH","1","odd","222679","22602","183440","NA","220595","2489","218518","NA","223754","2502","156942","NA","223870","224344","223738","223869","Flanker task","97","46122","104","yes","1024"
"93.33333333333333","93.33333333333333","443.1333333333333","443.1333333333333","black","legacy","legacy","legacy","0","incongruent","uniform","1","undefined","1","s","104","0","0","0","104","0","104","0","104","0","0","0","104","104","104","104","Sat Sep 19 18:43:02 2020","600","The main experiment item","yes","Flankertask.osexp","/Users/annielenoir/Desktop","no","mono","no","18","no","white","no","yes","768","legacy","24","79","/Users/annielenoir/Desktop/AL-subject-1.csv","legacy","Lentiform Loewenfeld","3.3.3","0","s","NA","s","s","NA","s","407","NA","20088","26496","NA","407","2","legacy","1024","2","48000","-16","experiment","HHSHH","1","odd","224366","22602","183440","NA","220595","2489","218518","NA","225436","2502","156942","NA","225552","225960","225421","225551","Flanker task","98","46529","105","yes","1024"
"92.45283018867924","92.45283018867924","442.1698113207547","442.1698113207547","black","legacy","legacy","legacy","0","incongruent","uniform","0","undefined","0","h","105","0","0","0","105","0","105","0","105","0","0","0","105","105","105","105","Sat Sep 19 18:43:02 2020","600","The main experiment item","yes","Flankertask.osexp","/Users/annielenoir/Desktop","no","mono","no","18","no","white","no","yes","768","legacy","25","79","/Users/annielenoir/Desktop/AL-subject-1.csv","legacy","Lentiform Loewenfeld","3.3.3","0","s","NA","s","s","NA","s","341","NA","20088","26496","NA","341","2","legacy","1024","2","48000","-16","experiment","SSHSS","1","odd","225980","22602","183440","NA","220595","2489","218518","NA","227048","2502","156942","NA","227163","227505","227033","227163","Flanker task","98","46870","106","yes","1024"
"92.5233644859813","92.5233644859813","441.61682242990656","441.61682242990656","black","legacy","legacy","legacy","0","congruent","uniform","1","undefined","1","s","106","0","0","0","106","0","106","0","106","0","0","0","106","106","106","106","Sat Sep 19 18:43:02 2020","600","The main experiment item","yes","Flankertask.osexp","/Users/annielenoir/Desktop","no","mono","no","18","no","white","no","yes","768","legacy","26","79","/Users/annielenoir/Desktop/AL-subject-1.csv","legacy","Lentiform Loewenfeld","3.3.3","0","s","NA","s","s","NA","s","383","NA","20088","26496","NA","383","2","legacy","1024","2","48000","-16","experiment","SSSSS","1","odd","228043","22602","183440","NA","227528","2489","218518","NA","229113","2502","156942","NA","229229","229614","229098","229228","Flanker task","99","47253","107","yes","1024"
"92.5925925925926","92.5925925925926","440.787037037037","440.787037037037","black","legacy","legacy","legacy","0","congruent","uniform","1","undefined","1","s","107","0","0","0","107","0","107","0","107","0","0","0","107","107","107","107","Sat Sep 19 18:43:02 2020","600","The main experiment item","yes","Flankertask.osexp","/Users/annielenoir/Desktop","no","mono","no","18","no","white","no","yes","768","legacy","27","79","/Users/annielenoir/Desktop/AL-subject-1.csv","legacy","Lentiform Loewenfeld","3.3.3","0","s","NA","s","s","NA","s","352","NA","20088","26496","NA","352","2","legacy","1024","2","48000","-16","experiment","SSSSS","1","odd","229634","22602","183440","NA","227528","2489","218518","NA","230703","2502","156942","NA","230818","231172","230688","230818","Flanker task","100","47605","108","yes","1024"
"92.66055045871559","92.66055045871559","440.3302752293578","440.3302752293578","black","legacy","legacy","legacy","0","congruent","uniform","1","undefined","1","s","108","0","0","0","108","0","108","0","108","0","0","0","108","108","108","108","Sat Sep 19 18:43:02 2020","600","The main experiment item","yes","Flankertask.osexp","/Users/annielenoir/Desktop","no","mono","no","18","no","white","no","yes","768","legacy","28","79","/Users/annielenoir/Desktop/AL-subject-1.csv","legacy","Lentiform Loewenfeld","3.3.3","0","s","NA","s","s","NA","s","391","NA","20088","26496","NA","391","2","legacy","1024","2","48000","-16","experiment","SSSSS","1","odd","231193","22602","183440","NA","227528","2489","218518","NA","232263","2502","156942","NA","232378","232770","232247","232378","Flanker task","101","47996","109","yes","1024"
"92.72727272727273","92.72727272727273","439.56363636363636","439.56363636363636","black","legacy","legacy","legacy","0","congruent","uniform","1","undefined","1","s","109","0","0","0","109","0","109","0","109","0","0","0","109","109","109","109","Sat Sep 19 18:43:02 2020","600","The main experiment item","yes","Flankertask.osexp","/Users/annielenoir/Desktop","no","mono","no","18","no","white","no","yes","768","legacy","29","79","/Users/annielenoir/Desktop/AL-subject-1.csv","legacy","Lentiform Loewenfeld","3.3.3","0","s","NA","s","s","NA","s","356","NA","20088","26496","NA","356","2","legacy","1024","2","48000","-16","experiment","SSSSS","1","odd","232792","22602","183440","NA","227528","2489","218518","NA","233863","2502","156942","NA","233979","234336","233847","233979","Flanker task","102","48352","110","yes","1024"
"92.7927927927928","92.7927927927928","438.5945945945946","438.5945945945946","black","legacy","legacy","legacy","0","congruent","uniform","1","undefined","1","s","110","0","0","0","110","0","110","0","110","0","0","0","110","110","110","110","Sat Sep 19 18:43:02 2020","600","The main experiment item","yes","Flankertask.osexp","/Users/annielenoir/Desktop","no","mono","no","18","no","white","no","yes","768","legacy","30","79","/Users/annielenoir/Desktop/AL-subject-1.csv","legacy","Lentiform Loewenfeld","3.3.3","0","s","NA","s","s","NA","s","332","NA","20088","26496","NA","332","2","legacy","1024","2","48000","-16","experiment","SSSSS","1","odd","234357","22602","183440","NA","227528","2489","218518","NA","235429","2502","156942","NA","235545","235879","235414","235545","Flanker task","103","48684","111","yes","1024"
"92.85714285714286","92.85714285714286","438.9642857142857","438.9642857142857","black","legacy","legacy","legacy","0","incongruent","uniform","1","undefined","1","s","111","0","0","0","111","0","111","0","111","0","0","0","111","111","111","111","Sat Sep 19 18:43:02 2020","600","The main experiment item","yes","Flankertask.osexp","/Users/annielenoir/Desktop","no","mono","no","18","no","white","no","yes","768","legacy","31","79","/Users/annielenoir/Desktop/AL-subject-1.csv","legacy","Lentiform Loewenfeld","3.3.3","0","s","NA","s","s","NA","s","480","NA","20088","26496","NA","480","2","legacy","1024","2","48000","-16","experiment","HHSHH","1","odd","235900","22602","183440","NA","227528","2489","218518","NA","236970","2502","156942","NA","237086","237568","236955","237086","Flanker task","104","49164","112","yes","1024"
"92.92035398230088","92.92035398230088","439.17699115044246","439.17699115044246","black","legacy","legacy","legacy","0","incongruent","uniform","1","undefined","1","s","112","0","0","0","112","0","112","0","112","0","0","0","112","112","112","112","Sat Sep 19 18:43:02 2020","600","The main experiment item","yes","Flankertask.osexp","/Users/annielenoir/Desktop","no","mono","no","18","no","white","no","yes","768","legacy","32","79","/Users/annielenoir/Desktop/AL-subject-1.csv","legacy","Lentiform Loewenfeld","3.3.3","0","s","NA","s","s","NA","s","463","NA","20088","26496","NA","463","2","legacy","1024","2","48000","-16","experiment","HHSHH","1","odd","237589","22602","183440","NA","227528","2489","218518","NA","238661","2502","156942","NA","238777","239241","238646","238777","Flanker task","105","49627","113","yes","1024"
"92.98245614035088","92.98245614035088","438.0964912280702","438.0964912280702","black","legacy","legacy","legacy","0","congruent","uniform","1","undefined","1","h","113","0","0","0","113","0","113","0","113","0","0","0","113","113","113","113","Sat Sep 19 18:43:02 2020","600","The main experiment item","yes","Flankertask.osexp","/Users/annielenoir/Desktop","no","mono","no","18","no","white","no","yes","768","legacy","33","79","/Users/annielenoir/Desktop/AL-subject-1.csv","legacy","Lentiform Loewenfeld","3.3.3","0","h","NA","s","s","NA","h","316","NA","20088","26496","NA","316","2","legacy","1024","2","48000","-16","experiment","HHHHH","1","odd","239261","22602","183440","NA","227528","2489","218518","NA","240331","2502","156942","NA","240447","240765","240316","240446","Flanker task","106","49943","114","yes","1024"
"93.04347826086956","93.04347826086956","437.9304347826087","437.9304347826087","black","legacy","legacy","legacy","0","incongruent","uniform","1","undefined","1","h","114","0","0","0","114","0","114","0","114","0","0","0","114","114","114","114","Sat Sep 19 18:43:02 2020","600","The main experiment item","yes","Flankertask.osexp","/Users/annielenoir/Desktop","no","mono","no","18","no","white","no","yes","768","legacy","34","79","/Users/annielenoir/Desktop/AL-subject-1.csv","legacy","Lentiform Loewenfeld","3.3.3","0","h","NA","s","s","NA","h","419","NA","20088","26496","NA","419","2","legacy","1024","2","48000","-16","experiment","SSHSS","1","odd","240786","22602","183440","NA","227528","2489","218518","NA","241857","2502","156942","NA","241973","242394","241842","241973","Flanker task","107","50362","115","yes","1024"
"92.24137931034483","92.24137931034483","437.30172413793105","437.30172413793105","black","legacy","legacy","legacy","0","incongruent","uniform","0","undefined","0","s","115","0","0","0","115","0","115","0","115","0","0","0","115","115","115","115","Sat Sep 19 18:43:02 2020","600","The main experiment item","yes","Flankertask.osexp","/Users/annielenoir/Desktop","no","mono","no","18","no","white","no","yes","768","legacy","35","79","/Users/annielenoir/Desktop/AL-subject-1.csv","legacy","Lentiform Loewenfeld","3.3.3","0","h","NA","s","s","NA","h","365","NA","20088","26496","NA","365","2","legacy","1024","2","48000","-16","experiment","HHSHH","1","odd","242416","22602","183440","NA","227528","2489","218518","NA","243486","2502","156942","NA","243601","243968","243471","243601","Flanker task","107","50727","116","yes","1024"
"92.3076923076923","92.3076923076923","436.95726495726495","436.95726495726495","black","legacy","legacy","legacy","0","incongruent","uniform","1","undefined","1","h","116","0","0","0","116","0","116","0","116","0","0","0","116","116","116","116","Sat Sep 19 18:43:02 2020","600","The main experiment item","yes","Flankertask.osexp","/Users/annielenoir/Desktop","no","mono","no","18","no","white","no","yes","768","legacy","36","79","/Users/annielenoir/Desktop/AL-subject-1.csv","legacy","Lentiform Loewenfeld","3.3.3","0","h","NA","s","s","NA","h","397","NA","20088","26496","NA","397","2","legacy","1024","2","48000","-16","experiment","SSHSS","1","odd","244510","22602","183440","NA","243995","2489","218518","NA","245579","2502","156942","NA","245695","246094","245564","245695","Flanker task","108","51124","117","yes","1024"
"92.37288135593221","92.37288135593221","436.364406779661","436.364406779661","black","legacy","legacy","legacy","0","congruent","uniform","1","undefined","1","h","117","0","0","0","117","0","117","0","117","0","0","0","117","117","117","117","Sat Sep 19 18:43:02 2020","600","The main experiment item","yes","Flankertask.osexp","/Users/annielenoir/Desktop","no","mono","no","18","no","white","no","yes","768","legacy","37","79","/Users/annielenoir/Desktop/AL-subject-1.csv","legacy","Lentiform Loewenfeld","3.3.3","0","h","NA","s","s","NA","h","367","NA","20088","26496","NA","367","2","legacy","1024","2","48000","-16","experiment","HHHHH","1","odd","246115","22602","183440","NA","243995","2489","218518","NA","247185","2502","156942","NA","247301","247670","247169","247301","Flanker task","109","51491","118","yes","1024"
"92.43697478991596","92.43697478991596","436.10084033613447","436.10084033613447","black","legacy","legacy","legacy","0","congruent","uniform","1","undefined","1","h","118","0","0","0","118","0","118","0","118","0","0","0","118","118","118","118","Sat Sep 19 18:43:02 2020","600","The main experiment item","yes","Flankertask.osexp","/Users/annielenoir/Desktop","no","mono","no","18","no","white","no","yes","768","legacy","38","79","/Users/annielenoir/Desktop/AL-subject-1.csv","legacy","Lentiform Loewenfeld","3.3.3","0","h","NA","s","s","NA","h","405","NA","20088","26496","NA","405","2","legacy","1024","2","48000","-16","experiment","HHHHH","1","odd","247690","22602","183440","NA","243995","2489","218518","NA","248762","2502","156942","NA","248878","249285","248746","248878","Flanker task","110","51896","119","yes","1024"
"92.5","92.5","435.3","435.3","black","legacy","legacy","legacy","0","congruent","uniform","1","undefined","1","s","119","0","0","0","119","0","119","0","119","0","0","0","119","119","119","119","Sat Sep 19 18:43:02 2020","600","The main experiment item","yes","Flankertask.osexp","/Users/annielenoir/Desktop","no","mono","no","18","no","white","no","yes","768","legacy","39","79","/Users/annielenoir/Desktop/AL-subject-1.csv","legacy","Lentiform Loewenfeld","3.3.3","0","s","NA","s","s","NA","s","340","NA","20088","26496","NA","340","2","legacy","1024","2","48000","-16","experiment","SSSSS","1","odd","249307","22602","183440","NA","243995","2489","218518","NA","250377","2502","156942","NA","250493","250835","250361","250493","Flanker task","111","52236","120","yes","1024"
"92.56198347107438","92.56198347107438","435.41322314049586","435.41322314049586","black","legacy","legacy","legacy","0","incongruent","uniform","1","undefined","1","h","120","0","0","0","120","0","120","0","120","0","0","0","120","120","120","120","Sat Sep 19 18:43:02 2020","600","The main experiment item","yes","Flankertask.osexp","/Users/annielenoir/Desktop","no","mono","no","18","no","white","no","yes","768","legacy","40","79","/Users/annielenoir/Desktop/AL-subject-1.csv","legacy","Lentiform Loewenfeld","3.3.3","0","h","NA","s","s","NA","h","449","NA","20088","26496","NA","449","2","legacy","1024","2","48000","-16","experiment","SSHSS","1","odd","250857","22602","183440","NA","243995","2489","218518","NA","251927","2502","156942","NA","252043","252494","251911","252043","Flanker task","112","52685","121","yes","1024"
"92.62295081967213","92.62295081967213","435.78688524590166","435.78688524590166","black","legacy","legacy","legacy","0","congruent","uniform","1","undefined","1","h","121","0","0","0","121","0","121","0","121","0","0","0","121","121","121","121","Sat Sep 19 18:43:02 2020","600","The main experiment item","yes","Flankertask.osexp","/Users/annielenoir/Desktop","no","mono","no","18","no","white","no","yes","768","legacy","41","79","/Users/annielenoir/Desktop/AL-subject-1.csv","legacy","Lentiform Loewenfeld","3.3.3","0","h","NA","s","s","NA","h","481","NA","20088","26496","NA","481","2","legacy","1024","2","48000","-16","experiment","HHHHH","1","odd","252516","22602","183440","NA","243995","2489","218518","NA","253592","2502","156942","NA","253708","254191","253576","253707","Flanker task","113","53166","122","yes","1024"
