condition,acc,accuracy,average_response_time,avg_rt,background,canvas_backend,clock_backend,color_backend,compensation,coordinates,correct,correct_instructions1,correct_keyboard_response,correct_response,count_Instructions2,count_block1,count_block2,count_block3,count_errorfeedback,count_experiment,count_faster,count_finish,count_fixation,count_instructions1,count_instructions3,count_isi,count_keyboard_response,count_logger,count_sequence,count_stimulus,datetime,deadline,description,disable_garbage_collection,experiment_file,experiment_path,font_bold,font_family,font_italic,font_size,font_underline,foreground,form_clicks,fullscreen,height,keyboard_backend,live_row,live_row_block1,logfile,mouse_backend,opensesame_codename,opensesame_version,repeat_cycle,response,response_Instructions2,response_finish,response_instructions1,response_instructions3,response_keyboard_response,response_time,response_time_Instructions2,response_time_finish,response_time_instructions1,response_time_instructions3,response_time_keyboard_response,round_decimals,sampler_backend,sound_buf_size,sound_channels,sound_freq,sound_sample_size,start,stimulus,subject_nr,subject_parity,time_Instructions2,time_block1,time_block2,time_block3,time_errorfeedback,time_experiment,time_faster,time_finish,time_fixation,time_instructions1,time_instructions3,time_isi,time_keyboard_response,time_logger,time_sequence,time_stimulus,title,total_correct,total_response_time,total_responses,uniform_coordinates,width
congruent,100,100,1259.525233,1259.525233,black,psycho,psycho,psycho,0,uniform,1,undefined,1,h,0,0,0,0,0,0,0,0,0,0,0,0,0,0,0,0,Sun Sep 27 18:53:28 2020,1500,The main experiment item,yes,FlankerTask.osexp,/Users/tforestmoore/Desktop,no,mono,no,18,no,white,no,yes,768,psycho,0,0,/Users/tforestmoore/Desktop/Tarleton/Fall 2020/Math/Lab 2/RT-subject-4.csv,psycho,Lentiform Loewenfeld,3.3.3,0,h,NA,NA,s,NA,h,1259.525233,NA,NA,15079.06033,NA,1259.525233,2,psycho,1024,2,48000,-16,experiment,HHHHH,4,even,NA,19480.77365,NA,NA,NA,4295.980384,NA,NA,19613.1111,4344.791823,NA,NA,19729.30267,20991.32363,19577.48839,19728.65745,Flanker Task,1,1259.525233,1,yes,1024
incongruent,50,50,1343.883443,1343.883443,black,psycho,psycho,psycho,0,uniform,0,undefined,0,s,0,0,0,0,1,0,1,0,1,0,0,1,1,1,1,1,Sun Sep 27 18:53:28 2020,1500,The main experiment item,yes,FlankerTask.osexp,/Users/tforestmoore/Desktop,no,mono,no,18,no,white,no,yes,768,psycho,1,1,/Users/tforestmoore/Desktop/Tarleton/Fall 2020/Math/Lab 2/RT-subject-4.csv,psycho,Lentiform Loewenfeld,3.3.3,0,h,NA,NA,s,NA,h,1428.241653,NA,NA,15079.06033,NA,1428.241653,2,psycho,1024,2,48000,-16,experiment,HHSHH,4,even,NA,19480.77365,NA,NA,NA,4295.980384,NA,NA,22144.41431,4344.791823,NA,21010.77014,22262.12696,23692.59298,22121.06347,22261.01567,Flanker Task,1,2687.766886,2,yes,1024
incongruent,66.66666667,66.66666667,1206.584736,1206.584736,black,psycho,psycho,psycho,0,uniform,1,undefined,1,h,0,0,0,0,2,0,2,0,2,0,0,2,2,2,2,2,Sun Sep 27 18:53:28 2020,1500,The main experiment item,yes,FlankerTask.osexp,/Users/tforestmoore/Desktop,no,mono,no,18,no,white,no,yes,768,psycho,2,2,/Users/tforestmoore/Desktop/Tarleton/Fall 2020/Math/Lab 2/RT-subject-4.csv,psycho,Lentiform Loewenfeld,3.3.3,0,h,NA,NA,s,NA,h,931.987322,NA,NA,15079.06033,NA,931.987322,2,psycho,1024,2,48000,-16,experiment,SSHSS,4,even,NA,19480.77365,NA,NA,23711.03832,4295.980384,NA,NA,25394.10684,4344.791823,NA,24227.75938,25512.25325,26446.2173,25363.52396,25511.04785,Flanker Task,2,3619.754208,3,yes,1024
congruent,75,75,1032.54032,1032.54032,black,psycho,psycho,psycho,0,uniform,1,undefined,1,h,0,0,0,0,3,0,3,0,3,0,0,3,3,3,3,3,Sun Sep 27 18:53:28 2020,1500,The main experiment item,yes,FlankerTask.osexp,/Users/tforestmoore/Desktop,no,mono,no,18,no,white,no,yes,768,psycho,3,3,/Users/tforestmoore/Desktop/Tarleton/Fall 2020/Math/Lab 2/RT-subject-4.csv,psycho,Lentiform Loewenfeld,3.3.3,0,h,NA,NA,s,NA,h,510.407073,NA,NA,15079.06033,NA,510.407073,2,psycho,1024,2,48000,-16,experiment,HHHHH,4,even,NA,19480.77365,NA,NA,23711.03832,4295.980384,NA,NA,27610.8409,4344.791823,NA,26461.01017,27728.9225,28241.39794,27592.26424,27727.71885,Flanker Task,3,4130.161281,4,yes,1024
incongruent,80,80,925.8564452,925.8564452,black,psycho,psycho,psycho,0,uniform,1,undefined,1,h,0,0,0,0,4,0,4,0,4,0,0,4,4,4,4,4,Sun Sep 27 18:53:28 2020,1500,The main experiment item,yes,FlankerTask.osexp,/Users/tforestmoore/Desktop,no,mono,no,18,no,white,no,yes,768,psycho,4,4,/Users/tforestmoore/Desktop/Tarleton/Fall 2020/Math/Lab 2/RT-subject-4.csv,psycho,Lentiform Loewenfeld,3.3.3,0,h,NA,NA,s,NA,h,499.120945,NA,NA,15079.06033,NA,499.120945,2,psycho,1024,2,48000,-16,experiment,SSHSS,4,even,NA,19480.77365,NA,NA,23711.03832,4295.980384,NA,NA,29378.20661,4344.791823,NA,28260.98151,29494.90491,29996.02179,29353.82179,29494.43278,Flanker Task,4,4629.282226,5,yes,1024
incongruent,83.33333333,83.33333333,843.1066985,843.1066985,black,psycho,psycho,psycho,0,uniform,1,undefined,1,h,0,0,0,0,5,0,5,0,5,0,0,5,5,5,5,5,Sun Sep 27 18:53:28 2020,1500,The main experiment item,yes,FlankerTask.osexp,/Users/tforestmoore/Desktop,no,mono,no,18,no,white,no,yes,768,psycho,5,5,/Users/tforestmoore/Desktop/Tarleton/Fall 2020/Math/Lab 2/RT-subject-4.csv,psycho,Lentiform Loewenfeld,3.3.3,0,h,NA,NA,s,NA,h,429.357965,NA,NA,15079.06033,NA,429.357965,2,psycho,1024,2,48000,-16,experiment,SSHSS,4,even,NA,19480.77365,NA,NA,23711.03832,4295.980384,NA,NA,31144.97867,4344.791823,NA,30011.00603,31261.74279,31693.09812,31130.09017,31261.09864,Flanker Task,5,5058.640191,6,yes,1024
incongruent,85.71428571,85.71428571,801.923797,801.923797,black,psycho,psycho,psycho,0,uniform,1,undefined,1,s,0,0,0,0,6,0,6,0,6,0,0,6,6,6,6,6,Sun Sep 27 18:53:28 2020,1500,The main experiment item,yes,FlankerTask.osexp,/Users/tforestmoore/Desktop,no,mono,no,18,no,white,no,yes,768,psycho,6,6,/Users/tforestmoore/Desktop/Tarleton/Fall 2020/Math/Lab 2/RT-subject-4.csv,psycho,Lentiform Loewenfeld,3.3.3,0,s,NA,NA,s,NA,s,554.826388,NA,NA,15079.06033,NA,554.826388,2,psycho,1024,2,48000,-16,experiment,HHSHH,4,even,NA,19480.77365,NA,NA,23711.03832,4295.980384,NA,NA,32844.43285,4344.791823,NA,31710.79942,32962.45983,33519.2677,32820.05173,32961.22371,Flanker Task,6,5613.466579,7,yes,1024
congruent,87.5,87.5,756.8659576,756.8659576,black,psycho,psycho,psycho,0,uniform,1,undefined,1,s,0,0,0,0,7,0,7,0,7,0,0,7,7,7,7,7,Sun Sep 27 18:53:28 2020,1500,The main experiment item,yes,FlankerTask.osexp,/Users/tforestmoore/Desktop,no,mono,no,18,no,white,no,yes,768,psycho,7,7,/Users/tforestmoore/Desktop/Tarleton/Fall 2020/Math/Lab 2/RT-subject-4.csv,psycho,Lentiform Loewenfeld,3.3.3,0,s,NA,NA,s,NA,s,441.461082,NA,NA,15079.06033,NA,441.461082,2,psycho,1024,2,48000,-16,experiment,SSSSS,4,even,NA,19480.77365,NA,NA,23711.03832,4295.980384,NA,NA,34660.92879,4344.791823,NA,33527.24244,34778.94583,35222.96956,34635.75365,34777.78131,Flanker Task,7,6054.927661,8,yes,1024
incongruent,88.88888889,88.88888889,728.0164678,728.0164678,black,psycho,psycho,psycho,0,uniform,1,undefined,1,h,0,0,0,0,8,0,8,0,8,0,0,8,8,8,8,8,Sun Sep 27 18:53:28 2020,1500,The main experiment item,yes,FlankerTask.osexp,/Users/tforestmoore/Desktop,no,mono,no,18,no,white,no,yes,768,psycho,8,8,/Users/tforestmoore/Desktop/Tarleton/Fall 2020/Math/Lab 2/RT-subject-4.csv,psycho,Lentiform Loewenfeld,3.3.3,0,h,NA,NA,s,NA,h,497.220549,NA,NA,15079.06033,NA,497.220549,2,psycho,1024,2,48000,-16,experiment,SSHSS,4,even,NA,19480.77365,NA,NA,23711.03832,4295.980384,NA,NA,36377.55532,4344.791823,NA,35244.69866,36496.99157,36996.03742,36352.58433,36495.91563,Flanker Task,8,6552.14821,9,yes,1024
congruent,90,90,703.6807003,703.6807003,black,psycho,psycho,psycho,0,uniform,1,undefined,1,s,0,0,0,0,9,0,9,0,9,0,0,9,9,9,9,9,Sun Sep 27 18:53:28 2020,1500,The main experiment item,yes,FlankerTask.osexp,/Users/tforestmoore/Desktop,no,mono,no,18,no,white,no,yes,768,psycho,9,9,/Users/tforestmoore/Desktop/Tarleton/Fall 2020/Math/Lab 2/RT-subject-4.csv,psycho,Lentiform Loewenfeld,3.3.3,0,s,NA,NA,s,NA,s,484.658793,NA,NA,15079.06033,NA,484.658793,2,psycho,1024,2,48000,-16,experiment,SSSSS,4,even,NA,19480.77365,NA,NA,23711.03832,4295.980384,NA,NA,38145.74955,4344.791823,NA,37012.39893,38261.5788,38748.11815,38119.42947,38260.93336,Flanker Task,9,7036.807003,10,yes,1024
incongruent,90.90909091,90.90909091,692.0142444,692.0142444,black,psycho,psycho,psycho,0,uniform,1,undefined,1,s,0,0,0,0,10,0,10,0,10,0,0,10,10,10,10,10,Sun Sep 27 18:53:28 2020,1500,The main experiment item,yes,FlankerTask.osexp,/Users/tforestmoore/Desktop,no,mono,no,18,no,white,no,yes,768,psycho,10,10,/Users/tforestmoore/Desktop/Tarleton/Fall 2020/Math/Lab 2/RT-subject-4.csv,psycho,Lentiform Loewenfeld,3.3.3,0,s,NA,NA,s,NA,s,575.349685,NA,NA,15079.06033,NA,575.349685,2,psycho,1024,2,48000,-16,experiment,HHSHH,4,even,NA,19480.77365,NA,NA,23711.03832,4295.980384,NA,NA,39894.7292,4344.791823,NA,38760.88327,40011.64231,40588.9358,39870.73897,40010.79341,Flanker Task,10,7612.156688,11,yes,1024
congruent,91.66666667,91.66666667,676.84834,676.84834,black,psycho,psycho,psycho,0,uniform,1,undefined,1,s,0,0,0,0,11,0,11,0,11,0,0,11,11,11,11,11,Sun Sep 27 18:53:28 2020,1500,The main experiment item,yes,FlankerTask.osexp,/Users/tforestmoore/Desktop,no,mono,no,18,no,white,no,yes,768,psycho,11,11,/Users/tforestmoore/Desktop/Tarleton/Fall 2020/Math/Lab 2/RT-subject-4.csv,psycho,Lentiform Loewenfeld,3.3.3,0,s,NA,NA,s,NA,s,510.023392,NA,NA,15079.06033,NA,510.023392,2,psycho,1024,2,48000,-16,experiment,SSSSS,4,even,NA,19480.77365,NA,NA,23711.03832,4295.980384,NA,NA,41744.18909,4344.791823,NA,40610.80688,41861.91084,42373.86128,41719.88995,41860.8047,Flanker Task,11,8122.18008,12,yes,1024
congruent,92.30769231,92.30769231,656.7719943,656.7719943,black,psycho,psycho,psycho,0,uniform,1,undefined,1,s,0,0,0,0,12,0,12,0,12,0,0,12,12,12,12,12,Sun Sep 27 18:53:28 2020,1500,The main experiment item,yes,FlankerTask.osexp,/Users/tforestmoore/Desktop,no,mono,no,18,no,white,no,yes,768,psycho,12,12,/Users/tforestmoore/Desktop/Tarleton/Fall 2020/Math/Lab 2/RT-subject-4.csv,psycho,Lentiform Loewenfeld,3.3.3,0,s,NA,NA,s,NA,s,415.855846,NA,NA,15079.06033,NA,415.855846,2,psycho,1024,2,48000,-16,experiment,SSSSS,4,even,NA,19480.77365,NA,NA,23711.03832,4295.980384,NA,NA,43527.61921,4344.791823,NA,42394.21895,43645.32627,44063.12174,43502.02896,43644.23887,Flanker Task,12,8538.035926,13,yes,1024
congruent,92.85714286,92.85714286,639.0799276,639.0799276,black,psycho,psycho,psycho,0,uniform,1,undefined,1,s,0,0,0,0,13,0,13,0,13,0,0,13,13,13,13,13,Sun Sep 27 18:53:28 2020,1500,The main experiment item,yes,FlankerTask.osexp,/Users/tforestmoore/Desktop,no,mono,no,18,no,white,no,yes,768,psycho,13,13,/Users/tforestmoore/Desktop/Tarleton/Fall 2020/Math/Lab 2/RT-subject-4.csv,psycho,Lentiform Loewenfeld,3.3.3,0,s,NA,NA,s,NA,s,409.08306,NA,NA,15079.06033,NA,409.08306,2,psycho,1024,2,48000,-16,experiment,SSSSS,4,even,NA,19480.77365,NA,NA,23711.03832,4295.980384,NA,NA,45210.89856,4344.791823,NA,44077.47905,45328.63224,45739.76372,45187.31855,45327.49923,Flanker Task,13,8947.118986,14,yes,1024
incongruent,93.33333333,93.33333333,640.4947827,640.4947827,black,psycho,psycho,psycho,0,uniform,1,undefined,1,s,0,0,0,0,14,0,14,0,14,0,0,14,14,14,14,14,Sun Sep 27 18:53:28 2020,1500,The main experiment item,yes,FlankerTask.osexp,/Users/tforestmoore/Desktop,no,mono,no,18,no,white,no,yes,768,psycho,14,14,/Users/tforestmoore/Desktop/Tarleton/Fall 2020/Math/Lab 2/RT-subject-4.csv,psycho,Lentiform Loewenfeld,3.3.3,0,s,NA,NA,s,NA,s,660.302755,NA,NA,15079.06033,NA,660.302755,2,psycho,1024,2,48000,-16,experiment,HHSHH,4,even,NA,19480.77365,NA,NA,23711.03832,4295.980384,NA,NA,46894.22973,4344.791823,NA,45760.82352,47011.14193,47673.36449,46870.65336,47010.71589,Flanker Task,14,9607.421741,15,yes,1024
congruent,93.75,93.75,632.6021021,632.6021021,black,psycho,psycho,psycho,0,uniform,1,undefined,1,h,0,0,0,0,15,0,15,0,15,0,0,15,15,15,15,15,Sun Sep 27 18:53:28 2020,1500,The main experiment item,yes,FlankerTask.osexp,/Users/tforestmoore/Desktop,no,mono,no,18,no,white,no,yes,768,psycho,15,15,/Users/tforestmoore/Desktop/Tarleton/Fall 2020/Math/Lab 2/RT-subject-4.csv,psycho,Lentiform Loewenfeld,3.3.3,0,h,NA,NA,s,NA,h,514.211893,NA,NA,15079.06033,NA,514.211893,2,psycho,1024,2,48000,-16,experiment,HHHHH,4,even,NA,19480.77365,NA,NA,23711.03832,4295.980384,NA,NA,48828.41472,4344.791823,NA,47694.08521,48944.7153,49460.96489,48802.38008,48944.06783,Flanker Task,15,10121.63363,16,yes,1024
congruent,94.11764706,94.11764706,620.4095886,620.4095886,black,psycho,psycho,psycho,0,uniform,1,undefined,1,h,0,0,0,0,16,0,16,0,16,0,0,16,16,16,16,16,Sun Sep 27 18:53:28 2020,1500,The main experiment item,yes,FlankerTask.osexp,/Users/tforestmoore/Desktop,no,mono,no,18,no,white,no,yes,768,psycho,16,16,/Users/tforestmoore/Desktop/Tarleton/Fall 2020/Math/Lab 2/RT-subject-4.csv,psycho,Lentiform Loewenfeld,3.3.3,0,h,NA,NA,s,NA,h,425.329372,NA,NA,15079.06033,NA,425.329372,2,psycho,1024,2,48000,-16,experiment,HHHHH,4,even,NA,19480.77365,NA,NA,23711.03832,4295.980384,NA,NA,50610.71055,4344.791823,NA,49477.88843,50728.47791,51155.69177,50585.24339,50727.38396,Flanker Task,16,10546.96301,17,yes,1024
incongruent,94.44444444,94.44444444,613.9599939,613.9599939,black,psycho,psycho,psycho,0,uniform,1,undefined,1,h,0,0,0,0,17,0,17,0,17,0,0,17,17,17,17,17,Sun Sep 27 18:53:28 2020,1500,The main experiment item,yes,FlankerTask.osexp,/Users/tforestmoore/Desktop,no,mono,no,18,no,white,no,yes,768,psycho,17,17,/Users/tforestmoore/Desktop/Tarleton/Fall 2020/Math/Lab 2/RT-subject-4.csv,psycho,Lentiform Loewenfeld,3.3.3,0,h,NA,NA,s,NA,h,504.316884,NA,NA,15079.06033,NA,504.316884,2,psycho,1024,2,48000,-16,experiment,SSHSS,4,even,NA,19480.77365,NA,NA,23711.03832,4295.980384,NA,NA,52310.69075,4344.791823,NA,51177.39608,52428.44173,52935.00413,52287.96766,52427.3723,Flanker Task,17,11051.27989,18,yes,1024
incongruent,94.73684211,94.73684211,606.5430971,606.5430971,black,psycho,psycho,psycho,0,uniform,1,undefined,1,s,0,0,0,0,18,0,18,0,18,0,0,18,18,18,18,18,Sun Sep 27 18:53:28 2020,1500,The main experiment item,yes,FlankerTask.osexp,/Users/tforestmoore/Desktop,no,mono,no,18,no,white,no,yes,768,psycho,18,18,/Users/tforestmoore/Desktop/Tarleton/Fall 2020/Math/Lab 2/RT-subject-4.csv,psycho,Lentiform Loewenfeld,3.3.3,0,s,NA,NA,s,NA,s,473.038955,NA,NA,15079.06033,NA,473.038955,2,psycho,1024,2,48000,-16,experiment,HHSHH,4,even,NA,19480.77365,NA,NA,23711.03832,4295.980384,NA,NA,54078.48135,4344.791823,NA,52944.20204,54194.78385,54669.81514,54054.37865,54194.14196,Flanker Task,18,11524.31884,19,yes,1024
congruent,95,95,630.3165889,630.3165889,black,psycho,psycho,psycho,0,uniform,1,undefined,1,h,0,0,0,0,19,0,19,0,19,0,0,19,19,19,19,19,Sun Sep 27 18:53:28 2020,1500,The main experiment item,yes,FlankerTask.osexp,/Users/tforestmoore/Desktop,no,mono,no,18,no,white,no,yes,768,psycho,19,19,/Users/tforestmoore/Desktop/Tarleton/Fall 2020/Math/Lab 2/RT-subject-4.csv,psycho,Lentiform Loewenfeld,3.3.3,0,h,NA,NA,s,NA,h,1082.012933,NA,NA,15079.06033,NA,1082.012933,2,psycho,1024,2,48000,-16,experiment,HHHHH,4,even,NA,19480.77365,NA,NA,23711.03832,4295.980384,NA,NA,55810.71029,4344.791823,NA,54679.29254,55928.61793,57012.73594,55788.51,55927.45438,Flanker Task,19,12606.33178,20,yes,1024
incongruent,95.23809524,95.23809524,650.3255647,650.3255647,black,psycho,psycho,psycho,0,uniform,1,undefined,1,s,0,0,0,0,20,0,20,0,20,0,0,20,20,20,20,20,Sun Sep 27 18:53:28 2020,1500,The main experiment item,yes,FlankerTask.osexp,/Users/tforestmoore/Desktop,no,mono,no,18,no,white,no,yes,768,psycho,20,20,/Users/tforestmoore/Desktop/Tarleton/Fall 2020/Math/Lab 2/RT-subject-4.csv,psycho,Lentiform Loewenfeld,3.3.3,0,s,NA,NA,s,NA,s,1050.505081,NA,NA,15079.06033,NA,1050.505081,2,psycho,1024,2,48000,-16,experiment,HHSHH,4,even,NA,19480.77365,NA,NA,23711.03832,4295.980384,NA,NA,58160.73353,4344.791823,NA,57027.47534,58278.44598,59331.01514,58136.3119,58277.34247,Flanker Task,20,13656.83686,21,yes,1024
incongruent,95.45454545,95.45454545,674.2366934,674.2366934,black,psycho,psycho,psycho,0,uniform,1,undefined,1,s,0,0,0,0,21,0,21,0,21,0,0,21,21,21,21,21,Sun Sep 27 18:53:28 2020,1500,The main experiment item,yes,FlankerTask.osexp,/Users/tforestmoore/Desktop,no,mono,no,18,no,white,no,yes,768,psycho,21,21,/Users/tforestmoore/Desktop/Tarleton/Fall 2020/Math/Lab 2/RT-subject-4.csv,psycho,Lentiform Loewenfeld,3.3.3,0,s,NA,NA,s,NA,s,1176.370396,NA,NA,15079.06033,NA,1176.370396,2,psycho,1024,2,48000,-16,experiment,HHSHH,4,even,NA,19480.77365,NA,NA,23711.03832,4295.980384,NA,NA,60477.3448,4344.791823,NA,59344.4166,60594.08169,61772.84801,60454.78059,60593.60159,Flanker Task,21,14833.20725,22,yes,1024
congruent,95.65217391,95.65217391,669.9015663,669.9015663,black,psycho,psycho,psycho,0,uniform,1,undefined,1,h,0,0,0,0,22,0,22,0,22,0,0,22,22,22,22,22,Sun Sep 27 18:53:28 2020,1500,The main experiment item,yes,FlankerTask.osexp,/Users/tforestmoore/Desktop,no,mono,no,18,no,white,no,yes,768,psycho,22,22,/Users/tforestmoore/Desktop/Tarleton/Fall 2020/Math/Lab 2/RT-subject-4.csv,psycho,Lentiform Loewenfeld,3.3.3,0,h,NA,NA,s,NA,h,574.528771,NA,NA,15079.06033,NA,574.528771,2,psycho,1024,2,48000,-16,experiment,HHHHH,4,even,NA,19480.77365,NA,NA,23711.03832,4295.980384,NA,NA,62910.63133,4344.791823,NA,61794.56593,63028.59139,63605.40526,62886.33862,63027.33455,Flanker Task,22,15407.73603,23,yes,1024
incongruent,95.83333333,95.83333333,677.9937693,677.9937693,black,psycho,psycho,psycho,0,uniform,1,undefined,1,h,0,0,0,0,23,0,23,0,23,0,0,23,23,23,23,23,Sun Sep 27 18:53:28 2020,1500,The main experiment item,yes,FlankerTask.osexp,/Users/tforestmoore/Desktop,no,mono,no,18,no,white,no,yes,768,psycho,23,23,/Users/tforestmoore/Desktop/Tarleton/Fall 2020/Math/Lab 2/RT-subject-4.csv,psycho,Lentiform Loewenfeld,3.3.3,0,h,NA,NA,s,NA,h,864.114437,NA,NA,15079.06033,NA,864.114437,2,psycho,1024,2,48000,-16,experiment,SSHSS,4,even,NA,19480.77365,NA,NA,23711.03832,4295.980384,NA,NA,64761.6663,4344.791823,NA,63627.12264,64877.89948,65745.26289,64737.3057,64877.25503,Flanker Task,23,16271.85046,24,yes,1024
incongruent,96,96,680.3347761,680.3347761,black,psycho,psycho,psycho,0,uniform,1,undefined,1,h,0,0,0,0,24,0,24,0,24,0,0,24,24,24,24,24,Sun Sep 27 18:53:28 2020,1500,The main experiment item,yes,FlankerTask.osexp,/Users/tforestmoore/Desktop,no,mono,no,18,no,white,no,yes,768,psycho,24,24,/Users/tforestmoore/Desktop/Tarleton/Fall 2020/Math/Lab 2/RT-subject-4.csv,psycho,Lentiform Loewenfeld,3.3.3,0,h,NA,NA,s,NA,h,736.51894,NA,NA,15079.06033,NA,736.51894,2,psycho,1024,2,48000,-16,experiment,SSHSS,4,even,NA,19480.77365,NA,NA,23711.03832,4295.980384,NA,NA,66926.99186,4344.791823,NA,65760.61916,67044.9807,67783.49078,66896.3528,67043.81043,Flanker Task,24,17008.3694,25,yes,1024
incongruent,96.15384615,96.15384615,670.2411935,670.2411935,black,psycho,psycho,psycho,0,uniform,1,undefined,1,h,0,0,0,0,25,0,25,0,25,0,0,25,25,25,25,25,Sun Sep 27 18:53:28 2020,1500,The main experiment item,yes,FlankerTask.osexp,/Users/tforestmoore/Desktop,no,mono,no,18,no,white,no,yes,768,psycho,25,25,/Users/tforestmoore/Desktop/Tarleton/Fall 2020/Math/Lab 2/RT-subject-4.csv,psycho,Lentiform Loewenfeld,3.3.3,0,h,NA,NA,s,NA,h,417.901629,NA,NA,15079.06033,NA,417.901629,2,psycho,1024,2,48000,-16,experiment,SSHSS,4,even,NA,19480.77365,NA,NA,23711.03832,4295.980384,NA,NA,68926.94351,4344.791823,NA,67793.9442,69044.36536,69464.46904,68904.97802,69043.48773,Flanker Task,25,17426.27103,26,yes,1024
incongruent,96.2962963,96.2962963,660.0880785,660.0880785,black,psycho,psycho,psycho,0,uniform,1,undefined,1,h,0,0,0,0,26,0,26,0,26,0,0,26,26,26,26,26,Sun Sep 27 18:53:28 2020,1500,The main experiment item,yes,FlankerTask.osexp,/Users/tforestmoore/Desktop,no,mono,no,18,no,white,no,yes,768,psycho,26,26,/Users/tforestmoore/Desktop/Tarleton/Fall 2020/Math/Lab 2/RT-subject-4.csv,psycho,Lentiform Loewenfeld,3.3.3,0,h,NA,NA,s,NA,h,396.107087,NA,NA,15079.06033,NA,396.107087,2,psycho,1024,2,48000,-16,experiment,SSHSS,4,even,NA,19480.77365,NA,NA,23711.03832,4295.980384,NA,NA,70610.45943,4344.791823,NA,69477.65347,70728.2548,71127.14643,70587.05655,70727.0447,Flanker Task,26,17822.37812,27,yes,1024
incongruent,96.42857143,96.42857143,655.2048523,655.2048523,black,psycho,psycho,psycho,0,uniform,1,undefined,1,s,0,0,0,0,27,0,27,0,27,0,0,27,27,27,27,27,Sun Sep 27 18:53:28 2020,1500,The main experiment item,yes,FlankerTask.osexp,/Users/tforestmoore/Desktop,no,mono,no,18,no,white,no,yes,768,psycho,27,27,/Users/tforestmoore/Desktop/Tarleton/Fall 2020/Math/Lab 2/RT-subject-4.csv,psycho,Lentiform Loewenfeld,3.3.3,0,s,NA,NA,s,NA,s,523.357745,NA,NA,15079.06033,NA,523.357745,2,psycho,1024,2,48000,-16,experiment,HHSHH,4,even,NA,19480.77365,NA,NA,23711.03832,4295.980384,NA,NA,72277.08493,4344.791823,NA,71143.43451,72394.9378,72920.3587,72251.20959,72393.73985,Flanker Task,27,18345.73586,28,yes,1024
incongruent,96.55172414,96.55172414,648.3942778,648.3942778,black,psycho,psycho,psycho,0,uniform,1,undefined,1,h,0,0,0,0,28,0,28,0,28,0,0,28,28,28,28,28,Sun Sep 27 18:53:28 2020,1500,The main experiment item,yes,FlankerTask.osexp,/Users/tforestmoore/Desktop,no,mono,no,18,no,white,no,yes,768,psycho,28,28,/Users/tforestmoore/Desktop/Tarleton/Fall 2020/Math/Lab 2/RT-subject-4.csv,psycho,Lentiform Loewenfeld,3.3.3,0,h,NA,NA,s,NA,h,457.698193,NA,NA,15079.06033,NA,457.698193,2,psycho,1024,2,48000,-16,experiment,SSHSS,4,even,NA,19480.77365,NA,NA,23711.03832,4295.980384,NA,NA,74060.88471,4344.791823,NA,72943.72718,74178.40729,74638.15623,74051.1106,74177.11923,Flanker Task,28,18803.43406,29,yes,1024
congruent,96.66666667,96.66666667,647.4980238,647.4980238,black,psycho,psycho,psycho,0,uniform,1,undefined,1,s,0,0,0,0,29,0,29,0,29,0,0,29,29,29,29,29,Sun Sep 27 18:53:28 2020,1500,The main experiment item,yes,FlankerTask.osexp,/Users/tforestmoore/Desktop,no,mono,no,18,no,white,no,yes,768,psycho,29,29,/Users/tforestmoore/Desktop/Tarleton/Fall 2020/Math/Lab 2/RT-subject-4.csv,psycho,Lentiform Loewenfeld,3.3.3,0,s,NA,NA,s,NA,s,621.506657,NA,NA,15079.06033,NA,621.506657,2,psycho,1024,2,48000,-16,experiment,SSSSS,4,even,NA,19480.77365,NA,NA,23711.03832,4295.980384,NA,NA,75779.29592,4344.791823,NA,74660.49584,75894.4886,76517.96975,75767.71148,75893.84382,Flanker Task,29,19424.94071,30,yes,1024
incongruent,96.77419355,96.77419355,641.8099207,641.8099207,black,psycho,psycho,psycho,0,uniform,1,undefined,1,s,0,0,0,0,30,0,30,0,30,0,0,30,30,30,30,30,Sun Sep 27 18:53:28 2020,1500,The main experiment item,yes,FlankerTask.osexp,/Users/tforestmoore/Desktop,no,mono,no,18,no,white,no,yes,768,psycho,30,30,/Users/tforestmoore/Desktop/Tarleton/Fall 2020/Math/Lab 2/RT-subject-4.csv,psycho,Lentiform Loewenfeld,3.3.3,0,s,NA,NA,s,NA,s,471.166828,NA,NA,15079.06033,NA,471.166828,2,psycho,1024,2,48000,-16,experiment,HHSHH,4,even,NA,19480.77365,NA,NA,23711.03832,4295.980384,NA,NA,77677.03329,4344.791823,NA,76527.1034,77794.85103,78268.43364,77658.36432,77793.68078,Flanker Task,30,19896.10754,31,yes,1024
incongruent,96.875,96.875,640.1284476,640.1284476,black,psycho,psycho,psycho,0,uniform,1,undefined,1,s,0,0,0,0,31,0,31,0,31,0,0,31,31,31,31,31,Sun Sep 27 18:53:28 2020,1500,The main experiment item,yes,FlankerTask.osexp,/Users/tforestmoore/Desktop,no,mono,no,18,no,white,no,yes,768,psycho,31,31,/Users/tforestmoore/Desktop/Tarleton/Fall 2020/Math/Lab 2/RT-subject-4.csv,psycho,Lentiform Loewenfeld,3.3.3,0,s,NA,NA,s,NA,s,588.00278,NA,NA,15079.06033,NA,588.00278,2,psycho,1024,2,48000,-16,experiment,HHSHH,4,even,NA,19480.77365,NA,NA,23711.03832,4295.980384,NA,NA,79410.93794,4344.791823,NA,78277.23437,79527.87579,80117.85554,79385.40871,79527.2421,Flanker Task,31,20484.11032,32,yes,1024
congruent,96.96969697,96.96969697,631.656564,631.656564,black,psycho,psycho,psycho,0,uniform,1,undefined,1,s,0,0,0,0,32,0,32,0,32,0,0,32,32,32,32,32,Sun Sep 27 18:53:28 2020,1500,The main experiment item,yes,FlankerTask.osexp,/Users/tforestmoore/Desktop,no,mono,no,18,no,white,no,yes,768,psycho,32,32,/Users/tforestmoore/Desktop/Tarleton/Fall 2020/Math/Lab 2/RT-subject-4.csv,psycho,Lentiform Loewenfeld,3.3.3,0,s,NA,NA,s,NA,s,360.556289,NA,NA,15079.06033,NA,360.556289,2,psycho,1024,2,48000,-16,experiment,SSSSS,4,even,NA,19480.77365,NA,NA,23711.03832,4295.980384,NA,NA,81243.53805,4344.791823,NA,80127.10035,81361.47653,81724.20393,81234.76461,81360.31986,Flanker Task,32,20844.66661,33,yes,1024
congruent,97.05882353,97.05882353,624.2445795,624.2445795,black,psycho,psycho,psycho,0,uniform,1,undefined,1,s,0,0,0,0,33,0,33,0,33,0,0,33,33,33,33,33,Sun Sep 27 18:53:28 2020,1500,The main experiment item,yes,FlankerTask.osexp,/Users/tforestmoore/Desktop,no,mono,no,18,no,white,no,yes,768,psycho,33,33,/Users/tforestmoore/Desktop/Tarleton/Fall 2020/Math/Lab 2/RT-subject-4.csv,psycho,Lentiform Loewenfeld,3.3.3,0,s,NA,NA,s,NA,s,379.649093,NA,NA,15079.06033,NA,379.649093,2,psycho,1024,2,48000,-16,experiment,SSSSS,4,even,NA,19480.77365,NA,NA,23711.03832,4295.980384,NA,NA,82860.11142,4344.791823,NA,81743.68355,82978.13023,83359.91679,82851.50183,82977.00412,Flanker Task,33,21224.3157,34,yes,1024
congruent,97.14285714,97.14285714,617.6715836,617.6715836,black,psycho,psycho,psycho,0,uniform,1,undefined,1,h,0,0,0,0,34,0,34,0,34,0,0,34,34,34,34,34,Sun Sep 27 18:53:28 2020,1500,The main experiment item,yes,FlankerTask.osexp,/Users/tforestmoore/Desktop,no,mono,no,18,no,white,no,yes,768,psycho,34,34,/Users/tforestmoore/Desktop/Tarleton/Fall 2020/Math/Lab 2/RT-subject-4.csv,psycho,Lentiform Loewenfeld,3.3.3,0,h,NA,NA,s,NA,h,394.189722,NA,NA,15079.06033,NA,394.189722,2,psycho,1024,2,48000,-16,experiment,HHHHH,4,even,NA,19480.77365,NA,NA,23711.03832,4295.980384,NA,NA,84494.00095,4344.791823,NA,83376.89132,84611.68081,85007.8697,84484.84201,84610.46906,Flanker Task,34,21618.50543,35,yes,1024
congruent,97.22222222,97.22222222,611.4014251,611.4014251,black,psycho,psycho,psycho,0,uniform,1,undefined,1,h,0,0,0,0,35,0,35,0,35,0,0,35,35,35,35,35,Sun Sep 27 18:53:28 2020,1500,The main experiment item,yes,FlankerTask.osexp,/Users/tforestmoore/Desktop,no,mono,no,18,no,white,no,yes,768,psycho,35,35,/Users/tforestmoore/Desktop/Tarleton/Fall 2020/Math/Lab 2/RT-subject-4.csv,psycho,Lentiform Loewenfeld,3.3.3,0,h,NA,NA,s,NA,h,391.945879,NA,NA,15079.06033,NA,391.945879,2,psycho,1024,2,48000,-16,experiment,HHHHH,4,even,NA,19480.77365,NA,NA,23711.03832,4295.980384,NA,NA,86160.22004,4344.791823,NA,85026.90929,86277.99905,86672.0012,86139.16426,86276.88247,Flanker Task,35,22010.45131,36,yes,1024
incongruent,97.2972973,97.2972973,605.872017,605.872017,black,psycho,psycho,psycho,0,uniform,1,undefined,1,s,0,0,0,0,36,0,36,0,36,0,0,36,36,36,36,36,Sun Sep 27 18:53:28 2020,1500,The main experiment item,yes,FlankerTask.osexp,/Users/tforestmoore/Desktop,no,mono,no,18,no,white,no,yes,768,psycho,36,36,/Users/tforestmoore/Desktop/Tarleton/Fall 2020/Math/Lab 2/RT-subject-4.csv,psycho,Lentiform Loewenfeld,3.3.3,0,s,NA,NA,s,NA,s,406.813323,NA,NA,15079.06033,NA,406.813323,2,psycho,1024,2,48000,-16,experiment,HHSHH,4,even,NA,19480.77365,NA,NA,23711.03832,4295.980384,NA,NA,87810.3963,4344.791823,NA,86693.50044,87928.0408,88336.96276,87801.60057,87926.90732,Flanker Task,36,22417.26463,37,yes,1024
congruent,97.36842105,97.36842105,602.5000718,602.5000718,black,psycho,psycho,psycho,0,uniform,1,undefined,1,h,0,0,0,0,37,0,37,0,37,0,0,37,37,37,37,37,Sun Sep 27 18:53:28 2020,1500,The main experiment item,yes,FlankerTask.osexp,/Users/tforestmoore/Desktop,no,mono,no,18,no,white,no,yes,768,psycho,37,37,/Users/tforestmoore/Desktop/Tarleton/Fall 2020/Math/Lab 2/RT-subject-4.csv,psycho,Lentiform Loewenfeld,3.3.3,0,h,NA,NA,s,NA,h,477.738099,NA,NA,15079.06033,NA,477.738099,2,psycho,1024,2,48000,-16,experiment,HHHHH,4,even,NA,19480.77365,NA,NA,23711.03832,4295.980384,NA,NA,89493.97455,4344.791823,NA,88360.22922,89611.12673,90090.90483,89469.54844,89610.27534,Flanker Task,37,22895.00273,38,yes,1024
incongruent,97.43589744,97.43589744,598.4533463,598.4533463,black,psycho,psycho,psycho,0,uniform,1,undefined,1,h,0,0,0,0,38,0,38,0,38,0,0,38,38,38,38,38,Sun Sep 27 18:53:28 2020,1500,The main experiment item,yes,FlankerTask.osexp,/Users/tforestmoore/Desktop,no,mono,no,18,no,white,no,yes,768,psycho,38,38,/Users/tforestmoore/Desktop/Tarleton/Fall 2020/Math/Lab 2/RT-subject-4.csv,psycho,Lentiform Loewenfeld,3.3.3,0,h,NA,NA,s,NA,h,444.677779,NA,NA,15079.06033,NA,444.677779,2,psycho,1024,2,48000,-16,experiment,SSHSS,4,even,NA,19480.77365,NA,NA,23711.03832,4295.980384,NA,NA,91227.20737,4344.791823,NA,90110.14388,91344.17686,91791.11126,91217.25968,91343.53077,Flanker Task,38,23339.68051,39,yes,1024
congruent,97.5,97.5,593.588136,593.588136,black,psycho,psycho,psycho,0,uniform,1,undefined,1,s,0,0,0,0,39,0,39,0,39,0,0,39,39,39,39,39,Sun Sep 27 18:53:28 2020,1500,The main experiment item,yes,FlankerTask.osexp,/Users/tforestmoore/Desktop,no,mono,no,18,no,white,no,yes,768,psycho,39,39,/Users/tforestmoore/Desktop/Tarleton/Fall 2020/Math/Lab 2/RT-subject-4.csv,psycho,Lentiform Loewenfeld,3.3.3,0,s,NA,NA,s,NA,s,403.844932,NA,NA,15079.06033,NA,403.844932,2,psycho,1024,2,48000,-16,experiment,SSSSS,4,even,NA,19480.77365,NA,NA,23711.03832,4295.980384,NA,NA,92943.11272,4344.791823,NA,91810.29319,93060.8804,93466.95891,92928.01944,93060.08684,Flanker Task,39,23743.52544,40,yes,1024
incongruent,95.12195122,95.12195122,589.1003184,589.1003184,black,psycho,psycho,psycho,0,uniform,0,undefined,0,h,0,0,0,0,40,0,40,0,40,0,0,40,40,40,40,40,Sun Sep 27 18:53:28 2020,1500,The main experiment item,yes,FlankerTask.osexp,/Users/tforestmoore/Desktop,no,mono,no,18,no,white,no,yes,768,psycho,40,40,/Users/tforestmoore/Desktop/Tarleton/Fall 2020/Math/Lab 2/RT-subject-4.csv,psycho,Lentiform Loewenfeld,3.3.3,0,s,NA,NA,s,NA,s,409.587618,NA,NA,15079.06033,NA,409.587618,2,psycho,1024,2,48000,-16,experiment,SSHSS,4,even,NA,19480.77365,NA,NA,23711.03832,4295.980384,NA,NA,94593.35708,4344.791823,NA,93477.1558,94711.19744,95123.4729,94582.36234,94710.08837,Flanker Task,39,24153.11306,41,yes,1024
congruent,95.23809524,95.23809524,585.1005332,585.1005332,black,psycho,psycho,psycho,0,uniform,1,undefined,1,h,0,0,0,0,41,0,41,0,41,0,0,41,41,41,41,41,Sun Sep 27 18:53:28 2020,1500,The main experiment item,yes,FlankerTask.osexp,/Users/tforestmoore/Desktop,no,mono,no,18,no,white,no,yes,768,psycho,41,41,/Users/tforestmoore/Desktop/Tarleton/Fall 2020/Math/Lab 2/RT-subject-4.csv,psycho,Lentiform Loewenfeld,3.3.3,0,h,NA,NA,s,NA,h,421.109338,NA,NA,15079.06033,NA,421.109338,2,psycho,1024,2,48000,-16,experiment,HHHHH,4,even,NA,19480.77365,NA,NA,95143.13474,4295.980384,NA,NA,96793.86881,4344.791823,NA,95660.18614,96910.70197,97334.70149,96769.6481,96910.05818,Flanker Task,40,24574.22239,42,yes,1024
incongruent,95.34883721,95.34883721,581.3089308,581.3089308,black,psycho,psycho,psycho,0,uniform,1,undefined,1,s,0,0,0,0,42,0,42,0,42,0,0,42,42,42,42,42,Sun Sep 27 18:53:28 2020,1500,The main experiment item,yes,FlankerTask.osexp,/Users/tforestmoore/Desktop,no,mono,no,18,no,white,no,yes,768,psycho,42,42,/Users/tforestmoore/Desktop/Tarleton/Fall 2020/Math/Lab 2/RT-subject-4.csv,psycho,Lentiform Loewenfeld,3.3.3,0,s,NA,NA,s,NA,s,422.061629,NA,NA,15079.06033,NA,422.061629,2,psycho,1024,2,48000,-16,experiment,HHSHH,4,even,NA,19480.77365,NA,NA,95143.13474,4295.980384,NA,NA,98476.85511,4344.791823,NA,97343.15072,98594.58371,99018.81351,98452.07836,98593.4696,Flanker Task,41,24996.28402,43,yes,1024
congruent,95.45454545,95.45454545,576.8818029,576.8818029,black,psycho,psycho,psycho,0,uniform,1,undefined,1,h,0,0,0,0,43,0,43,0,43,0,0,43,43,43,43,43,Sun Sep 27 18:53:28 2020,1500,The main experiment item,yes,FlankerTask.osexp,/Users/tforestmoore/Desktop,no,mono,no,18,no,white,no,yes,768,psycho,43,43,/Users/tforestmoore/Desktop/Tarleton/Fall 2020/Math/Lab 2/RT-subject-4.csv,psycho,Lentiform Loewenfeld,3.3.3,0,h,NA,NA,s,NA,h,386.515304,NA,NA,15079.06033,NA,386.515304,2,psycho,1024,2,48000,-16,experiment,HHHHH,4,even,NA,19480.77365,NA,NA,95143.13474,4295.980384,NA,NA,100178.6128,4344.791823,NA,99043.58542,100294.1107,100682.7641,100152.7353,100293.4669,Flanker Task,42,25382.79933,44,yes,1024
congruent,95.55555556,95.55555556,573.3476147,573.3476147,black,psycho,psycho,psycho,0,uniform,1,undefined,1,s,0,0,0,0,44,0,44,0,44,0,0,44,44,44,44,44,Sun Sep 27 18:53:28 2020,1500,The main experiment item,yes,FlankerTask.osexp,/Users/tforestmoore/Desktop,no,mono,no,18,no,white,no,yes,768,psycho,44,44,/Users/tforestmoore/Desktop/Tarleton/Fall 2020/Math/Lab 2/RT-subject-4.csv,psycho,Lentiform Loewenfeld,3.3.3,0,s,NA,NA,s,NA,s,417.843336,NA,NA,15079.06033,NA,417.843336,2,psycho,1024,2,48000,-16,experiment,SSSSS,4,even,NA,19480.77365,NA,NA,95143.13474,4295.980384,NA,NA,101810.0724,4344.791823,NA,100693.4566,101927.8876,102347.789,101801.3085,101926.6849,Flanker Task,43,25800.64266,45,yes,1024
incongruent,95.65217391,95.65217391,570.5510471,570.5510471,black,psycho,psycho,psycho,0,uniform,1,undefined,1,h,0,0,0,0,45,0,45,0,45,0,0,45,45,45,45,45,Sun Sep 27 18:53:28 2020,1500,The main experiment item,yes,FlankerTask.osexp,/Users/tforestmoore/Desktop,no,mono,no,18,no,white,no,yes,768,psycho,45,45,/Users/tforestmoore/Desktop/Tarleton/Fall 2020/Math/Lab 2/RT-subject-4.csv,psycho,Lentiform Loewenfeld,3.3.3,0,h,NA,NA,s,NA,h,444.705504,NA,NA,15079.06033,NA,444.705504,2,psycho,1024,2,48000,-16,experiment,SSHSS,4,even,NA,19480.77365,NA,NA,95143.13474,4295.980384,NA,NA,103493.5081,4344.791823,NA,102360.1212,103610.721,104057.6151,103470.2921,103610.0725,Flanker Task,44,26245.34817,46,yes,1024
congruent,95.74468085,95.74468085,566.9747265,566.9747265,black,psycho,psycho,psycho,0,uniform,1,undefined,1,s,0,0,0,0,46,0,46,0,46,0,0,46,46,46,46,46,Sun Sep 27 18:53:28 2020,1500,The main experiment item,yes,FlankerTask.osexp,/Users/tforestmoore/Desktop,no,mono,no,18,no,white,no,yes,768,psycho,46,46,/Users/tforestmoore/Desktop/Tarleton/Fall 2020/Math/Lab 2/RT-subject-4.csv,psycho,Lentiform Loewenfeld,3.3.3,0,s,NA,NA,s,NA,s,402.463979,NA,NA,15079.06033,NA,402.463979,2,psycho,1024,2,48000,-16,experiment,SSSSS,4,even,NA,19480.77365,NA,NA,95143.13474,4295.980384,NA,NA,105210.1379,4344.791823,NA,104076.7794,105330.1596,105734.7176,105187.1529,105329.0465,Flanker Task,45,26647.81215,47,yes,1024
congruent,95.83333333,95.83333333,564.3125176,564.3125176,black,psycho,psycho,psycho,0,uniform,1,undefined,1,s,0,0,0,0,47,0,47,0,47,0,0,47,47,47,47,47,Sun Sep 27 18:53:28 2020,1500,The main experiment item,yes,FlankerTask.osexp,/Users/tforestmoore/Desktop,no,mono,no,18,no,white,no,yes,768,psycho,47,47,/Users/tforestmoore/Desktop/Tarleton/Fall 2020/Math/Lab 2/RT-subject-4.csv,psycho,Lentiform Loewenfeld,3.3.3,0,s,NA,NA,s,NA,s,439.188697,NA,NA,15079.06033,NA,439.188697,2,psycho,1024,2,48000,-16,experiment,SSSSS,4,even,NA,19480.77365,NA,NA,95143.13474,4295.980384,NA,NA,106893.5953,4344.791823,NA,105760.0532,107010.4252,107451.6862,106870.3997,107009.9193,Flanker Task,46,27087.00084,48,yes,1024
congruent,95.91836735,95.91836735,562.5003541,562.5003541,black,psycho,psycho,psycho,0,uniform,1,undefined,1,s,0,0,0,0,48,0,48,0,48,0,0,48,48,48,48,48,Sun Sep 27 18:53:28 2020,1500,The main experiment item,yes,FlankerTask.osexp,/Users/tforestmoore/Desktop,no,mono,no,18,no,white,no,yes,768,psycho,48,48,/Users/tforestmoore/Desktop/Tarleton/Fall 2020/Math/Lab 2/RT-subject-4.csv,psycho,Lentiform Loewenfeld,3.3.3,0,s,NA,NA,s,NA,s,475.516509,NA,NA,15079.06033,NA,475.516509,2,psycho,1024,2,48000,-16,experiment,SSSSS,4,even,NA,19480.77365,NA,NA,95143.13474,4295.980384,NA,NA,108593.3341,4344.791823,NA,107460.0887,108711.1191,109189.5028,108569.8288,108710.078,Flanker Task,47,27562.51735,49,yes,1024
incongruent,96,96,561.7034482,561.7034482,black,psycho,psycho,psycho,0,uniform,1,undefined,1,s,0,0,0,0,49,0,49,0,49,0,0,49,49,49,49,49,Sun Sep 27 18:53:28 2020,1500,The main experiment item,yes,FlankerTask.osexp,/Users/tforestmoore/Desktop,no,mono,no,18,no,white,no,yes,768,psycho,49,49,/Users/tforestmoore/Desktop/Tarleton/Fall 2020/Math/Lab 2/RT-subject-4.csv,psycho,Lentiform Loewenfeld,3.3.3,0,s,NA,NA,s,NA,s,522.655057,NA,NA,15079.06033,NA,522.655057,2,psycho,1024,2,48000,-16,experiment,HHSHH,4,even,NA,19480.77365,NA,NA,95143.13474,4295.980384,NA,NA,110343.9192,4344.791823,NA,109210.5337,110460.6306,110985.3664,110320.7916,110459.991,Flanker Task,48,28085.17241,50,yes,1024
congruent,96.07843137,96.07843137,563.1587642,563.1587642,black,psycho,psycho,psycho,0,uniform,1,undefined,1,h,0,0,0,0,50,0,50,0,50,0,0,50,50,50,50,50,Sun Sep 27 18:53:28 2020,1500,The main experiment item,yes,FlankerTask.osexp,/Users/tforestmoore/Desktop,no,mono,no,18,no,white,no,yes,768,psycho,50,50,/Users/tforestmoore/Desktop/Tarleton/Fall 2020/Math/Lab 2/RT-subject-4.csv,psycho,Lentiform Loewenfeld,3.3.3,0,h,NA,NA,s,NA,h,635.924567,NA,NA,15079.06033,NA,635.924567,2,psycho,1024,2,48000,-16,experiment,HHHHH,4,even,NA,19480.77365,NA,NA,95143.13474,4295.980384,NA,NA,112126.6491,4344.791823,NA,110993.5042,112244.4444,112882.4582,112102.1345,112243.3768,Flanker Task,49,28721.09698,51,yes,1024
incongruent,96.15384615,96.15384615,562.4445889,562.4445889,black,psycho,psycho,psycho,0,uniform,1,undefined,1,s,0,0,0,0,51,0,51,0,51,0,0,51,51,51,51,51,Sun Sep 27 18:53:28 2020,1500,The main experiment item,yes,FlankerTask.osexp,/Users/tforestmoore/Desktop,no,mono,no,18,no,white,no,yes,768,psycho,51,51,/Users/tforestmoore/Desktop/Tarleton/Fall 2020/Math/Lab 2/RT-subject-4.csv,psycho,Lentiform Loewenfeld,3.3.3,0,s,NA,NA,s,NA,s,526.021647,NA,NA,15079.06033,NA,526.021647,2,psycho,1024,2,48000,-16,experiment,HHSHH,4,even,NA,19480.77365,NA,NA,95143.13474,4295.980384,NA,NA,114026.6015,4344.791823,NA,112893.2803,114144.4649,114673.4025,114001.7763,114143.3953,Flanker Task,50,29247.11862,52,yes,1024
incongruent,96.22641509,96.22641509,565.0541187,565.0541187,black,psycho,psycho,psycho,0,uniform,1,undefined,1,h,0,0,0,0,52,0,52,0,52,0,0,52,52,52,52,52,Sun Sep 27 18:53:28 2020,1500,The main experiment item,yes,FlankerTask.osexp,/Users/tforestmoore/Desktop,no,mono,no,18,no,white,no,yes,768,psycho,52,52,/Users/tforestmoore/Desktop/Tarleton/Fall 2020/Math/Lab 2/RT-subject-4.csv,psycho,Lentiform Loewenfeld,3.3.3,0,h,NA,NA,s,NA,h,700.749669,NA,NA,15079.06033,NA,700.749669,2,psycho,1024,2,48000,-16,experiment,SSHSS,4,even,NA,19480.77365,NA,NA,95143.13474,4295.980384,NA,NA,115826.5955,4344.791823,NA,114694.0974,115944.37,116647.288,115801.9777,115943.2392,Flanker Task,51,29947.86829,53,yes,1024
incongruent,96.2962963,96.2962963,566.4960913,566.4960913,black,psycho,psycho,psycho,0,uniform,1,undefined,1,s,0,0,0,0,53,0,53,0,53,0,0,53,53,53,53,53,Sun Sep 27 18:53:28 2020,1500,The main experiment item,yes,FlankerTask.osexp,/Users/tforestmoore/Desktop,no,mono,no,18,no,white,no,yes,768,psycho,53,53,/Users/tforestmoore/Desktop/Tarleton/Fall 2020/Math/Lab 2/RT-subject-4.csv,psycho,Lentiform Loewenfeld,3.3.3,0,s,NA,NA,s,NA,s,642.920638,NA,NA,15079.06033,NA,642.920638,2,psycho,1024,2,48000,-16,experiment,HHSHH,4,even,NA,19480.77365,NA,NA,95143.13474,4295.980384,NA,NA,117792.8304,4344.791823,NA,116659.846,117911.0457,118556.2327,117769.7936,117909.9615,Flanker Task,52,30590.78893,54,yes,1024
congruent,96.36363636,96.36363636,566.0259697,566.0259697,black,psycho,psycho,psycho,0,uniform,1,undefined,1,h,0,0,0,0,54,0,54,0,54,0,0,54,54,54,54,54,Sun Sep 27 18:53:28 2020,1500,The main experiment item,yes,FlankerTask.osexp,/Users/tforestmoore/Desktop,no,mono,no,18,no,white,no,yes,768,psycho,54,54,/Users/tforestmoore/Desktop/Tarleton/Fall 2020/Math/Lab 2/RT-subject-4.csv,psycho,Lentiform Loewenfeld,3.3.3,0,h,NA,NA,s,NA,h,540.639404,NA,NA,15079.06033,NA,540.639404,2,psycho,1024,2,48000,-16,experiment,HHHHH,4,even,NA,19480.77365,NA,NA,95143.13474,4295.980384,NA,NA,119709.7077,4344.791823,NA,118576.4833,119827.5847,120370.4255,119686.5537,119826.4656,Flanker Task,53,31131.42833,55,yes,1024
congruent,96.42857143,96.42857143,563.8889174,563.8889174,black,psycho,psycho,psycho,0,uniform,1,undefined,1,s,0,0,0,0,55,0,55,0,55,0,0,55,55,55,55,55,Sun Sep 27 18:53:28 2020,1500,The main experiment item,yes,FlankerTask.osexp,/Users/tforestmoore/Desktop,no,mono,no,18,no,white,no,yes,768,psycho,55,55,/Users/tforestmoore/Desktop/Tarleton/Fall 2020/Math/Lab 2/RT-subject-4.csv,psycho,Lentiform Loewenfeld,3.3.3,0,s,NA,NA,s,NA,s,446.351042,NA,NA,15079.06033,NA,446.351042,2,psycho,1024,2,48000,-16,experiment,SSSSS,4,even,NA,19480.77365,NA,NA,95143.13474,4295.980384,NA,NA,121526.5196,4344.791823,NA,120393.7285,121643.6173,122092.0272,121504.2117,121642.9737,Flanker Task,54,31577.77938,56,yes,1024
congruent,96.49122807,96.49122807,561.4238847,561.4238847,black,psycho,psycho,psycho,0,uniform,1,undefined,1,h,0,0,0,0,56,0,56,0,56,0,0,56,56,56,56,56,Sun Sep 27 18:53:28 2020,1500,The main experiment item,yes,FlankerTask.osexp,/Users/tforestmoore/Desktop,no,mono,no,18,no,white,no,yes,768,psycho,56,56,/Users/tforestmoore/Desktop/Tarleton/Fall 2020/Math/Lab 2/RT-subject-4.csv,psycho,Lentiform Loewenfeld,3.3.3,0,h,NA,NA,s,NA,h,423.382051,NA,NA,15079.06033,NA,423.382051,2,psycho,1024,2,48000,-16,experiment,HHHHH,4,even,NA,19480.77365,NA,NA,95143.13474,4295.980384,NA,NA,123259.689,4344.791823,NA,122109.7439,123377.4983,123803.1066,123241.8203,123376.3834,Flanker Task,55,32001.16143,57,yes,1024
congruent,96.55172414,96.55172414,564.2645059,564.2645059,black,psycho,psycho,psycho,0,uniform,1,undefined,1,s,0,0,0,0,57,0,57,0,57,0,0,57,57,57,57,57,Sun Sep 27 18:53:28 2020,1500,The main experiment item,yes,FlankerTask.osexp,/Users/tforestmoore/Desktop,no,mono,no,18,no,white,no,yes,768,psycho,57,57,/Users/tforestmoore/Desktop/Tarleton/Fall 2020/Math/Lab 2/RT-subject-4.csv,psycho,Lentiform Loewenfeld,3.3.3,0,s,NA,NA,s,NA,s,726.179917,NA,NA,15079.06033,NA,726.179917,2,psycho,1024,2,48000,-16,experiment,SSSSS,4,even,NA,19480.77365,NA,NA,95143.13474,4295.980384,NA,NA,124943.5987,4344.791823,NA,123826.3891,125062.6685,125791.2278,124934.2442,125061.5493,Flanker Task,56,32727.34134,58,yes,1024
congruent,96.61016949,96.61016949,570.7091521,570.7091521,black,psycho,psycho,psycho,0,uniform,1,undefined,1,s,0,0,0,0,58,0,58,0,58,0,0,58,58,58,58,58,Sun Sep 27 18:53:28 2020,1500,The main experiment item,yes,FlankerTask.osexp,/Users/tforestmoore/Desktop,no,mono,no,18,no,white,no,yes,768,psycho,58,58,/Users/tforestmoore/Desktop/Tarleton/Fall 2020/Math/Lab 2/RT-subject-4.csv,psycho,Lentiform Loewenfeld,3.3.3,0,s,NA,NA,s,NA,s,944.498628,NA,NA,15079.06033,NA,944.498628,2,psycho,1024,2,48000,-16,experiment,SSSSS,4,even,NA,19480.77365,NA,NA,95143.13474,4295.980384,NA,NA,126943.3219,4344.791823,NA,125809.84,127060.5644,128007.2105,126920.1151,127059.851,Flanker Task,57,33671.83997,59,yes,1024
incongruent,96.66666667,96.66666667,570.581734,570.581734,black,psycho,psycho,psycho,0,uniform,1,undefined,1,h,0,0,0,0,59,0,59,0,59,0,0,59,59,59,59,59,Sun Sep 27 18:53:28 2020,1500,The main experiment item,yes,FlankerTask.osexp,/Users/tforestmoore/Desktop,no,mono,no,18,no,white,no,yes,768,psycho,59,59,/Users/tforestmoore/Desktop/Tarleton/Fall 2020/Math/Lab 2/RT-subject-4.csv,psycho,Lentiform Loewenfeld,3.3.3,0,h,NA,NA,s,NA,h,563.064066,NA,NA,15079.06033,NA,563.064066,2,psycho,1024,2,48000,-16,experiment,SSHSS,4,even,NA,19480.77365,NA,NA,95143.13474,4295.980384,NA,NA,129143.3656,4344.791823,NA,128026.3114,129260.7576,129826.064,129134.2171,129259.6335,Flanker Task,58,34234.90404,60,yes,1024
incongruent,95.08196721,95.08196721,585.8217082,585.8217082,black,psycho,psycho,psycho,0,uniform,0,undefined,0,h,0,0,0,0,60,0,60,0,60,0,0,60,60,60,60,60,Sun Sep 27 18:53:28 2020,1500,The main experiment item,yes,FlankerTask.osexp,/Users/tforestmoore/Desktop,no,mono,no,18,no,white,no,yes,768,psycho,60,60,/Users/tforestmoore/Desktop/Tarleton/Fall 2020/Math/Lab 2/RT-subject-4.csv,psycho,Lentiform Loewenfeld,3.3.3,0,None,NA,NA,s,NA,None,1500.220163,NA,NA,15079.06033,NA,1500.220163,2,psycho,1024,2,48000,-16,experiment,SSHSS,4,even,NA,19480.77365,NA,NA,95143.13474,4295.980384,NA,NA,130993.149,4344.791823,NA,129843.1145,131110.8795,132611.6447,130977.0307,131109.7468,Flanker Task,58,35735.1242,61,yes,1024
incongruent,95.16129032,95.16129032,587.1854015,587.1854015,black,psycho,psycho,psycho,0,uniform,1,undefined,1,s,0,0,0,0,61,0,61,0,61,0,0,61,61,61,61,61,Sun Sep 27 18:53:28 2020,1500,The main experiment item,yes,FlankerTask.osexp,/Users/tforestmoore/Desktop,no,mono,no,18,no,white,no,yes,768,psycho,61,61,/Users/tforestmoore/Desktop/Tarleton/Fall 2020/Math/Lab 2/RT-subject-4.csv,psycho,Lentiform Loewenfeld,3.3.3,0,s,NA,NA,s,NA,s,670.370695,NA,NA,15079.06033,NA,670.370695,2,psycho,1024,2,48000,-16,experiment,HHSHH,4,even,NA,19480.77365,NA,NA,132626.4369,4295.980384,133142.784,NA,134794.1676,4344.791823,NA,133659.6856,134910.293,135583.0505,134770.491,134909.6458,Flanker Task,59,36405.4949,62,yes,1024
congruent,95.23809524,95.23809524,586.4334652,586.4334652,black,psycho,psycho,psycho,0,uniform,1,undefined,1,s,0,0,0,0,62,0,62,0,62,0,0,62,62,62,62,62,Sun Sep 27 18:53:28 2020,1500,The main experiment item,yes,FlankerTask.osexp,/Users/tforestmoore/Desktop,no,mono,no,18,no,white,no,yes,768,psycho,62,62,/Users/tforestmoore/Desktop/Tarleton/Fall 2020/Math/Lab 2/RT-subject-4.csv,psycho,Lentiform Loewenfeld,3.3.3,0,s,NA,NA,s,NA,s,539.813411,NA,NA,15079.06033,NA,539.813411,2,psycho,1024,2,48000,-16,experiment,SSSSS,4,even,NA,19480.77365,NA,NA,132626.4369,4295.980384,133142.784,NA,136727.4282,4344.791823,NA,135594.4912,136843.7521,137387.1903,136701.8086,136843.1056,Flanker Task,60,36945.30831,63,yes,1024
incongruent,95.3125,95.3125,584.3462544,584.3462544,black,psycho,psycho,psycho,0,uniform,1,undefined,1,h,0,0,0,0,63,0,63,0,63,0,0,63,63,63,63,63,Sun Sep 27 18:53:28 2020,1500,The main experiment item,yes,FlankerTask.osexp,/Users/tforestmoore/Desktop,no,mono,no,18,no,white,no,yes,768,psycho,63,63,/Users/tforestmoore/Desktop/Tarleton/Fall 2020/Math/Lab 2/RT-subject-4.csv,psycho,Lentiform Loewenfeld,3.3.3,0,h,NA,NA,s,NA,h,452.851977,NA,NA,15079.06033,NA,452.851977,2,psycho,1024,2,48000,-16,experiment,SSHSS,4,even,NA,19480.77365,NA,NA,132626.4369,4295.980384,133142.784,NA,138542.9078,4344.791823,NA,137409.5028,138660.6999,139115.7454,138518.4413,138659.6123,Flanker Task,61,37398.16028,64,yes,1024
congruent,95.38461538,95.38461538,584.3928604,584.3928604,black,psycho,psycho,psycho,0,uniform,1,undefined,1,h,0,0,0,0,64,0,64,0,64,0,0,64,64,64,64,64,Sun Sep 27 18:53:28 2020,1500,The main experiment item,yes,FlankerTask.osexp,/Users/tforestmoore/Desktop,no,mono,no,18,no,white,no,yes,768,psycho,64,64,/Users/tforestmoore/Desktop/Tarleton/Fall 2020/Math/Lab 2/RT-subject-4.csv,psycho,Lentiform Loewenfeld,3.3.3,0,h,NA,NA,s,NA,h,587.375639,NA,NA,15079.06033,NA,587.375639,2,psycho,1024,2,48000,-16,experiment,HHHHH,4,even,NA,19480.77365,NA,NA,132626.4369,4295.980384,133142.784,NA,140244.911,4344.791823,NA,139126.3854,140360.233,140949.929,140232.3227,140359.5883,Flanker Task,62,37985.53592,65,yes,1024
incongruent,95.45454545,95.45454545,583.6944144,583.6944144,black,psycho,psycho,psycho,0,uniform,1,undefined,1,h,0,0,0,0,65,0,65,0,65,0,0,65,65,65,65,65,Sun Sep 27 18:53:28 2020,1500,The main experiment item,yes,FlankerTask.osexp,/Users/tforestmoore/Desktop,no,mono,no,18,no,white,no,yes,768,psycho,65,65,/Users/tforestmoore/Desktop/Tarleton/Fall 2020/Math/Lab 2/RT-subject-4.csv,psycho,Lentiform Loewenfeld,3.3.3,0,h,NA,NA,s,NA,h,538.29543,NA,NA,15079.06033,NA,538.29543,2,psycho,1024,2,48000,-16,experiment,SSHSS,4,even,NA,19480.77365,NA,NA,132626.4369,4295.980384,133142.784,NA,142076.1483,4344.791823,NA,140959.4037,142194.0656,142734.5589,142067.5192,142192.81,Flanker Task,63,38523.83135,66,yes,1024
congruent,95.52238806,95.52238806,582.3732362,582.3732362,black,psycho,psycho,psycho,0,uniform,1,undefined,1,h,0,0,0,0,66,0,66,0,66,0,0,66,66,66,66,66,Sun Sep 27 18:53:28 2020,1500,The main experiment item,yes,FlankerTask.osexp,/Users/tforestmoore/Desktop,no,mono,no,18,no,white,no,yes,768,psycho,66,66,/Users/tforestmoore/Desktop/Tarleton/Fall 2020/Math/Lab 2/RT-subject-4.csv,psycho,Lentiform Loewenfeld,3.3.3,0,h,NA,NA,s,NA,h,495.175473,NA,NA,15079.06033,NA,495.175473,2,psycho,1024,2,48000,-16,experiment,HHHHH,4,even,NA,19480.77365,NA,NA,132626.4369,4295.980384,133142.784,NA,143876.3611,4344.791823,NA,142743.3065,143994.4645,144491.9151,143853.9584,143993.2357,Flanker Task,64,39019.00683,67,yes,1024
incongruent,95.58823529,95.58823529,580.4892096,580.4892096,black,psycho,psycho,psycho,0,uniform,1,undefined,1,s,0,0,0,0,67,0,67,0,67,0,0,67,67,67,67,67,Sun Sep 27 18:53:28 2020,1500,The main experiment item,yes,FlankerTask.osexp,/Users/tforestmoore/Desktop,no,mono,no,18,no,white,no,yes,768,psycho,67,67,/Users/tforestmoore/Desktop/Tarleton/Fall 2020/Math/Lab 2/RT-subject-4.csv,psycho,Lentiform Loewenfeld,3.3.3,0,s,NA,NA,s,NA,s,454.259429,NA,NA,15079.06033,NA,454.259429,2,psycho,1024,2,48000,-16,experiment,HHSHH,4,even,NA,19480.77365,NA,NA,132626.4369,4295.980384,133142.784,NA,145643.9219,4344.791823,NA,144509.5457,145760.1386,146216.6268,145617.3899,145759.4902,Flanker Task,65,39473.26625,68,yes,1024
congruent,95.65217391,95.65217391,577.7125245,577.7125245,black,psycho,psycho,psycho,0,uniform,1,undefined,1,h,0,0,0,0,68,0,68,0,68,0,0,68,68,68,68,68,Sun Sep 27 18:53:28 2020,1500,The main experiment item,yes,FlankerTask.osexp,/Users/tforestmoore/Desktop,no,mono,no,18,no,white,no,yes,768,psycho,68,68,/Users/tforestmoore/Desktop/Tarleton/Fall 2020/Math/Lab 2/RT-subject-4.csv,psycho,Lentiform Loewenfeld,3.3.3,0,h,NA,NA,s,NA,h,388.897935,NA,NA,15079.06033,NA,388.897935,2,psycho,1024,2,48000,-16,experiment,HHHHH,4,even,NA,19480.77365,NA,NA,132626.4369,4295.980384,133142.784,NA,147359.628,4344.791823,NA,146226.3255,147477.3634,147868.8579,147348.829,147476.1675,Flanker Task,66,39862.16419,69,yes,1024
congruent,95.71428571,95.71428571,575.5113119,575.5113119,black,psycho,psycho,psycho,0,uniform,1,undefined,1,h,0,0,0,0,69,0,69,0,69,0,0,69,69,69,69,69,Sun Sep 27 18:53:28 2020,1500,The main experiment item,yes,FlankerTask.osexp,/Users/tforestmoore/Desktop,no,mono,no,18,no,white,no,yes,768,psycho,69,69,/Users/tforestmoore/Desktop/Tarleton/Fall 2020/Math/Lab 2/RT-subject-4.csv,psycho,Lentiform Loewenfeld,3.3.3,0,h,NA,NA,s,NA,h,423.627645,NA,NA,15079.06033,NA,423.627645,2,psycho,1024,2,48000,-16,experiment,HHHHH,4,even,NA,19480.77365,NA,NA,132626.4369,4295.980384,133142.784,NA,149009.4557,4344.791823,NA,147875.9294,149127.1911,149552.9778,148986.5195,149126.0714,Flanker Task,67,40285.79183,70,yes,1024
congruent,95.77464789,95.77464789,576.9672974,576.9672974,black,psycho,psycho,psycho,0,uniform,1,undefined,1,s,0,0,0,0,70,0,70,0,70,0,0,70,70,70,70,70,Sun Sep 27 18:53:28 2020,1500,The main experiment item,yes,FlankerTask.osexp,/Users/tforestmoore/Desktop,no,mono,no,18,no,white,no,yes,768,psycho,70,70,/Users/tforestmoore/Desktop/Tarleton/Fall 2020/Math/Lab 2/RT-subject-4.csv,psycho,Lentiform Loewenfeld,3.3.3,0,s,NA,NA,s,NA,s,678.886278,NA,NA,15079.06033,NA,678.886278,2,psycho,1024,2,48000,-16,experiment,SSSSS,4,even,NA,19480.77365,NA,NA,132626.4369,4295.980384,133142.784,NA,150709.9199,4344.791823,NA,149575.9262,150826.9047,151508.7945,150683.8946,150826.1482,Flanker Task,68,40964.67811,71,yes,1024
incongruent,95.83333333,95.83333333,576.7255288,576.7255288,black,psycho,psycho,psycho,0,uniform,1,undefined,1,h,0,0,0,0,71,0,71,0,71,0,0,71,71,71,71,71,Sun Sep 27 18:53:28 2020,1500,The main experiment item,yes,FlankerTask.osexp,/Users/tforestmoore/Desktop,no,mono,no,18,no,white,no,yes,768,psycho,71,71,/Users/tforestmoore/Desktop/Tarleton/Fall 2020/Math/Lab 2/RT-subject-4.csv,psycho,Lentiform Loewenfeld,3.3.3,0,h,NA,NA,s,NA,h,559.559963,NA,NA,15079.06033,NA,559.559963,2,psycho,1024,2,48000,-16,experiment,SSHSS,4,even,NA,19480.77365,NA,NA,132626.4369,4295.980384,133142.784,NA,152642.7196,4344.791823,NA,151525.7397,152759.7857,153321.6243,152633.7766,152758.9812,Flanker Task,69,41524.23808,72,yes,1024
incongruent,95.89041096,95.89041096,576.9776452,576.9776452,black,psycho,psycho,psycho,0,uniform,1,undefined,1,h,0,0,0,0,72,0,72,0,72,0,0,72,72,72,72,72,Sun Sep 27 18:53:28 2020,1500,The main experiment item,yes,FlankerTask.osexp,/Users/tforestmoore/Desktop,no,mono,no,18,no,white,no,yes,768,psycho,72,72,/Users/tforestmoore/Desktop/Tarleton/Fall 2020/Math/Lab 2/RT-subject-4.csv,psycho,Lentiform Loewenfeld,3.3.3,0,h,NA,NA,s,NA,h,595.130023,NA,NA,15079.06033,NA,595.130023,2,psycho,1024,2,48000,-16,experiment,SSHSS,4,even,NA,19480.77365,NA,NA,132626.4369,4295.980384,133142.784,NA,154475.9997,4344.791823,NA,153342.673,154593.1891,155190.5254,154452.3193,154592.5477,Flanker Task,70,42119.3681,73,yes,1024
congruent,95.94594595,95.94594595,576.5716332,576.5716332,black,psycho,psycho,psycho,0,uniform,1,undefined,1,h,0,0,0,0,73,0,73,0,73,0,0,73,73,73,73,73,Sun Sep 27 18:53:28 2020,1500,The main experiment item,yes,FlankerTask.osexp,/Users/tforestmoore/Desktop,no,mono,no,18,no,white,no,yes,768,psycho,73,73,/Users/tforestmoore/Desktop/Tarleton/Fall 2020/Math/Lab 2/RT-subject-4.csv,psycho,Lentiform Loewenfeld,3.3.3,0,h,NA,NA,s,NA,h,546.932758,NA,NA,15079.06033,NA,546.932758,2,psycho,1024,2,48000,-16,experiment,HHHHH,4,even,NA,19480.77365,NA,NA,132626.4369,4295.980384,133142.784,NA,156342.6189,4344.791823,NA,155209.32,156460.4335,157009.6159,156317.9497,156459.3492,Flanker Task,71,42666.30086,74,yes,1024
congruent,96,96,574.4791294,574.4791294,black,psycho,psycho,psycho,0,uniform,1,undefined,1,s,0,0,0,0,74,0,74,0,74,0,0,74,74,74,74,74,Sun Sep 27 18:53:28 2020,1500,The main experiment item,yes,FlankerTask.osexp,/Users/tforestmoore/Desktop,no,mono,no,18,no,white,no,yes,768,psycho,74,74,/Users/tforestmoore/Desktop/Tarleton/Fall 2020/Math/Lab 2/RT-subject-4.csv,psycho,Lentiform Loewenfeld,3.3.3,0,s,NA,NA,s,NA,s,419.633847,NA,NA,15079.06033,NA,419.633847,2,psycho,1024,2,48000,-16,experiment,SSSSS,4,even,NA,19480.77365,NA,NA,132626.4369,4295.980384,133142.784,NA,158142.7248,4344.791823,NA,157025.9777,158260.5207,158682.4975,158119.742,158259.4345,Flanker Task,72,43085.9347,75,yes,1024
congruent,96.05263158,96.05263158,572.7967712,572.7967712,black,psycho,psycho,psycho,0,uniform,1,undefined,1,h,0,0,0,0,75,0,75,0,75,0,0,75,75,75,75,75,Sun Sep 27 18:53:28 2020,1500,The main experiment item,yes,FlankerTask.osexp,/Users/tforestmoore/Desktop,no,mono,no,18,no,white,no,yes,768,psycho,75,75,/Users/tforestmoore/Desktop/Tarleton/Fall 2020/Math/Lab 2/RT-subject-4.csv,psycho,Lentiform Loewenfeld,3.3.3,0,h,NA,NA,s,NA,h,446.61991,NA,NA,15079.06033,NA,446.61991,2,psycho,1024,2,48000,-16,experiment,HHHHH,4,even,NA,19480.77365,NA,NA,132626.4369,4295.980384,133142.784,NA,159825.9082,4344.791823,NA,158692.6659,159943.6314,160392.4815,159801.615,159942.5351,Flanker Task,73,43532.55461,76,yes,1024
incongruent,96.1038961,96.1038961,574.8753478,574.8753478,black,psycho,psycho,psycho,0,uniform,1,undefined,1,s,0,0,0,0,76,0,76,0,76,0,0,76,76,76,76,76,Sun Sep 27 18:53:28 2020,1500,The main experiment item,yes,FlankerTask.osexp,/Users/tforestmoore/Desktop,no,mono,no,18,no,white,no,yes,768,psycho,76,76,/Users/tforestmoore/Desktop/Tarleton/Fall 2020/Math/Lab 2/RT-subject-4.csv,psycho,Lentiform Loewenfeld,3.3.3,0,s,NA,NA,s,NA,s,732.847164,NA,NA,15079.06033,NA,732.847164,2,psycho,1024,2,48000,-16,experiment,HHSHH,4,even,NA,19480.77365,NA,NA,132626.4369,4295.980384,133142.784,NA,161542.5466,4344.791823,NA,160409.7898,161660.3224,162395.8622,161526.8977,161659.1847,Flanker Task,74,44265.40178,77,yes,1024
congruent,96.15384615,96.15384615,575.7948043,575.7948043,black,psycho,psycho,psycho,0,uniform,1,undefined,1,s,0,0,0,0,77,0,77,0,77,0,0,77,77,77,77,77,Sun Sep 27 18:53:28 2020,1500,The main experiment item,yes,FlankerTask.osexp,/Users/tforestmoore/Desktop,no,mono,no,18,no,white,no,yes,768,psycho,77,77,/Users/tforestmoore/Desktop/Tarleton/Fall 2020/Math/Lab 2/RT-subject-4.csv,psycho,Lentiform Loewenfeld,3.3.3,0,s,NA,NA,s,NA,s,646.59296,NA,NA,15079.06033,NA,646.59296,2,psycho,1024,2,48000,-16,experiment,SSSSS,4,even,NA,19480.77365,NA,NA,132626.4369,4295.980384,133142.784,NA,163558.8951,4344.791823,NA,162409.201,163677.1198,164325.9088,163542.1368,163675.9266,Flanker Task,75,44911.99474,78,yes,1024
incongruent,96.20253165,96.20253165,576.7278015,576.7278015,black,psycho,psycho,psycho,0,uniform,1,undefined,1,s,0,0,0,0,78,0,78,0,78,0,0,78,78,78,78,78,Sun Sep 27 18:53:28 2020,1500,The main experiment item,yes,FlankerTask.osexp,/Users/tforestmoore/Desktop,no,mono,no,18,no,white,no,yes,768,psycho,78,78,/Users/tforestmoore/Desktop/Tarleton/Fall 2020/Math/Lab 2/RT-subject-4.csv,psycho,Lentiform Loewenfeld,3.3.3,0,s,NA,NA,s,NA,s,649.501582,NA,NA,15079.06033,NA,649.501582,2,psycho,1024,2,48000,-16,experiment,HHSHH,4,even,NA,19480.77365,NA,NA,132626.4369,4295.980384,133142.784,NA,165460.698,4344.791823,NA,164342.5403,165576.5192,166228.3968,165449.1237,165575.8733,Flanker Task,76,45561.49632,79,yes,1024
incongruent,96.25,96.25,578.8246339,578.8246339,black,psycho,psycho,psycho,0,uniform,1,undefined,1,s,0,0,0,0,79,0,79,0,79,0,0,79,79,79,79,79,Sun Sep 27 18:53:28 2020,1500,The main experiment item,yes,FlankerTask.osexp,/Users/tforestmoore/Desktop,no,mono,no,18,no,white,no,yes,768,psycho,79,79,/Users/tforestmoore/Desktop/Tarleton/Fall 2020/Math/Lab 2/RT-subject-4.csv,psycho,Lentiform Loewenfeld,3.3.3,0,s,NA,NA,s,NA,s,744.474392,NA,NA,15079.06033,NA,744.474392,2,psycho,1024,2,48000,-16,experiment,HHSHH,4,even,NA,19480.77365,NA,NA,132626.4369,4295.980384,133142.784,NA,167375.8223,4344.791823,NA,166242.5134,167493.4961,168240.2069,167350.9482,167492.465,Flanker Task,77,46305.97071,80,yes,1024
incongruent,96.2962963,96.2962963,581.1986067,581.1986067,black,psycho,psycho,psycho,0,uniform,1,undefined,1,h,0,0,0,0,80,0,80,0,80,0,0,80,80,80,80,80,Sun Sep 27 18:53:28 2020,600,The main experiment item,yes,FlankerTask.osexp,/Users/tforestmoore/Desktop,no,mono,no,18,no,white,no,yes,768,psycho,0,79,/Users/tforestmoore/Desktop/Tarleton/Fall 2020/Math/Lab 2/RT-subject-4.csv,psycho,Lentiform Loewenfeld,3.3.3,0,h,h,NA,s,NA,h,771.116428,52612.30583,NA,15079.06033,NA,771.116428,2,psycho,1024,2,48000,-16,experiment,SSHSS,4,even,169325.7687,19480.77365,221940.3276,NA,132626.4369,4295.980384,133142.784,NA,222028.8744,4344.791823,NA,168259.1297,222144.4128,222917.7194,222000.0728,222143.9579,Flanker Task,78,47077.08714,81,yes,1024
congruent,96.34146341,96.34146341,578.4022765,578.4022765,black,psycho,psycho,psycho,0,uniform,1,undefined,1,s,0,0,0,0,81,0,81,0,81,0,0,81,81,81,81,81,Sun Sep 27 18:53:28 2020,600,The main experiment item,yes,FlankerTask.osexp,/Users/tforestmoore/Desktop,no,mono,no,18,no,white,no,yes,768,psycho,1,79,/Users/tforestmoore/Desktop/Tarleton/Fall 2020/Math/Lab 2/RT-subject-4.csv,psycho,Lentiform Loewenfeld,3.3.3,0,s,h,NA,s,NA,s,351.899535,52612.30583,NA,15079.06033,NA,351.899535,2,psycho,1024,2,48000,-16,experiment,SSSSS,4,even,169325.7687,19480.77365,221940.3276,NA,132626.4369,4295.980384,222941.6808,NA,224575.294,4344.791823,NA,223458.1335,224692.0362,225046.6578,224566.1309,224691.4947,Flanker Task,79,47428.98667,82,yes,1024
congruent,96.38554217,96.38554217,575.2354619,575.2354619,black,psycho,psycho,psycho,0,uniform,1,undefined,1,s,0,0,0,0,82,0,82,0,82,0,0,82,82,82,82,82,Sun Sep 27 18:53:28 2020,600,The main experiment item,yes,FlankerTask.osexp,/Users/tforestmoore/Desktop,no,mono,no,18,no,white,no,yes,768,psycho,2,79,/Users/tforestmoore/Desktop/Tarleton/Fall 2020/Math/Lab 2/RT-subject-4.csv,psycho,Lentiform Loewenfeld,3.3.3,0,s,h,NA,s,NA,s,315.55666,52612.30583,NA,15079.06033,NA,315.55666,2,psycho,1024,2,48000,-16,experiment,SSSSS,4,even,169325.7687,19480.77365,221940.3276,NA,132626.4369,4295.980384,222941.6808,NA,226175.2075,4344.791823,NA,225058.3866,226292.9558,226610.9326,226165.7729,226291.8304,Flanker Task,80,47744.54333,83,yes,1024
congruent,96.42857143,96.42857143,572.2474998,572.2474998,black,psycho,psycho,psycho,0,uniform,1,undefined,1,h,0,0,0,0,83,0,83,0,83,0,0,83,83,83,83,83,Sun Sep 27 18:53:28 2020,600,The main experiment item,yes,FlankerTask.osexp,/Users/tforestmoore/Desktop,no,mono,no,18,no,white,no,yes,768,psycho,3,79,/Users/tforestmoore/Desktop/Tarleton/Fall 2020/Math/Lab 2/RT-subject-4.csv,psycho,Lentiform Loewenfeld,3.3.3,0,h,h,NA,s,NA,h,324.246646,52612.30583,NA,15079.06033,NA,324.246646,2,psycho,1024,2,48000,-16,experiment,HHHHH,4,even,169325.7687,19480.77365,221940.3276,NA,132626.4369,4295.980384,222941.6808,NA,227758.3811,4344.791823,NA,226625.1281,227876.2526,228202.8475,227733.7668,227875.0992,Flanker Task,81,48068.78998,84,yes,1024
incongruent,96.47058824,96.47058824,571.217325,571.217325,black,psycho,psycho,psycho,0,uniform,1,undefined,1,s,0,0,0,0,84,0,84,0,84,0,0,84,84,84,84,84,Sun Sep 27 18:53:28 2020,600,The main experiment item,yes,FlankerTask.osexp,/Users/tforestmoore/Desktop,no,mono,no,18,no,white,no,yes,768,psycho,4,79,/Users/tforestmoore/Desktop/Tarleton/Fall 2020/Math/Lab 2/RT-subject-4.csv,psycho,Lentiform Loewenfeld,3.3.3,0,s,h,NA,s,NA,s,484.682647,52612.30583,NA,15079.06033,NA,484.682647,2,psycho,1024,2,48000,-16,experiment,HHSHH,4,even,169325.7687,19480.77365,221940.3276,NA,132626.4369,4295.980384,222941.6808,NA,229341.652,4344.791823,NA,228225.0433,229459.6111,229946.5796,229333.0695,229458.4088,Flanker Task,82,48553.47263,85,yes,1024
incongruent,96.51162791,96.51162791,569.1455532,569.1455532,black,psycho,psycho,psycho,0,uniform,1,undefined,1,s,0,0,0,0,85,0,85,0,85,0,0,85,85,85,85,85,Sun Sep 27 18:53:28 2020,600,The main experiment item,yes,FlankerTask.osexp,/Users/tforestmoore/Desktop,no,mono,no,18,no,white,no,yes,768,psycho,5,79,/Users/tforestmoore/Desktop/Tarleton/Fall 2020/Math/Lab 2/RT-subject-4.csv,psycho,Lentiform Loewenfeld,3.3.3,0,s,h,NA,s,NA,s,393.04495,52612.30583,NA,15079.06033,NA,393.04495,2,psycho,1024,2,48000,-16,experiment,HHSHH,4,even,169325.7687,19480.77365,221940.3276,NA,132626.4369,4295.980384,222941.6808,NA,231108.3203,4344.791823,NA,229958.4326,231225.5126,231620.8756,231094.235,231224.7115,Flanker Task,83,48946.51758,86,yes,1024
incongruent,96.55172414,96.55172414,566.8377281,566.8377281,black,psycho,psycho,psycho,0,uniform,1,undefined,1,s,0,0,0,0,86,0,86,0,86,0,0,86,86,86,86,86,Sun Sep 27 18:53:28 2020,600,The main experiment item,yes,FlankerTask.osexp,/Users/tforestmoore/Desktop,no,mono,no,18,no,white,no,yes,768,psycho,6,79,/Users/tforestmoore/Desktop/Tarleton/Fall 2020/Math/Lab 2/RT-subject-4.csv,psycho,Lentiform Loewenfeld,3.3.3,0,s,h,NA,s,NA,s,368.364771,52612.30583,NA,15079.06033,NA,368.364771,2,psycho,1024,2,48000,-16,experiment,HHSHH,4,even,169325.7687,19480.77365,221940.3276,NA,132626.4369,4295.980384,222941.6808,NA,232775.0905,4344.791823,NA,231641.6718,232892.3036,233263.8592,232751.3934,232891.6469,Flanker Task,84,49314.88235,87,yes,1024
incongruent,95.45454545,95.45454545,563.5654415,563.5654415,black,psycho,psycho,psycho,0,uniform,0,undefined,0,h,0,0,0,0,87,0,87,0,87,0,0,87,87,87,87,87,Sun Sep 27 18:53:28 2020,600,The main experiment item,yes,FlankerTask.osexp,/Users/tforestmoore/Desktop,no,mono,no,18,no,white,no,yes,768,psycho,7,79,/Users/tforestmoore/Desktop/Tarleton/Fall 2020/Math/Lab 2/RT-subject-4.csv,psycho,Lentiform Loewenfeld,3.3.3,0,s,h,NA,s,NA,s,278.876503,52612.30583,NA,15079.06033,NA,278.876503,2,psycho,1024,2,48000,-16,experiment,SSHSS,4,even,169325.7687,19480.77365,221940.3276,NA,132626.4369,4295.980384,222941.6808,NA,234392.1924,4344.791823,NA,233274.8015,234509.6781,234791.9675,234382.8177,234508.4899,Flanker Task,84,49593.75885,88,yes,1024
incongruent,95.50561798,95.50561798,562.3325683,562.3325683,black,psycho,psycho,psycho,0,uniform,1,undefined,1,h,0,0,0,0,88,0,88,0,88,0,0,88,88,88,88,88,Sun Sep 27 18:53:28 2020,600,The main experiment item,yes,FlankerTask.osexp,/Users/tforestmoore/Desktop,no,mono,no,18,no,white,no,yes,768,psycho,8,79,/Users/tforestmoore/Desktop/Tarleton/Fall 2020/Math/Lab 2/RT-subject-4.csv,psycho,Lentiform Loewenfeld,3.3.3,0,h,h,NA,s,NA,h,453.839723,52612.30583,NA,15079.06033,NA,453.839723,2,psycho,1024,2,48000,-16,experiment,SSHSS,4,even,169325.7687,19480.77365,221940.3276,NA,234808.3466,4295.980384,222941.6808,NA,236441.8975,4344.791823,NA,235324.7452,236559.459,237015.6976,236433.0109,236558.3622,Flanker Task,85,50047.59857,89,yes,1024
incongruent,95.55555556,95.55555556,561.0995787,561.0995787,black,psycho,psycho,psycho,0,uniform,1,undefined,1,h,0,0,0,0,89,0,89,0,89,0,0,89,89,89,89,89,Sun Sep 27 18:53:28 2020,600,The main experiment item,yes,FlankerTask.osexp,/Users/tforestmoore/Desktop,no,mono,no,18,no,white,no,yes,768,psycho,9,79,/Users/tforestmoore/Desktop/Tarleton/Fall 2020/Math/Lab 2/RT-subject-4.csv,psycho,Lentiform Loewenfeld,3.3.3,0,h,h,NA,s,NA,h,451.363509,52612.30583,NA,15079.06033,NA,451.363509,2,psycho,1024,2,48000,-16,experiment,SSHSS,4,even,169325.7687,19480.77365,221940.3276,NA,234808.3466,4295.980384,222941.6808,NA,238141.4422,4344.791823,NA,237024.7413,238259.3397,238713.895,238131.8643,238258.225,Flanker Task,86,50498.96208,90,yes,1024
congruent,95.6043956,95.6043956,560.0193055,560.0193055,black,psycho,psycho,psycho,0,uniform,1,undefined,1,h,0,0,0,0,90,0,90,0,90,0,0,90,90,90,90,90,Sun Sep 27 18:53:28 2020,600,The main experiment item,yes,FlankerTask.osexp,/Users/tforestmoore/Desktop,no,mono,no,18,no,white,no,yes,768,psycho,10,79,/Users/tforestmoore/Desktop/Tarleton/Fall 2020/Math/Lab 2/RT-subject-4.csv,psycho,Lentiform Loewenfeld,3.3.3,0,h,h,NA,s,NA,h,462.794719,52612.30583,NA,15079.06033,NA,462.794719,2,psycho,1024,2,48000,-16,experiment,HHHHH,4,even,169325.7687,19480.77365,221940.3276,NA,234808.3466,4295.980384,222941.6808,NA,239841.4616,4344.791823,NA,238724.6053,239960.6266,240425.7196,239833.7817,239958.452,Flanker Task,87,50961.7568,91,yes,1024
congruent,95.65217391,95.65217391,558.6667394,558.6667394,black,psycho,psycho,psycho,0,uniform,1,undefined,1,h,0,0,0,0,91,0,91,0,91,0,0,91,91,91,91,91,Sun Sep 27 18:53:28 2020,600,The main experiment item,yes,FlankerTask.osexp,/Users/tforestmoore/Desktop,no,mono,no,18,no,white,no,yes,768,psycho,11,79,/Users/tforestmoore/Desktop/Tarleton/Fall 2020/Math/Lab 2/RT-subject-4.csv,psycho,Lentiform Loewenfeld,3.3.3,0,h,h,NA,s,NA,h,435.583218,52612.30583,NA,15079.06033,NA,435.583218,2,psycho,1024,2,48000,-16,experiment,HHHHH,4,even,169325.7687,19480.77365,221940.3276,NA,234808.3466,4295.980384,222941.6808,NA,241558.7559,4344.791823,NA,240441.5116,241675.4861,242113.3801,241550.7703,241674.8389,Flanker Task,88,51397.34002,92,yes,1024
congruent,95.69892473,95.69892473,557.5231277,557.5231277,black,psycho,psycho,psycho,0,uniform,1,undefined,1,h,0,0,0,0,92,0,92,0,92,0,0,92,92,92,92,92,Sun Sep 27 18:53:28 2020,600,The main experiment item,yes,FlankerTask.osexp,/Users/tforestmoore/Desktop,no,mono,no,18,no,white,no,yes,768,psycho,12,79,/Users/tforestmoore/Desktop/Tarleton/Fall 2020/Math/Lab 2/RT-subject-4.csv,psycho,Lentiform Loewenfeld,3.3.3,0,h,h,NA,s,NA,h,452.310854,52612.30583,NA,15079.06033,NA,452.310854,2,psycho,1024,2,48000,-16,experiment,HHHHH,4,even,169325.7687,19480.77365,221940.3276,NA,234808.3466,4295.980384,222941.6808,NA,243241.4649,4344.791823,NA,242124.9236,243359.2549,243813.9201,243232.2747,243358.2635,Flanker Task,89,51849.65087,93,yes,1024
incongruent,95.74468085,95.74468085,556.1014224,556.1014224,black,psycho,psycho,psycho,0,uniform,1,undefined,1,s,0,0,0,0,93,0,93,0,93,0,0,93,93,93,93,93,Sun Sep 27 18:53:28 2020,600,The main experiment item,yes,FlankerTask.osexp,/Users/tforestmoore/Desktop,no,mono,no,18,no,white,no,yes,768,psycho,13,79,/Users/tforestmoore/Desktop/Tarleton/Fall 2020/Math/Lab 2/RT-subject-4.csv,psycho,Lentiform Loewenfeld,3.3.3,0,s,h,NA,s,NA,s,423.882827,52612.30583,NA,15079.06033,NA,423.882827,2,psycho,1024,2,48000,-16,experiment,HHSHH,4,even,169325.7687,19480.77365,221940.3276,NA,234808.3466,4295.980384,222941.6808,NA,244957.7401,4344.791823,NA,243824.9249,245075.3127,245501.4962,244945.3888,245074.5326,Flanker Task,90,52273.5337,94,yes,1024
congruent,95.78947368,95.78947368,554.2926839,554.2926839,black,psycho,psycho,psycho,0,uniform,1,undefined,1,s,0,0,0,0,94,0,94,0,94,0,0,94,94,94,94,94,Sun Sep 27 18:53:28 2020,600,The main experiment item,yes,FlankerTask.osexp,/Users/tforestmoore/Desktop,no,mono,no,18,no,white,no,yes,768,psycho,14,79,/Users/tforestmoore/Desktop/Tarleton/Fall 2020/Math/Lab 2/RT-subject-4.csv,psycho,Lentiform Loewenfeld,3.3.3,0,s,h,NA,s,NA,s,384.271267,52612.30583,NA,15079.06033,NA,384.271267,2,psycho,1024,2,48000,-16,experiment,SSSSS,4,even,169325.7687,19480.77365,221940.3276,NA,234808.3466,4295.980384,222941.6808,NA,246641.5831,4344.791823,NA,245524.7535,246759.1559,247146.5815,246634.4291,246758.0017,Flanker Task,91,52657.80497,95,yes,1024
incongruent,95.83333333,95.83333333,553.1502657,553.1502657,black,psycho,psycho,psycho,0,uniform,1,undefined,1,h,0,0,0,0,95,0,95,0,95,0,0,95,95,95,95,95,Sun Sep 27 18:53:28 2020,600,The main experiment item,yes,FlankerTask.osexp,/Users/tforestmoore/Desktop,no,mono,no,18,no,white,no,yes,768,psycho,15,79,/Users/tforestmoore/Desktop/Tarleton/Fall 2020/Math/Lab 2/RT-subject-4.csv,psycho,Lentiform Loewenfeld,3.3.3,0,h,h,NA,s,NA,h,444.620537,52612.30583,NA,15079.06033,NA,444.620537,2,psycho,1024,2,48000,-16,experiment,SSHSS,4,even,169325.7687,19480.77365,221940.3276,NA,234808.3466,4295.980384,222941.6808,NA,248275.1005,4344.791823,NA,247157.6736,248392.4513,248839.3549,248267.0737,248391.5651,Flanker Task,92,53102.42551,96,yes,1024
incongruent,95.87628866,95.87628866,552.8251246,552.8251246,black,psycho,psycho,psycho,0,uniform,1,undefined,1,s,0,0,0,0,96,0,96,0,96,0,0,96,96,96,96,96,Sun Sep 27 18:53:28 2020,600,The main experiment item,yes,FlankerTask.osexp,/Users/tforestmoore/Desktop,no,mono,no,18,no,white,no,yes,768,psycho,16,79,/Users/tforestmoore/Desktop/Tarleton/Fall 2020/Math/Lab 2/RT-subject-4.csv,psycho,Lentiform Loewenfeld,3.3.3,0,s,h,NA,s,NA,s,521.611579,52612.30583,NA,15079.06033,NA,521.611579,2,psycho,1024,2,48000,-16,experiment,HHSHH,4,even,169325.7687,19480.77365,221940.3276,NA,234808.3466,4295.980384,222941.6808,NA,249974.6036,4344.791823,NA,248858.0339,250092.5422,250616.5602,249967.039,250091.4413,Flanker Task,93,53624.03708,97,yes,1024
congruent,95.91836735,95.91836735,551.2268882,551.2268882,black,psycho,psycho,psycho,0,uniform,1,undefined,1,s,0,0,0,0,97,0,97,0,97,0,0,97,97,97,97,97,Sun Sep 27 18:53:28 2020,600,The main experiment item,yes,FlankerTask.osexp,/Users/tforestmoore/Desktop,no,mono,no,18,no,white,no,yes,768,psycho,17,79,/Users/tforestmoore/Desktop/Tarleton/Fall 2020/Math/Lab 2/RT-subject-4.csv,psycho,Lentiform Loewenfeld,3.3.3,0,s,h,NA,s,NA,s,396.197961,52612.30583,NA,15079.06033,NA,396.197961,2,psycho,1024,2,48000,-16,experiment,SSSSS,4,even,169325.7687,19480.77365,221940.3276,NA,234808.3466,4295.980384,222941.6808,NA,251741.8812,4344.791823,NA,250625.1511,251858.6479,252257.1828,251732.1409,251857.9938,Flanker Task,94,54020.23505,98,yes,1024
congruent,95.95959596,95.95959596,550.0013023,550.0013023,black,psycho,psycho,psycho,0,uniform,1,undefined,1,s,0,0,0,0,98,0,98,0,98,0,0,98,98,98,98,98,Sun Sep 27 18:53:28 2020,600,The main experiment item,yes,FlankerTask.osexp,/Users/tforestmoore/Desktop,no,mono,no,18,no,white,no,yes,768,psycho,18,79,/Users/tforestmoore/Desktop/Tarleton/Fall 2020/Math/Lab 2/RT-subject-4.csv,psycho,Lentiform Loewenfeld,3.3.3,0,s,h,NA,s,NA,s,429.893884,52612.30583,NA,15079.06033,NA,429.893884,2,psycho,1024,2,48000,-16,experiment,SSSSS,4,even,169325.7687,19480.77365,221940.3276,NA,234808.3466,4295.980384,222941.6808,NA,253407.74,4344.791823,NA,252274.634,253525.1501,253957.4528,253392.0064,253524.4458,Flanker Task,95,54450.12893,99,yes,1024
congruent,96,96,548.3615969,548.3615969,black,psycho,psycho,psycho,0,uniform,1,undefined,1,h,0,0,0,0,99,0,99,0,99,0,0,99,99,99,99,99,Sun Sep 27 18:53:28 2020,600,The main experiment item,yes,FlankerTask.osexp,/Users/tforestmoore/Desktop,no,mono,no,18,no,white,no,yes,768,psycho,19,79,/Users/tforestmoore/Desktop/Tarleton/Fall 2020/Math/Lab 2/RT-subject-4.csv,psycho,Lentiform Loewenfeld,3.3.3,0,h,h,NA,s,NA,h,386.030761,52612.30583,NA,15079.06033,NA,386.030761,2,psycho,1024,2,48000,-16,experiment,HHHHH,4,even,169325.7687,19480.77365,221940.3276,NA,234808.3466,4295.980384,222941.6808,NA,255091.6465,4344.791823,NA,253974.7338,255208.7808,255597.0988,255083.7376,255207.9931,Flanker Task,96,54836.15969,100,yes,1024
congruent,96.03960396,96.03960396,546.9716854,546.9716854,black,psycho,psycho,psycho,0,uniform,1,undefined,1,h,0,0,0,0,100,0,100,0,100,0,0,100,100,100,100,100,Sun Sep 27 18:53:28 2020,600,The main experiment item,yes,FlankerTask.osexp,/Users/tforestmoore/Desktop,no,mono,no,18,no,white,no,yes,768,psycho,20,79,/Users/tforestmoore/Desktop/Tarleton/Fall 2020/Math/Lab 2/RT-subject-4.csv,psycho,Lentiform Loewenfeld,3.3.3,0,h,h,NA,s,NA,h,407.98053,52612.30583,NA,15079.06033,NA,407.98053,2,psycho,1024,2,48000,-16,experiment,HHHHH,4,even,169325.7687,19480.77365,221940.3276,NA,234808.3466,4295.980384,222941.6808,NA,256724.4708,4344.791823,NA,255607.9283,256842.2249,257252.5586,256716.8317,256841.1162,Flanker Task,97,55244.14022,101,yes,1024
congruent,96.07843137,96.07843137,545.9384698,545.9384698,black,psycho,psycho,psycho,0,uniform,1,undefined,1,h,0,0,0,0,101,0,101,0,101,0,0,101,101,101,101,101,Sun Sep 27 18:53:28 2020,600,The main experiment item,yes,FlankerTask.osexp,/Users/tforestmoore/Desktop,no,mono,no,18,no,white,no,yes,768,psycho,21,79,/Users/tforestmoore/Desktop/Tarleton/Fall 2020/Math/Lab 2/RT-subject-4.csv,psycho,Lentiform Loewenfeld,3.3.3,0,h,h,NA,s,NA,h,441.583702,52612.30583,NA,15079.06033,NA,441.583702,2,psycho,1024,2,48000,-16,experiment,HHHHH,4,even,169325.7687,19480.77365,221940.3276,NA,234808.3466,4295.980384,222941.6808,NA,258391.6042,4344.791823,NA,257274.5737,258509.2419,258953.2027,258383.9175,258507.9177,Flanker Task,98,55685.72392,102,yes,1024
congruent,96.11650485,96.11650485,544.4918472,544.4918472,black,psycho,psycho,psycho,0,uniform,1,undefined,1,h,0,0,0,0,102,0,102,0,102,0,0,102,102,102,102,102,Sun Sep 27 18:53:28 2020,600,The main experiment item,yes,FlankerTask.osexp,/Users/tforestmoore/Desktop,no,mono,no,18,no,white,no,yes,768,psycho,22,79,/Users/tforestmoore/Desktop/Tarleton/Fall 2020/Math/Lab 2/RT-subject-4.csv,psycho,Lentiform Loewenfeld,3.3.3,0,h,h,NA,s,NA,h,396.936337,52612.30583,NA,15079.06033,NA,396.936337,2,psycho,1024,2,48000,-16,experiment,HHHHH,4,even,169325.7687,19480.77365,221940.3276,NA,234808.3466,4295.980384,222941.6808,NA,260107.5878,4344.791823,NA,258974.5003,260225.6591,260625.0358,260091.1931,260224.5751,Flanker Task,99,56082.66026,103,yes,1024
congruent,96.15384615,96.15384615,542.6369694,542.6369694,black,psycho,psycho,psycho,0,uniform,1,undefined,1,h,0,0,0,0,103,0,103,0,103,0,0,103,103,103,103,103,Sun Sep 27 18:53:28 2020,600,The main experiment item,yes,FlankerTask.osexp,/Users/tforestmoore/Desktop,no,mono,no,18,no,white,no,yes,768,psycho,23,79,/Users/tforestmoore/Desktop/Tarleton/Fall 2020/Math/Lab 2/RT-subject-4.csv,psycho,Lentiform Loewenfeld,3.3.3,0,h,h,NA,s,NA,h,351.584558,52612.30583,NA,15079.06033,NA,351.584558,2,psycho,1024,2,48000,-16,experiment,HHHHH,4,even,169325.7687,19480.77365,221940.3276,NA,234808.3466,4295.980384,222941.6808,NA,261759.833,4344.791823,NA,260641.0533,261875.1914,262229.0708,261749.48,261874.5453,Flanker Task,100,56434.24482,104,yes,1024
incongruent,96.19047619,96.19047619,541.0515118,541.0515118,black,psycho,psycho,psycho,0,uniform,1,undefined,1,s,0,0,0,0,104,0,104,0,104,0,0,104,104,104,104,104,Sun Sep 27 18:53:28 2020,600,The main experiment item,yes,FlankerTask.osexp,/Users/tforestmoore/Desktop,no,mono,no,18,no,white,no,yes,768,psycho,24,79,/Users/tforestmoore/Desktop/Tarleton/Fall 2020/Math/Lab 2/RT-subject-4.csv,psycho,Lentiform Loewenfeld,3.3.3,0,s,h,NA,s,NA,s,376.163922,52612.30583,NA,15079.06033,NA,376.163922,2,psycho,1024,2,48000,-16,experiment,HHSHH,4,even,169325.7687,19480.77365,221940.3276,NA,234808.3466,4295.980384,222941.6808,NA,263374.1734,4344.791823,NA,262241.1293,263491.5414,263871.2443,263363.8555,263490.8861,Flanker Task,101,56810.40874,105,yes,1024
congruent,96.22641509,96.22641509,539.7332173,539.7332173,black,psycho,psycho,psycho,0,uniform,1,undefined,1,s,0,0,0,0,105,0,105,0,105,0,0,105,105,105,105,105,Sun Sep 27 18:53:28 2020,600,The main experiment item,yes,FlankerTask.osexp,/Users/tforestmoore/Desktop,no,mono,no,18,no,white,no,yes,768,psycho,25,79,/Users/tforestmoore/Desktop/Tarleton/Fall 2020/Math/Lab 2/RT-subject-4.csv,psycho,Lentiform Loewenfeld,3.3.3,0,s,h,NA,s,NA,s,401.312289,52612.30583,NA,15079.06033,NA,401.312289,2,psycho,1024,2,48000,-16,experiment,SSSSS,4,even,169325.7687,19480.77365,221940.3276,NA,234808.3466,4295.980384,222941.6808,NA,265040.9918,4344.791823,NA,263890.7111,265159.1839,265563.215,265032.3913,265158.0722,Flanker Task,102,57211.72103,106,yes,1024
congruent,96.26168224,96.26168224,538.7983986,538.7983986,black,psycho,psycho,psycho,0,uniform,1,undefined,1,h,0,0,0,0,106,0,106,0,106,0,0,106,106,106,106,106,Sun Sep 27 18:53:28 2020,600,The main experiment item,yes,FlankerTask.osexp,/Users/tforestmoore/Desktop,no,mono,no,18,no,white,no,yes,768,psycho,26,79,/Users/tforestmoore/Desktop/Tarleton/Fall 2020/Math/Lab 2/RT-subject-4.csv,psycho,Lentiform Loewenfeld,3.3.3,0,h,h,NA,s,NA,h,439.707623,52612.30583,NA,15079.06033,NA,439.707623,2,psycho,1024,2,48000,-16,experiment,HHHHH,4,even,169325.7687,19480.77365,221940.3276,NA,234808.3466,4295.980384,222941.6808,NA,266690.7573,4344.791823,NA,265574.6176,266809.0153,267251.2278,266683.9457,266807.857,Flanker Task,103,57651.42865,107,yes,1024
congruent,96.2962963,96.2962963,537.8915436,537.8915436,black,psycho,psycho,psycho,0,uniform,1,undefined,1,s,0,0,0,0,107,0,107,0,107,0,0,107,107,107,107,107,Sun Sep 27 18:53:28 2020,600,The main experiment item,yes,FlankerTask.osexp,/Users/tforestmoore/Desktop,no,mono,no,18,no,white,no,yes,768,psycho,27,79,/Users/tforestmoore/Desktop/Tarleton/Fall 2020/Math/Lab 2/RT-subject-4.csv,psycho,Lentiform Loewenfeld,3.3.3,0,s,h,NA,s,NA,s,440.858061,52612.30583,NA,15079.06033,NA,440.858061,2,psycho,1024,2,48000,-16,experiment,SSSSS,4,even,169325.7687,19480.77365,221940.3276,NA,234808.3466,4295.980384,222941.6808,NA,268390.9574,4344.791823,NA,267274.4776,268508.7266,268952.0599,268383.2913,268507.9133,Flanker Task,104,58092.28671,108,yes,1024
congruent,96.33027523,96.33027523,537.1107101,537.1107101,black,psycho,psycho,psycho,0,uniform,1,undefined,1,h,0,0,0,0,108,0,108,0,108,0,0,108,108,108,108,108,Sun Sep 27 18:53:28 2020,600,The main experiment item,yes,FlankerTask.osexp,/Users/tforestmoore/Desktop,no,mono,no,18,no,white,no,yes,768,psycho,28,79,/Users/tforestmoore/Desktop/Tarleton/Fall 2020/Math/Lab 2/RT-subject-4.csv,psycho,Lentiform Loewenfeld,3.3.3,0,h,h,NA,s,NA,h,452.780689,52612.30583,NA,15079.06033,NA,452.780689,2,psycho,1024,2,48000,-16,experiment,HHHHH,4,even,169325.7687,19480.77365,221940.3276,NA,234808.3466,4295.980384,222941.6808,NA,270090.9155,4344.791823,NA,268974.4252,270208.8449,270663.9231,270083.6584,270207.729,Flanker Task,105,58545.0674,109,yes,1024
incongruent,96.36363636,96.36363636,536.5875506,536.5875506,black,psycho,psycho,psycho,0,uniform,1,undefined,1,s,0,0,0,0,109,0,109,0,109,0,0,109,109,109,109,109,Sun Sep 27 18:53:28 2020,600,The main experiment item,yes,FlankerTask.osexp,/Users/tforestmoore/Desktop,no,mono,no,18,no,white,no,yes,768,psycho,29,79,/Users/tforestmoore/Desktop/Tarleton/Fall 2020/Math/Lab 2/RT-subject-4.csv,psycho,Lentiform Loewenfeld,3.3.3,0,s,h,NA,s,NA,s,479.563167,52612.30583,NA,15079.06033,NA,479.563167,2,psycho,1024,2,48000,-16,experiment,HHSHH,4,even,169325.7687,19480.77365,221940.3276,NA,234808.3466,4295.980384,222941.6808,NA,271809.3478,4344.791823,NA,270674.6372,271925.1008,272407.0609,271786.4018,271924.4569,Flanker Task,106,59024.63057,110,yes,1024
congruent,96.3963964,96.3963964,535.3090324,535.3090324,black,psycho,psycho,psycho,0,uniform,1,undefined,1,h,0,0,0,0,110,0,110,0,110,0,0,110,110,110,110,110,Sun Sep 27 18:53:28 2020,600,The main experiment item,yes,FlankerTask.osexp,/Users/tforestmoore/Desktop,no,mono,no,18,no,white,no,yes,768,psycho,30,79,/Users/tforestmoore/Desktop/Tarleton/Fall 2020/Math/Lab 2/RT-subject-4.csv,psycho,Lentiform Loewenfeld,3.3.3,0,h,h,NA,s,NA,h,394.672023,52612.30583,NA,15079.06033,NA,394.672023,2,psycho,1024,2,48000,-16,experiment,HHHHH,4,even,169325.7687,19480.77365,221940.3276,NA,234808.3466,4295.980384,222941.6808,NA,273574.2524,4344.791823,NA,272424.4043,273690.8501,274087.9015,273560.44,273690.5104,Flanker Task,107,59419.30259,111,yes,1024
congruent,96.42857143,96.42857143,534.4236051,534.4236051,black,psycho,psycho,psycho,0,uniform,1,undefined,1,h,0,0,0,0,111,0,111,0,111,0,0,111,111,111,111,111,Sun Sep 27 18:53:28 2020,600,The main experiment item,yes,FlankerTask.osexp,/Users/tforestmoore/Desktop,no,mono,no,18,no,white,no,yes,768,psycho,31,79,/Users/tforestmoore/Desktop/Tarleton/Fall 2020/Math/Lab 2/RT-subject-4.csv,psycho,Lentiform Loewenfeld,3.3.3,0,h,h,NA,s,NA,h,436.141184,52612.30583,NA,15079.06033,NA,436.141184,2,psycho,1024,2,48000,-16,experiment,HHHHH,4,even,169325.7687,19480.77365,221940.3276,NA,234808.3466,4295.980384,222941.6808,NA,275224.3965,4344.791823,NA,274107.57,275342.1789,275780.658,275217.0906,275340.9972,Flanker Task,108,59855.44378,112,yes,1024
congruent,96.46017699,96.46017699,533.6621904,533.6621904,black,psycho,psycho,psycho,0,uniform,1,undefined,1,h,0,0,0,0,112,0,112,0,112,0,0,112,112,112,112,112,Sun Sep 27 18:53:28 2020,600,The main experiment item,yes,FlankerTask.osexp,/Users/tforestmoore/Desktop,no,mono,no,18,no,white,no,yes,768,psycho,32,79,/Users/tforestmoore/Desktop/Tarleton/Fall 2020/Math/Lab 2/RT-subject-4.csv,psycho,Lentiform Loewenfeld,3.3.3,0,h,h,NA,s,NA,h,448.38374,52612.30583,NA,15079.06033,NA,448.38374,2,psycho,1024,2,48000,-16,experiment,HHHHH,4,even,169325.7687,19480.77365,221940.3276,NA,234808.3466,4295.980384,222941.6808,NA,276940.6204,4344.791823,NA,275791.0612,277058.0965,277508.972,276924.9932,277057.3937,Flanker Task,109,60303.82752,113,yes,1024
incongruent,96.49122807,96.49122807,533.2523751,533.2523751,black,psycho,psycho,psycho,0,uniform,1,undefined,1,h,0,0,0,0,113,0,113,0,113,0,0,113,113,113,113,113,Sun Sep 27 18:53:28 2020,600,The main experiment item,yes,FlankerTask.osexp,/Users/tforestmoore/Desktop,no,mono,no,18,no,white,no,yes,768,psycho,33,79,/Users/tforestmoore/Desktop/Tarleton/Fall 2020/Math/Lab 2/RT-subject-4.csv,psycho,Lentiform Loewenfeld,3.3.3,0,h,h,NA,s,NA,h,486.943247,52612.30583,NA,15079.06033,NA,486.943247,2,psycho,1024,2,48000,-16,experiment,SSHSS,4,even,169325.7687,19480.77365,221940.3276,NA,234808.3466,4295.980384,222941.6808,NA,278641.0802,4344.791823,NA,277524.4502,278758.8632,279249.2383,278633.5849,278757.6451,Flanker Task,110,60790.77076,114,yes,1024
incongruent,96.52173913,96.52173913,532.2873739,532.2873739,black,psycho,psycho,psycho,0,uniform,1,undefined,1,h,0,0,0,0,114,0,114,0,114,0,0,114,114,114,114,114,Sun Sep 27 18:53:28 2020,600,The main experiment item,yes,FlankerTask.osexp,/Users/tforestmoore/Desktop,no,mono,no,18,no,white,no,yes,768,psycho,34,79,/Users/tforestmoore/Desktop/Tarleton/Fall 2020/Math/Lab 2/RT-subject-4.csv,psycho,Lentiform Loewenfeld,3.3.3,0,h,h,NA,s,NA,h,422.277231,52612.30583,NA,15079.06033,NA,422.277231,2,psycho,1024,2,48000,-16,experiment,SSHSS,4,even,169325.7687,19480.77365,221940.3276,NA,234808.3466,4295.980384,222941.6808,NA,280374.0902,4344.791823,NA,279257.6462,280492.0961,280916.751,280366.2773,280490.9464,Flanker Task,111,61213.04799,115,yes,1024
incongruent,96.55172414,96.55172414,531.5897537,531.5897537,black,psycho,psycho,psycho,0,uniform,1,undefined,1,h,0,0,0,0,115,0,115,0,115,0,0,115,115,115,115,115,Sun Sep 27 18:53:28 2020,600,The main experiment item,yes,FlankerTask.osexp,/Users/tforestmoore/Desktop,no,mono,no,18,no,white,no,yes,768,psycho,35,79,/Users/tforestmoore/Desktop/Tarleton/Fall 2020/Math/Lab 2/RT-subject-4.csv,psycho,Lentiform Loewenfeld,3.3.3,0,h,h,NA,s,NA,h,451.363435,52612.30583,NA,15079.06033,NA,451.363435,2,psycho,1024,2,48000,-16,experiment,SSHSS,4,even,169325.7687,19480.77365,221940.3276,NA,234808.3466,4295.980384,222941.6808,NA,282041.5879,4344.791823,NA,280924.9661,282158.1626,282614.7725,282035.5318,282157.5179,Flanker Task,112,61664.41143,116,yes,1024
congruent,96.58119658,96.58119658,531.0245824,531.0245824,black,psycho,psycho,psycho,0,uniform,1,undefined,1,h,0,0,0,0,116,0,116,0,116,0,0,116,116,116,116,116,Sun Sep 27 18:53:28 2020,600,The main experiment item,yes,FlankerTask.osexp,/Users/tforestmoore/Desktop,no,mono,no,18,no,white,no,yes,768,psycho,36,79,/Users/tforestmoore/Desktop/Tarleton/Fall 2020/Math/Lab 2/RT-subject-4.csv,psycho,Lentiform Loewenfeld,3.3.3,0,h,h,NA,s,NA,h,465.464709,52612.30583,NA,15079.06033,NA,465.464709,2,psycho,1024,2,48000,-16,experiment,HHHHH,4,even,169325.7687,19480.77365,221940.3276,NA,234808.3466,4295.980384,222941.6808,NA,283741.425,4344.791823,NA,282624.421,283857.93,284325.9187,283732.5972,283857.2843,Flanker Task,113,62129.87614,117,yes,1024
incongruent,96.61016949,96.61016949,530.4712806,530.4712806,black,psycho,psycho,psycho,0,uniform,1,undefined,1,s,0,0,0,0,117,0,117,0,117,0,0,117,117,117,117,117,Sun Sep 27 18:53:28 2020,600,The main experiment item,yes,FlankerTask.osexp,/Users/tforestmoore/Desktop,no,mono,no,18,no,white,no,yes,768,psycho,37,79,/Users/tforestmoore/Desktop/Tarleton/Fall 2020/Math/Lab 2/RT-subject-4.csv,psycho,Lentiform Loewenfeld,3.3.3,0,s,h,NA,s,NA,s,465.734967,52612.30583,NA,15079.06033,NA,465.734967,2,psycho,1024,2,48000,-16,experiment,HHSHH,4,even,169325.7687,19480.77365,221940.3276,NA,234808.3466,4295.980384,222941.6808,NA,285490.4691,4344.791823,NA,284340.8764,285608.7072,286077.0142,285474.5831,285607.5404,Flanker Task,114,62595.61111,118,yes,1024
congruent,96.63865546,96.63865546,529.119725,529.119725,black,psycho,psycho,psycho,0,uniform,1,undefined,1,h,0,0,0,0,118,0,118,0,118,0,0,118,118,118,118,118,Sun Sep 27 18:53:28 2020,600,The main experiment item,yes,FlankerTask.osexp,/Users/tforestmoore/Desktop,no,mono,no,18,no,white,no,yes,768,psycho,38,79,/Users/tforestmoore/Desktop/Tarleton/Fall 2020/Math/Lab 2/RT-subject-4.csv,psycho,Lentiform Loewenfeld,3.3.3,0,h,h,NA,s,NA,h,369.636171,52612.30583,NA,15079.06033,NA,369.636171,2,psycho,1024,2,48000,-16,experiment,HHHHH,4,even,169325.7687,19480.77365,221940.3276,NA,234808.3466,4295.980384,222941.6808,NA,287207.6859,4344.791823,NA,286090.8576,287325.4558,287697.5442,287200.1842,287324.2277,Flanker Task,115,62965.24728,119,yes,1024
incongruent,96.66666667,96.66666667,528.1196934,528.1196934,black,psycho,psycho,psycho,0,uniform,1,undefined,1,s,0,0,0,0,119,0,119,0,119,0,0,119,119,119,119,119,Sun Sep 27 18:53:28 2020,600,The main experiment item,yes,FlankerTask.osexp,/Users/tforestmoore/Desktop,no,mono,no,18,no,white,no,yes,768,psycho,39,79,/Users/tforestmoore/Desktop/Tarleton/Fall 2020/Math/Lab 2/RT-subject-4.csv,psycho,Lentiform Loewenfeld,3.3.3,0,s,h,NA,s,NA,s,409.115926,52612.30583,NA,15079.06033,NA,409.115926,2,psycho,1024,2,48000,-16,experiment,HHSHH,4,even,169325.7687,19480.77365,221940.3276,NA,234808.3466,4295.980384,222941.6808,NA,288840.5416,4344.791823,NA,287707.5082,288957.9434,289369.5439,288830.7959,288957.1832,Flanker Task,116,63374.3632,120,yes,1024
incongruent,96.69421488,96.69421488,527.1995391,527.1995391,black,psycho,psycho,psycho,0,uniform,1,undefined,1,s,0,0,0,0,120,0,120,0,120,0,0,120,120,120,120,120,Sun Sep 27 18:53:28 2020,600,The main experiment item,yes,FlankerTask.osexp,/Users/tforestmoore/Desktop,no,mono,no,18,no,white,no,yes,768,psycho,40,79,/Users/tforestmoore/Desktop/Tarleton/Fall 2020/Math/Lab 2/RT-subject-4.csv,psycho,Lentiform Loewenfeld,3.3.3,0,s,h,NA,s,NA,s,416.781026,52612.30583,NA,15079.06033,NA,416.781026,2,psycho,1024,2,48000,-16,experiment,HHSHH,4,even,169325.7687,19480.77365,221940.3276,NA,234808.3466,4295.980384,222941.6808,NA,290507.5106,4344.791823,NA,289390.993,290625.3888,291045.6481,290500.198,290624.169,Flanker Task,117,63791.14423,121,yes,1024
incongruent,96.72131148,96.72131148,526.2271726,526.2271726,black,psycho,psycho,psycho,0,uniform,1,undefined,1,s,0,0,0,0,121,0,121,0,121,0,0,121,121,121,121,121,Sun Sep 27 18:53:28 2020,600,The main experiment item,yes,FlankerTask.osexp,/Users/tforestmoore/Desktop,no,mono,no,18,no,white,no,yes,768,psycho,41,79,/Users/tforestmoore/Desktop/Tarleton/Fall 2020/Math/Lab 2/RT-subject-4.csv,psycho,Lentiform Loewenfeld,3.3.3,0,s,h,NA,s,NA,s,408.570835,52612.30583,NA,15079.06033,NA,408.570835,2,psycho,1024,2,48000,-16,experiment,HHSHH,4,even,169325.7687,19480.77365,221940.3276,NA,234808.3466,4295.980384,222941.6808,NA,292174.9649,4344.791823,NA,291057.1425,292291.5972,292702.6709,292165.9518,292290.9509,Flanker Task,118,64199.71506,122,yes,1024
congruent,96.74796748,96.74796748,525.3060482,525.3060482,black,psycho,psycho,psycho,0,uniform,1,undefined,1,s,0,0,0,0,122,0,122,0,122,0,0,122,122,122,122,122,Sun Sep 27 18:53:28 2020,600,The main experiment item,yes,FlankerTask.osexp,/Users/tforestmoore/Desktop,no,mono,no,18,no,white,no,yes,768,psycho,42,79,/Users/tforestmoore/Desktop/Tarleton/Fall 2020/Math/Lab 2/RT-subject-4.csv,psycho,Lentiform Loewenfeld,3.3.3,0,s,h,NA,s,NA,s,412.928868,52612.30583,NA,15079.06033,NA,412.928868,2,psycho,1024,2,48000,-16,experiment,SSSSS,4,even,169325.7687,19480.77365,221940.3276,NA,234808.3466,4295.980384,222941.6808,NA,293857.3986,4344.791823,NA,292724.1216,293975.2344,294390.729,293836.5053,293974.1197,Flanker Task,119,64612.64393,123,yes,1024
congruent,96.77419355,96.77419355,523.9497406,523.9497406,black,psycho,psycho,psycho,0,uniform,1,undefined,1,s,0,0,0,0,123,0,123,0,123,0,0,123,123,123,123,123,Sun Sep 27 18:53:28 2020,600,The main experiment item,yes,FlankerTask.osexp,/Users/tforestmoore/Desktop,no,mono,no,18,no,white,no,yes,768,psycho,43,79,/Users/tforestmoore/Desktop/Tarleton/Fall 2020/Math/Lab 2/RT-subject-4.csv,psycho,Lentiform Loewenfeld,3.3.3,0,s,h,NA,s,NA,s,357.123909,52612.30583,NA,15079.06033,NA,357.123909,2,psycho,1024,2,48000,-16,experiment,SSSSS,4,even,169325.7687,19480.77365,221940.3276,NA,234808.3466,4295.980384,222941.6808,NA,295523.8954,4344.791823,NA,294407.4478,295641.9371,296001.4711,295516.2522,295640.803,Flanker Task,120,64969.76784,124,yes,1024
congruent,96.8,96.8,522.3698915,522.3698915,black,psycho,psycho,psycho,0,uniform,1,undefined,1,s,0,0,0,0,124,0,124,0,124,0,0,124,124,124,124,124,Sun Sep 27 18:53:28 2020,600,The main experiment item,yes,FlankerTask.osexp,/Users/tforestmoore/Desktop,no,mono,no,18,no,white,no,yes,768,psycho,44,79,/Users/tforestmoore/Desktop/Tarleton/Fall 2020/Math/Lab 2/RT-subject-4.csv,psycho,Lentiform Loewenfeld,3.3.3,0,s,h,NA,s,NA,s,326.4686,52612.30583,NA,15079.06033,NA,326.4686,2,psycho,1024,2,48000,-16,experiment,SSSSS,4,even,169325.7687,19480.77365,221940.3276,NA,234808.3466,4295.980384,222941.6808,NA,297140.6595,4344.791823,NA,296024.0259,297258.4402,297587.3514,297132.0934,297257.3293,Flanker Task,121,65296.23644,125,yes,1024
congruent,96.82539683,96.82539683,521.0298571,521.0298571,black,psycho,psycho,psycho,0,uniform,1,undefined,1,s,0,0,0,0,125,0,125,0,125,0,0,125,125,125,125,125,Sun Sep 27 18:53:28 2020,600,The main experiment item,yes,FlankerTask.osexp,/Users/tforestmoore/Desktop,no,mono,no,18,no,white,no,yes,768,psycho,45,79,/Users/tforestmoore/Desktop/Tarleton/Fall 2020/Math/Lab 2/RT-subject-4.csv,psycho,Lentiform Loewenfeld,3.3.3,0,s,h,NA,s,NA,s,353.525549,52612.30583,NA,15079.06033,NA,353.525549,2,psycho,1024,2,48000,-16,experiment,SSSSS,4,even,169325.7687,19480.77365,221940.3276,NA,234808.3466,4295.980384,222941.6808,NA,298757.0465,4344.791823,NA,297607.397,298874.4056,299230.3065,298738.7602,298873.6888,Flanker Task,122,65649.76199,126,yes,1024
incongruent,96.8503937,96.8503937,520.6669334,520.6669334,black,psycho,psycho,psycho,0,uniform,1,undefined,1,h,0,0,0,0,126,0,126,0,126,0,0,126,126,126,126,126,Sun Sep 27 18:53:28 2020,600,The main experiment item,yes,FlankerTask.osexp,/Users/tforestmoore/Desktop,no,mono,no,18,no,white,no,yes,768,psycho,46,79,/Users/tforestmoore/Desktop/Tarleton/Fall 2020/Math/Lab 2/RT-subject-4.csv,psycho,Lentiform Loewenfeld,3.3.3,0,h,h,NA,s,NA,h,474.938547,52612.30583,NA,15079.06033,NA,474.938547,2,psycho,1024,2,48000,-16,experiment,SSHSS,4,even,169325.7687,19480.77365,221940.3276,NA,234808.3466,4295.980384,222941.6808,NA,300357.2656,4344.791823,NA,299240.5034,300475.4182,300953.6048,300348.8341,300474.2328,Flanker Task,123,66124.70054,127,yes,1024
incongruent,96.875,96.875,520.7701475,520.7701475,black,psycho,psycho,psycho,0,uniform,1,undefined,1,h,0,0,0,0,127,0,127,0,127,0,0,127,127,127,127,127,Sun Sep 27 18:53:28 2020,600,The main experiment item,yes,FlankerTask.osexp,/Users/tforestmoore/Desktop,no,mono,no,18,no,white,no,yes,768,psycho,47,79,/Users/tforestmoore/Desktop/Tarleton/Fall 2020/Math/Lab 2/RT-subject-4.csv,psycho,Lentiform Loewenfeld,3.3.3,0,h,h,NA,s,NA,h,533.87835,52612.30583,NA,15079.06033,NA,533.87835,2,psycho,1024,2,48000,-16,experiment,SSHSS,4,even,169325.7687,19480.77365,221940.3276,NA,234808.3466,4295.980384,222941.6808,NA,302091.1983,4344.791823,NA,300973.7703,302207.9624,302744.2867,302080.5177,302207.3141,Flanker Task,124,66658.57889,128,yes,1024
congruent,96.89922481,96.89922481,519.8490179,519.8490179,black,psycho,psycho,psycho,0,uniform,1,undefined,1,s,0,0,0,0,128,0,128,0,128,0,0,128,128,128,128,128,Sun Sep 27 18:53:28 2020,600,The main experiment item,yes,FlankerTask.osexp,/Users/tforestmoore/Desktop,no,mono,no,18,no,white,no,yes,768,psycho,48,79,/Users/tforestmoore/Desktop/Tarleton/Fall 2020/Math/Lab 2/RT-subject-4.csv,psycho,Lentiform Loewenfeld,3.3.3,0,s,h,NA,s,NA,s,401.944418,52612.30583,NA,15079.06033,NA,401.944418,2,psycho,1024,2,48000,-16,experiment,SSSSS,4,even,169325.7687,19480.77365,221940.3276,NA,234808.3466,4295.980384,222941.6808,NA,303892.224,4344.791823,NA,302757.1525,304008.0067,304412.8358,303870.3738,304007.3554,Flanker Task,125,67060.5233,129,yes,1024
incongruent,96.92307692,96.92307692,519.9989262,519.9989262,black,psycho,psycho,psycho,0,uniform,1,undefined,1,s,0,0,0,0,129,0,129,0,129,0,0,129,129,129,129,129,Sun Sep 27 18:53:28 2020,600,The main experiment item,yes,FlankerTask.osexp,/Users/tforestmoore/Desktop,no,mono,no,18,no,white,no,yes,768,psycho,49,79,/Users/tforestmoore/Desktop/Tarleton/Fall 2020/Math/Lab 2/RT-subject-4.csv,psycho,Lentiform Loewenfeld,3.3.3,0,s,h,NA,s,NA,s,539.337101,52612.30583,NA,15079.06033,NA,539.337101,2,psycho,1024,2,48000,-16,experiment,HHSHH,4,even,169325.7687,19480.77365,221940.3276,NA,234808.3466,4295.980384,222941.6808,NA,305540.7071,4344.791823,NA,304424.2701,305658.4653,306200.3483,305533.8769,305657.2673,Flanker Task,126,67599.86041,130,yes,1024
incongruent,96.94656489,96.94656489,519.6856398,519.6856398,black,psycho,psycho,psycho,0,uniform,1,undefined,1,h,0,0,0,0,130,0,130,0,130,0,0,130,130,130,130,130,Sun Sep 27 18:53:28 2020,600,The main experiment item,yes,FlankerTask.osexp,/Users/tforestmoore/Desktop,no,mono,no,18,no,white,no,yes,768,psycho,50,79,/Users/tforestmoore/Desktop/Tarleton/Fall 2020/Math/Lab 2/RT-subject-4.csv,psycho,Lentiform Loewenfeld,3.3.3,0,h,h,NA,s,NA,h,478.958407,52612.30583,NA,15079.06033,NA,478.958407,2,psycho,1024,2,48000,-16,experiment,SSHSS,4,even,169325.7687,19480.77365,221940.3276,NA,234808.3466,4295.980384,222941.6808,NA,307373.8825,4344.791823,NA,306223.9175,307491.6787,307973.2111,307354.1517,307490.5735,Flanker Task,127,68078.81881,131,yes,1024
congruent,96.96969697,96.96969697,518.6623264,518.6623264,black,psycho,psycho,psycho,0,uniform,1,undefined,1,s,0,0,0,0,131,0,131,0,131,0,0,131,131,131,131,131,Sun Sep 27 18:53:28 2020,600,The main experiment item,yes,FlankerTask.osexp,/Users/tforestmoore/Desktop,no,mono,no,18,no,white,no,yes,768,psycho,51,79,/Users/tforestmoore/Desktop/Tarleton/Fall 2020/Math/Lab 2/RT-subject-4.csv,psycho,Lentiform Loewenfeld,3.3.3,0,s,h,NA,s,NA,s,384.608274,52612.30583,NA,15079.06033,NA,384.608274,2,psycho,1024,2,48000,-16,experiment,SSSSS,4,even,169325.7687,19480.77365,221940.3276,NA,234808.3466,4295.980384,222941.6808,NA,309107.1164,4344.791823,NA,307990.5401,309224.9954,309612.1945,309098.789,309223.8641,Flanker Task,128,68463.42709,132,yes,1024
congruent,96.9924812,96.9924812,518.0068407,518.0068407,black,psycho,psycho,psycho,0,uniform,1,undefined,1,h,0,0,0,0,132,0,132,0,132,0,0,132,132,132,132,132,Sun Sep 27 18:53:28 2020,600,The main experiment item,yes,FlankerTask.osexp,/Users/tforestmoore/Desktop,no,mono,no,18,no,white,no,yes,768,psycho,52,79,/Users/tforestmoore/Desktop/Tarleton/Fall 2020/Math/Lab 2/RT-subject-4.csv,psycho,Lentiform Loewenfeld,3.3.3,0,h,h,NA,s,NA,h,431.482724,52612.30583,NA,15079.06033,NA,431.482724,2,psycho,1024,2,48000,-16,experiment,HHHHH,4,even,169325.7687,19480.77365,221940.3276,NA,234808.3466,4295.980384,222941.6808,NA,310773.5502,4344.791823,NA,309624.1564,310891.6331,311325.6449,310756.9377,310890.5382,Flanker Task,129,68894.90981,133,yes,1024
incongruent,97.01492537,97.01492537,517.141202,517.141202,black,psycho,psycho,psycho,0,uniform,1,undefined,1,h,0,0,0,0,133,0,133,0,133,0,0,133,133,133,133,133,Sun Sep 27 18:53:28 2020,600,The main experiment item,yes,FlankerTask.osexp,/Users/tforestmoore/Desktop,no,mono,no,18,no,white,no,yes,768,psycho,53,79,/Users/tforestmoore/Desktop/Tarleton/Fall 2020/Math/Lab 2/RT-subject-4.csv,psycho,Lentiform Loewenfeld,3.3.3,0,h,h,NA,s,NA,h,402.011263,52612.30583,NA,15079.06033,NA,402.011263,2,psycho,1024,2,48000,-16,experiment,SSHSS,4,even,169325.7687,19480.77365,221940.3276,NA,234808.3466,4295.980384,222941.6808,NA,312457.7273,4344.791823,NA,311340.4946,312574.5198,312979.9985,312448.2174,312573.8645,Flanker Task,130,69296.92107,134,yes,1024
incongruent,97.03703704,97.03703704,517.0193433,517.0193433,black,psycho,psycho,psycho,0,uniform,1,undefined,1,h,0,0,0,0,134,0,134,0,134,0,0,134,134,134,134,134,Sun Sep 27 18:53:28 2020,600,The main experiment item,yes,FlankerTask.osexp,/Users/tforestmoore/Desktop,no,mono,no,18,no,white,no,yes,768,psycho,54,79,/Users/tforestmoore/Desktop/Tarleton/Fall 2020/Math/Lab 2/RT-subject-4.csv,psycho,Lentiform Loewenfeld,3.3.3,0,h,h,NA,s,NA,h,500.690268,52612.30583,NA,15079.06033,NA,500.690268,2,psycho,1024,2,48000,-16,experiment,SSHSS,4,even,169325.7687,19480.77365,221940.3276,NA,234808.3466,4295.980384,222941.6808,NA,314107.112,4344.791823,NA,312990.1821,314224.9689,314728.3543,314098.8683,314223.8485,Flanker Task,131,69797.61134,135,yes,1024
incongruent,97.05882353,97.05882353,516.8591341,516.8591341,black,psycho,psycho,psycho,0,uniform,1,undefined,1,h,0,0,0,0,135,0,135,0,135,0,0,135,135,135,135,135,Sun Sep 27 18:53:28 2020,600,The main experiment item,yes,FlankerTask.osexp,/Users/tforestmoore/Desktop,no,mono,no,18,no,white,no,yes,768,psycho,55,79,/Users/tforestmoore/Desktop/Tarleton/Fall 2020/Math/Lab 2/RT-subject-4.csv,psycho,Lentiform Loewenfeld,3.3.3,0,h,h,NA,s,NA,h,495.230903,52612.30583,NA,15079.06033,NA,495.230903,2,psycho,1024,2,48000,-16,experiment,SSHSS,4,even,169325.7687,19480.77365,221940.3276,NA,234808.3466,4295.980384,222941.6808,NA,315857.7001,4344.791823,NA,314740.4722,315975.1804,316472.7993,315849.5324,315974.0038,Flanker Task,132,70292.84224,136,yes,1024
incongruent,97.08029197,97.08029197,516.9780828,516.9780828,black,psycho,psycho,psycho,0,uniform,1,undefined,1,s,0,0,0,0,136,0,136,0,136,0,0,136,136,136,136,136,Sun Sep 27 18:53:28 2020,600,The main experiment item,yes,FlankerTask.osexp,/Users/tforestmoore/Desktop,no,mono,no,18,no,white,no,yes,768,psycho,56,79,/Users/tforestmoore/Desktop/Tarleton/Fall 2020/Math/Lab 2/RT-subject-4.csv,psycho,Lentiform Loewenfeld,3.3.3,0,s,h,NA,s,NA,s,533.155103,52612.30583,NA,15079.06033,NA,533.155103,2,psycho,1024,2,48000,-16,experiment,HHSHH,4,even,169325.7687,19480.77365,221940.3276,NA,234808.3466,4295.980384,222941.6808,NA,317607.1404,4344.791823,NA,316490.4583,317726.2841,318261.9438,317598.4311,317724.1874,Flanker Task,133,70825.99735,137,yes,1024
