"acc","accuracy","average_response_time","avg_rt","background","canvas_backend","clock_backend","color_backend","compensation","condition","coordinates","correct","correct_instructions1","correct_keyboardresponse","correct_response","count_block1","count_block2","count_block3","count_errorfeedback","count_experiment","count_faster","count_finish","count_fixation","count_instructions1","count_instructions2","count_instructions3","count_isi","count_keyboardresponse","count_logger","count_sequence","count_stimulus","datetime","deadline","description","disable_garbage_collection","experiment_file","experiment_path","font_bold","font_family","font_italic","font_size","font_underline","foreground","form_clicks","fullscreen","height","keyboard_backend","live_row","live_row_block1","logfile","mouse_backend","opensesame_codename","opensesame_version","repeat_cycle","response","response_finish","response_instructions1","response_instructions2","response_instructions3","response_keyboardresponse","response_time","response_time_finish","response_time_instructions1","response_time_instructions2","response_time_instructions3","response_time_keyboardresponse","round_decimals","sampler_backend","sound_buf_size","sound_channels","sound_freq","sound_sample_size","start","stimulus","subject_nr","subject_parity","time_block1","time_block2","time_block3","time_errorfeedback","time_experiment","time_faster","time_finish","time_fixation","time_instructions1","time_instructions2","time_instructions3","time_isi","time_keyboardresponse","time_logger","time_sequence","time_stimulus","title","total_correct","total_response_time","total_responses","uniform_coordinates","width"
"100","100","832","832","black","legacy","legacy","legacy","0","incongruent","uniform","1","undefined","1","h","0","0","0","0","0","0","0","0","0","0","0","0","0","0","0","0","09/27/20 15:44:53","1500","Flanker Task","yes","flankertasksubmission.osexp","C:\Users\User\Desktop\Quant 2020 - Copy","no","mono","no","18","no","white","no","yes","768","legacy","0","0","C:/Users/User/Desktop/Quant 2020 - Copy/CP-subject-2.csv","legacy","Lentiform Loewenfeld","3.3.3","0","h","NA","h","NA","NA","h","832","NA","23435","NA","NA","832","2","legacy","1024","2","48000","-16","experiment","SSHSS","2","even","27198","NA","NA","NA","3757","NA","NA","27366","3762","NA","NA","NA","27472","28305","27360","27471","New experiment","1","832","1","yes","1024"
"50","50","663.5","663.5","black","legacy","legacy","legacy","0","incongruent","uniform","0","undefined","0","h","0","0","0","1","0","1","0","1","0","0","0","1","1","1","1","1","09/27/20 15:44:53","1500","Flanker Task","yes","flankertasksubmission.osexp","C:\Users\User\Desktop\Quant 2020 - Copy","no","mono","no","18","no","white","no","yes","768","legacy","1","1","C:/Users/User/Desktop/Quant 2020 - Copy/CP-subject-2.csv","legacy","Lentiform Loewenfeld","3.3.3","0","s","NA","h","NA","NA","s","495","NA","23435","NA","NA","495","2","legacy","1024","2","48000","-16","experiment","SSHSS","2","even","27198","NA","NA","NA","3757","NA","NA","29459","3762","NA","NA","28317","29561","30056","29455","29561","New experiment","1","1327","2","yes","1024"
"66.6666666667","66.6666666667","629.333333333","629.333333333","black","legacy","legacy","legacy","0","incongruent","uniform","1","undefined","1","h","0","0","0","2","0","2","0","2","0","0","0","2","2","2","2","2","09/27/20 15:44:53","1500","Flanker Task","yes","flankertasksubmission.osexp","C:\Users\User\Desktop\Quant 2020 - Copy","no","mono","no","18","no","white","no","yes","768","legacy","2","2","C:/Users/User/Desktop/Quant 2020 - Copy/CP-subject-2.csv","legacy","Lentiform Loewenfeld","3.3.3","0","h","NA","h","NA","NA","h","561","NA","23435","NA","NA","561","2","legacy","1024","2","48000","-16","experiment","SSHSS","2","even","27198","NA","NA","30061","3757","NA","NA","31695","3762","NA","NA","30567","31801","32362","31692","31801","New experiment","2","1888","3","yes","1024"
"75","75","592.25","592.25","black","legacy","legacy","legacy","0","congruent","uniform","1","undefined","1","h","0","0","0","3","0","3","0","3","0","0","0","3","3","3","3","3","09/27/20 15:44:53","1500","Flanker Task","yes","flankertasksubmission.osexp","C:\Users\User\Desktop\Quant 2020 - Copy","no","mono","no","18","no","white","no","yes","768","legacy","3","3","C:/Users/User/Desktop/Quant 2020 - Copy/CP-subject-2.csv","legacy","Lentiform Loewenfeld","3.3.3","0","h","NA","h","NA","NA","h","481","NA","23435","NA","NA","481","2","legacy","1024","2","48000","-16","experiment","HHHHH","2","even","27198","NA","NA","30061","3757","NA","NA","33499","3762","NA","NA","32368","33605","34086","33495","33604","New experiment","3","2369","4","yes","1024"
"80","80","565","565","black","legacy","legacy","legacy","0","incongruent","uniform","1","undefined","1","s","0","0","0","4","0","4","0","4","0","0","0","4","4","4","4","4","09/27/20 15:44:53","1500","Flanker Task","yes","flankertasksubmission.osexp","C:\Users\User\Desktop\Quant 2020 - Copy","no","mono","no","18","no","white","no","yes","768","legacy","4","4","C:/Users/User/Desktop/Quant 2020 - Copy/CP-subject-2.csv","legacy","Lentiform Loewenfeld","3.3.3","0","s","NA","h","NA","NA","s","456","NA","23435","NA","NA","456","2","legacy","1024","2","48000","-16","experiment","HHSHH","2","even","27198","NA","NA","30061","3757","NA","NA","35231","3762","NA","NA","34093","35337","35793","35228","35337","New experiment","4","2825","5","yes","1024"
"83.3333333333","83.3333333333","541.833333333","541.833333333","black","legacy","legacy","legacy","0","incongruent","uniform","1","undefined","1","s","0","0","0","5","0","5","0","5","0","0","0","5","5","5","5","5","09/27/20 15:44:53","1500","Flanker Task","yes","flankertasksubmission.osexp","C:\Users\User\Desktop\Quant 2020 - Copy","no","mono","no","18","no","white","no","yes","768","legacy","5","5","C:/Users/User/Desktop/Quant 2020 - Copy/CP-subject-2.csv","legacy","Lentiform Loewenfeld","3.3.3","0","s","NA","h","NA","NA","s","426","NA","23435","NA","NA","426","2","legacy","1024","2","48000","-16","experiment","HHSHH","2","even","27198","NA","NA","30061","3757","NA","NA","36940","3762","NA","NA","35798","37046","37473","36937","37046","New experiment","5","3251","6","yes","1024"
"85.7142857143","85.7142857143","517.285714286","517.285714286","black","legacy","legacy","legacy","0","incongruent","uniform","1","undefined","1","h","0","0","0","6","0","6","0","6","0","0","0","6","6","6","6","6","09/27/20 15:44:53","1500","Flanker Task","yes","flankertasksubmission.osexp","C:\Users\User\Desktop\Quant 2020 - Copy","no","mono","no","18","no","white","no","yes","768","legacy","6","6","C:/Users/User/Desktop/Quant 2020 - Copy/CP-subject-2.csv","legacy","Lentiform Loewenfeld","3.3.3","0","h","NA","h","NA","NA","h","370","NA","23435","NA","NA","370","2","legacy","1024","2","48000","-16","experiment","SSHSS","2","even","27198","NA","NA","30061","3757","NA","NA","38621","3762","NA","NA","37478","38727","39098","38618","38727","New experiment","6","3621","7","yes","1024"
"87.5","87.5","520.375","520.375","black","legacy","legacy","legacy","0","congruent","uniform","1","undefined","1","h","0","0","0","7","0","7","0","7","0","0","0","7","7","7","7","7","09/27/20 15:44:53","1500","Flanker Task","yes","flankertasksubmission.osexp","C:\Users\User\Desktop\Quant 2020 - Copy","no","mono","no","18","no","white","no","yes","768","legacy","7","7","C:/Users/User/Desktop/Quant 2020 - Copy/CP-subject-2.csv","legacy","Lentiform Loewenfeld","3.3.3","0","h","NA","h","NA","NA","h","542","NA","23435","NA","NA","542","2","legacy","1024","2","48000","-16","experiment","HHHHH","2","even","27198","NA","NA","30061","3757","NA","NA","40244","3762","NA","NA","39103","40350","40893","40241","40350","New experiment","7","4163","8","yes","1024"
"77.7777777778","77.7777777778","512.888888889","512.888888889","black","legacy","legacy","legacy","0","incongruent","uniform","0","undefined","0","h","0","0","0","8","0","8","0","8","0","0","0","8","8","8","8","8","09/27/20 15:44:53","1500","Flanker Task","yes","flankertasksubmission.osexp","C:\Users\User\Desktop\Quant 2020 - Copy","no","mono","no","18","no","white","no","yes","768","legacy","8","8","C:/Users/User/Desktop/Quant 2020 - Copy/CP-subject-2.csv","legacy","Lentiform Loewenfeld","3.3.3","0","s","NA","h","NA","NA","s","453","NA","23435","NA","NA","453","2","legacy","1024","2","48000","-16","experiment","SSHSS","2","even","27198","NA","NA","30061","3757","NA","NA","42043","3762","NA","NA","40898","42149","42603","42040","42148","New experiment","7","4616","9","yes","1024"
"80","80","505.8","505.8","black","legacy","legacy","legacy","0","incongruent","uniform","1","undefined","1","h","0","0","0","9","0","9","0","9","0","0","0","9","9","9","9","9","09/27/20 15:44:53","1500","Flanker Task","yes","flankertasksubmission.osexp","C:\Users\User\Desktop\Quant 2020 - Copy","no","mono","no","18","no","white","no","yes","768","legacy","9","9","C:/Users/User/Desktop/Quant 2020 - Copy/CP-subject-2.csv","legacy","Lentiform Loewenfeld","3.3.3","0","h","NA","h","NA","NA","h","442","NA","23435","NA","NA","442","2","legacy","1024","2","48000","-16","experiment","SSHSS","2","even","27198","NA","NA","42608","3757","NA","NA","44237","3762","NA","NA","43114","44343","44786","44234","44343","New experiment","8","5058","10","yes","1024"
"81.8181818182","81.8181818182","502.090909091","502.090909091","black","legacy","legacy","legacy","0","congruent","uniform","1","undefined","1","h","0","0","0","10","0","10","0","10","0","0","0","10","10","10","10","10","09/27/20 15:44:53","1500","Flanker Task","yes","flankertasksubmission.osexp","C:\Users\User\Desktop\Quant 2020 - Copy","no","mono","no","18","no","white","no","yes","768","legacy","10","10","C:/Users/User/Desktop/Quant 2020 - Copy/CP-subject-2.csv","legacy","Lentiform Loewenfeld","3.3.3","0","h","NA","h","NA","NA","h","465","NA","23435","NA","NA","465","2","legacy","1024","2","48000","-16","experiment","HHHHH","2","even","27198","NA","NA","42608","3757","NA","NA","45920","3762","NA","NA","44791","46026","46492","45917","46025","New experiment","9","5523","11","yes","1024"
"83.3333333333","83.3333333333","501","501","black","legacy","legacy","legacy","0","incongruent","uniform","1","undefined","1","s","0","0","0","11","0","11","0","11","0","0","0","11","11","11","11","11","09/27/20 15:44:53","1500","Flanker Task","yes","flankertasksubmission.osexp","C:\Users\User\Desktop\Quant 2020 - Copy","no","mono","no","18","no","white","no","yes","768","legacy","11","11","C:/Users/User/Desktop/Quant 2020 - Copy/CP-subject-2.csv","legacy","Lentiform Loewenfeld","3.3.3","0","s","NA","h","NA","NA","s","489","NA","23435","NA","NA","489","2","legacy","1024","2","48000","-16","experiment","HHSHH","2","even","27198","NA","NA","42608","3757","NA","NA","47625","3762","NA","NA","46498","47731","48220","47622","47730","New experiment","10","6012","12","yes","1024"
"84.6153846154","84.6153846154","506.076923077","506.076923077","black","legacy","legacy","legacy","0","incongruent","uniform","1","undefined","1","s","0","0","0","12","0","12","0","12","0","0","0","12","12","12","12","12","09/27/20 15:44:53","1500","Flanker Task","yes","flankertasksubmission.osexp","C:\Users\User\Desktop\Quant 2020 - Copy","no","mono","no","18","no","white","no","yes","768","legacy","12","12","C:/Users/User/Desktop/Quant 2020 - Copy/CP-subject-2.csv","legacy","Lentiform Loewenfeld","3.3.3","0","s","NA","h","NA","NA","s","567","NA","23435","NA","NA","567","2","legacy","1024","2","48000","-16","experiment","HHSHH","2","even","27198","NA","NA","42608","3757","NA","NA","49367","3762","NA","NA","48226","49473","50040","49364","49472","New experiment","11","6579","13","yes","1024"
"85.7142857143","85.7142857143","500.928571429","500.928571429","black","legacy","legacy","legacy","0","congruent","uniform","1","undefined","1","h","0","0","0","13","0","13","0","13","0","0","0","13","13","13","13","13","09/27/20 15:44:53","1500","Flanker Task","yes","flankertasksubmission.osexp","C:\Users\User\Desktop\Quant 2020 - Copy","no","mono","no","18","no","white","no","yes","768","legacy","13","13","C:/Users/User/Desktop/Quant 2020 - Copy/CP-subject-2.csv","legacy","Lentiform Loewenfeld","3.3.3","0","h","NA","h","NA","NA","h","434","NA","23435","NA","NA","434","2","legacy","1024","2","48000","-16","experiment","HHHHH","2","even","27198","NA","NA","42608","3757","NA","NA","51209","3762","NA","NA","50046","51316","51751","51206","51315","New experiment","12","7013","14","yes","1024"
"86.6666666667","86.6666666667","506.133333333","506.133333333","black","legacy","legacy","legacy","0","incongruent","uniform","1","undefined","1","h","0","0","0","14","0","14","0","14","0","0","0","14","14","14","14","14","09/27/20 15:44:53","1500","Flanker Task","yes","flankertasksubmission.osexp","C:\Users\User\Desktop\Quant 2020 - Copy","no","mono","no","18","no","white","no","yes","768","legacy","14","14","C:/Users/User/Desktop/Quant 2020 - Copy/CP-subject-2.csv","legacy","Lentiform Loewenfeld","3.3.3","0","h","NA","h","NA","NA","h","579","NA","23435","NA","NA","579","2","legacy","1024","2","48000","-16","experiment","SSHSS","2","even","27198","NA","NA","42608","3757","NA","NA","52900","3762","NA","NA","51756","53006","53586","52896","53005","New experiment","13","7592","15","yes","1024"
"87.5","87.5","504.875","504.875","black","legacy","legacy","legacy","0","congruent","uniform","1","undefined","1","s","0","0","0","15","0","15","0","15","0","0","0","15","15","15","15","15","09/27/20 15:44:53","1500","Flanker Task","yes","flankertasksubmission.osexp","C:\Users\User\Desktop\Quant 2020 - Copy","no","mono","no","18","no","white","no","yes","768","legacy","15","15","C:/Users/User/Desktop/Quant 2020 - Copy/CP-subject-2.csv","legacy","Lentiform Loewenfeld","3.3.3","0","s","NA","h","NA","NA","s","486","NA","23435","NA","NA","486","2","legacy","1024","2","48000","-16","experiment","SSSSS","2","even","27198","NA","NA","42608","3757","NA","NA","54750","3762","NA","NA","53591","54856","55342","54747","54855","New experiment","14","8078","16","yes","1024"
"88.2352941176","88.2352941176","504.705882353","504.705882353","black","legacy","legacy","legacy","0","incongruent","uniform","1","undefined","1","s","0","0","0","16","0","16","0","16","0","0","0","16","16","16","16","16","09/27/20 15:44:53","1500","Flanker Task","yes","flankertasksubmission.osexp","C:\Users\User\Desktop\Quant 2020 - Copy","no","mono","no","18","no","white","no","yes","768","legacy","16","16","C:/Users/User/Desktop/Quant 2020 - Copy/CP-subject-2.csv","legacy","Lentiform Loewenfeld","3.3.3","0","s","NA","h","NA","NA","s","502","NA","23435","NA","NA","502","2","legacy","1024","2","48000","-16","experiment","HHSHH","2","even","27198","NA","NA","42608","3757","NA","NA","56478","3762","NA","NA","55348","56584","57087","56474","56584","New experiment","15","8580","17","yes","1024"
"88.8888888889","88.8888888889","502.277777778","502.277777778","black","legacy","legacy","legacy","0","congruent","uniform","1","undefined","1","s","0","0","0","17","0","17","0","17","0","0","0","17","17","17","17","17","09/27/20 15:44:53","1500","Flanker Task","yes","flankertasksubmission.osexp","C:\Users\User\Desktop\Quant 2020 - Copy","no","mono","no","18","no","white","no","yes","768","legacy","17","17","C:/Users/User/Desktop/Quant 2020 - Copy/CP-subject-2.csv","legacy","Lentiform Loewenfeld","3.3.3","0","s","NA","h","NA","NA","s","461","NA","23435","NA","NA","461","2","legacy","1024","2","48000","-16","experiment","SSSSS","2","even","27198","NA","NA","42608","3757","NA","NA","58220","3762","NA","NA","57092","58326","58788","58217","58326","New experiment","16","9041","18","yes","1024"
"89.4736842105","89.4736842105","499.526315789","499.526315789","black","legacy","legacy","legacy","0","congruent","uniform","1","undefined","1","s","0","0","0","18","0","18","0","18","0","0","0","18","18","18","18","18","09/27/20 15:44:53","1500","Flanker Task","yes","flankertasksubmission.osexp","C:\Users\User\Desktop\Quant 2020 - Copy","no","mono","no","18","no","white","no","yes","768","legacy","18","18","C:/Users/User/Desktop/Quant 2020 - Copy/CP-subject-2.csv","legacy","Lentiform Loewenfeld","3.3.3","0","s","NA","h","NA","NA","s","450","NA","23435","NA","NA","450","2","legacy","1024","2","48000","-16","experiment","SSSSS","2","even","27198","NA","NA","42608","3757","NA","NA","59924","3762","NA","NA","58793","60030","60481","59921","60030","New experiment","17","9491","19","yes","1024"
"90","90","494.85","494.85","black","legacy","legacy","legacy","0","congruent","uniform","1","undefined","1","h","0","0","0","19","0","19","0","19","0","0","0","19","19","19","19","19","09/27/20 15:44:53","1500","Flanker Task","yes","flankertasksubmission.osexp","C:\Users\User\Desktop\Quant 2020 - Copy","no","mono","no","18","no","white","no","yes","768","legacy","19","19","C:/Users/User/Desktop/Quant 2020 - Copy/CP-subject-2.csv","legacy","Lentiform Loewenfeld","3.3.3","0","h","NA","h","NA","NA","h","406","NA","23435","NA","NA","406","2","legacy","1024","2","48000","-16","experiment","HHHHH","2","even","27198","NA","NA","42608","3757","NA","NA","61631","3762","NA","NA","60486","61737","62144","61628","61736","New experiment","18","9897","20","yes","1024"
"90.4761904762","90.4761904762","497.238095238","497.238095238","black","legacy","legacy","legacy","0","incongruent","uniform","1","undefined","1","s","0","0","0","20","0","20","0","20","0","0","0","20","20","20","20","20","09/27/20 15:44:53","1500","Flanker Task","yes","flankertasksubmission.osexp","C:\Users\User\Desktop\Quant 2020 - Copy","no","mono","no","18","no","white","no","yes","768","legacy","20","20","C:/Users/User/Desktop/Quant 2020 - Copy/CP-subject-2.csv","legacy","Lentiform Loewenfeld","3.3.3","0","s","NA","h","NA","NA","s","545","NA","23435","NA","NA","545","2","legacy","1024","2","48000","-16","experiment","HHSHH","2","even","27198","NA","NA","42608","3757","NA","NA","63282","3762","NA","NA","62149","63388","63933","63279","63387","New experiment","19","10442","21","yes","1024"
"90.9090909091","90.9090909091","493.954545455","493.954545455","black","legacy","legacy","legacy","0","incongruent","uniform","1","undefined","1","s","0","0","0","21","0","21","0","21","0","0","0","21","21","21","21","21","09/27/20 15:44:53","1500","Flanker Task","yes","flankertasksubmission.osexp","C:\Users\User\Desktop\Quant 2020 - Copy","no","mono","no","18","no","white","no","yes","768","legacy","21","21","C:/Users/User/Desktop/Quant 2020 - Copy/CP-subject-2.csv","legacy","Lentiform Loewenfeld","3.3.3","0","s","NA","h","NA","NA","s","425","NA","23435","NA","NA","425","2","legacy","1024","2","48000","-16","experiment","HHSHH","2","even","27198","NA","NA","42608","3757","NA","NA","65059","3762","NA","NA","63939","65165","65591","65057","65165","New experiment","20","10867","22","yes","1024"
"91.3043478261","91.3043478261","491.086956522","491.086956522","black","legacy","legacy","legacy","0","congruent","uniform","1","undefined","1","s","0","0","0","22","0","22","0","22","0","0","0","22","22","22","22","22","09/27/20 15:44:53","1500","Flanker Task","yes","flankertasksubmission.osexp","C:\Users\User\Desktop\Quant 2020 - Copy","no","mono","no","18","no","white","no","yes","768","legacy","22","22","C:/Users/User/Desktop/Quant 2020 - Copy/CP-subject-2.csv","legacy","Lentiform Loewenfeld","3.3.3","0","s","NA","h","NA","NA","s","428","NA","23435","NA","NA","428","2","legacy","1024","2","48000","-16","experiment","SSSSS","2","even","27198","NA","NA","42608","3757","NA","NA","66731","3762","NA","NA","65596","66837","67266","66727","66837","New experiment","21","11295","23","yes","1024"
"91.6666666667","91.6666666667","487.083333333","487.083333333","black","legacy","legacy","legacy","0","incongruent","uniform","1","undefined","1","h","0","0","0","23","0","23","0","23","0","0","0","23","23","23","23","23","09/27/20 15:44:53","1500","Flanker Task","yes","flankertasksubmission.osexp","C:\Users\User\Desktop\Quant 2020 - Copy","no","mono","no","18","no","white","no","yes","768","legacy","23","23","C:/Users/User/Desktop/Quant 2020 - Copy/CP-subject-2.csv","legacy","Lentiform Loewenfeld","3.3.3","0","h","NA","h","NA","NA","h","395","NA","23435","NA","NA","395","2","legacy","1024","2","48000","-16","experiment","SSHSS","2","even","27198","NA","NA","42608","3757","NA","NA","68433","3762","NA","NA","67276","68540","68936","68430","68539","New experiment","22","11690","24","yes","1024"
"92","92","485.4","485.4","black","legacy","legacy","legacy","0","congruent","uniform","1","undefined","1","h","0","0","0","24","0","24","0","24","0","0","0","24","24","24","24","24","09/27/20 15:44:53","1500","Flanker Task","yes","flankertasksubmission.osexp","C:\Users\User\Desktop\Quant 2020 - Copy","no","mono","no","18","no","white","no","yes","768","legacy","24","24","C:/Users/User/Desktop/Quant 2020 - Copy/CP-subject-2.csv","legacy","Lentiform Loewenfeld","3.3.3","0","h","NA","h","NA","NA","h","445","NA","23435","NA","NA","445","2","legacy","1024","2","48000","-16","experiment","HHHHH","2","even","27198","NA","NA","42608","3757","NA","NA","70073","3762","NA","NA","68941","70179","70625","70070","70179","New experiment","23","12135","25","yes","1024"
"92.3076923077","92.3076923077","481.423076923","481.423076923","black","legacy","legacy","legacy","0","incongruent","uniform","1","undefined","1","h","0","0","0","25","0","25","0","25","0","0","0","25","25","25","25","25","09/27/20 15:44:53","1500","Flanker Task","yes","flankertasksubmission.osexp","C:\Users\User\Desktop\Quant 2020 - Copy","no","mono","no","18","no","white","no","yes","768","legacy","25","25","C:/Users/User/Desktop/Quant 2020 - Copy/CP-subject-2.csv","legacy","Lentiform Loewenfeld","3.3.3","0","h","NA","h","NA","NA","h","382","NA","23435","NA","NA","382","2","legacy","1024","2","48000","-16","experiment","SSHSS","2","even","27198","NA","NA","42608","3757","NA","NA","71769","3762","NA","NA","70630","71875","72258","71766","71874","New experiment","24","12517","26","yes","1024"
"92.5925925926","92.5925925926","480.740740741","480.740740741","black","legacy","legacy","legacy","0","congruent","uniform","1","undefined","1","h","0","0","0","26","0","26","0","26","0","0","0","26","26","26","26","26","09/27/20 15:44:53","1500","Flanker Task","yes","flankertasksubmission.osexp","C:\Users\User\Desktop\Quant 2020 - Copy","no","mono","no","18","no","white","no","yes","768","legacy","26","26","C:/Users/User/Desktop/Quant 2020 - Copy/CP-subject-2.csv","legacy","Lentiform Loewenfeld","3.3.3","0","h","NA","h","NA","NA","h","463","NA","23435","NA","NA","463","2","legacy","1024","2","48000","-16","experiment","HHHHH","2","even","27198","NA","NA","42608","3757","NA","NA","73394","3762","NA","NA","72263","73500","73964","73391","73500","New experiment","25","12980","27","yes","1024"
"92.8571428571","92.8571428571","481.107142857","481.107142857","black","legacy","legacy","legacy","0","incongruent","uniform","1","undefined","1","h","0","0","0","27","0","27","0","27","0","0","0","27","27","27","27","27","09/27/20 15:44:53","1500","Flanker Task","yes","flankertasksubmission.osexp","C:\Users\User\Desktop\Quant 2020 - Copy","no","mono","no","18","no","white","no","yes","768","legacy","27","27","C:/Users/User/Desktop/Quant 2020 - Copy/CP-subject-2.csv","legacy","Lentiform Loewenfeld","3.3.3","0","h","NA","h","NA","NA","h","491","NA","23435","NA","NA","491","2","legacy","1024","2","48000","-16","experiment","SSHSS","2","even","27198","NA","NA","42608","3757","NA","NA","75105","3762","NA","NA","73969","75211","75703","75102","75211","New experiment","26","13471","28","yes","1024"
"93.1034482759","93.1034482759","479.620689655","479.620689655","black","legacy","legacy","legacy","0","congruent","uniform","1","undefined","1","h","0","0","0","28","0","28","0","28","0","0","0","28","28","28","28","28","09/27/20 15:44:53","1500","Flanker Task","yes","flankertasksubmission.osexp","C:\Users\User\Desktop\Quant 2020 - Copy","no","mono","no","18","no","white","no","yes","768","legacy","28","28","C:/Users/User/Desktop/Quant 2020 - Copy/CP-subject-2.csv","legacy","Lentiform Loewenfeld","3.3.3","0","h","NA","h","NA","NA","h","438","NA","23435","NA","NA","438","2","legacy","1024","2","48000","-16","experiment","HHHHH","2","even","27198","NA","NA","42608","3757","NA","NA","76858","3762","NA","NA","75709","76965","77404","76855","76964","New experiment","27","13909","29","yes","1024"
"93.3333333333","93.3333333333","478.166666667","478.166666667","black","legacy","legacy","legacy","0","congruent","uniform","1","undefined","1","h","0","0","0","29","0","29","0","29","0","0","0","29","29","29","29","29","09/27/20 15:44:53","1500","Flanker Task","yes","flankertasksubmission.osexp","C:\Users\User\Desktop\Quant 2020 - Copy","no","mono","no","18","no","white","no","yes","768","legacy","29","29","C:/Users/User/Desktop/Quant 2020 - Copy/CP-subject-2.csv","legacy","Lentiform Loewenfeld","3.3.3","0","h","NA","h","NA","NA","h","436","NA","23435","NA","NA","436","2","legacy","1024","2","48000","-16","experiment","HHHHH","2","even","27198","NA","NA","42608","3757","NA","NA","78554","3762","NA","NA","77409","78660","79097","78551","78659","New experiment","28","14345","30","yes","1024"
"93.5483870968","93.5483870968","479.225806452","479.225806452","black","legacy","legacy","legacy","0","incongruent","uniform","1","undefined","1","h","0","0","0","30","0","30","0","30","0","0","0","30","30","30","30","30","09/27/20 15:44:53","1500","Flanker Task","yes","flankertasksubmission.osexp","C:\Users\User\Desktop\Quant 2020 - Copy","no","mono","no","18","no","white","no","yes","768","legacy","30","30","C:/Users/User/Desktop/Quant 2020 - Copy/CP-subject-2.csv","legacy","Lentiform Loewenfeld","3.3.3","0","h","NA","h","NA","NA","h","511","NA","23435","NA","NA","511","2","legacy","1024","2","48000","-16","experiment","SSHSS","2","even","27198","NA","NA","42608","3757","NA","NA","80235","3762","NA","NA","79102","80341","80852","80232","80340","New experiment","29","14856","31","yes","1024"
"93.75","93.75","476.75","476.75","black","legacy","legacy","legacy","0","congruent","uniform","1","undefined","1","h","0","0","0","31","0","31","0","31","0","0","0","31","31","31","31","31","09/27/20 15:44:53","1500","Flanker Task","yes","flankertasksubmission.osexp","C:\Users\User\Desktop\Quant 2020 - Copy","no","mono","no","18","no","white","no","yes","768","legacy","31","31","C:/Users/User/Desktop/Quant 2020 - Copy/CP-subject-2.csv","legacy","Lentiform Loewenfeld","3.3.3","0","h","NA","h","NA","NA","h","400","NA","23435","NA","NA","400","2","legacy","1024","2","48000","-16","experiment","HHHHH","2","even","27198","NA","NA","42608","3757","NA","NA","81998","3762","NA","NA","80858","82104","82505","81995","82104","New experiment","30","15256","32","yes","1024"
"93.9393939394","93.9393939394","474.454545455","474.454545455","black","legacy","legacy","legacy","0","congruent","uniform","1","undefined","1","h","0","0","0","32","0","32","0","32","0","0","0","32","32","32","32","32","09/27/20 15:44:53","1500","Flanker Task","yes","flankertasksubmission.osexp","C:\Users\User\Desktop\Quant 2020 - Copy","no","mono","no","18","no","white","no","yes","768","legacy","32","32","C:/Users/User/Desktop/Quant 2020 - Copy/CP-subject-2.csv","legacy","Lentiform Loewenfeld","3.3.3","0","h","NA","h","NA","NA","h","401","NA","23435","NA","NA","401","2","legacy","1024","2","48000","-16","experiment","HHHHH","2","even","27198","NA","NA","42608","3757","NA","NA","83651","3762","NA","NA","82510","83757","84159","83647","83756","New experiment","31","15657","33","yes","1024"
"94.1176470588","94.1176470588","473.411764706","473.411764706","black","legacy","legacy","legacy","0","incongruent","uniform","1","undefined","1","h","0","0","0","33","0","33","0","33","0","0","0","33","33","33","33","33","09/27/20 15:44:53","1500","Flanker Task","yes","flankertasksubmission.osexp","C:\Users\User\Desktop\Quant 2020 - Copy","no","mono","no","18","no","white","no","yes","768","legacy","33","33","C:/Users/User/Desktop/Quant 2020 - Copy/CP-subject-2.csv","legacy","Lentiform Loewenfeld","3.3.3","0","h","NA","h","NA","NA","h","439","NA","23435","NA","NA","439","2","legacy","1024","2","48000","-16","experiment","SSHSS","2","even","27198","NA","NA","42608","3757","NA","NA","85302","3762","NA","NA","84164","85408","85848","85299","85408","New experiment","32","16096","34","yes","1024"
"94.2857142857","94.2857142857","476","476","black","legacy","legacy","legacy","0","congruent","uniform","1","undefined","1","s","0","0","0","34","0","34","0","34","0","0","0","34","34","34","34","34","09/27/20 15:44:53","1500","Flanker Task","yes","flankertasksubmission.osexp","C:\Users\User\Desktop\Quant 2020 - Copy","no","mono","no","18","no","white","no","yes","768","legacy","34","34","C:/Users/User/Desktop/Quant 2020 - Copy/CP-subject-2.csv","legacy","Lentiform Loewenfeld","3.3.3","0","s","NA","h","NA","NA","s","564","NA","23435","NA","NA","564","2","legacy","1024","2","48000","-16","experiment","SSSSS","2","even","27198","NA","NA","42608","3757","NA","NA","86984","3762","NA","NA","85855","87090","87655","86981","87090","New experiment","33","16660","35","yes","1024"
"94.4444444444","94.4444444444","476.111111111","476.111111111","black","legacy","legacy","legacy","0","congruent","uniform","1","undefined","1","s","0","0","0","35","0","35","0","35","0","0","0","35","35","35","35","35","09/27/20 15:44:53","1500","Flanker Task","yes","flankertasksubmission.osexp","C:\Users\User\Desktop\Quant 2020 - Copy","no","mono","no","18","no","white","no","yes","768","legacy","35","35","C:/Users/User/Desktop/Quant 2020 - Copy/CP-subject-2.csv","legacy","Lentiform Loewenfeld","3.3.3","0","s","NA","h","NA","NA","s","480","NA","23435","NA","NA","480","2","legacy","1024","2","48000","-16","experiment","SSSSS","2","even","27198","NA","NA","42608","3757","NA","NA","88789","3762","NA","NA","87660","88895","89376","88786","88895","New experiment","34","17140","36","yes","1024"
"94.5945945946","94.5945945946","473.810810811","473.810810811","black","legacy","legacy","legacy","0","incongruent","uniform","1","undefined","1","s","0","0","0","36","0","36","0","36","0","0","0","36","36","36","36","36","09/27/20 15:44:53","1500","Flanker Task","yes","flankertasksubmission.osexp","C:\Users\User\Desktop\Quant 2020 - Copy","no","mono","no","18","no","white","no","yes","768","legacy","36","36","C:/Users/User/Desktop/Quant 2020 - Copy/CP-subject-2.csv","legacy","Lentiform Loewenfeld","3.3.3","0","s","NA","h","NA","NA","s","391","NA","23435","NA","NA","391","2","legacy","1024","2","48000","-16","experiment","HHSHH","2","even","27198","NA","NA","42608","3757","NA","NA","90520","3762","NA","NA","89382","90626","91018","90517","90625","New experiment","35","17531","37","yes","1024"
"94.7368421053","94.7368421053","474.789473684","474.789473684","black","legacy","legacy","legacy","0","congruent","uniform","1","undefined","1","h","0","0","0","37","0","37","0","37","0","0","0","37","37","37","37","37","09/27/20 15:44:53","1500","Flanker Task","yes","flankertasksubmission.osexp","C:\Users\User\Desktop\Quant 2020 - Copy","no","mono","no","18","no","white","no","yes","768","legacy","37","37","C:/Users/User/Desktop/Quant 2020 - Copy/CP-subject-2.csv","legacy","Lentiform Loewenfeld","3.3.3","0","h","NA","h","NA","NA","h","511","NA","23435","NA","NA","511","2","legacy","1024","2","48000","-16","experiment","HHHHH","2","even","27198","NA","NA","42608","3757","NA","NA","92153","3762","NA","NA","91024","92259","92771","92150","92258","New experiment","36","18042","38","yes","1024"
"94.8717948718","94.8717948718","472.820512821","472.820512821","black","legacy","legacy","legacy","0","congruent","uniform","1","undefined","1","h","0","0","0","38","0","38","0","38","0","0","0","38","38","38","38","38","09/27/20 15:44:53","1500","Flanker Task","yes","flankertasksubmission.osexp","C:\Users\User\Desktop\Quant 2020 - Copy","no","mono","no","18","no","white","no","yes","768","legacy","38","38","C:/Users/User/Desktop/Quant 2020 - Copy/CP-subject-2.csv","legacy","Lentiform Loewenfeld","3.3.3","0","h","NA","h","NA","NA","h","398","NA","23435","NA","NA","398","2","legacy","1024","2","48000","-16","experiment","HHHHH","2","even","27198","NA","NA","42608","3757","NA","NA","93912","3762","NA","NA","92777","94018","94417","93908","94017","New experiment","37","18440","39","yes","1024"
"95","95","472.25","472.25","black","legacy","legacy","legacy","0","incongruent","uniform","1","undefined","1","s","0","0","0","39","0","39","0","39","0","0","0","39","39","39","39","39","09/27/20 15:44:53","1500","Flanker Task","yes","flankertasksubmission.osexp","C:\Users\User\Desktop\Quant 2020 - Copy","no","mono","no","18","no","white","no","yes","768","legacy","39","39","C:/Users/User/Desktop/Quant 2020 - Copy/CP-subject-2.csv","legacy","Lentiform Loewenfeld","3.3.3","0","s","NA","h","NA","NA","s","450","NA","23435","NA","NA","450","2","legacy","1024","2","48000","-16","experiment","HHSHH","2","even","27198","NA","NA","42608","3757","NA","NA","95543","3762","NA","NA","94422","95649","96099","95540","95649","New experiment","38","18890","40","yes","1024"
"95.1219512195","95.1219512195","474.658536585","474.658536585","black","legacy","legacy","legacy","0","incongruent","uniform","1","undefined","1","s","0","0","0","40","0","40","0","40","0","0","0","40","40","40","40","40","09/27/20 15:44:53","1500","Flanker Task","yes","flankertasksubmission.osexp","C:\Users\User\Desktop\Quant 2020 - Copy","no","mono","no","18","no","white","no","yes","768","legacy","40","40","C:/Users/User/Desktop/Quant 2020 - Copy/CP-subject-2.csv","legacy","Lentiform Loewenfeld","3.3.3","0","s","NA","h","NA","NA","s","571","NA","23435","NA","NA","571","2","legacy","1024","2","48000","-16","experiment","HHSHH","2","even","27198","NA","NA","42608","3757","NA","NA","97246","3762","NA","NA","96105","97352","97924","97242","97351","New experiment","39","19461","41","yes","1024"
"95.2380952381","95.2380952381","474.547619048","474.547619048","black","legacy","legacy","legacy","0","congruent","uniform","1","undefined","1","s","0","0","0","41","0","41","0","41","0","0","0","41","41","41","41","41","09/27/20 15:44:53","1500","Flanker Task","yes","flankertasksubmission.osexp","C:\Users\User\Desktop\Quant 2020 - Copy","no","mono","no","18","no","white","no","yes","768","legacy","41","41","C:/Users/User/Desktop/Quant 2020 - Copy/CP-subject-2.csv","legacy","Lentiform Loewenfeld","3.3.3","0","s","NA","h","NA","NA","s","470","NA","23435","NA","NA","470","2","legacy","1024","2","48000","-16","experiment","SSSSS","2","even","27198","NA","NA","42608","3757","NA","NA","99072","3762","NA","NA","97930","99178","99649","99069","99178","New experiment","40","19931","42","yes","1024"
"95.3488372093","95.3488372093","477.023255814","477.023255814","black","legacy","legacy","legacy","0","incongruent","uniform","1","undefined","1","h","0","0","0","42","0","42","0","42","0","0","0","42","42","42","42","42","09/27/20 15:44:53","1500","Flanker Task","yes","flankertasksubmission.osexp","C:\Users\User\Desktop\Quant 2020 - Copy","no","mono","no","18","no","white","no","yes","768","legacy","42","42","C:/Users/User/Desktop/Quant 2020 - Copy/CP-subject-2.csv","legacy","Lentiform Loewenfeld","3.3.3","0","h","NA","h","NA","NA","h","581","NA","23435","NA","NA","581","2","legacy","1024","2","48000","-16","experiment","SSHSS","2","even","27198","NA","NA","42608","3757","NA","NA","100785","3762","NA","NA","99654","100891","101473","100782","100891","New experiment","41","20512","43","yes","1024"
"95.4545454545","95.4545454545","482.295454545","482.295454545","black","legacy","legacy","legacy","0","incongruent","uniform","1","undefined","1","h","0","0","0","43","0","43","0","43","0","0","0","43","43","43","43","43","09/27/20 15:44:53","1500","Flanker Task","yes","flankertasksubmission.osexp","C:\Users\User\Desktop\Quant 2020 - Copy","no","mono","no","18","no","white","no","yes","768","legacy","43","43","C:/Users/User/Desktop/Quant 2020 - Copy/CP-subject-2.csv","legacy","Lentiform Loewenfeld","3.3.3","0","h","NA","h","NA","NA","h","709","NA","23435","NA","NA","709","2","legacy","1024","2","48000","-16","experiment","SSHSS","2","even","27198","NA","NA","42608","3757","NA","NA","102613","3762","NA","NA","101478","102719","103429","102610","102719","New experiment","42","21221","44","yes","1024"
"95.5555555556","95.5555555556","481.733333333","481.733333333","black","legacy","legacy","legacy","0","incongruent","uniform","1","undefined","1","h","0","0","0","44","0","44","0","44","0","0","0","44","44","44","44","44","09/27/20 15:44:53","1500","Flanker Task","yes","flankertasksubmission.osexp","C:\Users\User\Desktop\Quant 2020 - Copy","no","mono","no","18","no","white","no","yes","768","legacy","44","44","C:/Users/User/Desktop/Quant 2020 - Copy/CP-subject-2.csv","legacy","Lentiform Loewenfeld","3.3.3","0","h","NA","h","NA","NA","h","457","NA","23435","NA","NA","457","2","legacy","1024","2","48000","-16","experiment","SSHSS","2","even","27198","NA","NA","42608","3757","NA","NA","104569","3762","NA","NA","103434","104675","105133","104565","104675","New experiment","43","21678","45","yes","1024"
"95.652173913","95.652173913","482.5","482.5","black","legacy","legacy","legacy","0","incongruent","uniform","1","undefined","1","s","0","0","0","45","0","45","0","45","0","0","0","45","45","45","45","45","09/27/20 15:44:53","1500","Flanker Task","yes","flankertasksubmission.osexp","C:\Users\User\Desktop\Quant 2020 - Copy","no","mono","no","18","no","white","no","yes","768","legacy","45","45","C:/Users/User/Desktop/Quant 2020 - Copy/CP-subject-2.csv","legacy","Lentiform Loewenfeld","3.3.3","0","s","NA","h","NA","NA","s","517","NA","23435","NA","NA","517","2","legacy","1024","2","48000","-16","experiment","HHSHH","2","even","27198","NA","NA","42608","3757","NA","NA","106274","3762","NA","NA","105139","106380","106900","106270","106379","New experiment","44","22195","46","yes","1024"
"95.7446808511","95.7446808511","483.276595745","483.276595745","black","legacy","legacy","legacy","0","incongruent","uniform","1","undefined","1","s","0","0","0","46","0","46","0","46","0","0","0","46","46","46","46","46","09/27/20 15:44:53","1500","Flanker Task","yes","flankertasksubmission.osexp","C:\Users\User\Desktop\Quant 2020 - Copy","no","mono","no","18","no","white","no","yes","768","legacy","46","46","C:/Users/User/Desktop/Quant 2020 - Copy/CP-subject-2.csv","legacy","Lentiform Loewenfeld","3.3.3","0","s","NA","h","NA","NA","s","519","NA","23435","NA","NA","519","2","legacy","1024","2","48000","-16","experiment","HHSHH","2","even","27198","NA","NA","42608","3757","NA","NA","108041","3762","NA","NA","106905","108147","108668","108038","108146","New experiment","45","22714","47","yes","1024"
"95.8333333333","95.8333333333","484.520833333","484.520833333","black","legacy","legacy","legacy","0","incongruent","uniform","1","undefined","1","h","0","0","0","47","0","47","0","47","0","0","0","47","47","47","47","47","09/27/20 15:44:53","1500","Flanker Task","yes","flankertasksubmission.osexp","C:\Users\User\Desktop\Quant 2020 - Copy","no","mono","no","18","no","white","no","yes","768","legacy","47","47","C:/Users/User/Desktop/Quant 2020 - Copy/CP-subject-2.csv","legacy","Lentiform Loewenfeld","3.3.3","0","h","NA","h","NA","NA","h","543","NA","23435","NA","NA","543","2","legacy","1024","2","48000","-16","experiment","SSHSS","2","even","27198","NA","NA","42608","3757","NA","NA","109794","3762","NA","NA","108673","109900","110444","109791","109900","New experiment","46","23257","48","yes","1024"
"95.9183673469","95.9183673469","486.93877551","486.93877551","black","legacy","legacy","legacy","0","incongruent","uniform","1","undefined","1","s","0","0","0","48","0","48","0","48","0","0","0","48","48","48","48","48","09/27/20 15:44:53","1500","Flanker Task","yes","flankertasksubmission.osexp","C:\Users\User\Desktop\Quant 2020 - Copy","no","mono","no","18","no","white","no","yes","768","legacy","48","48","C:/Users/User/Desktop/Quant 2020 - Copy/CP-subject-2.csv","legacy","Lentiform Loewenfeld","3.3.3","0","s","NA","h","NA","NA","s","603","NA","23435","NA","NA","603","2","legacy","1024","2","48000","-16","experiment","HHSHH","2","even","27198","NA","NA","42608","3757","NA","NA","111585","3762","NA","NA","110449","111691","112295","111582","111691","New experiment","47","23860","49","yes","1024"
"96","96","486.92","486.92","black","legacy","legacy","legacy","0","congruent","uniform","1","undefined","1","s","0","0","0","49","0","49","0","49","0","0","0","49","49","49","49","49","09/27/20 15:44:53","1500","Flanker Task","yes","flankertasksubmission.osexp","C:\Users\User\Desktop\Quant 2020 - Copy","no","mono","no","18","no","white","no","yes","768","legacy","49","49","C:/Users/User/Desktop/Quant 2020 - Copy/CP-subject-2.csv","legacy","Lentiform Loewenfeld","3.3.3","0","s","NA","h","NA","NA","s","486","NA","23435","NA","NA","486","2","legacy","1024","2","48000","-16","experiment","SSSSS","2","even","27198","NA","NA","42608","3757","NA","NA","113420","3762","NA","NA","112300","113526","114014","113417","113526","New experiment","48","24346","50","yes","1024"
"96.0784313725","96.0784313725","486.411764706","486.411764706","black","legacy","legacy","legacy","0","congruent","uniform","1","undefined","1","s","0","0","0","50","0","50","0","50","0","0","0","50","50","50","50","50","09/27/20 15:44:53","1500","Flanker Task","yes","flankertasksubmission.osexp","C:\Users\User\Desktop\Quant 2020 - Copy","no","mono","no","18","no","white","no","yes","768","legacy","50","50","C:/Users/User/Desktop/Quant 2020 - Copy/CP-subject-2.csv","legacy","Lentiform Loewenfeld","3.3.3","0","s","NA","h","NA","NA","s","461","NA","23435","NA","NA","461","2","legacy","1024","2","48000","-16","experiment","SSSSS","2","even","27198","NA","NA","42608","3757","NA","NA","115153","3762","NA","NA","114019","115259","115721","115149","115258","New experiment","49","24807","51","yes","1024"
"96.1538461538","96.1538461538","487.557692308","487.557692308","black","legacy","legacy","legacy","0","incongruent","uniform","1","undefined","1","h","0","0","0","51","0","51","0","51","0","0","0","51","51","51","51","51","09/27/20 15:44:53","1500","Flanker Task","yes","flankertasksubmission.osexp","C:\Users\User\Desktop\Quant 2020 - Copy","no","mono","no","18","no","white","no","yes","768","legacy","51","51","C:/Users/User/Desktop/Quant 2020 - Copy/CP-subject-2.csv","legacy","Lentiform Loewenfeld","3.3.3","0","h","NA","h","NA","NA","h","546","NA","23435","NA","NA","546","2","legacy","1024","2","48000","-16","experiment","SSHSS","2","even","27198","NA","NA","42608","3757","NA","NA","116862","3762","NA","NA","115727","116968","117516","116859","116968","New experiment","50","25353","52","yes","1024"
"96.2264150943","96.2264150943","488.905660377","488.905660377","black","legacy","legacy","legacy","0","incongruent","uniform","1","undefined","1","h","0","0","0","52","0","52","0","52","0","0","0","52","52","52","52","52","09/27/20 15:44:53","1500","Flanker Task","yes","flankertasksubmission.osexp","C:\Users\User\Desktop\Quant 2020 - Copy","no","mono","no","18","no","white","no","yes","768","legacy","52","52","C:/Users/User/Desktop/Quant 2020 - Copy/CP-subject-2.csv","legacy","Lentiform Loewenfeld","3.3.3","0","h","NA","h","NA","NA","h","559","NA","23435","NA","NA","559","2","legacy","1024","2","48000","-16","experiment","SSHSS","2","even","27198","NA","NA","42608","3757","NA","NA","118662","3762","NA","NA","117521","118768","119329","118659","118767","New experiment","51","25912","53","yes","1024"
"96.2962962963","96.2962962963","489.518518519","489.518518519","black","legacy","legacy","legacy","0","incongruent","uniform","1","undefined","1","s","0","0","0","53","0","53","0","53","0","0","0","53","53","53","53","53","09/27/20 15:44:53","1500","Flanker Task","yes","flankertasksubmission.osexp","C:\Users\User\Desktop\Quant 2020 - Copy","no","mono","no","18","no","white","no","yes","768","legacy","53","53","C:/Users/User/Desktop/Quant 2020 - Copy/CP-subject-2.csv","legacy","Lentiform Loewenfeld","3.3.3","0","s","NA","h","NA","NA","s","522","NA","23435","NA","NA","522","2","legacy","1024","2","48000","-16","experiment","HHSHH","2","even","27198","NA","NA","42608","3757","NA","NA","120466","3762","NA","NA","119334","120572","121097","120463","120572","New experiment","52","26434","54","yes","1024"
"96.3636363636","96.3636363636","492.327272727","492.327272727","black","legacy","legacy","legacy","0","incongruent","uniform","1","undefined","1","s","0","0","0","54","0","54","0","54","0","0","0","54","54","54","54","54","09/27/20 15:44:53","1500","Flanker Task","yes","flankertasksubmission.osexp","C:\Users\User\Desktop\Quant 2020 - Copy","no","mono","no","18","no","white","no","yes","768","legacy","54","54","C:/Users/User/Desktop/Quant 2020 - Copy/CP-subject-2.csv","legacy","Lentiform Loewenfeld","3.3.3","0","s","NA","h","NA","NA","s","644","NA","23435","NA","NA","644","2","legacy","1024","2","48000","-16","experiment","HHSHH","2","even","27198","NA","NA","42608","3757","NA","NA","122238","3762","NA","NA","121108","122344","122989","122235","122343","New experiment","53","27078","55","yes","1024"
"96.4285714286","96.4285714286","495.660714286","495.660714286","black","legacy","legacy","legacy","0","congruent","uniform","1","undefined","1","h","0","0","0","55","0","55","0","55","0","0","0","55","55","55","55","55","09/27/20 15:44:53","1500","Flanker Task","yes","flankertasksubmission.osexp","C:\Users\User\Desktop\Quant 2020 - Copy","no","mono","no","18","no","white","no","yes","768","legacy","55","55","C:/Users/User/Desktop/Quant 2020 - Copy/CP-subject-2.csv","legacy","Lentiform Loewenfeld","3.3.3","0","h","NA","h","NA","NA","h","679","NA","23435","NA","NA","679","2","legacy","1024","2","48000","-16","experiment","HHHHH","2","even","27198","NA","NA","42608","3757","NA","NA","124129","3762","NA","NA","122994","124235","124915","124126","124234","New experiment","54","27757","56","yes","1024"
"96.4912280702","96.4912280702","495.736842105","495.736842105","black","legacy","legacy","legacy","0","congruent","uniform","1","undefined","1","h","0","0","0","56","0","56","0","56","0","0","0","56","56","56","56","56","09/27/20 15:44:53","1500","Flanker Task","yes","flankertasksubmission.osexp","C:\Users\User\Desktop\Quant 2020 - Copy","no","mono","no","18","no","white","no","yes","768","legacy","56","56","C:/Users/User/Desktop/Quant 2020 - Copy/CP-subject-2.csv","legacy","Lentiform Loewenfeld","3.3.3","0","h","NA","h","NA","NA","h","500","NA","23435","NA","NA","500","2","legacy","1024","2","48000","-16","experiment","HHHHH","2","even","27198","NA","NA","42608","3757","NA","NA","126046","3762","NA","NA","124921","126152","126653","126043","126151","New experiment","55","28257","57","yes","1024"
"96.5517241379","96.5517241379","496.431034483","496.431034483","black","legacy","legacy","legacy","0","incongruent","uniform","1","undefined","1","h","0","0","0","57","0","57","0","57","0","0","0","57","57","57","57","57","09/27/20 15:44:53","1500","Flanker Task","yes","flankertasksubmission.osexp","C:\Users\User\Desktop\Quant 2020 - Copy","no","mono","no","18","no","white","no","yes","768","legacy","57","57","C:/Users/User/Desktop/Quant 2020 - Copy/CP-subject-2.csv","legacy","Lentiform Loewenfeld","3.3.3","0","h","NA","h","NA","NA","h","536","NA","23435","NA","NA","536","2","legacy","1024","2","48000","-16","experiment","SSHSS","2","even","27198","NA","NA","42608","3757","NA","NA","127803","3762","NA","NA","126659","127909","128446","127800","127909","New experiment","56","28793","58","yes","1024"
"96.6101694915","96.6101694915","496.983050847","496.983050847","black","legacy","legacy","legacy","0","incongruent","uniform","1","undefined","1","s","0","0","0","58","0","58","0","58","0","0","0","58","58","58","58","58","09/27/20 15:44:53","1500","Flanker Task","yes","flankertasksubmission.osexp","C:\Users\User\Desktop\Quant 2020 - Copy","no","mono","no","18","no","white","no","yes","768","legacy","58","58","C:/Users/User/Desktop/Quant 2020 - Copy/CP-subject-2.csv","legacy","Lentiform Loewenfeld","3.3.3","0","s","NA","h","NA","NA","s","529","NA","23435","NA","NA","529","2","legacy","1024","2","48000","-16","experiment","HHSHH","2","even","27198","NA","NA","42608","3757","NA","NA","129586","3762","NA","NA","128451","129692","130222","129583","129692","New experiment","57","29322","59","yes","1024"
"96.6666666667","96.6666666667","497.083333333","497.083333333","black","legacy","legacy","legacy","0","congruent","uniform","1","undefined","1","s","0","0","0","59","0","59","0","59","0","0","0","59","59","59","59","59","09/27/20 15:44:53","1500","Flanker Task","yes","flankertasksubmission.osexp","C:\Users\User\Desktop\Quant 2020 - Copy","no","mono","no","18","no","white","no","yes","768","legacy","59","59","C:/Users/User/Desktop/Quant 2020 - Copy/CP-subject-2.csv","legacy","Lentiform Loewenfeld","3.3.3","0","s","NA","h","NA","NA","s","503","NA","23435","NA","NA","503","2","legacy","1024","2","48000","-16","experiment","SSSSS","2","even","27198","NA","NA","42608","3757","NA","NA","131357","3762","NA","NA","130228","131463","131967","131353","131462","New experiment","58","29825","60","yes","1024"
"96.7213114754","96.7213114754","498.754098361","498.754098361","black","legacy","legacy","legacy","0","congruent","uniform","1","undefined","1","s","0","0","0","60","0","60","0","60","0","0","0","60","60","60","60","60","09/27/20 15:44:53","1500","Flanker Task","yes","flankertasksubmission.osexp","C:\Users\User\Desktop\Quant 2020 - Copy","no","mono","no","18","no","white","no","yes","768","legacy","60","60","C:/Users/User/Desktop/Quant 2020 - Copy/CP-subject-2.csv","legacy","Lentiform Loewenfeld","3.3.3","0","s","NA","h","NA","NA","s","599","NA","23435","NA","NA","599","2","legacy","1024","2","48000","-16","experiment","SSSSS","2","even","27198","NA","NA","42608","3757","NA","NA","133099","3762","NA","NA","131973","133205","133805","133096","133204","New experiment","59","30424","61","yes","1024"
"96.7741935484","96.7741935484","498.564516129","498.564516129","black","legacy","legacy","legacy","0","congruent","uniform","1","undefined","1","s","0","0","0","61","0","61","0","61","0","0","0","61","61","61","61","61","09/27/20 15:44:53","1500","Flanker Task","yes","flankertasksubmission.osexp","C:\Users\User\Desktop\Quant 2020 - Copy","no","mono","no","18","no","white","no","yes","768","legacy","61","61","C:/Users/User/Desktop/Quant 2020 - Copy/CP-subject-2.csv","legacy","Lentiform Loewenfeld","3.3.3","0","s","NA","h","NA","NA","s","487","NA","23435","NA","NA","487","2","legacy","1024","2","48000","-16","experiment","SSSSS","2","even","27198","NA","NA","42608","3757","NA","NA","134949","3762","NA","NA","133811","135055","135543","134946","135054","New experiment","60","30911","62","yes","1024"
"96.8253968254","96.8253968254","498.53968254","498.53968254","black","legacy","legacy","legacy","0","incongruent","uniform","1","undefined","1","s","0","0","0","62","0","62","0","62","0","0","0","62","62","62","62","62","09/27/20 15:44:53","1500","Flanker Task","yes","flankertasksubmission.osexp","C:\Users\User\Desktop\Quant 2020 - Copy","no","mono","no","18","no","white","no","yes","768","legacy","62","62","C:/Users/User/Desktop/Quant 2020 - Copy/CP-subject-2.csv","legacy","Lentiform Loewenfeld","3.3.3","0","s","NA","h","NA","NA","s","497","NA","23435","NA","NA","497","2","legacy","1024","2","48000","-16","experiment","HHSHH","2","even","27198","NA","NA","42608","3757","NA","NA","136691","3762","NA","NA","135548","136797","137295","136688","136797","New experiment","61","31408","63","yes","1024"
"96.875","96.875","497.765625","497.765625","black","legacy","legacy","legacy","0","congruent","uniform","1","undefined","1","s","0","0","0","63","0","63","0","63","0","0","0","63","63","63","63","63","09/27/20 15:44:53","1500","Flanker Task","yes","flankertasksubmission.osexp","C:\Users\User\Desktop\Quant 2020 - Copy","no","mono","no","18","no","white","no","yes","768","legacy","63","63","C:/Users/User/Desktop/Quant 2020 - Copy/CP-subject-2.csv","legacy","Lentiform Loewenfeld","3.3.3","0","s","NA","h","NA","NA","s","449","NA","23435","NA","NA","449","2","legacy","1024","2","48000","-16","experiment","SSSSS","2","even","27198","NA","NA","42608","3757","NA","NA","138436","3762","NA","NA","137301","138542","138993","138433","138542","New experiment","62","31857","64","yes","1024"
"96.9230769231","96.9230769231","496.538461538","496.538461538","black","legacy","legacy","legacy","0","congruent","uniform","1","undefined","1","s","0","0","0","64","0","64","0","64","0","0","0","64","64","64","64","64","09/27/20 15:44:53","1500","Flanker Task","yes","flankertasksubmission.osexp","C:\Users\User\Desktop\Quant 2020 - Copy","no","mono","no","18","no","white","no","yes","768","legacy","64","64","C:/Users/User/Desktop/Quant 2020 - Copy/CP-subject-2.csv","legacy","Lentiform Loewenfeld","3.3.3","0","s","NA","h","NA","NA","s","418","NA","23435","NA","NA","418","2","legacy","1024","2","48000","-16","experiment","SSSSS","2","even","27198","NA","NA","42608","3757","NA","NA","140139","3762","NA","NA","138998","140245","140664","140136","140244","New experiment","63","32275","65","yes","1024"
"96.9696969697","96.9696969697","495.227272727","495.227272727","black","legacy","legacy","legacy","0","congruent","uniform","1","undefined","1","s","0","0","0","65","0","65","0","65","0","0","0","65","65","65","65","65","09/27/20 15:44:53","1500","Flanker Task","yes","flankertasksubmission.osexp","C:\Users\User\Desktop\Quant 2020 - Copy","no","mono","no","18","no","white","no","yes","768","legacy","65","65","C:/Users/User/Desktop/Quant 2020 - Copy/CP-subject-2.csv","legacy","Lentiform Loewenfeld","3.3.3","0","s","NA","h","NA","NA","s","410","NA","23435","NA","NA","410","2","legacy","1024","2","48000","-16","experiment","SSSSS","2","even","27198","NA","NA","42608","3757","NA","NA","141798","3762","NA","NA","140669","141904","142316","141795","141903","New experiment","64","32685","66","yes","1024"
"97.0149253731","97.0149253731","494.447761194","494.447761194","black","legacy","legacy","legacy","0","congruent","uniform","1","undefined","1","h","0","0","0","66","0","66","0","66","0","0","0","66","66","66","66","66","09/27/20 15:44:53","1500","Flanker Task","yes","flankertasksubmission.osexp","C:\Users\User\Desktop\Quant 2020 - Copy","no","mono","no","18","no","white","no","yes","768","legacy","66","66","C:/Users/User/Desktop/Quant 2020 - Copy/CP-subject-2.csv","legacy","Lentiform Loewenfeld","3.3.3","0","h","NA","h","NA","NA","h","443","NA","23435","NA","NA","443","2","legacy","1024","2","48000","-16","experiment","HHHHH","2","even","27198","NA","NA","42608","3757","NA","NA","143448","3762","NA","NA","142321","143554","143998","143445","143553","New experiment","65","33128","67","yes","1024"
"97.0588235294","97.0588235294","494.161764706","494.161764706","black","legacy","legacy","legacy","0","congruent","uniform","1","undefined","1","s","0","0","0","67","0","67","0","67","0","0","0","67","67","67","67","67","09/27/20 15:44:53","1500","Flanker Task","yes","flankertasksubmission.osexp","C:\Users\User\Desktop\Quant 2020 - Copy","no","mono","no","18","no","white","no","yes","768","legacy","67","67","C:/Users/User/Desktop/Quant 2020 - Copy/CP-subject-2.csv","legacy","Lentiform Loewenfeld","3.3.3","0","s","NA","h","NA","NA","s","475","NA","23435","NA","NA","475","2","legacy","1024","2","48000","-16","experiment","SSSSS","2","even","27198","NA","NA","42608","3757","NA","NA","145128","3762","NA","NA","144004","145234","145710","145125","145233","New experiment","66","33603","68","yes","1024"
"97.1014492754","97.1014492754","493.101449275","493.101449275","black","legacy","legacy","legacy","0","congruent","uniform","1","undefined","1","s","0","0","0","68","0","68","0","68","0","0","0","68","68","68","68","68","09/27/20 15:44:53","1500","Flanker Task","yes","flankertasksubmission.osexp","C:\Users\User\Desktop\Quant 2020 - Copy","no","mono","no","18","no","white","no","yes","768","legacy","68","68","C:/Users/User/Desktop/Quant 2020 - Copy/CP-subject-2.csv","legacy","Lentiform Loewenfeld","3.3.3","0","s","NA","h","NA","NA","s","421","NA","23435","NA","NA","421","2","legacy","1024","2","48000","-16","experiment","SSSSS","2","even","27198","NA","NA","42608","3757","NA","NA","146857","3762","NA","NA","145715","146963","147385","146854","146962","New experiment","67","34024","69","yes","1024"
"97.1428571429","97.1428571429","493.357142857","493.357142857","black","legacy","legacy","legacy","0","congruent","uniform","1","undefined","1","h","0","0","0","69","0","69","0","69","0","0","0","69","69","69","69","69","09/27/20 15:44:53","1500","Flanker Task","yes","flankertasksubmission.osexp","C:\Users\User\Desktop\Quant 2020 - Copy","no","mono","no","18","no","white","no","yes","768","legacy","69","69","C:/Users/User/Desktop/Quant 2020 - Copy/CP-subject-2.csv","legacy","Lentiform Loewenfeld","3.3.3","0","h","NA","h","NA","NA","h","511","NA","23435","NA","NA","511","2","legacy","1024","2","48000","-16","experiment","HHHHH","2","even","27198","NA","NA","42608","3757","NA","NA","148518","3762","NA","NA","147391","148624","149137","148515","148624","New experiment","68","34535","70","yes","1024"
"97.1830985915","97.1830985915","492.915492958","492.915492958","black","legacy","legacy","legacy","0","congruent","uniform","1","undefined","1","s","0","0","0","70","0","70","0","70","0","0","0","70","70","70","70","70","09/27/20 15:44:53","1500","Flanker Task","yes","flankertasksubmission.osexp","C:\Users\User\Desktop\Quant 2020 - Copy","no","mono","no","18","no","white","no","yes","768","legacy","70","70","C:/Users/User/Desktop/Quant 2020 - Copy/CP-subject-2.csv","legacy","Lentiform Loewenfeld","3.3.3","0","s","NA","h","NA","NA","s","462","NA","23435","NA","NA","462","2","legacy","1024","2","48000","-16","experiment","SSSSS","2","even","27198","NA","NA","42608","3757","NA","NA","150265","3762","NA","NA","149142","150371","150834","150261","150371","New experiment","69","34997","71","yes","1024"
"97.2222222222","97.2222222222","493.541666667","493.541666667","black","legacy","legacy","legacy","0","congruent","uniform","1","undefined","1","h","0","0","0","71","0","71","0","71","0","0","0","71","71","71","71","71","09/27/20 15:44:53","1500","Flanker Task","yes","flankertasksubmission.osexp","C:\Users\User\Desktop\Quant 2020 - Copy","no","mono","no","18","no","white","no","yes","768","legacy","71","71","C:/Users/User/Desktop/Quant 2020 - Copy/CP-subject-2.csv","legacy","Lentiform Loewenfeld","3.3.3","0","h","NA","h","NA","NA","h","538","NA","23435","NA","NA","538","2","legacy","1024","2","48000","-16","experiment","HHHHH","2","even","27198","NA","NA","42608","3757","NA","NA","151967","3762","NA","NA","150840","152073","152613","151964","152072","New experiment","70","35535","72","yes","1024"
"97.2602739726","97.2602739726","493.369863014","493.369863014","black","legacy","legacy","legacy","0","congruent","uniform","1","undefined","1","h","0","0","0","72","0","72","0","72","0","0","0","72","72","72","72","72","09/27/20 15:44:53","1500","Flanker Task","yes","flankertasksubmission.osexp","C:\Users\User\Desktop\Quant 2020 - Copy","no","mono","no","18","no","white","no","yes","768","legacy","72","72","C:/Users/User/Desktop/Quant 2020 - Copy/CP-subject-2.csv","legacy","Lentiform Loewenfeld","3.3.3","0","h","NA","h","NA","NA","h","481","NA","23435","NA","NA","481","2","legacy","1024","2","48000","-16","experiment","HHHHH","2","even","27198","NA","NA","42608","3757","NA","NA","153783","3762","NA","NA","152618","153889","154372","153780","153889","New experiment","71","36016","73","yes","1024"
"97.2972972973","97.2972972973","492.756756757","492.756756757","black","legacy","legacy","legacy","0","incongruent","uniform","1","undefined","1","h","0","0","0","73","0","73","0","73","0","0","0","73","73","73","73","73","09/27/20 15:44:53","1500","Flanker Task","yes","flankertasksubmission.osexp","C:\Users\User\Desktop\Quant 2020 - Copy","no","mono","no","18","no","white","no","yes","768","legacy","73","73","C:/Users/User/Desktop/Quant 2020 - Copy/CP-subject-2.csv","legacy","Lentiform Loewenfeld","3.3.3","0","h","NA","h","NA","NA","h","448","NA","23435","NA","NA","448","2","legacy","1024","2","48000","-16","experiment","SSHSS","2","even","27198","NA","NA","42608","3757","NA","NA","155507","3762","NA","NA","154377","155613","156063","155504","155612","New experiment","72","36464","74","yes","1024"
"97.3333333333","97.3333333333","493.4","493.4","black","legacy","legacy","legacy","0","incongruent","uniform","1","undefined","1","s","0","0","0","74","0","74","0","74","0","0","0","74","74","74","74","74","09/27/20 15:44:53","1500","Flanker Task","yes","flankertasksubmission.osexp","C:\Users\User\Desktop\Quant 2020 - Copy","no","mono","no","18","no","white","no","yes","768","legacy","74","74","C:/Users/User/Desktop/Quant 2020 - Copy/CP-subject-2.csv","legacy","Lentiform Loewenfeld","3.3.3","0","s","NA","h","NA","NA","s","541","NA","23435","NA","NA","541","2","legacy","1024","2","48000","-16","experiment","HHSHH","2","even","27198","NA","NA","42608","3757","NA","NA","157213","3762","NA","NA","156068","157319","157861","157210","157319","New experiment","73","37005","75","yes","1024"
"97.3684210526","97.3684210526","492.815789474","492.815789474","black","legacy","legacy","legacy","0","congruent","uniform","1","undefined","1","s","0","0","0","75","0","75","0","75","0","0","0","75","75","75","75","75","09/27/20 15:44:53","1500","Flanker Task","yes","flankertasksubmission.osexp","C:\Users\User\Desktop\Quant 2020 - Copy","no","mono","no","18","no","white","no","yes","768","legacy","75","75","C:/Users/User/Desktop/Quant 2020 - Copy/CP-subject-2.csv","legacy","Lentiform Loewenfeld","3.3.3","0","s","NA","h","NA","NA","s","449","NA","23435","NA","NA","449","2","legacy","1024","2","48000","-16","experiment","SSSSS","2","even","27198","NA","NA","42608","3757","NA","NA","159012","3762","NA","NA","157868","159118","159569","159009","159117","New experiment","74","37454","76","yes","1024"
"97.4025974026","97.4025974026","493.337662338","493.337662338","black","legacy","legacy","legacy","0","incongruent","uniform","1","undefined","1","s","0","0","0","76","0","76","0","76","0","0","0","76","76","76","76","76","09/27/20 15:44:53","1500","Flanker Task","yes","flankertasksubmission.osexp","C:\Users\User\Desktop\Quant 2020 - Copy","no","mono","no","18","no","white","no","yes","768","legacy","76","76","C:/Users/User/Desktop/Quant 2020 - Copy/CP-subject-2.csv","legacy","Lentiform Loewenfeld","3.3.3","0","s","NA","h","NA","NA","s","533","NA","23435","NA","NA","533","2","legacy","1024","2","48000","-16","experiment","HHSHH","2","even","27198","NA","NA","42608","3757","NA","NA","160718","3762","NA","NA","159574","160824","161359","160715","160824","New experiment","75","37987","77","yes","1024"
"97.4358974359","97.4358974359","492.448717949","492.448717949","black","legacy","legacy","legacy","0","congruent","uniform","1","undefined","1","s","0","0","0","77","0","77","0","77","0","0","0","77","77","77","77","77","09/27/20 15:44:53","1500","Flanker Task","yes","flankertasksubmission.osexp","C:\Users\User\Desktop\Quant 2020 - Copy","no","mono","no","18","no","white","no","yes","768","legacy","77","77","C:/Users/User/Desktop/Quant 2020 - Copy/CP-subject-2.csv","legacy","Lentiform Loewenfeld","3.3.3","0","s","NA","h","NA","NA","s","424","NA","23435","NA","NA","424","2","legacy","1024","2","48000","-16","experiment","SSSSS","2","even","27198","NA","NA","42608","3757","NA","NA","162495","3762","NA","NA","161364","162601","163026","162492","162601","New experiment","76","38411","78","yes","1024"
"97.4683544304","97.4683544304","492.493670886","492.493670886","black","legacy","legacy","legacy","0","incongruent","uniform","1","undefined","1","s","0","0","0","78","0","78","0","78","0","0","0","78","78","78","78","78","09/27/20 15:44:53","1500","Flanker Task","yes","flankertasksubmission.osexp","C:\Users\User\Desktop\Quant 2020 - Copy","no","mono","no","18","no","white","no","yes","768","legacy","78","78","C:/Users/User/Desktop/Quant 2020 - Copy/CP-subject-2.csv","legacy","Lentiform Loewenfeld","3.3.3","0","s","NA","h","NA","NA","s","496","NA","23435","NA","NA","496","2","legacy","1024","2","48000","-16","experiment","HHSHH","2","even","27198","NA","NA","42608","3757","NA","NA","164191","3762","NA","NA","163032","164297","164794","164188","164296","New experiment","77","38907","79","yes","1024"
"97.5","97.5","491.3875","491.3875","black","legacy","legacy","legacy","0","congruent","uniform","1","undefined","1","h","0","0","0","79","0","79","0","79","0","0","0","79","79","79","79","79","09/27/20 15:44:53","1500","Flanker Task","yes","flankertasksubmission.osexp","C:\Users\User\Desktop\Quant 2020 - Copy","no","mono","no","18","no","white","no","yes","768","legacy","79","79","C:/Users/User/Desktop/Quant 2020 - Copy/CP-subject-2.csv","legacy","Lentiform Loewenfeld","3.3.3","0","h","NA","h","NA","NA","h","404","NA","23435","NA","NA","404","2","legacy","1024","2","48000","-16","experiment","HHHHH","2","even","27198","NA","NA","42608","3757","NA","NA","165920","3762","NA","NA","164800","166026","166431","165917","166025","New experiment","78","39311","80","yes","1024"
"97.5308641975","97.5308641975","492.679012346","492.679012346","black","legacy","legacy","legacy","0","incongruent","uniform","1","undefined","1","h","0","0","0","80","0","80","0","80","0","0","0","80","80","80","80","80","09/27/20 15:44:53","600","Flanker Task","yes","flankertasksubmission.osexp","C:\Users\User\Desktop\Quant 2020 - Copy","no","mono","no","18","no","white","no","yes","768","legacy","0","79","C:/Users/User/Desktop/Quant 2020 - Copy/CP-subject-2.csv","legacy","Lentiform Loewenfeld","3.3.3","0","h","NA","h","s","NA","h","596","NA","23435","42596","NA","596","2","legacy","1024","2","48000","-16","experiment","SSHSS","2","even","27198","210071","NA","42608","3757","NA","NA","210202","3762","167474","NA","166436","210309","210906","210200","210308","New experiment","79","39907","81","yes","1024"
"97.5609756098","97.5609756098","491.43902439","491.43902439","black","legacy","legacy","legacy","0","incongruent","uniform","1","undefined","1","h","0","0","0","81","0","81","0","81","0","0","0","81","81","81","81","81","09/27/20 15:44:53","600","Flanker Task","yes","flankertasksubmission.osexp","C:\Users\User\Desktop\Quant 2020 - Copy","no","mono","no","18","no","white","no","yes","768","legacy","1","79","C:/Users/User/Desktop/Quant 2020 - Copy/CP-subject-2.csv","legacy","Lentiform Loewenfeld","3.3.3","0","h","NA","h","s","NA","h","391","NA","23435","42596","NA","391","2","legacy","1024","2","48000","-16","experiment","SSHSS","2","even","27198","210071","NA","42608","3757","NA","NA","212057","3762","167474","NA","210912","212163","212555","212054","212162","New experiment","80","40298","82","yes","1024"
"97.5903614458","97.5903614458","489.951807229","489.951807229","black","legacy","legacy","legacy","0","incongruent","uniform","1","undefined","1","s","0","0","0","82","0","82","0","82","0","0","0","82","82","82","82","82","09/27/20 15:44:53","600","Flanker Task","yes","flankertasksubmission.osexp","C:\Users\User\Desktop\Quant 2020 - Copy","no","mono","no","18","no","white","no","yes","768","legacy","2","79","C:/Users/User/Desktop/Quant 2020 - Copy/CP-subject-2.csv","legacy","Lentiform Loewenfeld","3.3.3","0","s","NA","h","s","NA","s","368","NA","23435","42596","NA","368","2","legacy","1024","2","48000","-16","experiment","HHSHH","2","even","27198","210071","NA","42608","3757","NA","NA","213700","3762","167474","NA","212561","213806","214176","213697","213805","New experiment","81","40666","83","yes","1024"
"97.619047619","97.619047619","488.880952381","488.880952381","black","legacy","legacy","legacy","0","congruent","uniform","1","undefined","1","s","0","0","0","83","0","83","0","83","0","0","0","83","83","83","83","83","09/27/20 15:44:53","600","Flanker Task","yes","flankertasksubmission.osexp","C:\Users\User\Desktop\Quant 2020 - Copy","no","mono","no","18","no","white","no","yes","768","legacy","3","79","C:/Users/User/Desktop/Quant 2020 - Copy/CP-subject-2.csv","legacy","Lentiform Loewenfeld","3.3.3","0","s","NA","h","s","NA","s","400","NA","23435","42596","NA","400","2","legacy","1024","2","48000","-16","experiment","SSSSS","2","even","27198","210071","NA","42608","3757","NA","NA","215319","3762","167474","NA","214181","215425","215827","215316","215424","New experiment","82","41066","84","yes","1024"
"97.6470588235","97.6470588235","487.517647059","487.517647059","black","legacy","legacy","legacy","0","congruent","uniform","1","undefined","1","s","0","0","0","84","0","84","0","84","0","0","0","84","84","84","84","84","09/27/20 15:44:53","600","Flanker Task","yes","flankertasksubmission.osexp","C:\Users\User\Desktop\Quant 2020 - Copy","no","mono","no","18","no","white","no","yes","768","legacy","4","79","C:/Users/User/Desktop/Quant 2020 - Copy/CP-subject-2.csv","legacy","Lentiform Loewenfeld","3.3.3","0","s","NA","h","s","NA","s","373","NA","23435","42596","NA","373","2","legacy","1024","2","48000","-16","experiment","SSSSS","2","even","27198","210071","NA","42608","3757","NA","NA","216971","3762","167474","NA","215832","217077","217452","216968","217077","New experiment","83","41439","85","yes","1024"
"97.6744186047","97.6744186047","486.523255814","486.523255814","black","legacy","legacy","legacy","0","congruent","uniform","1","undefined","1","s","0","0","0","85","0","85","0","85","0","0","0","85","85","85","85","85","09/27/20 15:44:53","600","Flanker Task","yes","flankertasksubmission.osexp","C:\Users\User\Desktop\Quant 2020 - Copy","no","mono","no","18","no","white","no","yes","768","legacy","5","79","C:/Users/User/Desktop/Quant 2020 - Copy/CP-subject-2.csv","legacy","Lentiform Loewenfeld","3.3.3","0","s","NA","h","s","NA","s","402","NA","23435","42596","NA","402","2","legacy","1024","2","48000","-16","experiment","SSSSS","2","even","27198","210071","NA","42608","3757","NA","NA","218595","3762","167474","NA","217457","218701","219105","218592","218700","New experiment","84","41841","86","yes","1024"
"96.5517241379","96.5517241379","484.597701149","484.597701149","black","legacy","legacy","legacy","0","incongruent","uniform","0","undefined","0","h","0","0","0","86","0","86","0","86","0","0","0","86","86","86","86","86","09/27/20 15:44:53","600","Flanker Task","yes","flankertasksubmission.osexp","C:\Users\User\Desktop\Quant 2020 - Copy","no","mono","no","18","no","white","no","yes","768","legacy","6","79","C:/Users/User/Desktop/Quant 2020 - Copy/CP-subject-2.csv","legacy","Lentiform Loewenfeld","3.3.3","0","s","NA","h","s","NA","s","319","NA","23435","42596","NA","319","2","legacy","1024","2","48000","-16","experiment","SSHSS","2","even","27198","210071","NA","42608","3757","NA","NA","220243","3762","167474","NA","219110","220349","220672","220240","220348","New experiment","84","42160","87","yes","1024"
"96.5909090909","96.5909090909","483.272727273","483.272727273","black","legacy","legacy","legacy","0","congruent","uniform","1","undefined","1","h","0","0","0","87","0","87","0","87","0","0","0","87","87","87","87","87","09/27/20 15:44:53","600","Flanker Task","yes","flankertasksubmission.osexp","C:\Users\User\Desktop\Quant 2020 - Copy","no","mono","no","18","no","white","no","yes","768","legacy","7","79","C:/Users/User/Desktop/Quant 2020 - Copy/CP-subject-2.csv","legacy","Lentiform Loewenfeld","3.3.3","0","h","NA","h","s","NA","h","368","NA","23435","42596","NA","368","2","legacy","1024","2","48000","-16","experiment","HHHHH","2","even","27198","210071","NA","220683","3757","NA","NA","222315","3762","167474","NA","221189","222421","222791","222312","222420","New experiment","85","42528","88","yes","1024"
"96.6292134831","96.6292134831","481.876404494","481.876404494","black","legacy","legacy","legacy","0","congruent","uniform","1","undefined","1","h","0","0","0","88","0","88","0","88","0","0","0","88","88","88","88","88","09/27/20 15:44:53","600","Flanker Task","yes","flankertasksubmission.osexp","C:\Users\User\Desktop\Quant 2020 - Copy","no","mono","no","18","no","white","no","yes","768","legacy","8","79","C:/Users/User/Desktop/Quant 2020 - Copy/CP-subject-2.csv","legacy","Lentiform Loewenfeld","3.3.3","0","h","NA","h","s","NA","h","359","NA","23435","42596","NA","359","2","legacy","1024","2","48000","-16","experiment","HHHHH","2","even","27198","210071","NA","220683","3757","NA","NA","223931","3762","167474","NA","222796","224037","224397","223928","224036","New experiment","86","42887","89","yes","1024"
"96.6666666667","96.6666666667","480.677777778","480.677777778","black","legacy","legacy","legacy","0","congruent","uniform","1","undefined","1","h","0","0","0","89","0","89","0","89","0","0","0","89","89","89","89","89","09/27/20 15:44:53","600","Flanker Task","yes","flankertasksubmission.osexp","C:\Users\User\Desktop\Quant 2020 - Copy","no","mono","no","18","no","white","no","yes","768","legacy","9","79","C:/Users/User/Desktop/Quant 2020 - Copy/CP-subject-2.csv","legacy","Lentiform Loewenfeld","3.3.3","0","h","NA","h","s","NA","h","374","NA","23435","42596","NA","374","2","legacy","1024","2","48000","-16","experiment","HHHHH","2","even","27198","210071","NA","220683","3757","NA","NA","225531","3762","167474","NA","224403","225637","226013","225528","225636","New experiment","87","43261","90","yes","1024"
"96.7032967033","96.7032967033","481.142857143","481.142857143","black","legacy","legacy","legacy","0","incongruent","uniform","1","undefined","1","s","0","0","0","90","0","90","0","90","0","0","0","90","90","90","90","90","09/27/20 15:44:53","600","Flanker Task","yes","flankertasksubmission.osexp","C:\Users\User\Desktop\Quant 2020 - Copy","no","mono","no","18","no","white","no","yes","768","legacy","10","79","C:/Users/User/Desktop/Quant 2020 - Copy/CP-subject-2.csv","legacy","Lentiform Loewenfeld","3.3.3","0","s","NA","h","s","NA","s","523","NA","23435","42596","NA","523","2","legacy","1024","2","48000","-16","experiment","HHSHH","2","even","27198","210071","NA","220683","3757","NA","NA","227146","3762","167474","NA","226019","227252","227777","227143","227252","New experiment","88","43784","91","yes","1024"
"96.7391304348","96.7391304348","481.260869565","481.260869565","black","legacy","legacy","legacy","0","incongruent","uniform","1","undefined","1","s","0","0","0","91","0","91","0","91","0","0","0","91","91","91","91","91","09/27/20 15:44:53","600","Flanker Task","yes","flankertasksubmission.osexp","C:\Users\User\Desktop\Quant 2020 - Copy","no","mono","no","18","no","white","no","yes","768","legacy","11","79","C:/Users/User/Desktop/Quant 2020 - Copy/CP-subject-2.csv","legacy","Lentiform Loewenfeld","3.3.3","0","s","NA","h","s","NA","s","492","NA","23435","42596","NA","492","2","legacy","1024","2","48000","-16","experiment","HHSHH","2","even","27198","210071","NA","220683","3757","NA","NA","228918","3762","167474","NA","227782","229024","229517","228915","229023","New experiment","89","44276","92","yes","1024"
"96.7741935484","96.7741935484","482.23655914","482.23655914","black","legacy","legacy","legacy","0","incongruent","uniform","1","undefined","1","h","0","0","0","92","0","92","0","92","0","0","0","92","92","92","92","92","09/27/20 15:44:53","600","Flanker Task","yes","flankertasksubmission.osexp","C:\Users\User\Desktop\Quant 2020 - Copy","no","mono","no","18","no","white","no","yes","768","legacy","12","79","C:/Users/User/Desktop/Quant 2020 - Copy/CP-subject-2.csv","legacy","Lentiform Loewenfeld","3.3.3","0","h","NA","h","s","NA","h","572","NA","23435","42596","NA","572","2","legacy","1024","2","48000","-16","experiment","SSHSS","2","even","27198","210071","NA","220683","3757","NA","NA","230659","3762","167474","NA","229523","230765","231339","230656","230764","New experiment","90","44848","93","yes","1024"
"96.8085106383","96.8085106383","482.595744681","482.595744681","black","legacy","legacy","legacy","0","incongruent","uniform","1","undefined","1","s","0","0","0","93","0","93","0","93","0","0","0","93","93","93","93","93","09/27/20 15:44:53","600","Flanker Task","yes","flankertasksubmission.osexp","C:\Users\User\Desktop\Quant 2020 - Copy","no","mono","no","18","no","white","no","yes","768","legacy","13","79","C:/Users/User/Desktop/Quant 2020 - Copy/CP-subject-2.csv","legacy","Lentiform Loewenfeld","3.3.3","0","s","NA","h","s","NA","s","516","NA","23435","42596","NA","516","2","legacy","1024","2","48000","-16","experiment","HHSHH","2","even","27198","210071","NA","220683","3757","NA","NA","232481","3762","167474","NA","231344","232587","233104","232478","232586","New experiment","91","45364","94","yes","1024"
"96.8421052632","96.8421052632","482.105263158","482.105263158","black","legacy","legacy","legacy","0","congruent","uniform","1","undefined","1","s","0","0","0","94","0","94","0","94","0","0","0","94","94","94","94","94","09/27/20 15:44:53","600","Flanker Task","yes","flankertasksubmission.osexp","C:\Users\User\Desktop\Quant 2020 - Copy","no","mono","no","18","no","white","no","yes","768","legacy","14","79","C:/Users/User/Desktop/Quant 2020 - Copy/CP-subject-2.csv","legacy","Lentiform Loewenfeld","3.3.3","0","s","NA","h","s","NA","s","436","NA","23435","42596","NA","436","2","legacy","1024","2","48000","-16","experiment","SSSSS","2","even","27198","210071","NA","220683","3757","NA","NA","234249","3762","167474","NA","233110","234355","234793","234246","234354","New experiment","92","45800","95","yes","1024"
"96.875","96.875","482.458333333","482.458333333","black","legacy","legacy","legacy","0","incongruent","uniform","1","undefined","1","s","0","0","0","95","0","95","0","95","0","0","0","95","95","95","95","95","09/27/20 15:44:53","600","Flanker Task","yes","flankertasksubmission.osexp","C:\Users\User\Desktop\Quant 2020 - Copy","no","mono","no","18","no","white","no","yes","768","legacy","15","79","C:/Users/User/Desktop/Quant 2020 - Copy/CP-subject-2.csv","legacy","Lentiform Loewenfeld","3.3.3","0","s","NA","h","s","NA","s","516","NA","23435","42596","NA","516","2","legacy","1024","2","48000","-16","experiment","HHSHH","2","even","27198","210071","NA","220683","3757","NA","NA","235933","3762","167474","NA","234799","236040","236558","235930","236040","New experiment","93","46316","96","yes","1024"
"96.9072164948","96.9072164948","481.969072165","481.969072165","black","legacy","legacy","legacy","0","congruent","uniform","1","undefined","1","h","0","0","0","96","0","96","0","96","0","0","0","96","96","96","96","96","09/27/20 15:44:53","600","Flanker Task","yes","flankertasksubmission.osexp","C:\Users\User\Desktop\Quant 2020 - Copy","no","mono","no","18","no","white","no","yes","768","legacy","16","79","C:/Users/User/Desktop/Quant 2020 - Copy/CP-subject-2.csv","legacy","Lentiform Loewenfeld","3.3.3","0","h","NA","h","s","NA","h","435","NA","23435","42596","NA","435","2","legacy","1024","2","48000","-16","experiment","HHHHH","2","even","27198","210071","NA","220683","3757","NA","NA","237700","3762","167474","NA","236563","237806","238242","237697","237805","New experiment","94","46751","97","yes","1024"
"95.9183673469","95.9183673469","480.673469388","480.673469388","black","legacy","legacy","legacy","0","incongruent","uniform","0","undefined","0","h","0","0","0","97","0","97","0","97","0","0","0","97","97","97","97","97","09/27/20 15:44:53","600","Flanker Task","yes","flankertasksubmission.osexp","C:\Users\User\Desktop\Quant 2020 - Copy","no","mono","no","18","no","white","no","yes","768","legacy","17","79","C:/Users/User/Desktop/Quant 2020 - Copy/CP-subject-2.csv","legacy","Lentiform Loewenfeld","3.3.3","0","s","NA","h","s","NA","s","355","NA","23435","42596","NA","355","2","legacy","1024","2","48000","-16","experiment","SSHSS","2","even","27198","210071","NA","220683","3757","NA","NA","239386","3762","167474","NA","238248","239491","239847","239382","239491","New experiment","94","47106","98","yes","1024"
"95.9595959596","95.9595959596","480.373737374","480.373737374","black","legacy","legacy","legacy","0","congruent","uniform","1","undefined","1","s","0","0","0","98","0","98","0","98","0","0","0","98","98","98","98","98","09/27/20 15:44:53","600","Flanker Task","yes","flankertasksubmission.osexp","C:\Users\User\Desktop\Quant 2020 - Copy","no","mono","no","18","no","white","no","yes","768","legacy","18","79","C:/Users/User/Desktop/Quant 2020 - Copy/CP-subject-2.csv","legacy","Lentiform Loewenfeld","3.3.3","0","s","NA","h","s","NA","s","451","NA","23435","42596","NA","451","2","legacy","1024","2","48000","-16","experiment","SSSSS","2","even","27198","210071","NA","239852","3757","NA","NA","241487","3762","167474","NA","240359","241593","242046","241483","241592","New experiment","95","47557","99","yes","1024"
"96","96","480.27","480.27","black","legacy","legacy","legacy","0","incongruent","uniform","1","undefined","1","h","0","0","0","99","0","99","0","99","0","0","0","99","99","99","99","99","09/27/20 15:44:53","600","Flanker Task","yes","flankertasksubmission.osexp","C:\Users\User\Desktop\Quant 2020 - Copy","no","mono","no","18","no","white","no","yes","768","legacy","19","79","C:/Users/User/Desktop/Quant 2020 - Copy/CP-subject-2.csv","legacy","Lentiform Loewenfeld","3.3.3","0","h","NA","h","s","NA","h","470","NA","23435","42596","NA","470","2","legacy","1024","2","48000","-16","experiment","SSHSS","2","even","27198","210071","NA","239852","3757","NA","NA","243189","3762","167474","NA","242051","243295","243767","243186","243294","New experiment","96","48027","100","yes","1024"
"96.0396039604","96.0396039604","480.633663366","480.633663366","black","legacy","legacy","legacy","0","congruent","uniform","1","undefined","1","s","0","0","0","100","0","100","0","100","0","0","0","100","100","100","100","100","09/27/20 15:44:53","600","Flanker Task","yes","flankertasksubmission.osexp","C:\Users\User\Desktop\Quant 2020 - Copy","no","mono","no","18","no","white","no","yes","768","legacy","20","79","C:/Users/User/Desktop/Quant 2020 - Copy/CP-subject-2.csv","legacy","Lentiform Loewenfeld","3.3.3","0","s","NA","h","s","NA","s","517","NA","23435","42596","NA","517","2","legacy","1024","2","48000","-16","experiment","SSSSS","2","even","27198","210071","NA","239852","3757","NA","NA","244906","3762","167474","NA","243775","245012","245531","244902","245011","New experiment","97","48544","101","yes","1024"
"96.0784313725","96.0784313725","480.911764706","480.911764706","black","legacy","legacy","legacy","0","incongruent","uniform","1","undefined","1","s","0","0","0","101","0","101","0","101","0","0","0","101","101","101","101","101","09/27/20 15:44:53","600","Flanker Task","yes","flankertasksubmission.osexp","C:\Users\User\Desktop\Quant 2020 - Copy","no","mono","no","18","no","white","no","yes","768","legacy","21","79","C:/Users/User/Desktop/Quant 2020 - Copy/CP-subject-2.csv","legacy","Lentiform Loewenfeld","3.3.3","0","s","NA","h","s","NA","s","509","NA","23435","42596","NA","509","2","legacy","1024","2","48000","-16","experiment","HHSHH","2","even","27198","210071","NA","239852","3757","NA","NA","246672","3762","167474","NA","245536","246778","247289","246669","246777","New experiment","98","49053","102","yes","1024"
"96.1165048544","96.1165048544","480.854368932","480.854368932","black","legacy","legacy","legacy","0","incongruent","uniform","1","undefined","1","s","0","0","0","102","0","102","0","102","0","0","0","102","102","102","102","102","09/27/20 15:44:53","600","Flanker Task","yes","flankertasksubmission.osexp","C:\Users\User\Desktop\Quant 2020 - Copy","no","mono","no","18","no","white","no","yes","768","legacy","22","79","C:/Users/User/Desktop/Quant 2020 - Copy/CP-subject-2.csv","legacy","Lentiform Loewenfeld","3.3.3","0","s","NA","h","s","NA","s","475","NA","23435","42596","NA","475","2","legacy","1024","2","48000","-16","experiment","HHSHH","2","even","27198","210071","NA","239852","3757","NA","NA","248422","3762","167474","NA","247294","248528","249005","248419","248527","New experiment","99","49528","103","yes","1024"
"96.1538461538","96.1538461538","480.682692308","480.682692308","black","legacy","legacy","legacy","0","congruent","uniform","1","undefined","1","h","0","0","0","103","0","103","0","103","0","0","0","103","103","103","103","103","09/27/20 15:44:53","600","Flanker Task","yes","flankertasksubmission.osexp","C:\Users\User\Desktop\Quant 2020 - Copy","no","mono","no","18","no","white","no","yes","768","legacy","23","79","C:/Users/User/Desktop/Quant 2020 - Copy/CP-subject-2.csv","legacy","Lentiform Loewenfeld","3.3.3","0","h","NA","h","s","NA","h","463","NA","23435","42596","NA","463","2","legacy","1024","2","48000","-16","experiment","HHHHH","2","even","27198","210071","NA","239852","3757","NA","NA","250151","3762","167474","NA","249010","250257","250722","250148","250257","New experiment","100","49991","104","yes","1024"
"96.1904761905","96.1904761905","480.838095238","480.838095238","black","legacy","legacy","legacy","0","incongruent","uniform","1","undefined","1","s","0","0","0","104","0","104","0","104","0","0","0","104","104","104","104","104","09/27/20 15:44:53","600","Flanker Task","yes","flankertasksubmission.osexp","C:\Users\User\Desktop\Quant 2020 - Copy","no","mono","no","18","no","white","no","yes","768","legacy","24","79","C:/Users/User/Desktop/Quant 2020 - Copy/CP-subject-2.csv","legacy","Lentiform Loewenfeld","3.3.3","0","s","NA","h","s","NA","s","497","NA","23435","42596","NA","497","2","legacy","1024","2","48000","-16","experiment","HHSHH","2","even","27198","210071","NA","239852","3757","NA","NA","251862","3762","167474","NA","250727","251968","252467","251859","251968","New experiment","101","50488","105","yes","1024"
"96.2264150943","96.2264150943","481.169811321","481.169811321","black","legacy","legacy","legacy","0","incongruent","uniform","1","undefined","1","h","0","0","0","105","0","105","0","105","0","0","0","105","105","105","105","105","09/27/20 15:44:53","600","Flanker Task","yes","flankertasksubmission.osexp","C:\Users\User\Desktop\Quant 2020 - Copy","no","mono","no","18","no","white","no","yes","768","legacy","25","79","C:/Users/User/Desktop/Quant 2020 - Copy/CP-subject-2.csv","legacy","Lentiform Loewenfeld","3.3.3","0","h","NA","h","s","NA","h","516","NA","23435","42596","NA","516","2","legacy","1024","2","48000","-16","experiment","SSHSS","2","even","27198","210071","NA","239852","3757","NA","NA","253624","3762","167474","NA","252472","253730","254247","253621","253729","New experiment","102","51004","106","yes","1024"
"96.261682243","96.261682243","480.813084112","480.813084112","black","legacy","legacy","legacy","0","congruent","uniform","1","undefined","1","s","0","0","0","106","0","106","0","106","0","0","0","106","106","106","106","106","09/27/20 15:44:53","600","Flanker Task","yes","flankertasksubmission.osexp","C:\Users\User\Desktop\Quant 2020 - Copy","no","mono","no","18","no","white","no","yes","768","legacy","26","79","C:/Users/User/Desktop/Quant 2020 - Copy/CP-subject-2.csv","legacy","Lentiform Loewenfeld","3.3.3","0","s","NA","h","s","NA","s","443","NA","23435","42596","NA","443","2","legacy","1024","2","48000","-16","experiment","SSSSS","2","even","27198","210071","NA","239852","3757","NA","NA","255382","3762","167474","NA","254253","255488","255933","255379","255488","New experiment","103","51447","107","yes","1024"
"96.2962962963","96.2962962963","480.777777778","480.777777778","black","legacy","legacy","legacy","0","congruent","uniform","1","undefined","1","h","0","0","0","107","0","107","0","107","0","0","0","107","107","107","107","107","09/27/20 15:44:53","600","Flanker Task","yes","flankertasksubmission.osexp","C:\Users\User\Desktop\Quant 2020 - Copy","no","mono","no","18","no","white","no","yes","768","legacy","27","79","C:/Users/User/Desktop/Quant 2020 - Copy/CP-subject-2.csv","legacy","Lentiform Loewenfeld","3.3.3","0","h","NA","h","s","NA","h","477","NA","23435","42596","NA","477","2","legacy","1024","2","48000","-16","experiment","HHHHH","2","even","27198","210071","NA","239852","3757","NA","NA","257059","3762","167474","NA","255939","257165","257643","257056","257165","New experiment","104","51924","108","yes","1024"
"96.3302752294","96.3302752294","480.908256881","480.908256881","black","legacy","legacy","legacy","0","incongruent","uniform","1","undefined","1","s","0","0","0","108","0","108","0","108","0","0","0","108","108","108","108","108","09/27/20 15:44:53","600","Flanker Task","yes","flankertasksubmission.osexp","C:\Users\User\Desktop\Quant 2020 - Copy","no","mono","no","18","no","white","no","yes","768","legacy","28","79","C:/Users/User/Desktop/Quant 2020 - Copy/CP-subject-2.csv","legacy","Lentiform Loewenfeld","3.3.3","0","s","NA","h","s","NA","s","495","NA","23435","42596","NA","495","2","legacy","1024","2","48000","-16","experiment","HHSHH","2","even","27198","210071","NA","239852","3757","NA","NA","258796","3762","167474","NA","257649","258903","259400","258793","258902","New experiment","105","52419","109","yes","1024"
"96.3636363636","96.3636363636","481.009090909","481.009090909","black","legacy","legacy","legacy","0","congruent","uniform","1","undefined","1","h","0","0","0","109","0","109","0","109","0","0","0","109","109","109","109","109","09/27/20 15:44:53","600","Flanker Task","yes","flankertasksubmission.osexp","C:\Users\User\Desktop\Quant 2020 - Copy","no","mono","no","18","no","white","no","yes","768","legacy","29","79","C:/Users/User/Desktop/Quant 2020 - Copy/CP-subject-2.csv","legacy","Lentiform Loewenfeld","3.3.3","0","h","NA","h","s","NA","h","492","NA","23435","42596","NA","492","2","legacy","1024","2","48000","-16","experiment","HHHHH","2","even","27198","210071","NA","239852","3757","NA","NA","260537","3762","167474","NA","259405","260643","261137","260534","260643","New experiment","106","52911","110","yes","1024"
"96.3963963964","96.3963963964","480.216216216","480.216216216","black","legacy","legacy","legacy","0","congruent","uniform","1","undefined","1","h","0","0","0","110","0","110","0","110","0","0","0","110","110","110","110","110","09/27/20 15:44:53","600","Flanker Task","yes","flankertasksubmission.osexp","C:\Users\User\Desktop\Quant 2020 - Copy","no","mono","no","18","no","white","no","yes","768","legacy","30","79","C:/Users/User/Desktop/Quant 2020 - Copy/CP-subject-2.csv","legacy","Lentiform Loewenfeld","3.3.3","0","h","NA","h","s","NA","h","393","NA","23435","42596","NA","393","2","legacy","1024","2","48000","-16","experiment","HHHHH","2","even","27198","210071","NA","239852","3757","NA","NA","262274","3762","167474","NA","261142","262380","262775","262271","262380","New experiment","107","53304","111","yes","1024"
"96.4285714286","96.4285714286","479.544642857","479.544642857","black","legacy","legacy","legacy","0","congruent","uniform","1","undefined","1","h","0","0","0","111","0","111","0","111","0","0","0","111","111","111","111","111","09/27/20 15:44:53","600","Flanker Task","yes","flankertasksubmission.osexp","C:\Users\User\Desktop\Quant 2020 - Copy","no","mono","no","18","no","white","no","yes","768","legacy","31","79","C:/Users/User/Desktop/Quant 2020 - Copy/CP-subject-2.csv","legacy","Lentiform Loewenfeld","3.3.3","0","h","NA","h","s","NA","h","405","NA","23435","42596","NA","405","2","legacy","1024","2","48000","-16","experiment","HHHHH","2","even","27198","210071","NA","239852","3757","NA","NA","263938","3762","167474","NA","262780","264045","264452","263935","264044","New experiment","108","53709","112","yes","1024"
"96.4601769912","96.4601769912","479.486725664","479.486725664","black","legacy","legacy","legacy","0","incongruent","uniform","1","undefined","1","h","0","0","0","112","0","112","0","112","0","0","0","112","112","112","112","112","09/27/20 15:44:53","600","Flanker Task","yes","flankertasksubmission.osexp","C:\Users\User\Desktop\Quant 2020 - Copy","no","mono","no","18","no","white","no","yes","768","legacy","32","79","C:/Users/User/Desktop/Quant 2020 - Copy/CP-subject-2.csv","legacy","Lentiform Loewenfeld","3.3.3","0","h","NA","h","s","NA","h","473","NA","23435","42596","NA","473","2","legacy","1024","2","48000","-16","experiment","SSHSS","2","even","27198","210071","NA","239852","3757","NA","NA","265599","3762","167474","NA","264458","265705","266180","265596","265704","New experiment","109","54182","113","yes","1024"
"96.4912280702","96.4912280702","479.710526316","479.710526316","black","legacy","legacy","legacy","0","incongruent","uniform","1","undefined","1","h","0","0","0","113","0","113","0","113","0","0","0","113","113","113","113","113","09/27/20 15:44:53","600","Flanker Task","yes","flankertasksubmission.osexp","C:\Users\User\Desktop\Quant 2020 - Copy","no","mono","no","18","no","white","no","yes","768","legacy","33","79","C:/Users/User/Desktop/Quant 2020 - Copy/CP-subject-2.csv","legacy","Lentiform Loewenfeld","3.3.3","0","h","NA","h","s","NA","h","505","NA","23435","42596","NA","505","2","legacy","1024","2","48000","-16","experiment","SSHSS","2","even","27198","210071","NA","239852","3757","NA","NA","267316","3762","167474","NA","266186","267422","267929","267313","267421","New experiment","110","54687","114","yes","1024"
"96.5217391304","96.5217391304","478.834782609","478.834782609","black","legacy","legacy","legacy","0","incongruent","uniform","1","undefined","1","h","0","0","0","114","0","114","0","114","0","0","0","114","114","114","114","114","09/27/20 15:44:53","600","Flanker Task","yes","flankertasksubmission.osexp","C:\Users\User\Desktop\Quant 2020 - Copy","no","mono","no","18","no","white","no","yes","768","legacy","34","79","C:/Users/User/Desktop/Quant 2020 - Copy/CP-subject-2.csv","legacy","Lentiform Loewenfeld","3.3.3","0","h","NA","h","s","NA","h","379","NA","23435","42596","NA","379","2","legacy","1024","2","48000","-16","experiment","SSHSS","2","even","27198","210071","NA","239852","3757","NA","NA","269064","3762","167474","NA","267934","269170","269551","269061","269170","New experiment","111","55066","115","yes","1024"
"96.5517241379","96.5517241379","477.801724138","477.801724138","black","legacy","legacy","legacy","0","congruent","uniform","1","undefined","1","h","0","0","0","115","0","115","0","115","0","0","0","115","115","115","115","115","09/27/20 15:44:53","600","Flanker Task","yes","flankertasksubmission.osexp","C:\Users\User\Desktop\Quant 2020 - Copy","no","mono","no","18","no","white","no","yes","768","legacy","35","79","C:/Users/User/Desktop/Quant 2020 - Copy/CP-subject-2.csv","legacy","Lentiform Loewenfeld","3.3.3","0","h","NA","h","s","NA","h","359","NA","23435","42596","NA","359","2","legacy","1024","2","48000","-16","experiment","HHHHH","2","even","27198","210071","NA","239852","3757","NA","NA","270699","3762","167474","NA","269556","270805","271168","270696","270804","New experiment","112","55425","116","yes","1024"
"96.5811965812","96.5811965812","477.709401709","477.709401709","black","legacy","legacy","legacy","0","incongruent","uniform","1","undefined","1","s","0","0","0","116","0","116","0","116","0","0","0","116","116","116","116","116","09/27/20 15:44:53","600","Flanker Task","yes","flankertasksubmission.osexp","C:\Users\User\Desktop\Quant 2020 - Copy","no","mono","no","18","no","white","no","yes","768","legacy","36","79","C:/Users/User/Desktop/Quant 2020 - Copy/CP-subject-2.csv","legacy","Lentiform Loewenfeld","3.3.3","0","s","NA","h","s","NA","s","467","NA","23435","42596","NA","467","2","legacy","1024","2","48000","-16","experiment","HHSHH","2","even","27198","210071","NA","239852","3757","NA","NA","272320","3762","167474","NA","271176","272426","272895","272317","272425","New experiment","113","55892","117","yes","1024"
"96.6101694915","96.6101694915","477.177966102","477.177966102","black","legacy","legacy","legacy","0","congruent","uniform","1","undefined","1","s","0","0","0","117","0","117","0","117","0","0","0","117","117","117","117","117","09/27/20 15:44:53","600","Flanker Task","yes","flankertasksubmission.osexp","C:\Users\User\Desktop\Quant 2020 - Copy","no","mono","no","18","no","white","no","yes","768","legacy","37","79","C:/Users/User/Desktop/Quant 2020 - Copy/CP-subject-2.csv","legacy","Lentiform Loewenfeld","3.3.3","0","s","NA","h","s","NA","s","415","NA","23435","42596","NA","415","2","legacy","1024","2","48000","-16","experiment","SSSSS","2","even","27198","210071","NA","239852","3757","NA","NA","274034","3762","167474","NA","272900","274140","274557","274031","274140","New experiment","114","56307","118","yes","1024"
"96.6386554622","96.6386554622","477.260504202","477.260504202","black","legacy","legacy","legacy","0","congruent","uniform","1","undefined","1","h","0","0","0","118","0","118","0","118","0","0","0","118","118","118","118","118","09/27/20 15:44:53","600","Flanker Task","yes","flankertasksubmission.osexp","C:\Users\User\Desktop\Quant 2020 - Copy","no","mono","no","18","no","white","no","yes","768","legacy","38","79","C:/Users/User/Desktop/Quant 2020 - Copy/CP-subject-2.csv","legacy","Lentiform Loewenfeld","3.3.3","0","h","NA","h","s","NA","h","487","NA","23435","42596","NA","487","2","legacy","1024","2","48000","-16","experiment","HHHHH","2","even","27198","210071","NA","239852","3757","NA","NA","275689","3762","167474","NA","274562","275795","276283","275686","275794","New experiment","115","56794","119","yes","1024"
"96.6666666667","96.6666666667","478.55","478.55","black","legacy","legacy","legacy","0","incongruent","uniform","1","undefined","1","s","0","0","0","119","0","119","0","119","0","0","0","119","119","119","119","119","09/27/20 15:44:53","600","Flanker Task","yes","flankertasksubmission.osexp","C:\Users\User\Desktop\Quant 2020 - Copy","no","mono","no","18","no","white","no","yes","768","legacy","39","79","C:/Users/User/Desktop/Quant 2020 - Copy/CP-subject-2.csv","legacy","Lentiform Loewenfeld","3.3.3","0","s","NA","h","s","NA","s","632","NA","23435","42596","NA","632","2","legacy","1024","2","48000","-16","experiment","HHSHH","2","even","27198","210071","NA","239852","3757","NA","NA","277424","3762","167474","NA","276289","277531","278165","277421","277531","New experiment","116","57426","120","yes","1024"
"96.694214876","96.694214876","477.818181818","477.818181818","black","legacy","legacy","legacy","0","congruent","uniform","1","undefined","1","s","0","0","0","120","0","120","0","120","0","0","0","120","120","120","120","120","09/27/20 15:44:53","600","Flanker Task","yes","flankertasksubmission.osexp","C:\Users\User\Desktop\Quant 2020 - Copy","no","mono","no","18","no","white","no","yes","768","legacy","40","79","C:/Users/User/Desktop/Quant 2020 - Copy/CP-subject-2.csv","legacy","Lentiform Loewenfeld","3.3.3","0","s","NA","h","s","NA","s","390","NA","23435","42596","NA","390","2","legacy","1024","2","48000","-16","experiment","SSSSS","2","even","27198","210071","NA","239852","3757","278170","NA","279818","3762","167474","NA","278675","279924","280316","279814","279924","New experiment","117","57816","121","yes","1024"
