condition,acc,accuracy,average_response_time,avg_rt,background,canvas_backend,clock_backend,color_backend,compensation,coordinates,correct,correct_instructions1,correct_keyboard_response,correct_response,count_Instructions2,count_block1,count_block2,count_block3,count_errorfeedback,count_experiment,count_faster,count_finish,count_fixation,count_instructions1,count_instructions3,count_isi,count_keyboard_response,count_logger,count_sequence,count_stimulus,datetime,deadline,description,disable_garbage_collection,experiment_file,experiment_path,font_bold,font_family,font_italic,font_size,font_underline,foreground,form_clicks,fullscreen,height,keyboard_backend,live_row,live_row_block1,logfile,mouse_backend,opensesame_codename,opensesame_version,repeat_cycle,response,response_Instructions2,response_finish,response_instructions1,response_instructions3,response_keyboard_response,response_time,response_time_Instructions2,response_time_finish,response_time_instructions1,response_time_instructions3,response_time_keyboard_response,round_decimals,sampler_backend,sound_buf_size,sound_channels,sound_freq,sound_sample_size,start,stimulus,subject_nr,subject_parity,time_Instructions2,time_block1,time_block2,time_block3,time_errorfeedback,time_experiment,time_faster,time_finish,time_fixation,time_instructions1,time_instructions3,time_isi,time_keyboard_response,time_logger,time_sequence,time_stimulus,title,total_correct,total_response_time,total_responses,uniform_coordinates,width
congruent,100,100,574.70134,574.70134,black,psycho,psycho,psycho,0,uniform,1,undefined,1,s,0,0,0,0,0,0,0,0,0,0,0,0,0,0,0,0,Sun Sep 20 21:30:06 2020,1500,The main experiment item,yes,FlankerTask.osexp,/Users/tforestmoore/Desktop,no,mono,no,18,no,white,no,yes,768,psycho,0,0,/Users/tforestmoore/Desktop/TFM-subject-1.csv,psycho,Lentiform Loewenfeld,3.3.3,0,s,NA,NA,s,NA,s,574.70134,NA,NA,2303.429145,NA,574.70134,2,psycho,1024,2,48000,-16,experiment,SSSSS,1,odd,NA,5908.717878,NA,NA,NA,3546.296135,NA,NA,6020.675717,3586.751658,NA,NA,6136.611575,6716.767189,5980.739419,6136.27239,Flanker Task,1,574.70134,1,yes,1024
congruent,100,100,531.928159,531.928159,black,psycho,psycho,psycho,0,uniform,1,undefined,1,h,0,0,0,0,1,0,1,0,1,0,0,1,1,1,1,1,Sun Sep 20 21:30:06 2020,1500,The main experiment item,yes,FlankerTask.osexp,/Users/tforestmoore/Desktop,no,mono,no,18,no,white,no,yes,768,psycho,1,1,/Users/tforestmoore/Desktop/TFM-subject-1.csv,psycho,Lentiform Loewenfeld,3.3.3,0,h,NA,NA,s,NA,h,489.154978,NA,NA,2303.429145,NA,489.154978,2,psycho,1024,2,48000,-16,experiment,HHHHH,1,odd,NA,5908.717878,NA,NA,NA,3546.296135,NA,NA,7870.046165,3586.751658,NA,6737.238348,7988.523361,8479.708661,7853.62503,7987.236293,Flanker Task,2,1063.856318,2,yes,1024
congruent,100,100,528.7729177,528.7729177,black,psycho,psycho,psycho,0,uniform,1,undefined,1,h,0,0,0,0,2,0,2,0,2,0,0,2,2,2,2,2,Sun Sep 20 21:30:06 2020,1500,The main experiment item,yes,FlankerTask.osexp,/Users/tforestmoore/Desktop,no,mono,no,18,no,white,no,yes,768,psycho,2,2,/Users/tforestmoore/Desktop/TFM-subject-1.csv,psycho,Lentiform Loewenfeld,3.3.3,0,h,NA,NA,s,NA,h,522.462435,NA,NA,2303.429145,NA,522.462435,2,psycho,1024,2,48000,-16,experiment,HHHHH,1,odd,NA,5908.717878,NA,NA,NA,3546.296135,NA,NA,9637.273536,3586.751658,NA,8503.403064,9755.164266,10283.10301,9616.037367,9754.042218,Flanker Task,3,1586.318753,3,yes,1024
incongruent,100,100,583.1476677,583.1476677,black,psycho,psycho,psycho,0,uniform,1,undefined,1,s,0,0,0,0,3,0,3,0,3,0,0,3,3,3,3,3,Sun Sep 20 21:30:06 2020,1500,The main experiment item,yes,FlankerTask.osexp,/Users/tforestmoore/Desktop,no,mono,no,18,no,white,no,yes,768,psycho,3,3,/Users/tforestmoore/Desktop/TFM-subject-1.csv,psycho,Lentiform Loewenfeld,3.3.3,0,s,NA,NA,s,NA,s,746.271918,NA,NA,2303.429145,NA,746.271918,2,psycho,1024,2,48000,-16,experiment,HHSHH,1,odd,NA,5908.717878,NA,NA,NA,3546.296135,NA,NA,11437.77657,3586.751658,NA,10303.81249,11556.40678,12304.65018,11415.86732,11555.15749,Flanker Task,4,2332.590671,4,yes,1024
congruent,100,100,581.9305106,581.9305106,black,psycho,psycho,psycho,0,uniform,1,undefined,1,s,0,0,0,0,4,0,4,0,4,0,0,4,4,4,4,4,Sun Sep 20 21:30:06 2020,1500,The main experiment item,yes,FlankerTask.osexp,/Users/tforestmoore/Desktop,no,mono,no,18,no,white,no,yes,768,psycho,4,4,/Users/tforestmoore/Desktop/TFM-subject-1.csv,psycho,Lentiform Loewenfeld,3.3.3,0,s,NA,NA,s,NA,s,577.061882,NA,NA,2303.429145,NA,577.061882,2,psycho,1024,2,48000,-16,experiment,SSSSS,1,odd,NA,5908.717878,NA,NA,NA,3546.296135,NA,NA,13453.0907,3586.751658,NA,12320.22421,13570.71085,14153.21864,13431.83978,13569.64995,Flanker Task,5,2909.652553,5,yes,1024
congruent,100,100,554.1237622,554.1237622,black,psycho,psycho,psycho,0,uniform,1,undefined,1,h,0,0,0,0,5,0,5,0,5,0,0,5,5,5,5,5,Sun Sep 20 21:30:06 2020,1500,The main experiment item,yes,FlankerTask.osexp,/Users/tforestmoore/Desktop,no,mono,no,18,no,white,no,yes,768,psycho,5,5,/Users/tforestmoore/Desktop/TFM-subject-1.csv,psycho,Lentiform Loewenfeld,3.3.3,0,h,NA,NA,s,NA,h,415.09002,NA,NA,2303.429145,NA,415.09002,2,psycho,1024,2,48000,-16,experiment,HHHHH,1,odd,NA,5908.717878,NA,NA,NA,3546.296135,NA,NA,15302.90547,3586.751658,NA,14169.66483,15420.13941,15837.29517,15281.93312,15419.44995,Flanker Task,6,3324.742573,6,yes,1024
incongruent,100,100,534.7958253,534.7958253,black,psycho,psycho,psycho,0,uniform,1,undefined,1,s,0,0,0,0,6,0,6,0,6,0,0,6,6,6,6,6,Sun Sep 20 21:30:06 2020,1500,The main experiment item,yes,FlankerTask.osexp,/Users/tforestmoore/Desktop,no,mono,no,18,no,white,no,yes,768,psycho,6,6,/Users/tforestmoore/Desktop/TFM-subject-1.csv,psycho,Lentiform Loewenfeld,3.3.3,0,s,NA,NA,s,NA,s,418.828204,NA,NA,2303.429145,NA,418.828204,2,psycho,1024,2,48000,-16,experiment,HHSHH,1,odd,NA,5908.717878,NA,NA,NA,3546.296135,NA,NA,16986.24335,3586.751658,NA,15852.80473,17103.83777,17524.89277,16964.65265,17103.00011,Flanker Task,7,3743.570777,7,yes,1024
incongruent,87.5,87.5,522.1976604,522.1976604,black,psycho,psycho,psycho,0,uniform,0,undefined,0,h,0,0,0,0,7,0,7,0,7,0,0,7,7,7,7,7,Sun Sep 20 21:30:06 2020,1500,The main experiment item,yes,FlankerTask.osexp,/Users/tforestmoore/Desktop,no,mono,no,18,no,white,no,yes,768,psycho,7,7,/Users/tforestmoore/Desktop/TFM-subject-1.csv,psycho,Lentiform Loewenfeld,3.3.3,0,s,NA,NA,s,NA,s,434.010506,NA,NA,2303.429145,NA,434.010506,2,psycho,1024,2,48000,-16,experiment,SSHSS,1,odd,NA,5908.717878,NA,NA,NA,3546.296135,NA,NA,18669.65084,3586.751658,NA,17536.06133,18787.49325,19226.96542,18656.01851,18786.29198,Flanker Task,7,4177.581283,8,yes,1024
incongruent,88.88888889,88.88888889,526.0987258,526.0987258,black,psycho,psycho,psycho,0,uniform,1,undefined,1,h,0,0,0,0,8,0,8,0,8,0,0,8,8,8,8,8,Sun Sep 20 21:30:06 2020,1500,The main experiment item,yes,FlankerTask.osexp,/Users/tforestmoore/Desktop,no,mono,no,18,no,white,no,yes,768,psycho,8,8,/Users/tforestmoore/Desktop/TFM-subject-1.csv,psycho,Lentiform Loewenfeld,3.3.3,0,h,NA,NA,s,NA,h,557.307249,NA,NA,2303.429145,NA,557.307249,2,psycho,1024,2,48000,-16,experiment,SSHSS,1,odd,NA,5908.717878,NA,NA,19236.47567,3546.296135,NA,NA,20886.28085,3586.751658,NA,19752.9938,21004.12408,21563.54836,20865.16121,21002.94474,Flanker Task,8,4734.888532,9,yes,1024
congruent,90,90,530.450857,530.450857,black,psycho,psycho,psycho,0,uniform,1,undefined,1,s,0,0,0,0,9,0,9,0,9,0,0,9,9,9,9,9,Sun Sep 20 21:30:06 2020,1500,The main experiment item,yes,FlankerTask.osexp,/Users/tforestmoore/Desktop,no,mono,no,18,no,white,no,yes,768,psycho,9,9,/Users/tforestmoore/Desktop/TFM-subject-1.csv,psycho,Lentiform Loewenfeld,3.3.3,0,s,NA,NA,s,NA,s,569.620038,NA,NA,2303.429145,NA,569.620038,2,psycho,1024,2,48000,-16,experiment,SSSSS,1,odd,NA,5908.717878,NA,NA,19236.47567,3546.296135,NA,NA,22720.17563,3586.751658,NA,21586.06017,22836.85007,23408.45252,22699.56846,22836.25805,Flanker Task,9,5304.50857,10,yes,1024
incongruent,81.81818182,81.81818182,530.9405879,530.9405879,black,psycho,psycho,psycho,0,uniform,0,undefined,0,h,0,0,0,0,10,0,10,0,10,0,0,10,10,10,10,10,Sun Sep 20 21:30:06 2020,1500,The main experiment item,yes,FlankerTask.osexp,/Users/tforestmoore/Desktop,no,mono,no,18,no,white,no,yes,768,psycho,10,10,/Users/tforestmoore/Desktop/TFM-subject-1.csv,psycho,Lentiform Loewenfeld,3.3.3,0,s,NA,NA,s,NA,s,535.837897,NA,NA,2303.429145,NA,535.837897,2,psycho,1024,2,48000,-16,experiment,SSHSS,1,odd,NA,5908.717878,NA,NA,19236.47567,3546.296135,NA,NA,24552.82871,3586.751658,NA,23419.47134,24670.67078,25211.9271,24531.22593,24669.49429,Flanker Task,9,5840.346467,11,yes,1024
congruent,83.33333333,83.33333333,524.4345973,524.4345973,black,psycho,psycho,psycho,0,uniform,1,undefined,1,s,0,0,0,0,11,0,11,0,11,0,0,11,11,11,11,11,Sun Sep 20 21:30:06 2020,1500,The main experiment item,yes,FlankerTask.osexp,/Users/tforestmoore/Desktop,no,mono,no,18,no,white,no,yes,768,psycho,11,11,/Users/tforestmoore/Desktop/TFM-subject-1.csv,psycho,Lentiform Loewenfeld,3.3.3,0,s,NA,NA,s,NA,s,452.868701,NA,NA,2303.429145,NA,452.868701,2,psycho,1024,2,48000,-16,experiment,SSSSS,1,odd,NA,5908.717878,NA,NA,25236.15564,3546.296135,NA,NA,26886.11478,3586.751658,NA,25752.81116,27003.89577,27458.64588,26864.7151,27002.77911,Flanker Task,10,6293.215168,12,yes,1024
congruent,84.61538462,84.61538462,522.7246122,522.7246122,black,psycho,psycho,psycho,0,uniform,1,undefined,1,s,0,0,0,0,12,0,12,0,12,0,0,12,12,12,12,12,Sun Sep 20 21:30:06 2020,1500,The main experiment item,yes,FlankerTask.osexp,/Users/tforestmoore/Desktop,no,mono,no,18,no,white,no,yes,768,psycho,12,12,/Users/tforestmoore/Desktop/TFM-subject-1.csv,psycho,Lentiform Loewenfeld,3.3.3,0,s,NA,NA,s,NA,s,502.204791,NA,NA,2303.429145,NA,502.204791,2,psycho,1024,2,48000,-16,experiment,SSSSS,1,odd,NA,5908.717878,NA,NA,25236.15564,3546.296135,NA,NA,28602.84924,3586.751658,NA,27469.46103,28720.59236,29228.32095,28581.88462,28719.47113,Flanker Task,11,6795.419959,13,yes,1024
congruent,85.71428571,85.71428571,519.2204887,519.2204887,black,psycho,psycho,psycho,0,uniform,1,undefined,1,h,0,0,0,0,13,0,13,0,13,0,0,13,13,13,13,13,Sun Sep 20 21:30:06 2020,1500,The main experiment item,yes,FlankerTask.osexp,/Users/tforestmoore/Desktop,no,mono,no,18,no,white,no,yes,768,psycho,13,13,/Users/tforestmoore/Desktop/TFM-subject-1.csv,psycho,Lentiform Loewenfeld,3.3.3,0,h,NA,NA,s,NA,h,473.666883,NA,NA,2303.429145,NA,473.666883,2,psycho,1024,2,48000,-16,experiment,HHHHH,1,odd,NA,5908.717878,NA,NA,25236.15564,3546.296135,NA,NA,30386.15648,3586.751658,NA,29252.79178,30504.06918,30979.80709,30366.07519,30502.9164,Flanker Task,12,7269.086842,14,yes,1024
incongruent,86.66666667,86.66666667,532.2637113,532.2637113,black,psycho,psycho,psycho,0,uniform,1,undefined,1,s,0,0,0,0,14,0,14,0,14,0,0,14,14,14,14,14,Sun Sep 20 21:30:06 2020,1500,The main experiment item,yes,FlankerTask.osexp,/Users/tforestmoore/Desktop,no,mono,no,18,no,white,no,yes,768,psycho,14,14,/Users/tforestmoore/Desktop/TFM-subject-1.csv,psycho,Lentiform Loewenfeld,3.3.3,0,s,NA,NA,s,NA,s,714.868827,NA,NA,2303.429145,NA,714.868827,2,psycho,1024,2,48000,-16,experiment,HHSHH,1,odd,NA,5908.717878,NA,NA,25236.15564,3546.296135,NA,NA,32135.94174,3586.751658,NA,31002.81657,32254.23004,32971.23393,32123.29493,32253.03558,Flanker Task,13,7983.955669,15,yes,1024
congruent,87.5,87.5,529.4255858,529.4255858,black,psycho,psycho,psycho,0,uniform,1,undefined,1,s,0,0,0,0,15,0,15,0,15,0,0,15,15,15,15,15,Sun Sep 20 21:30:06 2020,1500,The main experiment item,yes,FlankerTask.osexp,/Users/tforestmoore/Desktop,no,mono,no,18,no,white,no,yes,768,psycho,15,15,/Users/tforestmoore/Desktop/TFM-subject-1.csv,psycho,Lentiform Loewenfeld,3.3.3,0,s,NA,NA,s,NA,s,486.853704,NA,NA,2303.429145,NA,486.853704,2,psycho,1024,2,48000,-16,experiment,SSSSS,1,odd,NA,5908.717878,NA,NA,25236.15564,3546.296135,NA,NA,34119.45659,3586.751658,NA,32985.86833,34237.27804,34729.58399,34098.48838,34236.12255,Flanker Task,14,8470.809373,16,yes,1024
congruent,88.23529412,88.23529412,525.57325,525.57325,black,psycho,psycho,psycho,0,uniform,1,undefined,1,h,0,0,0,0,16,0,16,0,16,0,0,16,16,16,16,16,Sun Sep 20 21:30:06 2020,1500,The main experiment item,yes,FlankerTask.osexp,/Users/tforestmoore/Desktop,no,mono,no,18,no,white,no,yes,768,psycho,16,16,/Users/tforestmoore/Desktop/TFM-subject-1.csv,psycho,Lentiform Loewenfeld,3.3.3,0,h,NA,NA,s,NA,h,463.935877,NA,NA,2303.429145,NA,463.935877,2,psycho,1024,2,48000,-16,experiment,HHHHH,1,odd,NA,5908.717878,NA,NA,25236.15564,3546.296135,NA,NA,35886.11972,3586.751658,NA,34752.28918,36003.84147,36469.81643,35863.37087,36002.77284,Flanker Task,15,8934.74525,17,yes,1024
congruent,88.88888889,88.88888889,522.1133821,522.1133821,black,psycho,psycho,psycho,0,uniform,1,undefined,1,s,0,0,0,0,17,0,17,0,17,0,0,17,17,17,17,17,Sun Sep 20 21:30:06 2020,1500,The main experiment item,yes,FlankerTask.osexp,/Users/tforestmoore/Desktop,no,mono,no,18,no,white,no,yes,768,psycho,17,17,/Users/tforestmoore/Desktop/TFM-subject-1.csv,psycho,Lentiform Loewenfeld,3.3.3,0,s,NA,NA,s,NA,s,463.295628,NA,NA,2303.429145,NA,463.295628,2,psycho,1024,2,48000,-16,experiment,SSSSS,1,odd,NA,5908.717878,NA,NA,25236.15564,3546.296135,NA,NA,37619.38626,3586.751658,NA,36486.08796,37737.09976,38202.42524,37598.51326,37736.03541,Flanker Task,16,9398.040878,18,yes,1024
incongruent,89.47368421,89.47368421,521.3308942,521.3308942,black,psycho,psycho,psycho,0,uniform,1,undefined,1,s,0,0,0,0,18,0,18,0,18,0,0,18,18,18,18,18,Sun Sep 20 21:30:06 2020,1500,The main experiment item,yes,FlankerTask.osexp,/Users/tforestmoore/Desktop,no,mono,no,18,no,white,no,yes,768,psycho,18,18,/Users/tforestmoore/Desktop/TFM-subject-1.csv,psycho,Lentiform Loewenfeld,3.3.3,0,s,NA,NA,s,NA,s,507.246112,NA,NA,2303.429145,NA,507.246112,2,psycho,1024,2,48000,-16,experiment,HHSHH,1,odd,NA,5908.717878,NA,NA,25236.15564,3546.296135,NA,NA,39352.74433,3586.751658,NA,38219.43557,39470.61337,39983.42368,39332.91583,39469.41243,Flanker Task,17,9905.28699,19,yes,1024
incongruent,85,85,518.0858324,518.0858324,black,psycho,psycho,psycho,0,uniform,0,undefined,0,h,0,0,0,0,19,0,19,0,19,0,0,19,19,19,19,19,Sun Sep 20 21:30:06 2020,1500,The main experiment item,yes,FlankerTask.osexp,/Users/tforestmoore/Desktop,no,mono,no,18,no,white,no,yes,768,psycho,19,19,/Users/tforestmoore/Desktop/TFM-subject-1.csv,psycho,Lentiform Loewenfeld,3.3.3,0,s,NA,NA,s,NA,s,456.429658,NA,NA,2303.429145,NA,456.429658,2,psycho,1024,2,48000,-16,experiment,SSHSS,1,odd,NA,5908.717878,NA,NA,25236.15564,3546.296135,NA,NA,41136.03641,3586.751658,NA,40002.6249,41253.93788,41712.46285,41116.38055,41252.77872,Flanker Task,17,10361.71665,20,yes,1024
congruent,85.71428571,85.71428571,524.2675389,524.2675389,black,psycho,psycho,psycho,0,uniform,1,undefined,1,s,0,0,0,0,20,0,20,0,20,0,0,20,20,20,20,20,Sun Sep 20 21:30:06 2020,1500,The main experiment item,yes,FlankerTask.osexp,/Users/tforestmoore/Desktop,no,mono,no,18,no,white,no,yes,768,psycho,20,20,/Users/tforestmoore/Desktop/TFM-subject-1.csv,psycho,Lentiform Loewenfeld,3.3.3,0,s,NA,NA,s,NA,s,647.901668,NA,NA,2303.429145,NA,647.901668,2,psycho,1024,2,48000,-16,experiment,SSSSS,1,odd,NA,5908.717878,NA,NA,41735.98151,3546.296135,NA,NA,43385.92035,3586.751658,NA,42253.36135,43503.71,44157.15086,43366.5333,43502.53603,Flanker Task,18,11009.61832,21,yes,1024
incongruent,86.36363636,86.36363636,525.0906075,525.0906075,black,psycho,psycho,psycho,0,uniform,1,undefined,1,h,0,0,0,0,21,0,21,0,21,0,0,21,21,21,21,21,Sun Sep 20 21:30:06 2020,1500,The main experiment item,yes,FlankerTask.osexp,/Users/tforestmoore/Desktop,no,mono,no,18,no,white,no,yes,768,psycho,21,21,/Users/tforestmoore/Desktop/TFM-subject-1.csv,psycho,Lentiform Loewenfeld,3.3.3,0,h,NA,NA,s,NA,h,542.375048,NA,NA,2303.429145,NA,542.375048,2,psycho,1024,2,48000,-16,experiment,SSHSS,1,odd,NA,5908.717878,NA,NA,41735.98151,3546.296135,NA,NA,45302.5448,3586.751658,NA,44169.22857,45420.59364,45965.05375,45282.69307,45419.34141,Flanker Task,19,11551.99336,22,yes,1024
congruent,86.95652174,86.95652174,523.1889457,523.1889457,black,psycho,psycho,psycho,0,uniform,1,undefined,1,h,0,0,0,0,22,0,22,0,22,0,0,22,22,22,22,22,Sun Sep 20 21:30:06 2020,1500,The main experiment item,yes,FlankerTask.osexp,/Users/tforestmoore/Desktop,no,mono,no,18,no,white,no,yes,768,psycho,22,22,/Users/tforestmoore/Desktop/TFM-subject-1.csv,psycho,Lentiform Loewenfeld,3.3.3,0,h,NA,NA,s,NA,h,481.352386,NA,NA,2303.429145,NA,481.352386,2,psycho,1024,2,48000,-16,experiment,HHHHH,1,odd,NA,5908.717878,NA,NA,41735.98151,3546.296135,NA,NA,47119.31133,3586.751658,NA,45985.84817,47236.45076,47723.63998,47098.08875,47235.84651,Flanker Task,20,12033.34575,23,yes,1024
congruent,87.5,87.5,526.3220551,526.3220551,black,psycho,psycho,psycho,0,uniform,1,undefined,1,h,0,0,0,0,23,0,23,0,23,0,0,23,23,23,23,23,Sun Sep 20 21:30:06 2020,1500,The main experiment item,yes,FlankerTask.osexp,/Users/tforestmoore/Desktop,no,mono,no,18,no,white,no,yes,768,psycho,23,23,/Users/tforestmoore/Desktop/TFM-subject-1.csv,psycho,Lentiform Loewenfeld,3.3.3,0,h,NA,NA,s,NA,h,598.383572,NA,NA,2303.429145,NA,598.383572,2,psycho,1024,2,48000,-16,experiment,HHHHH,1,odd,NA,5908.717878,NA,NA,41735.98151,3546.296135,NA,NA,48869.22085,3586.751658,NA,47735.80317,48986.97947,49587.3692,48848.76721,48985.90616,Flanker Task,21,12631.72932,24,yes,1024
incongruent,88,88,527.4378113,527.4378113,black,psycho,psycho,psycho,0,uniform,1,undefined,1,s,0,0,0,0,24,0,24,0,24,0,0,24,24,24,24,24,Sun Sep 20 21:30:06 2020,1500,The main experiment item,yes,FlankerTask.osexp,/Users/tforestmoore/Desktop,no,mono,no,18,no,white,no,yes,768,psycho,24,24,/Users/tforestmoore/Desktop/TFM-subject-1.csv,psycho,Lentiform Loewenfeld,3.3.3,0,s,NA,NA,s,NA,s,554.215961,NA,NA,2303.429145,NA,554.215961,2,psycho,1024,2,48000,-16,experiment,HHSHH,1,odd,NA,5908.717878,NA,NA,41735.98151,3546.296135,NA,NA,50735.94666,3586.751658,NA,49602.62744,50853.67607,51410.14499,50714.94842,50852.51927,Flanker Task,22,13185.94528,25,yes,1024
incongruent,88.46153846,88.46153846,528.7175635,528.7175635,black,psycho,psycho,psycho,0,uniform,1,undefined,1,h,0,0,0,0,25,0,25,0,25,0,0,25,25,25,25,25,Sun Sep 20 21:30:06 2020,1500,The main experiment item,yes,FlankerTask.osexp,/Users/tforestmoore/Desktop,no,mono,no,18,no,white,no,yes,768,psycho,25,25,/Users/tforestmoore/Desktop/TFM-subject-1.csv,psycho,Lentiform Loewenfeld,3.3.3,0,h,NA,NA,s,NA,h,560.711368,NA,NA,2303.429145,NA,560.711368,2,psycho,1024,2,48000,-16,experiment,SSHSS,1,odd,NA,5908.717878,NA,NA,41735.98151,3546.296135,NA,NA,52553.07404,3586.751658,NA,51419.21891,52669.77417,53232.97253,52530.6555,52669.17072,Flanker Task,23,13746.65665,26,yes,1024
incongruent,88.88888889,88.88888889,527.8360985,527.8360985,black,psycho,psycho,psycho,0,uniform,1,undefined,1,s,0,0,0,0,26,0,26,0,26,0,0,26,26,26,26,26,Sun Sep 20 21:30:06 2020,1500,The main experiment item,yes,FlankerTask.osexp,/Users/tforestmoore/Desktop,no,mono,no,18,no,white,no,yes,768,psycho,26,26,/Users/tforestmoore/Desktop/TFM-subject-1.csv,psycho,Lentiform Loewenfeld,3.3.3,0,s,NA,NA,s,NA,s,504.918008,NA,NA,2303.429145,NA,504.918008,2,psycho,1024,2,48000,-16,experiment,HHSHH,1,odd,NA,5908.717878,NA,NA,41735.98151,3546.296135,NA,NA,54386.0337,3586.751658,NA,53252.55869,54502.99979,55009.91052,54365.47172,54502.39709,Flanker Task,24,14251.57466,27,yes,1024
congruent,89.28571429,89.28571429,526.5855565,526.5855565,black,psycho,psycho,psycho,0,uniform,1,undefined,1,h,0,0,0,0,27,0,27,0,27,0,0,27,27,27,27,27,Sun Sep 20 21:30:06 2020,1500,The main experiment item,yes,FlankerTask.osexp,/Users/tforestmoore/Desktop,no,mono,no,18,no,white,no,yes,768,psycho,27,27,/Users/tforestmoore/Desktop/TFM-subject-1.csv,psycho,Lentiform Loewenfeld,3.3.3,0,h,NA,NA,s,NA,h,492.820922,NA,NA,2303.429145,NA,492.820922,2,psycho,1024,2,48000,-16,experiment,HHHHH,1,odd,NA,5908.717878,NA,NA,41735.98151,3546.296135,NA,NA,56152.09947,3586.751658,NA,55018.97041,56270.03692,56764.85079,56132.421,56268.95671,Flanker Task,25,14744.39558,28,yes,1024
congruent,89.65517241,89.65517241,532.0061828,532.0061828,black,psycho,psycho,psycho,0,uniform,1,undefined,1,s,0,0,0,0,28,0,28,0,28,0,0,28,28,28,28,28,Sun Sep 20 21:30:06 2020,1500,The main experiment item,yes,FlankerTask.osexp,/Users/tforestmoore/Desktop,no,mono,no,18,no,white,no,yes,768,psycho,28,28,/Users/tforestmoore/Desktop/TFM-subject-1.csv,psycho,Lentiform Loewenfeld,3.3.3,0,s,NA,NA,s,NA,s,683.783721,NA,NA,2303.429145,NA,683.783721,2,psycho,1024,2,48000,-16,experiment,SSSSS,1,odd,NA,5908.717878,NA,NA,41735.98151,3546.296135,NA,NA,57919.03878,3586.751658,NA,56785.7136,58036.77499,58722.81183,57900.50391,58035.70657,Flanker Task,26,15428.1793,29,yes,1024
congruent,90,90,528.6800794,528.6800794,black,psycho,psycho,psycho,0,uniform,1,undefined,1,h,0,0,0,0,29,0,29,0,29,0,0,29,29,29,29,29,Sun Sep 20 21:30:06 2020,1500,The main experiment item,yes,FlankerTask.osexp,/Users/tforestmoore/Desktop,no,mono,no,18,no,white,no,yes,768,psycho,29,29,/Users/tforestmoore/Desktop/TFM-subject-1.csv,psycho,Lentiform Loewenfeld,3.3.3,0,h,NA,NA,s,NA,h,432.22308,NA,NA,2303.429145,NA,432.22308,2,psycho,1024,2,48000,-16,experiment,HHHHH,1,odd,NA,5908.717878,NA,NA,41735.98151,3546.296135,NA,NA,59869.04341,3586.751658,NA,58735.72415,59986.90347,60421.19048,59850.61299,59985.6566,Flanker Task,27,15860.40238,30,yes,1024
incongruent,87.09677419,87.09677419,528.0690102,528.0690102,black,psycho,psycho,psycho,0,uniform,0,undefined,0,h,0,0,0,0,30,0,30,0,30,0,0,30,30,30,30,30,Sun Sep 20 21:30:06 2020,1500,The main experiment item,yes,FlankerTask.osexp,/Users/tforestmoore/Desktop,no,mono,no,18,no,white,no,yes,768,psycho,30,30,/Users/tforestmoore/Desktop/TFM-subject-1.csv,psycho,Lentiform Loewenfeld,3.3.3,0,s,NA,NA,s,NA,s,509.736933,NA,NA,2303.429145,NA,509.736933,2,psycho,1024,2,48000,-16,experiment,SSHSS,1,odd,NA,5908.717878,NA,NA,41735.98151,3546.296135,NA,NA,61568.99522,3586.751658,NA,60435.75583,61686.91945,62198.67685,61548.30159,61685.8118,Flanker Task,27,16370.13931,31,yes,1024
incongruent,87.5,87.5,528.7713112,528.7713112,black,psycho,psycho,psycho,0,uniform,1,undefined,1,h,0,0,0,0,31,0,31,0,31,0,0,31,31,31,31,31,Sun Sep 20 21:30:06 2020,1500,The main experiment item,yes,FlankerTask.osexp,/Users/tforestmoore/Desktop,no,mono,no,18,no,white,no,yes,768,psycho,31,31,/Users/tforestmoore/Desktop/TFM-subject-1.csv,psycho,Lentiform Loewenfeld,3.3.3,0,h,NA,NA,s,NA,h,550.542643,NA,NA,2303.429145,NA,550.542643,2,psycho,1024,2,48000,-16,experiment,SSHSS,1,odd,NA,5908.717878,NA,NA,62219.55526,3546.296135,NA,NA,63868.92382,3586.751658,NA,62735.6877,63986.34692,64539.09024,63860.75467,63985.55221,Flanker Task,28,16920.68196,32,yes,1024
incongruent,87.87878788,87.87878788,526.1685492,526.1685492,black,psycho,psycho,psycho,0,uniform,1,undefined,1,h,0,0,0,0,32,0,32,0,32,0,0,32,32,32,32,32,Sun Sep 20 21:30:06 2020,1500,The main experiment item,yes,FlankerTask.osexp,/Users/tforestmoore/Desktop,no,mono,no,18,no,white,no,yes,768,psycho,32,32,/Users/tforestmoore/Desktop/TFM-subject-1.csv,psycho,Lentiform Loewenfeld,3.3.3,0,h,NA,NA,s,NA,h,442.880164,NA,NA,2303.429145,NA,442.880164,2,psycho,1024,2,48000,-16,experiment,SSHSS,1,odd,NA,5908.717878,NA,NA,62219.55526,3546.296135,NA,NA,65685.89251,3586.751658,NA,64552.39593,65803.85458,66252.33791,65665.75185,65802.70837,Flanker Task,29,17363.56212,33,yes,1024
incongruent,88.23529412,88.23529412,522.8670733,522.8670733,black,psycho,psycho,psycho,0,uniform,1,undefined,1,h,0,0,0,0,33,0,33,0,33,0,0,33,33,33,33,33,Sun Sep 20 21:30:06 2020,1500,The main experiment item,yes,FlankerTask.osexp,/Users/tforestmoore/Desktop,no,mono,no,18,no,white,no,yes,768,psycho,33,33,/Users/tforestmoore/Desktop/TFM-subject-1.csv,psycho,Lentiform Loewenfeld,3.3.3,0,h,NA,NA,s,NA,h,413.918371,NA,NA,2303.429145,NA,413.918371,2,psycho,1024,2,48000,-16,experiment,SSHSS,1,odd,NA,5908.717878,NA,NA,62219.55526,3546.296135,NA,NA,67402.33214,3586.751658,NA,66268.99357,67520.21941,67936.19994,67381.52815,67519.0155,Flanker Task,30,17777.48049,34,yes,1024
incongruent,88.57142857,88.57142857,524.7049735,524.7049735,black,psycho,psycho,psycho,0,uniform,1,undefined,1,s,0,0,0,0,34,0,34,0,34,0,0,34,34,34,34,34,Sun Sep 20 21:30:06 2020,1500,The main experiment item,yes,FlankerTask.osexp,/Users/tforestmoore/Desktop,no,mono,no,18,no,white,no,yes,768,psycho,34,34,/Users/tforestmoore/Desktop/TFM-subject-1.csv,psycho,Lentiform Loewenfeld,3.3.3,0,s,NA,NA,s,NA,s,587.193579,NA,NA,2303.429145,NA,587.193579,2,psycho,1024,2,48000,-16,experiment,HHSHH,1,odd,NA,5908.717878,NA,NA,62219.55526,3546.296135,NA,NA,69085.62208,3586.751658,NA,67952.28274,69203.5286,69792.77237,69065.709,69202.41,Flanker Task,31,18364.67407,35,yes,1024
incongruent,88.88888889,88.88888889,525.0482367,525.0482367,black,psycho,psycho,psycho,0,uniform,1,undefined,1,s,0,0,0,0,35,0,35,0,35,0,0,35,35,35,35,35,Sun Sep 20 21:30:06 2020,1500,The main experiment item,yes,FlankerTask.osexp,/Users/tforestmoore/Desktop,no,mono,no,18,no,white,no,yes,768,psycho,35,35,/Users/tforestmoore/Desktop/TFM-subject-1.csv,psycho,Lentiform Loewenfeld,3.3.3,0,s,NA,NA,s,NA,s,537.062451,NA,NA,2303.429145,NA,537.062451,2,psycho,1024,2,48000,-16,experiment,HHSHH,1,odd,NA,5908.717878,NA,NA,62219.55526,3546.296135,NA,NA,70935.71106,3586.751658,NA,69802.2828,71053.40312,71596.38902,70915.54861,71052.26874,Flanker Task,32,18901.73652,36,yes,1024
incongruent,89.18918919,89.18918919,524.6368255,524.6368255,black,psycho,psycho,psycho,0,uniform,1,undefined,1,s,0,0,0,0,36,0,36,0,36,0,0,36,36,36,36,36,Sun Sep 20 21:30:06 2020,1500,The main experiment item,yes,FlankerTask.osexp,/Users/tforestmoore/Desktop,no,mono,no,18,no,white,no,yes,768,psycho,36,36,/Users/tforestmoore/Desktop/TFM-subject-1.csv,psycho,Lentiform Loewenfeld,3.3.3,0,s,NA,NA,s,NA,s,509.826021,NA,NA,2303.429145,NA,509.826021,2,psycho,1024,2,48000,-16,experiment,HHSHH,1,odd,NA,5908.717878,NA,NA,62219.55526,3546.296135,NA,NA,72752.77593,3586.751658,NA,71618.62093,72869.50228,73381.34373,72732.3768,72868.89761,Flanker Task,33,19411.56254,37,yes,1024
incongruent,89.47368421,89.47368421,526.7470266,526.7470266,black,psycho,psycho,psycho,0,uniform,1,undefined,1,h,0,0,0,0,37,0,37,0,37,0,0,37,37,37,37,37,Sun Sep 20 21:30:06 2020,1500,The main experiment item,yes,FlankerTask.osexp,/Users/tforestmoore/Desktop,no,mono,no,18,no,white,no,yes,768,psycho,37,37,/Users/tforestmoore/Desktop/TFM-subject-1.csv,psycho,Lentiform Loewenfeld,3.3.3,0,h,NA,NA,s,NA,h,604.824467,NA,NA,2303.429145,NA,604.824467,2,psycho,1024,2,48000,-16,experiment,SSHSS,1,odd,NA,5908.717878,NA,NA,62219.55526,3546.296135,NA,NA,74535.50345,3586.751658,NA,73402.17334,74653.31893,75260.26012,74513.61785,74652.19995,Flanker Task,34,20016.38701,38,yes,1024
incongruent,89.74358974,89.74358974,528.4789732,528.4789732,black,psycho,psycho,psycho,0,uniform,1,undefined,1,s,0,0,0,0,38,0,38,0,38,0,0,38,38,38,38,38,Sun Sep 20 21:30:06 2020,1500,The main experiment item,yes,FlankerTask.osexp,/Users/tforestmoore/Desktop,no,mono,no,18,no,white,no,yes,768,psycho,38,38,/Users/tforestmoore/Desktop/TFM-subject-1.csv,psycho,Lentiform Loewenfeld,3.3.3,0,s,NA,NA,s,NA,s,594.292943,NA,NA,2303.429145,NA,594.292943,2,psycho,1024,2,48000,-16,experiment,HHSHH,1,odd,NA,5908.717878,NA,NA,62219.55526,3546.296135,NA,NA,76402.12914,3586.751658,NA,75269.0225,76519.95162,77116.30201,76382.03353,76518.77956,Flanker Task,35,20610.67995,39,yes,1024
incongruent,90,90,528.7383697,528.7383697,black,psycho,psycho,psycho,0,uniform,1,undefined,1,h,0,0,0,0,39,0,39,0,39,0,0,39,39,39,39,39,Sun Sep 20 21:30:06 2020,1500,The main experiment item,yes,FlankerTask.osexp,/Users/tforestmoore/Desktop,no,mono,no,18,no,white,no,yes,768,psycho,39,39,/Users/tforestmoore/Desktop/TFM-subject-1.csv,psycho,Lentiform Loewenfeld,3.3.3,0,h,NA,NA,s,NA,h,538.854833,NA,NA,2303.429145,NA,538.854833,2,psycho,1024,2,48000,-16,experiment,SSHSS,1,odd,NA,5908.717878,NA,NA,62219.55526,3546.296135,NA,NA,78268.77206,3586.751658,NA,77135.44966,78386.65385,78927.53034,78248.49123,78385.39544,Flanker Task,36,21149.53479,40,yes,1024
incongruent,90.24390244,90.24390244,529.4030999,529.4030999,black,psycho,psycho,psycho,0,uniform,1,undefined,1,s,0,0,0,0,40,0,40,0,40,0,0,40,40,40,40,40,Sun Sep 20 21:30:06 2020,1500,The main experiment item,yes,FlankerTask.osexp,/Users/tforestmoore/Desktop,no,mono,no,18,no,white,no,yes,768,psycho,40,40,/Users/tforestmoore/Desktop/TFM-subject-1.csv,psycho,Lentiform Loewenfeld,3.3.3,0,s,NA,NA,s,NA,s,555.992308,NA,NA,2303.429145,NA,555.992308,2,psycho,1024,2,48000,-16,experiment,HHSHH,1,odd,NA,5908.717878,NA,NA,62219.55526,3546.296135,NA,NA,80085.37356,3586.751658,NA,78952.00959,80203.28744,80761.46797,80065.31732,80202.15347,Flanker Task,37,21705.52709,41,yes,1024
incongruent,90.47619048,90.47619048,532.7307474,532.7307474,black,psycho,psycho,psycho,0,uniform,1,undefined,1,s,0,0,0,0,41,0,41,0,41,0,0,41,41,41,41,41,Sun Sep 20 21:30:06 2020,1500,The main experiment item,yes,FlankerTask.osexp,/Users/tforestmoore/Desktop,no,mono,no,18,no,white,no,yes,768,psycho,41,41,/Users/tforestmoore/Desktop/TFM-subject-1.csv,psycho,Lentiform Loewenfeld,3.3.3,0,s,NA,NA,s,NA,s,669.164296,NA,NA,2303.429145,NA,669.164296,2,psycho,1024,2,48000,-16,experiment,HHSHH,1,odd,NA,5908.717878,NA,NA,62219.55526,3546.296135,NA,NA,81918.85241,3586.751658,NA,80785.36111,82036.56907,82711.40562,81898.0949,82035.43835,Flanker Task,38,22374.69139,42,yes,1024
congruent,90.69767442,90.69767442,532.4149065,532.4149065,black,psycho,psycho,psycho,0,uniform,1,undefined,1,s,0,0,0,0,42,0,42,0,42,0,0,42,42,42,42,42,Sun Sep 20 21:30:06 2020,1500,The main experiment item,yes,FlankerTask.osexp,/Users/tforestmoore/Desktop,no,mono,no,18,no,white,no,yes,768,psycho,42,42,/Users/tforestmoore/Desktop/TFM-subject-1.csv,psycho,Lentiform Loewenfeld,3.3.3,0,s,NA,NA,s,NA,s,519.14959,NA,NA,2303.429145,NA,519.14959,2,psycho,1024,2,48000,-16,experiment,SSSSS,1,odd,NA,5908.717878,NA,NA,62219.55526,3546.296135,NA,NA,83868.84232,3586.751658,NA,82735.84885,83986.47965,84507.86337,83848.94486,83985.61342,Flanker Task,39,22893.84098,43,yes,1024
incongruent,90.90909091,90.90909091,531.3320955,531.3320955,black,psycho,psycho,psycho,0,uniform,1,undefined,1,h,0,0,0,0,43,0,43,0,43,0,0,43,43,43,43,43,Sun Sep 20 21:30:06 2020,1500,The main experiment item,yes,FlankerTask.osexp,/Users/tforestmoore/Desktop,no,mono,no,18,no,white,no,yes,768,psycho,43,43,/Users/tforestmoore/Desktop/TFM-subject-1.csv,psycho,Lentiform Loewenfeld,3.3.3,0,h,NA,NA,s,NA,h,484.771221,NA,NA,2303.429145,NA,484.771221,2,psycho,1024,2,48000,-16,experiment,SSHSS,1,odd,NA,5908.717878,NA,NA,62219.55526,3546.296135,NA,NA,85635.41366,3586.751658,NA,84518.6496,85753.2505,86240.11837,85625.71811,85752.03559,Flanker Task,40,23378.6122,44,yes,1024
incongruent,91.11111111,91.11111111,531.6635856,531.6635856,black,psycho,psycho,psycho,0,uniform,1,undefined,1,s,0,0,0,0,44,0,44,0,44,0,0,44,44,44,44,44,Sun Sep 20 21:30:06 2020,1500,The main experiment item,yes,FlankerTask.osexp,/Users/tforestmoore/Desktop,no,mono,no,18,no,white,no,yes,768,psycho,44,44,/Users/tforestmoore/Desktop/TFM-subject-1.csv,psycho,Lentiform Loewenfeld,3.3.3,0,s,NA,NA,s,NA,s,546.249149,NA,NA,2303.429145,NA,546.249149,2,psycho,1024,2,48000,-16,experiment,HHSHH,1,odd,NA,5908.717878,NA,NA,62219.55526,3546.296135,NA,NA,87385.41234,3586.751658,NA,86251.99917,87503.27641,88051.53193,87365.24233,87502.14209,Flanker Task,41,23924.86135,45,yes,1024
congruent,91.30434783,91.30434783,530.8862707,530.8862707,black,psycho,psycho,psycho,0,uniform,1,undefined,1,h,0,0,0,0,45,0,45,0,45,0,0,45,45,45,45,45,Sun Sep 20 21:30:06 2020,1500,The main experiment item,yes,FlankerTask.osexp,/Users/tforestmoore/Desktop,no,mono,no,18,no,white,no,yes,768,psycho,45,45,/Users/tforestmoore/Desktop/TFM-subject-1.csv,psycho,Lentiform Loewenfeld,3.3.3,0,h,NA,NA,s,NA,h,495.9071,NA,NA,2303.429145,NA,495.9071,2,psycho,1024,2,48000,-16,experiment,HHHHH,1,odd,NA,5908.717878,NA,NA,62219.55526,3546.296135,NA,NA,89202.00116,3586.751658,NA,88068.70917,89319.79506,89817.88009,89181.51027,89318.696,Flanker Task,42,24420.76845,46,yes,1024
congruent,91.4893617,91.4893617,530.6100568,530.6100568,black,psycho,psycho,psycho,0,uniform,1,undefined,1,h,0,0,0,0,46,0,46,0,46,0,0,46,46,46,46,46,Sun Sep 20 21:30:06 2020,1500,The main experiment item,yes,FlankerTask.osexp,/Users/tforestmoore/Desktop,no,mono,no,18,no,white,no,yes,768,psycho,46,46,/Users/tforestmoore/Desktop/TFM-subject-1.csv,psycho,Lentiform Loewenfeld,3.3.3,0,h,NA,NA,s,NA,h,517.90422,NA,NA,2303.429145,NA,517.90422,2,psycho,1024,2,48000,-16,experiment,HHHHH,1,odd,NA,5908.717878,NA,NA,62219.55526,3546.296135,NA,NA,90968.7198,3586.751658,NA,89835.17717,91086.43887,91610.41021,90953.39254,91085.29161,Flanker Task,43,24938.67267,47,yes,1024
incongruent,91.66666667,91.66666667,532.4698885,532.4698885,black,psycho,psycho,psycho,0,uniform,1,undefined,1,s,0,0,0,0,47,0,47,0,47,0,0,47,47,47,47,47,Sun Sep 20 21:30:06 2020,1500,The main experiment item,yes,FlankerTask.osexp,/Users/tforestmoore/Desktop,no,mono,no,18,no,white,no,yes,768,psycho,47,47,/Users/tforestmoore/Desktop/TFM-subject-1.csv,psycho,Lentiform Loewenfeld,3.3.3,0,s,NA,NA,s,NA,s,619.881977,NA,NA,2303.429145,NA,619.881977,2,psycho,1024,2,48000,-16,experiment,HHSHH,1,odd,NA,5908.717878,NA,NA,62219.55526,3546.296135,NA,NA,92769.18866,3586.751658,NA,91635.42088,92885.9119,93507.82231,92749.54411,92885.30268,Flanker Task,44,25558.55465,48,yes,1024
incongruent,91.83673469,91.83673469,530.7046234,530.7046234,black,psycho,psycho,psycho,0,uniform,1,undefined,1,h,0,0,0,0,48,0,48,0,48,0,0,48,48,48,48,48,Sun Sep 20 21:30:06 2020,1500,The main experiment item,yes,FlankerTask.osexp,/Users/tforestmoore/Desktop,no,mono,no,18,no,white,no,yes,768,psycho,48,48,/Users/tforestmoore/Desktop/TFM-subject-1.csv,psycho,Lentiform Loewenfeld,3.3.3,0,h,NA,NA,s,NA,h,445.971897,NA,NA,2303.429145,NA,445.971897,2,psycho,1024,2,48000,-16,experiment,SSHSS,1,odd,NA,5908.717878,NA,NA,62219.55526,3546.296135,NA,NA,94651.84522,3586.751658,NA,93518.61032,94769.66176,95217.78779,94631.46379,94768.59062,Flanker Task,45,26004.52654,49,yes,1024
incongruent,92,92,531.1273914,531.1273914,black,psycho,psycho,psycho,0,uniform,1,undefined,1,h,0,0,0,0,49,0,49,0,49,0,0,49,49,49,49,49,Sun Sep 20 21:30:06 2020,1500,The main experiment item,yes,FlankerTask.osexp,/Users/tforestmoore/Desktop,no,mono,no,18,no,white,no,yes,768,psycho,49,49,/Users/tforestmoore/Desktop/TFM-subject-1.csv,psycho,Lentiform Loewenfeld,3.3.3,0,h,NA,NA,s,NA,h,551.843024,NA,NA,2303.429145,NA,551.843024,2,psycho,1024,2,48000,-16,experiment,SSHSS,1,odd,NA,5908.717878,NA,NA,62219.55526,3546.296135,NA,NA,96368.47107,3586.751658,NA,95235.28684,96486.3154,97043.93027,96347.94676,96485.21174,Flanker Task,46,26556.36957,50,yes,1024
congruent,92.15686275,92.15686275,528.6730327,528.6730327,black,psycho,psycho,psycho,0,uniform,1,undefined,1,s,0,0,0,0,50,0,50,0,50,0,0,50,50,50,50,50,Sun Sep 20 21:30:06 2020,1500,The main experiment item,yes,FlankerTask.osexp,/Users/tforestmoore/Desktop,no,mono,no,18,no,white,no,yes,768,psycho,50,50,/Users/tforestmoore/Desktop/TFM-subject-1.csv,psycho,Lentiform Loewenfeld,3.3.3,0,s,NA,NA,s,NA,s,405.955099,NA,NA,2303.429145,NA,405.955099,2,psycho,1024,2,48000,-16,experiment,SSSSS,1,odd,NA,5908.717878,NA,NA,62219.55526,3546.296135,NA,NA,98201.6806,3586.751658,NA,97068.45968,98319.8768,98727.99041,98180.2298,98318.47559,Flanker Task,47,26962.32467,51,yes,1024
congruent,92.30769231,92.30769231,525.3139214,525.3139214,black,psycho,psycho,psycho,0,uniform,1,undefined,1,h,0,0,0,0,51,0,51,0,51,0,0,51,51,51,51,51,Sun Sep 20 21:30:06 2020,1500,The main experiment item,yes,FlankerTask.osexp,/Users/tforestmoore/Desktop,no,mono,no,18,no,white,no,yes,768,psycho,51,51,/Users/tforestmoore/Desktop/TFM-subject-1.csv,psycho,Lentiform Loewenfeld,3.3.3,0,h,NA,NA,s,NA,h,353.999246,NA,NA,2303.429145,NA,353.999246,2,psycho,1024,2,48000,-16,experiment,HHHHH,1,odd,NA,5908.717878,NA,NA,62219.55526,3546.296135,NA,NA,99885.14392,3586.751658,NA,98751.15092,100002.9839,100359.397,99864.50661,100001.8302,Flanker Task,48,27316.32391,52,yes,1024
congruent,92.45283019,92.45283019,524.0580373,524.0580373,black,psycho,psycho,psycho,0,uniform,1,undefined,1,h,0,0,0,0,52,0,52,0,52,0,0,52,52,52,52,52,Sun Sep 20 21:30:06 2020,1500,The main experiment item,yes,FlankerTask.osexp,/Users/tforestmoore/Desktop,no,mono,no,18,no,white,no,yes,768,psycho,52,52,/Users/tforestmoore/Desktop/TFM-subject-1.csv,psycho,Lentiform Loewenfeld,3.3.3,0,h,NA,NA,s,NA,h,458.752063,NA,NA,2303.429145,NA,458.752063,2,psycho,1024,2,48000,-16,experiment,HHHHH,1,odd,NA,5908.717878,NA,NA,62219.55526,3546.296135,NA,NA,101501.5229,3586.751658,NA,100368.456,101619.4436,102083.5803,101486.6199,101618.2606,Flanker Task,49,27775.07598,53,yes,1024
incongruent,92.59259259,92.59259259,524.5104699,524.5104699,black,psycho,psycho,psycho,0,uniform,1,undefined,1,h,0,0,0,0,53,0,53,0,53,0,0,53,53,53,53,53,Sun Sep 20 21:30:06 2020,1500,The main experiment item,yes,FlankerTask.osexp,/Users/tforestmoore/Desktop,no,mono,no,18,no,white,no,yes,768,psycho,53,53,/Users/tforestmoore/Desktop/TFM-subject-1.csv,psycho,Lentiform Loewenfeld,3.3.3,0,h,NA,NA,s,NA,h,548.489397,NA,NA,2303.429145,NA,548.489397,2,psycho,1024,2,48000,-16,experiment,SSHSS,1,odd,NA,5908.717878,NA,NA,62219.55526,3546.296135,NA,NA,103235.6498,3586.751658,NA,102101.5263,103352.3923,103903.1573,103214.549,103351.7922,Flanker Task,50,28323.56537,54,yes,1024
congruent,92.72727273,92.72727273,522.1916465,522.1916465,black,psycho,psycho,psycho,0,uniform,1,undefined,1,h,0,0,0,0,54,0,54,0,54,0,0,54,54,54,54,54,Sun Sep 20 21:30:06 2020,1500,The main experiment item,yes,FlankerTask.osexp,/Users/tforestmoore/Desktop,no,mono,no,18,no,white,no,yes,768,psycho,54,54,/Users/tforestmoore/Desktop/TFM-subject-1.csv,psycho,Lentiform Loewenfeld,3.3.3,0,h,NA,NA,s,NA,h,396.975185,NA,NA,2303.429145,NA,396.975185,2,psycho,1024,2,48000,-16,experiment,HHHHH,1,odd,NA,5908.717878,NA,NA,62219.55526,3546.296135,NA,NA,105052.0206,3586.751658,NA,103918.478,105168.9237,105570.9505,105030.3268,105168.3252,Flanker Task,51,28720.54056,55,yes,1024
congruent,92.85714286,92.85714286,520.7138762,520.7138762,black,psycho,psycho,psycho,0,uniform,1,undefined,1,h,0,0,0,0,55,0,55,0,55,0,0,55,55,55,55,55,Sun Sep 20 21:30:06 2020,1500,The main experiment item,yes,FlankerTask.osexp,/Users/tforestmoore/Desktop,no,mono,no,18,no,white,no,yes,768,psycho,55,55,/Users/tforestmoore/Desktop/TFM-subject-1.csv,psycho,Lentiform Loewenfeld,3.3.3,0,h,NA,NA,s,NA,h,439.436511,NA,NA,2303.429145,NA,439.436511,2,psycho,1024,2,48000,-16,experiment,HHHHH,1,odd,NA,5908.717878,NA,NA,62219.55526,3546.296135,NA,NA,106718.3702,3586.751658,NA,105584.9792,106836.3513,107278.0203,106698.3879,106835.2123,Flanker Task,52,29159.97707,56,yes,1024
incongruent,92.98245614,92.98245614,521.7403202,521.7403202,black,psycho,psycho,psycho,0,uniform,1,undefined,1,s,0,0,0,0,56,0,56,0,56,0,0,56,56,56,56,56,Sun Sep 20 21:30:06 2020,1500,The main experiment item,yes,FlankerTask.osexp,/Users/tforestmoore/Desktop,no,mono,no,18,no,white,no,yes,768,psycho,56,56,/Users/tforestmoore/Desktop/TFM-subject-1.csv,psycho,Lentiform Loewenfeld,3.3.3,0,s,NA,NA,s,NA,s,579.221181,NA,NA,2303.429145,NA,579.221181,2,psycho,1024,2,48000,-16,experiment,HHSHH,1,odd,NA,5908.717878,NA,NA,62219.55526,3546.296135,NA,NA,108434.9884,3586.751658,NA,107301.7141,108552.7982,109134.1972,108416.6519,108551.7221,Flanker Task,53,29739.19825,57,yes,1024
congruent,93.10344828,93.10344828,520.3123319,520.3123319,black,psycho,psycho,psycho,0,uniform,1,undefined,1,h,0,0,0,0,57,0,57,0,57,0,0,57,57,57,57,57,Sun Sep 20 21:30:06 2020,1500,The main experiment item,yes,FlankerTask.osexp,/Users/tforestmoore/Desktop,no,mono,no,18,no,white,no,yes,768,psycho,57,57,/Users/tforestmoore/Desktop/TFM-subject-1.csv,psycho,Lentiform Loewenfeld,3.3.3,0,h,NA,NA,s,NA,h,438.917001,NA,NA,2303.429145,NA,438.917001,2,psycho,1024,2,48000,-16,experiment,HHHHH,1,odd,NA,5908.717878,NA,NA,62219.55526,3546.296135,NA,NA,110284.9891,3586.751658,NA,109151.6402,110403.058,110844.2297,110264.6189,110401.943,Flanker Task,54,30178.11525,58,yes,1024
incongruent,91.52542373,91.52542373,519.9686498,519.9686498,black,psycho,psycho,psycho,0,uniform,0,undefined,0,h,0,0,0,0,58,0,58,0,58,0,0,58,58,58,58,58,Sun Sep 20 21:30:06 2020,1500,The main experiment item,yes,FlankerTask.osexp,/Users/tforestmoore/Desktop,no,mono,no,18,no,white,no,yes,768,psycho,58,58,/Users/tforestmoore/Desktop/TFM-subject-1.csv,psycho,Lentiform Loewenfeld,3.3.3,0,s,NA,NA,s,NA,s,500.035085,NA,NA,2303.429145,NA,500.035085,2,psycho,1024,2,48000,-16,experiment,SSHSS,1,odd,NA,5908.717878,NA,NA,62219.55526,3546.296135,NA,NA,112001.6349,3586.751658,NA,110868.306,112119.3925,112621.8482,111981.4798,112118.2765,Flanker Task,54,30678.15034,59,yes,1024
incongruent,91.66666667,91.66666667,521.5208621,521.5208621,black,psycho,psycho,psycho,0,uniform,1,undefined,1,s,0,0,0,0,59,0,59,0,59,0,0,59,59,59,59,59,Sun Sep 20 21:30:06 2020,1500,The main experiment item,yes,FlankerTask.osexp,/Users/tforestmoore/Desktop,no,mono,no,18,no,white,no,yes,768,psycho,59,59,/Users/tforestmoore/Desktop/TFM-subject-1.csv,psycho,Lentiform Loewenfeld,3.3.3,0,s,NA,NA,s,NA,s,613.10139,NA,NA,2303.429145,NA,613.10139,2,psycho,1024,2,48000,-16,experiment,HHSHH,1,odd,NA,5908.717878,NA,NA,112634.812,3546.296135,NA,NA,114252.6193,3586.751658,NA,113152.5867,114368.9928,114984.2352,114244.1927,114368.3874,Flanker Task,55,31291.25173,60,yes,1024
congruent,91.80327869,91.80327869,522.5619654,522.5619654,black,psycho,psycho,psycho,0,uniform,1,undefined,1,h,0,0,0,0,60,0,60,0,60,0,0,60,60,60,60,60,Sun Sep 20 21:30:06 2020,1500,The main experiment item,yes,FlankerTask.osexp,/Users/tforestmoore/Desktop,no,mono,no,18,no,white,no,yes,768,psycho,60,60,/Users/tforestmoore/Desktop/TFM-subject-1.csv,psycho,Lentiform Loewenfeld,3.3.3,0,h,NA,NA,s,NA,h,585.02816,NA,NA,2303.429145,NA,585.02816,2,psycho,1024,2,48000,-16,experiment,HHHHH,1,odd,NA,5908.717878,NA,NA,112634.812,3546.296135,NA,NA,116101.5829,3586.751658,NA,115001.6412,116219.5056,116807.0637,116094.1291,116218.3607,Flanker Task,56,31876.27989,61,yes,1024
incongruent,91.93548387,91.93548387,525.4816074,525.4816074,black,psycho,psycho,psycho,0,uniform,1,undefined,1,s,0,0,0,0,61,0,61,0,61,0,0,61,61,61,61,61,Sun Sep 20 21:30:06 2020,1500,The main experiment item,yes,FlankerTask.osexp,/Users/tforestmoore/Desktop,no,mono,no,18,no,white,no,yes,768,psycho,61,61,/Users/tforestmoore/Desktop/TFM-subject-1.csv,psycho,Lentiform Loewenfeld,3.3.3,0,s,NA,NA,s,NA,s,703.579774,NA,NA,2303.429145,NA,703.579774,2,psycho,1024,2,48000,-16,experiment,HHSHH,1,odd,NA,5908.717878,NA,NA,112634.812,3546.296135,NA,NA,117918.1085,3586.751658,NA,116818.3029,118036.0623,118741.8859,117909.8822,118034.969,Flanker Task,57,32579.85966,62,yes,1024
congruent,92.06349206,92.06349206,527.081564,527.081564,black,psycho,psycho,psycho,0,uniform,1,undefined,1,s,0,0,0,0,62,0,62,0,62,0,0,62,62,62,62,62,Sun Sep 20 21:30:06 2020,1500,The main experiment item,yes,FlankerTask.osexp,/Users/tforestmoore/Desktop,no,mono,no,18,no,white,no,yes,768,psycho,62,62,/Users/tforestmoore/Desktop/TFM-subject-1.csv,psycho,Lentiform Loewenfeld,3.3.3,0,s,NA,NA,s,NA,s,626.278873,NA,NA,2303.429145,NA,626.278873,2,psycho,1024,2,48000,-16,experiment,SSSSS,1,odd,NA,5908.717878,NA,NA,112634.812,3546.296135,NA,NA,119851.4234,3586.751658,NA,118751.5695,119969.4565,120601.2381,119842.1619,119968.2986,Flanker Task,58,33206.13853,63,yes,1024
incongruent,92.1875,92.1875,527.4169272,527.4169272,black,psycho,psycho,psycho,0,uniform,1,undefined,1,s,0,0,0,0,63,0,63,0,63,0,0,63,63,63,63,63,Sun Sep 20 21:30:06 2020,1500,The main experiment item,yes,FlankerTask.osexp,/Users/tforestmoore/Desktop,no,mono,no,18,no,white,no,yes,768,psycho,63,63,/Users/tforestmoore/Desktop/TFM-subject-1.csv,psycho,Lentiform Loewenfeld,3.3.3,0,s,NA,NA,s,NA,s,548.54481,NA,NA,2303.429145,NA,548.54481,2,psycho,1024,2,48000,-16,experiment,HHSHH,1,odd,NA,5908.717878,NA,NA,112634.812,3546.296135,NA,NA,121718.1563,3586.751658,NA,120618.1977,121836.0038,122386.8929,121710.732,121834.8642,Flanker Task,59,33754.68334,64,yes,1024
incongruent,92.30769231,92.30769231,530.0833319,530.0833319,black,psycho,psycho,psycho,0,uniform,1,undefined,1,h,0,0,0,0,64,0,64,0,64,0,0,64,64,64,64,64,Sun Sep 20 21:30:06 2020,1500,The main experiment item,yes,FlankerTask.osexp,/Users/tforestmoore/Desktop,no,mono,no,18,no,white,no,yes,768,psycho,64,64,/Users/tforestmoore/Desktop/TFM-subject-1.csv,psycho,Lentiform Loewenfeld,3.3.3,0,h,NA,NA,s,NA,h,700.733229,NA,NA,2303.429145,NA,700.733229,2,psycho,1024,2,48000,-16,experiment,SSHSS,1,odd,NA,5908.717878,NA,NA,112634.812,3546.296135,NA,NA,123502.185,3586.751658,NA,122401.566,123618.764,124321.6604,123493.0174,123618.1626,Flanker Task,60,34455.41657,65,yes,1024
congruent,92.42424242,92.42424242,529.96145,529.96145,black,psycho,psycho,psycho,0,uniform,1,undefined,1,s,0,0,0,0,65,0,65,0,65,0,0,65,65,65,65,65,Sun Sep 20 21:30:06 2020,1500,The main experiment item,yes,FlankerTask.osexp,/Users/tforestmoore/Desktop,no,mono,no,18,no,white,no,yes,768,psycho,65,65,/Users/tforestmoore/Desktop/TFM-subject-1.csv,psycho,Lentiform Loewenfeld,3.3.3,0,s,NA,NA,s,NA,s,522.039127,NA,NA,2303.429145,NA,522.039127,2,psycho,1024,2,48000,-16,experiment,SSSSS,1,odd,NA,5908.717878,NA,NA,112634.812,3546.296135,NA,NA,125434.5311,3586.751658,NA,124334.8097,125552.6072,126077.0141,125425.2162,125551.4674,Flanker Task,61,34977.4557,66,yes,1024
congruent,92.53731343,92.53731343,531.6162343,531.6162343,black,psycho,psycho,psycho,0,uniform,1,undefined,1,s,0,0,0,0,66,0,66,0,66,0,0,66,66,66,66,66,Sun Sep 20 21:30:06 2020,1500,The main experiment item,yes,FlankerTask.osexp,/Users/tforestmoore/Desktop,no,mono,no,18,no,white,no,yes,768,psycho,66,66,/Users/tforestmoore/Desktop/TFM-subject-1.csv,psycho,Lentiform Loewenfeld,3.3.3,0,s,NA,NA,s,NA,s,640.831996,NA,NA,2303.429145,NA,640.831996,2,psycho,1024,2,48000,-16,experiment,SSSSS,1,odd,NA,5908.717878,NA,NA,112634.812,3546.296135,NA,NA,127218.324,3586.751658,NA,126101.4341,127335.2406,127981.7085,127196.5059,127334.8089,Flanker Task,62,35618.2877,67,yes,1024
congruent,92.64705882,92.64705882,532.3146669,532.3146669,black,psycho,psycho,psycho,0,uniform,1,undefined,1,s,0,0,0,0,67,0,67,0,67,0,0,67,67,67,67,67,Sun Sep 20 21:30:06 2020,1500,The main experiment item,yes,FlankerTask.osexp,/Users/tforestmoore/Desktop,no,mono,no,18,no,white,no,yes,768,psycho,67,67,/Users/tforestmoore/Desktop/TFM-subject-1.csv,psycho,Lentiform Loewenfeld,3.3.3,0,s,NA,NA,s,NA,s,579.109656,NA,NA,2303.429145,NA,579.109656,2,psycho,1024,2,48000,-16,experiment,SSSSS,1,odd,NA,5908.717878,NA,NA,112634.812,3546.296135,NA,NA,129101.6327,3586.751658,NA,128001.3804,129219.3304,129800.7079,129093.574,129218.1437,Flanker Task,63,36197.39735,68,yes,1024
congruent,92.75362319,92.75362319,531.125441,531.125441,black,psycho,psycho,psycho,0,uniform,1,undefined,1,s,0,0,0,0,68,0,68,0,68,0,0,68,68,68,68,68,Sun Sep 20 21:30:06 2020,1500,The main experiment item,yes,FlankerTask.osexp,/Users/tforestmoore/Desktop,no,mono,no,18,no,white,no,yes,768,psycho,68,68,/Users/tforestmoore/Desktop/TFM-subject-1.csv,psycho,Lentiform Loewenfeld,3.3.3,0,s,NA,NA,s,NA,s,450.258075,NA,NA,2303.429145,NA,450.258075,2,psycho,1024,2,48000,-16,experiment,SSSSS,1,odd,NA,5908.717878,NA,NA,112634.812,3546.296135,NA,NA,130917.9009,3586.751658,NA,129818.1816,131035.5654,131492.0587,130909.5615,131034.6767,Flanker Task,64,36647.65543,69,yes,1024
incongruent,92.85714286,92.85714286,528.8991333,528.8991333,black,psycho,psycho,psycho,0,uniform,1,undefined,1,s,0,0,0,0,69,0,69,0,69,0,0,69,69,69,69,69,Sun Sep 20 21:30:06 2020,1500,The main experiment item,yes,FlankerTask.osexp,/Users/tforestmoore/Desktop,no,mono,no,18,no,white,no,yes,768,psycho,69,69,/Users/tforestmoore/Desktop/TFM-subject-1.csv,psycho,Lentiform Loewenfeld,3.3.3,0,s,NA,NA,s,NA,s,375.283902,NA,NA,2303.429145,NA,375.283902,2,psycho,1024,2,48000,-16,experiment,HHSHH,1,odd,NA,5908.717878,NA,NA,112634.812,3546.296135,NA,NA,132601.4095,3586.751658,NA,131501.8312,132719.3323,133096.8866,132593.1795,132718.0944,Flanker Task,65,37022.93933,70,yes,1024
congruent,92.95774648,92.95774648,527.4256283,527.4256283,black,psycho,psycho,psycho,0,uniform,1,undefined,1,h,0,0,0,0,70,0,70,0,70,0,0,70,70,70,70,70,Sun Sep 20 21:30:06 2020,1500,The main experiment item,yes,FlankerTask.osexp,/Users/tforestmoore/Desktop,no,mono,no,18,no,white,no,yes,768,psycho,70,70,/Users/tforestmoore/Desktop/TFM-subject-1.csv,psycho,Lentiform Loewenfeld,3.3.3,0,h,NA,NA,s,NA,h,424.280278,NA,NA,2303.429145,NA,424.280278,2,psycho,1024,2,48000,-16,experiment,HHHHH,1,odd,NA,5908.717878,NA,NA,112634.812,3546.296135,NA,NA,134218.7374,3586.751658,NA,133118.1482,134335.332,134761.745,134210.1465,134334.733,Flanker Task,66,37447.21961,71,yes,1024
congruent,93.05555556,93.05555556,527.2144272,527.2144272,black,psycho,psycho,psycho,0,uniform,1,undefined,1,s,0,0,0,0,71,0,71,0,71,0,0,71,71,71,71,71,Sun Sep 20 21:30:06 2020,1500,The main experiment item,yes,FlankerTask.osexp,/Users/tforestmoore/Desktop,no,mono,no,18,no,white,no,yes,768,psycho,71,71,/Users/tforestmoore/Desktop/TFM-subject-1.csv,psycho,Lentiform Loewenfeld,3.3.3,0,s,NA,NA,s,NA,s,512.219148,NA,NA,2303.429145,NA,512.219148,2,psycho,1024,2,48000,-16,experiment,SSSSS,1,odd,NA,5908.717878,NA,NA,112634.812,3546.296135,NA,NA,135884.43,3586.751658,NA,134784.765,136002.5424,136516.9341,135875.8586,136001.3923,Flanker Task,67,37959.43875,72,yes,1024
congruent,93.15068493,93.15068493,526.1515113,526.1515113,black,psycho,psycho,psycho,0,uniform,1,undefined,1,s,0,0,0,0,72,0,72,0,72,0,0,72,72,72,72,72,Sun Sep 20 21:30:06 2020,1500,The main experiment item,yes,FlankerTask.osexp,/Users/tforestmoore/Desktop,no,mono,no,18,no,white,no,yes,768,psycho,72,72,/Users/tforestmoore/Desktop/TFM-subject-1.csv,psycho,Lentiform Loewenfeld,3.3.3,0,s,NA,NA,s,NA,s,449.621571,NA,NA,2303.429145,NA,449.621571,2,psycho,1024,2,48000,-16,experiment,SSSSS,1,odd,NA,5908.717878,NA,NA,112634.812,3546.296135,NA,NA,137634.7783,3586.751658,NA,136534.7125,137752.5486,138207.9307,137625.3988,137751.4101,Flanker Task,68,38409.06033,73,yes,1024
congruent,93.24324324,93.24324324,525.1790671,525.1790671,black,psycho,psycho,psycho,0,uniform,1,undefined,1,h,0,0,0,0,73,0,73,0,73,0,0,73,73,73,73,73,Sun Sep 20 21:30:06 2020,1500,The main experiment item,yes,FlankerTask.osexp,/Users/tforestmoore/Desktop,no,mono,no,18,no,white,no,yes,768,psycho,73,73,/Users/tforestmoore/Desktop/TFM-subject-1.csv,psycho,Lentiform Loewenfeld,3.3.3,0,h,NA,NA,s,NA,h,454.190636,NA,NA,2303.429145,NA,454.190636,2,psycho,1024,2,48000,-16,experiment,HHHHH,1,odd,NA,5908.717878,NA,NA,112634.812,3546.296135,NA,NA,139351.3795,3586.751658,NA,138218.3145,139469.163,139925.5741,139331.2617,139468.0312,Flanker Task,69,38863.25096,74,yes,1024
congruent,93.33333333,93.33333333,523.8567325,523.8567325,black,psycho,psycho,psycho,0,uniform,1,undefined,1,h,0,0,0,0,74,0,74,0,74,0,0,74,74,74,74,74,Sun Sep 20 21:30:06 2020,1500,The main experiment item,yes,FlankerTask.osexp,/Users/tforestmoore/Desktop,no,mono,no,18,no,white,no,yes,768,psycho,74,74,/Users/tforestmoore/Desktop/TFM-subject-1.csv,psycho,Lentiform Loewenfeld,3.3.3,0,h,NA,NA,s,NA,h,426.003979,NA,NA,2303.429145,NA,426.003979,2,psycho,1024,2,48000,-16,experiment,HHHHH,1,odd,NA,5908.717878,NA,NA,112634.812,3546.296135,NA,NA,141068.0615,3586.751658,NA,139934.5455,141184.9148,141617.0302,141046.688,141184.5544,Flanker Task,70,39289.25494,75,yes,1024
incongruent,93.42105263,93.42105263,524.6149907,524.6149907,black,psycho,psycho,psycho,0,uniform,1,undefined,1,s,0,0,0,0,75,0,75,0,75,0,0,75,75,75,75,75,Sun Sep 20 21:30:06 2020,1500,The main experiment item,yes,FlankerTask.osexp,/Users/tforestmoore/Desktop,no,mono,no,18,no,white,no,yes,768,psycho,75,75,/Users/tforestmoore/Desktop/TFM-subject-1.csv,psycho,Lentiform Loewenfeld,3.3.3,0,s,NA,NA,s,NA,s,581.484351,NA,NA,2303.429145,NA,581.484351,2,psycho,1024,2,48000,-16,experiment,HHSHH,1,odd,NA,5908.717878,NA,NA,112634.812,3546.296135,NA,NA,142767.9969,3586.751658,NA,141634.6227,142885.7395,143469.4851,142747.129,142884.6305,Flanker Task,71,39870.73929,76,yes,1024
incongruent,93.50649351,93.50649351,523.2518374,523.2518374,black,psycho,psycho,psycho,0,uniform,1,undefined,1,h,0,0,0,0,76,0,76,0,76,0,0,76,76,76,76,76,Sun Sep 20 21:30:06 2020,1500,The main experiment item,yes,FlankerTask.osexp,/Users/tforestmoore/Desktop,no,mono,no,18,no,white,no,yes,768,psycho,76,76,/Users/tforestmoore/Desktop/TFM-subject-1.csv,psycho,Lentiform Loewenfeld,3.3.3,0,h,NA,NA,s,NA,h,419.652185,NA,NA,2303.429145,NA,419.652185,2,psycho,1024,2,48000,-16,experiment,SSHSS,1,odd,NA,5908.717878,NA,NA,112634.812,3546.296135,NA,NA,144618.4137,3586.751658,NA,143484.611,144735.1254,145157.0467,144597.1316,144734.523,Flanker Task,72,40290.39148,77,yes,1024
incongruent,93.58974359,93.58974359,521.8267078,521.8267078,black,psycho,psycho,psycho,0,uniform,1,undefined,1,h,0,0,0,0,77,0,77,0,77,0,0,77,77,77,77,77,Sun Sep 20 21:30:06 2020,1500,The main experiment item,yes,FlankerTask.osexp,/Users/tforestmoore/Desktop,no,mono,no,18,no,white,no,yes,768,psycho,77,77,/Users/tforestmoore/Desktop/TFM-subject-1.csv,psycho,Lentiform Loewenfeld,3.3.3,0,h,NA,NA,s,NA,h,412.091735,NA,NA,2303.429145,NA,412.091735,2,psycho,1024,2,48000,-16,experiment,SSHSS,1,odd,NA,5908.717878,NA,NA,112634.812,3546.296135,NA,NA,146300.9558,3586.751658,NA,145168.0942,146418.8686,146836.7597,146280.9314,146417.8063,Flanker Task,73,40702.48321,78,yes,1024
congruent,93.67088608,93.67088608,522.7716505,522.7716505,black,psycho,psycho,psycho,0,uniform,1,undefined,1,s,0,0,0,0,78,0,78,0,78,0,0,78,78,78,78,78,Sun Sep 20 21:30:06 2020,1500,The main experiment item,yes,FlankerTask.osexp,/Users/tforestmoore/Desktop,no,mono,no,18,no,white,no,yes,768,psycho,78,78,/Users/tforestmoore/Desktop/TFM-subject-1.csv,psycho,Lentiform Loewenfeld,3.3.3,0,s,NA,NA,s,NA,s,596.477179,NA,NA,2303.429145,NA,596.477179,2,psycho,1024,2,48000,-16,experiment,SSSSS,1,odd,NA,5908.717878,NA,NA,112634.812,3546.296135,NA,NA,147984.2131,3586.751658,NA,146851.1443,148102.0033,148700.9276,147963.1946,148100.9058,Flanker Task,74,41298.96039,79,yes,1024
congruent,93.75,93.75,522.1523387,522.1523387,black,psycho,psycho,psycho,0,uniform,1,undefined,1,s,0,0,0,0,79,0,79,0,79,0,0,79,79,79,79,79,Sun Sep 20 21:30:06 2020,1500,The main experiment item,yes,FlankerTask.osexp,/Users/tforestmoore/Desktop,no,mono,no,18,no,white,no,yes,768,psycho,79,79,/Users/tforestmoore/Desktop/TFM-subject-1.csv,psycho,Lentiform Loewenfeld,3.3.3,0,s,NA,NA,s,NA,s,473.226705,NA,NA,2303.429145,NA,473.226705,2,psycho,1024,2,48000,-16,experiment,SSSSS,1,odd,NA,5908.717878,NA,NA,112634.812,3546.296135,NA,NA,149851.1205,3586.751658,NA,148717.5896,149968.9214,150447.9341,149830.7077,149967.792,Flanker Task,75,41772.1871,80,yes,1024
incongruent,93.82716049,93.82716049,521.6960683,521.6960683,black,psycho,psycho,psycho,0,uniform,1,undefined,1,s,0,0,0,0,80,0,80,0,80,0,0,80,80,80,80,80,Sun Sep 20 21:30:06 2020,600,The main experiment item,yes,FlankerTask.osexp,/Users/tforestmoore/Desktop,no,mono,no,18,no,white,no,yes,768,psycho,0,79,/Users/tforestmoore/Desktop/TFM-subject-1.csv,psycho,Lentiform Loewenfeld,3.3.3,0,s,s,NA,s,NA,s,485.194437,23911.59296,NA,2303.429145,NA,485.194437,2,psycho,1024,2,48000,-16,experiment,HHSHH,1,odd,151551.1104,5908.717878,175465.1205,NA,112634.812,3546.296135,NA,NA,175536.5859,3586.751658,NA,150467.8841,175652.2953,176143.3976,175521.1821,175651.7011,Flanker Task,76,42257.38153,81,yes,1024
incongruent,93.90243902,93.90243902,520.6961774,520.6961774,black,psycho,psycho,psycho,0,uniform,1,undefined,1,s,0,0,0,0,81,0,81,0,81,0,0,81,81,81,81,81,Sun Sep 20 21:30:06 2020,600,The main experiment item,yes,FlankerTask.osexp,/Users/tforestmoore/Desktop,no,mono,no,18,no,white,no,yes,768,psycho,1,79,/Users/tforestmoore/Desktop/TFM-subject-1.csv,psycho,Lentiform Loewenfeld,3.3.3,0,s,s,NA,s,NA,s,439.705014,23911.59296,NA,2303.429145,NA,439.705014,2,psycho,1024,2,48000,-16,experiment,HHSHH,1,odd,151551.1104,5908.717878,175465.1205,NA,112634.812,3546.296135,NA,NA,177300.7157,3586.751658,NA,176167.4459,177419.034,177860.9688,177281.1652,177417.874,Flanker Task,77,42697.08655,82,yes,1024
incongruent,93.97590361,93.97590361,518.5593125,518.5593125,black,psycho,psycho,psycho,0,uniform,1,undefined,1,s,0,0,0,0,82,0,82,0,82,0,0,82,82,82,82,82,Sun Sep 20 21:30:06 2020,600,The main experiment item,yes,FlankerTask.osexp,/Users/tforestmoore/Desktop,no,mono,no,18,no,white,no,yes,768,psycho,2,79,/Users/tforestmoore/Desktop/TFM-subject-1.csv,psycho,Lentiform Loewenfeld,3.3.3,0,s,s,NA,s,NA,s,343.336387,23911.59296,NA,2303.429145,NA,343.336387,2,psycho,1024,2,48000,-16,experiment,HHSHH,1,odd,151551.1104,5908.717878,175465.1205,NA,112634.812,3546.296135,NA,NA,179017.3924,3586.751658,NA,177884.0698,179135.2836,179484.5044,178996.1115,179134.0588,Flanker Task,78,43040.42293,83,yes,1024
congruent,94.04761905,94.04761905,517.1873477,517.1873477,black,psycho,psycho,psycho,0,uniform,1,undefined,1,s,0,0,0,0,83,0,83,0,83,0,0,83,83,83,83,83,Sun Sep 20 21:30:06 2020,600,The main experiment item,yes,FlankerTask.osexp,/Users/tforestmoore/Desktop,no,mono,no,18,no,white,no,yes,768,psycho,3,79,/Users/tforestmoore/Desktop/TFM-subject-1.csv,psycho,Lentiform Loewenfeld,3.3.3,0,s,s,NA,s,NA,s,403.314273,23911.59296,NA,2303.429145,NA,403.314273,2,psycho,1024,2,48000,-16,experiment,SSSSS,1,odd,151551.1104,5908.717878,175465.1205,NA,112634.812,3546.296135,NA,NA,180634.0399,3586.751658,NA,179500.7304,180751.6034,181157.6609,180613.3663,180750.6457,Flanker Task,79,43443.73721,84,yes,1024
congruent,94.11764706,94.11764706,515.6850972,515.6850972,black,psycho,psycho,psycho,0,uniform,1,undefined,1,h,0,0,0,0,84,0,84,0,84,0,0,84,84,84,84,84,Sun Sep 20 21:30:06 2020,600,The main experiment item,yes,FlankerTask.osexp,/Users/tforestmoore/Desktop,no,mono,no,18,no,white,no,yes,768,psycho,4,79,/Users/tforestmoore/Desktop/TFM-subject-1.csv,psycho,Lentiform Loewenfeld,3.3.3,0,h,s,NA,s,NA,h,389.496056,23911.59296,NA,2303.429145,NA,389.496056,2,psycho,1024,2,48000,-16,experiment,HHHHH,1,odd,151551.1104,5908.717878,175465.1205,NA,112634.812,3546.296135,NA,NA,182300.6998,3586.751658,NA,181167.62,182419.1215,182810.8719,182280.6388,182417.8549,Flanker Task,80,43833.23326,85,yes,1024
incongruent,94.18604651,94.18604651,514.595573,514.595573,black,psycho,psycho,psycho,0,uniform,1,undefined,1,h,0,0,0,0,85,0,85,0,85,0,0,85,85,85,85,85,Sun Sep 20 21:30:06 2020,600,The main experiment item,yes,FlankerTask.osexp,/Users/tforestmoore/Desktop,no,mono,no,18,no,white,no,yes,768,psycho,5,79,/Users/tforestmoore/Desktop/TFM-subject-1.csv,psycho,Lentiform Loewenfeld,3.3.3,0,h,s,NA,s,NA,h,421.986011,23911.59296,NA,2303.429145,NA,421.986011,2,psycho,1024,2,48000,-16,experiment,SSHSS,1,odd,151551.1104,5908.717878,175465.1205,NA,112634.812,3546.296135,NA,NA,183933.8014,3586.751658,NA,182833.9994,184051.7914,184479.8345,183925.2692,184050.6875,Flanker Task,81,44255.21927,86,yes,1024
congruent,94.25287356,94.25287356,513.9003346,513.9003346,black,psycho,psycho,psycho,0,uniform,1,undefined,1,s,0,0,0,0,86,0,86,0,86,0,0,86,86,86,86,86,Sun Sep 20 21:30:06 2020,600,The main experiment item,yes,FlankerTask.osexp,/Users/tforestmoore/Desktop,no,mono,no,18,no,white,no,yes,768,psycho,6,79,/Users/tforestmoore/Desktop/TFM-subject-1.csv,psycho,Lentiform Loewenfeld,3.3.3,0,s,s,NA,s,NA,s,454.109834,23911.59296,NA,2303.429145,NA,454.109834,2,psycho,1024,2,48000,-16,experiment,SSSSS,1,odd,151551.1104,5908.717878,175465.1205,NA,112634.812,3546.296135,NA,NA,185600.6777,3586.751658,NA,184500.6973,185718.3974,186174.9243,185591.64,185717.1561,Flanker Task,82,44709.32911,87,yes,1024
congruent,94.31818182,94.31818182,513.5284879,513.5284879,black,psycho,psycho,psycho,0,uniform,1,undefined,1,s,0,0,0,0,87,0,87,0,87,0,0,87,87,87,87,87,Sun Sep 20 21:30:06 2020,600,The main experiment item,yes,FlankerTask.osexp,/Users/tforestmoore/Desktop,no,mono,no,18,no,white,no,yes,768,psycho,7,79,/Users/tforestmoore/Desktop/TFM-subject-1.csv,psycho,Lentiform Loewenfeld,3.3.3,0,s,s,NA,s,NA,s,481.177824,23911.59296,NA,2303.429145,NA,481.177824,2,psycho,1024,2,48000,-16,experiment,SSSSS,1,odd,151551.1104,5908.717878,175465.1205,NA,112634.812,3546.296135,NA,NA,187317.3369,3586.751658,NA,186183.8786,187435.1814,187922.0225,187295.6502,187434.0242,Flanker Task,83,45190.50693,88,yes,1024
congruent,94.38202247,94.38202247,512.2107896,512.2107896,black,psycho,psycho,psycho,0,uniform,1,undefined,1,s,0,0,0,0,88,0,88,0,88,0,0,88,88,88,88,88,Sun Sep 20 21:30:06 2020,600,The main experiment item,yes,FlankerTask.osexp,/Users/tforestmoore/Desktop,no,mono,no,18,no,white,no,yes,768,psycho,8,79,/Users/tforestmoore/Desktop/TFM-subject-1.csv,psycho,Lentiform Loewenfeld,3.3.3,0,s,s,NA,s,NA,s,396.253346,23911.59296,NA,2303.429145,NA,396.253346,2,psycho,1024,2,48000,-16,experiment,SSSSS,1,odd,151551.1104,5908.717878,175465.1205,NA,112634.812,3546.296135,NA,NA,189067.3576,3586.751658,NA,187933.9245,189185.1443,189583.8813,189046.7476,189184.0113,Flanker Task,84,45586.76028,89,yes,1024
congruent,94.44444444,94.44444444,510.7761309,510.7761309,black,psycho,psycho,psycho,0,uniform,1,undefined,1,s,0,0,0,0,89,0,89,0,89,0,0,89,89,89,89,89,Sun Sep 20 21:30:06 2020,600,The main experiment item,yes,FlankerTask.osexp,/Users/tforestmoore/Desktop,no,mono,no,18,no,white,no,yes,768,psycho,9,79,/Users/tforestmoore/Desktop/TFM-subject-1.csv,psycho,Lentiform Loewenfeld,3.3.3,0,s,s,NA,s,NA,s,383.091505,23911.59296,NA,2303.429145,NA,383.091505,2,psycho,1024,2,48000,-16,experiment,SSSSS,1,odd,151551.1104,5908.717878,175465.1205,NA,112634.812,3546.296135,NA,NA,190734.0198,3586.751658,NA,189600.6938,190851.8188,191241.1038,190713.8738,190850.6856,Flanker Task,85,45969.85178,90,yes,1024
congruent,94.50549451,94.50549451,510.4049712,510.4049712,black,psycho,psycho,psycho,0,uniform,1,undefined,1,h,0,0,0,0,90,0,90,0,90,0,0,90,90,90,90,90,Sun Sep 20 21:30:06 2020,600,The main experiment item,yes,FlankerTask.osexp,/Users/tforestmoore/Desktop,no,mono,no,18,no,white,no,yes,768,psycho,10,79,/Users/tforestmoore/Desktop/TFM-subject-1.csv,psycho,Lentiform Loewenfeld,3.3.3,0,h,s,NA,s,NA,h,477.000597,23911.59296,NA,2303.429145,NA,477.000597,2,psycho,1024,2,48000,-16,experiment,HHHHH,1,odd,151551.1104,5908.717878,175465.1205,NA,112634.812,3546.296135,NA,NA,192383.948,3586.751658,NA,191251.0254,192501.7455,192981.071,192365.8886,192500.6828,Flanker Task,86,46446.85238,91,yes,1024
incongruent,94.56521739,94.56521739,511.8100192,511.8100192,black,psycho,psycho,psycho,0,uniform,1,undefined,1,h,0,0,0,0,91,0,91,0,91,0,0,91,91,91,91,91,Sun Sep 20 21:30:06 2020,600,The main experiment item,yes,FlankerTask.osexp,/Users/tforestmoore/Desktop,no,mono,no,18,no,white,no,yes,768,psycho,11,79,/Users/tforestmoore/Desktop/TFM-subject-1.csv,psycho,Lentiform Loewenfeld,3.3.3,0,h,s,NA,s,NA,h,639.66939,23911.59296,NA,2303.429145,NA,639.66939,2,psycho,1024,2,48000,-16,experiment,SSHSS,1,odd,151551.1104,5908.717878,175465.1205,NA,112634.812,3546.296135,NA,NA,194133.6973,3586.751658,NA,193000.6149,194251.6239,194897.1407,194112.5631,194250.4093,Flanker Task,87,47086.52177,92,yes,1024
congruent,94.62365591,94.62365591,510.3656495,510.3656495,black,psycho,psycho,psycho,0,uniform,1,undefined,1,h,0,0,0,0,92,0,92,0,92,0,0,92,92,92,92,92,Sun Sep 20 21:30:06 2020,600,The main experiment item,yes,FlankerTask.osexp,/Users/tforestmoore/Desktop,no,mono,no,18,no,white,no,yes,768,psycho,12,79,/Users/tforestmoore/Desktop/TFM-subject-1.csv,psycho,Lentiform Loewenfeld,3.3.3,0,h,s,NA,s,NA,h,377.483631,23911.59296,NA,2303.429145,NA,377.483631,2,psycho,1024,2,48000,-16,experiment,HHHHH,1,odd,151551.1104,5908.717878,175465.1205,NA,112634.812,3546.296135,194917.1606,NA,196567.2671,3586.751658,NA,195434.508,196685.1276,197064.9356,196547.662,196684.0229,Flanker Task,88,47464.0054,93,yes,1024
incongruent,94.68085106,94.68085106,508.3945979,508.3945979,black,psycho,psycho,psycho,0,uniform,1,undefined,1,s,0,0,0,0,93,0,93,0,93,0,0,93,93,93,93,93,Sun Sep 20 21:30:06 2020,600,The main experiment item,yes,FlankerTask.osexp,/Users/tforestmoore/Desktop,no,mono,no,18,no,white,no,yes,768,psycho,13,79,/Users/tforestmoore/Desktop/TFM-subject-1.csv,psycho,Lentiform Loewenfeld,3.3.3,0,s,s,NA,s,NA,s,325.086797,23911.59296,NA,2303.429145,NA,325.086797,2,psycho,1024,2,48000,-16,experiment,HHSHH,1,odd,151551.1104,5908.717878,175465.1205,NA,112634.812,3546.296135,194917.1606,NA,198217.2486,3586.751658,NA,197083.9152,198335.0085,198662.6771,198197.3163,198333.9015,Flanker Task,89,47789.0922,94,yes,1024
incongruent,94.73684211,94.73684211,506.7928589,506.7928589,black,psycho,psycho,psycho,0,uniform,1,undefined,1,s,0,0,0,0,94,0,94,0,94,0,0,94,94,94,94,94,Sun Sep 20 21:30:06 2020,600,The main experiment item,yes,FlankerTask.osexp,/Users/tforestmoore/Desktop,no,mono,no,18,no,white,no,yes,768,psycho,14,79,/Users/tforestmoore/Desktop/TFM-subject-1.csv,psycho,Lentiform Loewenfeld,3.3.3,0,s,s,NA,s,NA,s,356.229398,23911.59296,NA,2303.429145,NA,356.229398,2,psycho,1024,2,48000,-16,experiment,HHSHH,1,odd,151551.1104,5908.717878,175465.1205,NA,112634.812,3546.296135,194917.1606,NA,199817.1279,3586.751658,NA,198683.8491,199935.0462,200297.2199,199797.3488,199933.9481,Flanker Task,90,48145.3216,95,yes,1024
congruent,94.79166667,94.79166667,504.5002029,504.5002029,black,psycho,psycho,psycho,0,uniform,1,undefined,1,s,0,0,0,0,95,0,95,0,95,0,0,95,95,95,95,95,Sun Sep 20 21:30:06 2020,600,The main experiment item,yes,FlankerTask.osexp,/Users/tforestmoore/Desktop,no,mono,no,18,no,white,no,yes,768,psycho,15,79,/Users/tforestmoore/Desktop/TFM-subject-1.csv,psycho,Lentiform Loewenfeld,3.3.3,0,s,s,NA,s,NA,s,286.697884,23911.59296,NA,2303.429145,NA,286.697884,2,psycho,1024,2,48000,-16,experiment,SSSSS,1,odd,151551.1104,5908.717878,175465.1205,NA,112634.812,3546.296135,194917.1606,NA,201416.9345,3586.751658,NA,200317.123,201534.5913,201823.7202,201408.3284,201533.7968,Flanker Task,91,48432.01948,96,yes,1024
congruent,93.81443299,93.81443299,502.2732855,502.2732855,black,psycho,psycho,psycho,0,uniform,0,undefined,0,h,0,0,0,0,96,0,96,0,96,0,0,96,96,96,96,96,Sun Sep 20 21:30:06 2020,600,The main experiment item,yes,FlankerTask.osexp,/Users/tforestmoore/Desktop,no,mono,no,18,no,white,no,yes,768,psycho,16,79,/Users/tforestmoore/Desktop/TFM-subject-1.csv,psycho,Lentiform Loewenfeld,3.3.3,0,s,s,NA,s,NA,s,288.489211,23911.59296,NA,2303.429145,NA,288.489211,2,psycho,1024,2,48000,-16,experiment,HHHHH,1,odd,151551.1104,5908.717878,175465.1205,NA,112634.812,3546.296135,194917.1606,NA,202933.6134,3586.751658,NA,201833.6475,203051.5823,203345.9717,202924.6825,203050.4574,Flanker Task,91,48720.50869,97,yes,1024
congruent,93.87755102,93.87755102,500.7659209,500.7659209,black,psycho,psycho,psycho,0,uniform,1,undefined,1,s,0,0,0,0,97,0,97,0,97,0,0,97,97,97,97,97,Sun Sep 20 21:30:06 2020,600,The main experiment item,yes,FlankerTask.osexp,/Users/tforestmoore/Desktop,no,mono,no,18,no,white,no,yes,768,psycho,17,79,/Users/tforestmoore/Desktop/TFM-subject-1.csv,psycho,Lentiform Loewenfeld,3.3.3,0,s,s,NA,s,NA,s,354.551561,23911.59296,NA,2303.429145,NA,354.551561,2,psycho,1024,2,48000,-16,experiment,SSSSS,1,odd,151551.1104,5908.717878,175465.1205,NA,203367.0869,3546.296135,194917.1606,NA,205017.8811,3586.751658,NA,203883.3649,205134.3187,205491.1847,204996.9737,205133.7171,Flanker Task,92,49075.06025,98,yes,1024
congruent,92.92929293,92.92929293,499.8906538,499.8906538,black,psycho,psycho,psycho,0,uniform,0,undefined,0,h,0,0,0,0,98,0,98,0,98,0,0,98,98,98,98,98,Sun Sep 20 21:30:06 2020,600,The main experiment item,yes,FlankerTask.osexp,/Users/tforestmoore/Desktop,no,mono,no,18,no,white,no,yes,768,psycho,18,79,/Users/tforestmoore/Desktop/TFM-subject-1.csv,psycho,Lentiform Loewenfeld,3.3.3,0,s,s,NA,s,NA,s,414.11447,23911.59296,NA,2303.429145,NA,414.11447,2,psycho,1024,2,48000,-16,experiment,HHHHH,1,odd,151551.1104,5908.717878,175465.1205,NA,203367.0869,3546.296135,194917.1606,NA,206633.8292,3586.751658,NA,205500.8242,206750.8919,207170.72,206613.8184,206750.2851,Flanker Task,92,49489.17472,99,yes,1024
congruent,92,92,498.9646561,498.9646561,black,psycho,psycho,psycho,0,uniform,0,undefined,0,s,0,0,0,0,99,0,99,0,99,0,0,99,99,99,99,99,Sun Sep 20 21:30:06 2020,600,The main experiment item,yes,FlankerTask.osexp,/Users/tforestmoore/Desktop,no,mono,no,18,no,white,no,yes,768,psycho,19,79,/Users/tforestmoore/Desktop/TFM-subject-1.csv,psycho,Lentiform Loewenfeld,3.3.3,0,h,s,NA,s,NA,h,407.290892,23911.59296,NA,2303.429145,NA,407.290892,2,psycho,1024,2,48000,-16,experiment,SSSSS,1,odd,151551.1104,5908.717878,175465.1205,NA,207183.6665,3546.296135,194917.1606,NA,208833.6758,3586.751658,NA,207700.3606,208951.5423,209361.2333,208812.984,208950.3983,Flanker Task,92,49896.46561,100,yes,1024
congruent,92.07920792,92.07920792,497.4402893,497.4402893,black,psycho,psycho,psycho,0,uniform,1,undefined,1,h,0,0,0,0,100,0,100,0,100,0,0,100,100,100,100,100,Sun Sep 20 21:30:06 2020,600,The main experiment item,yes,FlankerTask.osexp,/Users/tforestmoore/Desktop,no,mono,no,18,no,white,no,yes,768,psycho,20,79,/Users/tforestmoore/Desktop/TFM-subject-1.csv,psycho,Lentiform Loewenfeld,3.3.3,0,h,s,NA,s,NA,h,345.003608,23911.59296,NA,2303.429145,NA,345.003608,2,psycho,1024,2,48000,-16,experiment,HHHHH,1,odd,151551.1104,5908.717878,175465.1205,NA,209383.7482,3546.296135,194917.1606,NA,211033.7566,3586.751658,NA,209900.3848,211151.5105,211502.8216,211013.267,211150.3963,Flanker Task,93,50241.46922,101,yes,1024
incongruent,92.15686275,92.15686275,495.869414,495.869414,black,psycho,psycho,psycho,0,uniform,1,undefined,1,h,0,0,0,0,101,0,101,0,101,0,0,101,101,101,101,101,Sun Sep 20 21:30:06 2020,600,The main experiment item,yes,FlankerTask.osexp,/Users/tforestmoore/Desktop,no,mono,no,18,no,white,no,yes,768,psycho,21,79,/Users/tforestmoore/Desktop/TFM-subject-1.csv,psycho,Lentiform Loewenfeld,3.3.3,0,h,s,NA,s,NA,h,337.211008,23911.59296,NA,2303.429145,NA,337.211008,2,psycho,1024,2,48000,-16,experiment,SSHSS,1,odd,151551.1104,5908.717878,175465.1205,NA,209383.7482,3546.296135,194917.1606,NA,212650.283,3586.751658,NA,211516.9851,212768.0488,213107.7921,212631.5193,212766.9307,Flanker Task,94,50578.68023,102,yes,1024
incongruent,92.23300971,92.23300971,494.959321,494.959321,black,psycho,psycho,psycho,0,uniform,1,undefined,1,h,0,0,0,0,102,0,102,0,102,0,0,102,102,102,102,102,Sun Sep 20 21:30:06 2020,600,The main experiment item,yes,FlankerTask.osexp,/Users/tforestmoore/Desktop,no,mono,no,18,no,white,no,yes,768,psycho,22,79,/Users/tforestmoore/Desktop/TFM-subject-1.csv,psycho,Lentiform Loewenfeld,3.3.3,0,h,s,NA,s,NA,h,402.129832,23911.59296,NA,2303.429145,NA,402.129832,2,psycho,1024,2,48000,-16,experiment,SSHSS,1,odd,151551.1104,5908.717878,175465.1205,NA,209383.7482,3546.296135,194917.1606,NA,214250.272,3586.751658,NA,213116.5911,214368.0617,214776.1297,214229.644,214367.0251,Flanker Task,95,50980.81006,103,yes,1024
congruent,92.30769231,92.30769231,494.6527426,494.6527426,black,psycho,psycho,psycho,0,uniform,1,undefined,1,s,0,0,0,0,103,0,103,0,103,0,0,103,103,103,103,103,Sun Sep 20 21:30:06 2020,600,The main experiment item,yes,FlankerTask.osexp,/Users/tforestmoore/Desktop,no,mono,no,18,no,white,no,yes,768,psycho,23,79,/Users/tforestmoore/Desktop/TFM-subject-1.csv,psycho,Lentiform Loewenfeld,3.3.3,0,s,s,NA,s,NA,s,463.075168,23911.59296,NA,2303.429145,NA,463.075168,2,psycho,1024,2,48000,-16,experiment,SSSSS,1,odd,151551.1104,5908.717878,175465.1205,NA,209383.7482,3546.296135,194917.1606,NA,215933.8995,3586.751658,NA,214800.2507,216050.8483,216516.2717,215914.3632,216050.2401,Flanker Task,96,51443.88523,104,yes,1024
congruent,92.38095238,92.38095238,493.9087422,493.9087422,black,psycho,psycho,psycho,0,uniform,1,undefined,1,s,0,0,0,0,104,0,104,0,104,0,0,104,104,104,104,104,Sun Sep 20 21:30:06 2020,600,The main experiment item,yes,FlankerTask.osexp,/Users/tforestmoore/Desktop,no,mono,no,18,no,white,no,yes,768,psycho,24,79,/Users/tforestmoore/Desktop/TFM-subject-1.csv,psycho,Lentiform Loewenfeld,3.3.3,0,s,s,NA,s,NA,s,416.5327,23911.59296,NA,2303.429145,NA,416.5327,2,psycho,1024,2,48000,-16,experiment,SSSSS,1,odd,151551.1104,5908.717878,175465.1205,NA,209383.7482,3546.296135,194917.1606,NA,217667.0604,3586.751658,NA,216533.4071,217784.98,218207.4436,217645.9468,217783.924,Flanker Task,97,51860.41793,105,yes,1024
incongruent,91.50943396,91.50943396,493.0115707,493.0115707,black,psycho,psycho,psycho,0,uniform,0,undefined,0,h,0,0,0,0,105,0,105,0,105,0,0,105,105,105,105,105,Sun Sep 20 21:30:06 2020,600,The main experiment item,yes,FlankerTask.osexp,/Users/tforestmoore/Desktop,no,mono,no,18,no,white,no,yes,768,psycho,25,79,/Users/tforestmoore/Desktop/TFM-subject-1.csv,psycho,Lentiform Loewenfeld,3.3.3,0,s,s,NA,s,NA,s,398.808565,23911.59296,NA,2303.429145,NA,398.808565,2,psycho,1024,2,48000,-16,experiment,SSHSS,1,odd,151551.1104,5908.717878,175465.1205,NA,209383.7482,3546.296135,194917.1606,NA,219350.789,3586.751658,NA,218216.6945,219467.5607,219868.7962,219329.9662,219466.9651,Flanker Task,97,52259.22649,106,yes,1024
incongruent,91.58878505,91.58878505,493.5903861,493.5903861,black,psycho,psycho,psycho,0,uniform,1,undefined,1,s,0,0,0,0,106,0,106,0,106,0,0,106,106,106,106,106,Sun Sep 20 21:30:06 2020,600,The main experiment item,yes,FlankerTask.osexp,/Users/tforestmoore/Desktop,no,mono,no,18,no,white,no,yes,768,psycho,26,79,/Users/tforestmoore/Desktop/TFM-subject-1.csv,psycho,Lentiform Loewenfeld,3.3.3,0,s,s,NA,s,NA,s,554.944814,23911.59296,NA,2303.429145,NA,554.944814,2,psycho,1024,2,48000,-16,experiment,HHSHH,1,odd,151551.1104,5908.717878,175465.1205,NA,219883.5834,3546.296135,194917.1606,NA,221533.547,3586.751658,NA,220400.0569,221651.4406,222212.515,221513.0627,221650.231,Flanker Task,98,52814.17131,107,yes,1024
congruent,91.66666667,91.66666667,492.6007341,492.6007341,black,psycho,psycho,psycho,0,uniform,1,undefined,1,h,0,0,0,0,107,0,107,0,107,0,0,107,107,107,107,107,Sun Sep 20 21:30:06 2020,600,The main experiment item,yes,FlankerTask.osexp,/Users/tforestmoore/Desktop,no,mono,no,18,no,white,no,yes,768,psycho,27,79,/Users/tforestmoore/Desktop/TFM-subject-1.csv,psycho,Lentiform Loewenfeld,3.3.3,0,h,s,NA,s,NA,h,386.70797,23911.59296,NA,2303.429145,NA,386.70797,2,psycho,1024,2,48000,-16,experiment,HHHHH,1,odd,151551.1104,5908.717878,175465.1205,NA,219883.5834,3546.296135,194917.1606,NA,223366.8537,3586.751658,NA,222233.5289,223484.743,223873.9486,223347.7619,223483.6534,Flanker Task,99,53200.87928,108,yes,1024
congruent,91.74311927,91.74311927,493.0067682,493.0067682,black,psycho,psycho,psycho,0,uniform,1,undefined,1,s,0,0,0,0,108,0,108,0,108,0,0,108,108,108,108,108,Sun Sep 20 21:30:06 2020,600,The main experiment item,yes,FlankerTask.osexp,/Users/tforestmoore/Desktop,no,mono,no,18,no,white,no,yes,768,psycho,28,79,/Users/tforestmoore/Desktop/TFM-subject-1.csv,psycho,Lentiform Loewenfeld,3.3.3,0,s,s,NA,s,NA,s,536.858458,23911.59296,NA,2303.429145,NA,536.858458,2,psycho,1024,2,48000,-16,experiment,SSSSS,1,odd,151551.1104,5908.717878,175465.1205,NA,219883.5834,3546.296135,194917.1606,NA,225016.8736,3586.751658,NA,223883.7013,225134.6566,225674.1817,224997.7637,225133.4741,Flanker Task,100,53737.73774,109,yes,1024
congruent,91.81818182,91.81818182,492.4861851,492.4861851,black,psycho,psycho,psycho,0,uniform,1,undefined,1,s,0,0,0,0,109,0,109,0,109,0,0,109,109,109,109,109,Sun Sep 20 21:30:06 2020,600,The main experiment item,yes,FlankerTask.osexp,/Users/tforestmoore/Desktop,no,mono,no,18,no,white,no,yes,768,psycho,29,79,/Users/tforestmoore/Desktop/TFM-subject-1.csv,psycho,Lentiform Loewenfeld,3.3.3,0,s,s,NA,s,NA,s,435.742619,23911.59296,NA,2303.429145,NA,435.742619,2,psycho,1024,2,48000,-16,experiment,SSSSS,1,odd,151551.1104,5908.717878,175465.1205,NA,219883.5834,3546.296135,194917.1606,NA,226816.8246,3586.751658,NA,225683.8342,226934.5066,227376.3237,226795.7907,226933.4224,Flanker Task,101,54173.48036,110,yes,1024
incongruent,91.89189189,91.89189189,491.6114225,491.6114225,black,psycho,psycho,psycho,0,uniform,1,undefined,1,h,0,0,0,0,110,0,110,0,110,0,0,110,110,110,110,110,Sun Sep 20 21:30:06 2020,600,The main experiment item,yes,FlankerTask.osexp,/Users/tforestmoore/Desktop,no,mono,no,18,no,white,no,yes,768,psycho,30,79,/Users/tforestmoore/Desktop/TFM-subject-1.csv,psycho,Lentiform Loewenfeld,3.3.3,0,h,s,NA,s,NA,h,395.387544,23911.59296,NA,2303.429145,NA,395.387544,2,psycho,1024,2,48000,-16,experiment,SSHSS,1,odd,151551.1104,5908.717878,175465.1205,NA,219883.5834,3546.296135,194917.1606,NA,228533.4739,3586.751658,NA,227400.1081,228651.1717,229048.9945,228514.1814,228650.083,Flanker Task,102,54568.8679,111,yes,1024
congruent,91.96428571,91.96428571,490.9386595,490.9386595,black,psycho,psycho,psycho,0,uniform,1,undefined,1,s,0,0,0,0,111,0,111,0,111,0,0,111,111,111,111,111,Sun Sep 20 21:30:06 2020,600,The main experiment item,yes,FlankerTask.osexp,/Users/tforestmoore/Desktop,no,mono,no,18,no,white,no,yes,768,psycho,31,79,/Users/tforestmoore/Desktop/TFM-subject-1.csv,psycho,Lentiform Loewenfeld,3.3.3,0,s,s,NA,s,NA,s,416.261965,23911.59296,NA,2303.429145,NA,416.261965,2,psycho,1024,2,48000,-16,experiment,SSSSS,1,odd,151551.1104,5908.717878,175465.1205,NA,219883.5834,3546.296135,194917.1606,NA,230200.1134,3586.751658,NA,229066.7885,230317.8259,230736.4304,230181.1093,230316.7357,Flanker Task,103,54985.12986,112,yes,1024
incongruent,92.03539823,92.03539823,490.9113236,490.9113236,black,psycho,psycho,psycho,0,uniform,1,undefined,1,s,0,0,0,0,112,0,112,0,112,0,0,112,112,112,112,112,Sun Sep 20 21:30:06 2020,600,The main experiment item,yes,FlankerTask.osexp,/Users/tforestmoore/Desktop,no,mono,no,18,no,white,no,yes,768,psycho,32,79,/Users/tforestmoore/Desktop/TFM-subject-1.csv,psycho,Lentiform Loewenfeld,3.3.3,0,s,s,NA,s,NA,s,487.8497,23911.59296,NA,2303.429145,NA,487.8497,2,psycho,1024,2,48000,-16,experiment,HHSHH,1,odd,151551.1104,5908.717878,175465.1205,NA,219883.5834,3546.296135,194917.1606,NA,231883.3941,3586.751658,NA,230750.038,232001.1124,232494.8881,231862.6058,232000.0419,Flanker Task,104,55472.97956,113,yes,1024
congruent,92.10526316,92.10526316,490.1956115,490.1956115,black,psycho,psycho,psycho,0,uniform,1,undefined,1,h,0,0,0,0,113,0,113,0,113,0,0,113,113,113,113,113,Sun Sep 20 21:30:06 2020,600,The main experiment item,yes,FlankerTask.osexp,/Users/tforestmoore/Desktop,no,mono,no,18,no,white,no,yes,768,psycho,33,79,/Users/tforestmoore/Desktop/TFM-subject-1.csv,psycho,Lentiform Loewenfeld,3.3.3,0,h,s,NA,s,NA,h,409.320147,23911.59296,NA,2303.429145,NA,409.320147,2,psycho,1024,2,48000,-16,experiment,HHHHH,1,odd,151551.1104,5908.717878,175465.1205,NA,219883.5834,3546.296135,194917.1606,NA,233650.2481,3586.751658,NA,232516.8682,233767.3568,234179.0445,233630.6957,233766.7555,Flanker Task,105,55882.29971,114,yes,1024
congruent,92.17391304,92.17391304,489.433628,489.433628,black,psycho,psycho,psycho,0,uniform,1,undefined,1,h,0,0,0,0,114,0,114,0,114,0,0,114,114,114,114,114,Sun Sep 20 21:30:06 2020,600,The main experiment item,yes,FlankerTask.osexp,/Users/tforestmoore/Desktop,no,mono,no,18,no,white,no,yes,768,psycho,34,79,/Users/tforestmoore/Desktop/TFM-subject-1.csv,psycho,Lentiform Loewenfeld,3.3.3,0,h,s,NA,s,NA,h,402.567513,23911.59296,NA,2303.429145,NA,402.567513,2,psycho,1024,2,48000,-16,experiment,HHHHH,1,odd,151551.1104,5908.717878,175465.1205,NA,219883.5834,3546.296135,194917.1606,NA,235334.7155,3586.751658,NA,234200.0798,235450.4003,235858.5366,235313.6808,235449.9757,Flanker Task,106,56284.86722,115,yes,1024
congruent,92.24137931,92.24137931,488.8604232,488.8604232,black,psycho,psycho,psycho,0,uniform,1,undefined,1,s,0,0,0,0,115,0,115,0,115,0,0,115,115,115,115,115,Sun Sep 20 21:30:06 2020,600,The main experiment item,yes,FlankerTask.osexp,/Users/tforestmoore/Desktop,no,mono,no,18,no,white,no,yes,768,psycho,35,79,/Users/tforestmoore/Desktop/TFM-subject-1.csv,psycho,Lentiform Loewenfeld,3.3.3,0,s,s,NA,s,NA,s,422.941864,23911.59296,NA,2303.429145,NA,422.941864,2,psycho,1024,2,48000,-16,experiment,SSSSS,1,odd,151551.1104,5908.717878,175465.1205,NA,219883.5834,3546.296135,194917.1606,NA,236999.9478,3586.751658,NA,235866.6361,237117.3627,237542.7119,236979.7158,237116.5485,Flanker Task,107,56707.80909,116,yes,1024
congruent,92.30769231,92.30769231,488.3796121,488.3796121,black,psycho,psycho,psycho,0,uniform,1,undefined,1,s,0,0,0,0,116,0,116,0,116,0,0,116,116,116,116,116,Sun Sep 20 21:30:06 2020,600,The main experiment item,yes,FlankerTask.osexp,/Users/tforestmoore/Desktop,no,mono,no,18,no,white,no,yes,768,psycho,36,79,/Users/tforestmoore/Desktop/TFM-subject-1.csv,psycho,Lentiform Loewenfeld,3.3.3,0,s,s,NA,s,NA,s,432.605521,23911.59296,NA,2303.429145,NA,432.605521,2,psycho,1024,2,48000,-16,experiment,SSSSS,1,odd,151551.1104,5908.717878,175465.1205,NA,219883.5834,3546.296135,194917.1606,NA,238699.9935,3586.751658,NA,237566.6221,238817.6994,239256.5002,238678.8743,238816.551,Flanker Task,108,57140.41461,117,yes,1024
incongruent,92.37288136,92.37288136,488.7562511,488.7562511,black,psycho,psycho,psycho,0,uniform,1,undefined,1,s,0,0,0,0,117,0,117,0,117,0,0,117,117,117,117,117,Sun Sep 20 21:30:06 2020,600,The main experiment item,yes,FlankerTask.osexp,/Users/tforestmoore/Desktop,no,mono,no,18,no,white,no,yes,768,psycho,37,79,/Users/tforestmoore/Desktop/TFM-subject-1.csv,psycho,Lentiform Loewenfeld,3.3.3,0,s,s,NA,s,NA,s,532.823017,23911.59296,NA,2303.429145,NA,532.823017,2,psycho,1024,2,48000,-16,experiment,HHSHH,1,odd,151551.1104,5908.717878,175465.1205,NA,219883.5834,3546.296135,194917.1606,NA,240399.7857,3586.751658,NA,239266.5929,240517.5305,241052.9005,240379.261,240516.4242,Flanker Task,109,57673.23763,118,yes,1024
incongruent,92.43697479,92.43697479,488.1804218,488.1804218,black,psycho,psycho,psycho,0,uniform,1,undefined,1,h,0,0,0,0,118,0,118,0,118,0,0,118,118,118,118,118,Sun Sep 20 21:30:06 2020,600,The main experiment item,yes,FlankerTask.osexp,/Users/tforestmoore/Desktop,no,mono,no,18,no,white,no,yes,768,psycho,38,79,/Users/tforestmoore/Desktop/TFM-subject-1.csv,psycho,Lentiform Loewenfeld,3.3.3,0,h,s,NA,s,NA,h,420.232573,23911.59296,NA,2303.429145,NA,420.232573,2,psycho,1024,2,48000,-16,experiment,SSHSS,1,odd,151551.1104,5908.717878,175465.1205,NA,219883.5834,3546.296135,194917.1606,NA,242199.8957,3586.751658,NA,241066.5423,242317.7375,242740.3241,242180.8095,242316.6671,Flanker Task,110,58093.4702,119,yes,1024
incongruent,92.5,92.5,488.400083,488.400083,black,psycho,psycho,psycho,0,uniform,1,undefined,1,s,0,0,0,0,119,0,119,0,119,0,0,119,119,119,119,119,Sun Sep 20 21:30:06 2020,600,The main experiment item,yes,FlankerTask.osexp,/Users/tforestmoore/Desktop,no,mono,no,18,no,white,no,yes,768,psycho,39,79,/Users/tforestmoore/Desktop/TFM-subject-1.csv,psycho,Lentiform Loewenfeld,3.3.3,0,s,s,NA,s,NA,s,514.539759,23911.59296,NA,2303.429145,NA,514.539759,2,psycho,1024,2,48000,-16,experiment,HHSHH,1,odd,151551.1104,5908.717878,175465.1205,NA,219883.5834,3546.296135,194917.1606,NA,243883.1762,3586.751658,NA,242750.0269,244000.8631,244518.404,243862.8343,243999.8067,Flanker Task,111,58608.00996,120,yes,1024
congruent,92.56198347,92.56198347,487.9189132,487.9189132,black,psycho,psycho,psycho,0,uniform,1,undefined,1,h,0,0,0,0,120,0,120,0,120,0,0,120,120,120,120,120,Sun Sep 20 21:30:06 2020,600,The main experiment item,yes,FlankerTask.osexp,/Users/tforestmoore/Desktop,no,mono,no,18,no,white,no,yes,768,psycho,40,79,/Users/tforestmoore/Desktop/TFM-subject-1.csv,psycho,Lentiform Loewenfeld,3.3.3,0,h,s,NA,s,NA,h,430.178544,23911.59296,NA,2303.429145,NA,430.178544,2,psycho,1024,2,48000,-16,experiment,HHHHH,1,odd,151551.1104,5908.717878,175465.1205,NA,219883.5834,3546.296135,194917.1606,NA,245667.0666,3586.751658,NA,244533.1692,245783.8794,246216.6321,245645.5933,245783.3,Flanker Task,112,59038.1885,121,yes,1024
incongruent,92.62295082,92.62295082,488.1684135,488.1684135,black,psycho,psycho,psycho,0,uniform,1,undefined,1,s,0,0,0,0,121,0,121,0,121,0,0,121,121,121,121,121,Sun Sep 20 21:30:06 2020,600,The main experiment item,yes,FlankerTask.osexp,/Users/tforestmoore/Desktop,no,mono,no,18,no,white,no,yes,768,psycho,41,79,/Users/tforestmoore/Desktop/TFM-subject-1.csv,psycho,Lentiform Loewenfeld,3.3.3,0,s,s,NA,s,NA,s,518.357949,23911.59296,NA,2303.429145,NA,518.357949,2,psycho,1024,2,48000,-16,experiment,HHSHH,1,odd,151551.1104,5908.717878,175465.1205,NA,219883.5834,3546.296135,194917.1606,NA,247366.449,3586.751658,NA,246233.2266,247484.5619,248005.3298,247345.8421,247483.2367,Flanker Task,113,59556.54645,122,yes,1024
congruent,92.68292683,92.68292683,486.9963055,486.9963055,black,psycho,psycho,psycho,0,uniform,1,undefined,1,h,0,0,0,0,122,0,122,0,122,0,0,122,122,122,122,122,Sun Sep 20 21:30:06 2020,600,The main experiment item,yes,FlankerTask.osexp,/Users/tforestmoore/Desktop,no,mono,no,18,no,white,no,yes,768,psycho,42,79,/Users/tforestmoore/Desktop/TFM-subject-1.csv,psycho,Lentiform Loewenfeld,3.3.3,0,h,s,NA,s,NA,h,343.999124,23911.59296,NA,2303.429145,NA,343.999124,2,psycho,1024,2,48000,-16,experiment,HHHHH,1,odd,151551.1104,5908.717878,175465.1205,NA,219883.5834,3546.296135,194917.1606,NA,249149.7957,3586.751658,NA,248016.3164,249267.7191,249614.1823,249128.7076,249266.6016,Flanker Task,114,59900.54558,123,yes,1024
congruent,92.74193548,92.74193548,485.6890215,485.6890215,black,psycho,psycho,psycho,0,uniform,1,undefined,1,s,0,0,0,0,123,0,123,0,123,0,0,123,123,123,123,123,Sun Sep 20 21:30:06 2020,600,The main experiment item,yes,FlankerTask.osexp,/Users/tforestmoore/Desktop,no,mono,no,18,no,white,no,yes,768,psycho,43,79,/Users/tforestmoore/Desktop/TFM-subject-1.csv,psycho,Lentiform Loewenfeld,3.3.3,0,s,s,NA,s,NA,s,324.893094,23911.59296,NA,2303.429145,NA,324.893094,2,psycho,1024,2,48000,-16,experiment,SSSSS,1,odd,151551.1104,5908.717878,175465.1205,NA,219883.5834,3546.296135,194917.1606,NA,250766.4525,3586.751658,NA,249633.1415,250884.3003,251212.0473,250746.1193,250883.1,Flanker Task,115,60225.43867,124,yes,1024
incongruent,92.8,92.8,484.9220564,484.9220564,black,psycho,psycho,psycho,0,uniform,1,undefined,1,h,0,0,0,0,124,0,124,0,124,0,0,124,124,124,124,124,Sun Sep 20 21:30:06 2020,600,The main experiment item,yes,FlankerTask.osexp,/Users/tforestmoore/Desktop,no,mono,no,18,no,white,no,yes,768,psycho,44,79,/Users/tforestmoore/Desktop/TFM-subject-1.csv,psycho,Lentiform Loewenfeld,3.3.3,0,h,s,NA,s,NA,h,389.818385,23911.59296,NA,2303.429145,NA,389.818385,2,psycho,1024,2,48000,-16,experiment,SSHSS,1,odd,151551.1104,5908.717878,175465.1205,NA,219883.5834,3546.296135,194917.1606,NA,252366.4126,3586.751658,NA,251232.8966,252484.2521,252876.6384,252346.0156,252483.101,Flanker Task,116,60615.25705,125,yes,1024
incongruent,92.85714286,92.85714286,484.2443115,484.2443115,black,psycho,psycho,psycho,0,uniform,1,undefined,1,h,0,0,0,0,125,0,125,0,125,0,0,125,125,125,125,125,Sun Sep 20 21:30:06 2020,600,The main experiment item,yes,FlankerTask.osexp,/Users/tforestmoore/Desktop,no,mono,no,18,no,white,no,yes,768,psycho,45,79,/Users/tforestmoore/Desktop/TFM-subject-1.csv,psycho,Lentiform Loewenfeld,3.3.3,0,h,s,NA,s,NA,h,399.526194,23911.59296,NA,2303.429145,NA,399.526194,2,psycho,1024,2,48000,-16,experiment,SSHSS,1,odd,151551.1104,5908.717878,175465.1205,NA,219883.5834,3546.296135,194917.1606,NA,254033.0914,3586.751658,NA,252899.8147,254150.9184,254556.5378,254013.5135,254149.7487,Flanker Task,117,61014.78325,126,yes,1024
incongruent,92.91338583,92.91338583,483.5678091,483.5678091,black,psycho,psycho,psycho,0,uniform,1,undefined,1,h,0,0,0,0,126,0,126,0,126,0,0,126,126,126,126,126,Sun Sep 20 21:30:06 2020,600,The main experiment item,yes,FlankerTask.osexp,/Users/tforestmoore/Desktop,no,mono,no,18,no,white,no,yes,768,psycho,46,79,/Users/tforestmoore/Desktop/TFM-subject-1.csv,psycho,Lentiform Loewenfeld,3.3.3,0,h,s,NA,s,NA,h,398.328503,23911.59296,NA,2303.429145,NA,398.328503,2,psycho,1024,2,48000,-16,experiment,SSHSS,1,odd,151551.1104,5908.717878,175465.1205,NA,219883.5834,3546.296135,194917.1606,NA,255700.3447,3586.751658,NA,254566.383,255817.0072,256217.9153,255678.3341,255816.4072,Flanker Task,118,61413.11175,127,yes,1024
congruent,92.96875,92.96875,482.8082363,482.8082363,black,psycho,psycho,psycho,0,uniform,1,undefined,1,h,0,0,0,0,127,0,127,0,127,0,0,127,127,127,127,127,Sun Sep 20 21:30:06 2020,600,The main experiment item,yes,FlankerTask.osexp,/Users/tforestmoore/Desktop,no,mono,no,18,no,white,no,yes,768,psycho,47,79,/Users/tforestmoore/Desktop/TFM-subject-1.csv,psycho,Lentiform Loewenfeld,3.3.3,0,h,s,NA,s,NA,h,386.342497,23911.59296,NA,2303.429145,NA,386.342497,2,psycho,1024,2,48000,-16,experiment,HHHHH,1,odd,151551.1104,5908.717878,175465.1205,NA,219883.5834,3546.296135,194917.1606,NA,257366.3575,3586.751658,NA,256233.0583,257484.1565,257876.705,257346.1576,257483.0708,Flanker Task,119,61799.45425,128,yes,1024
congruent,93.02325581,93.02325581,481.4279688,481.4279688,black,psycho,psycho,psycho,0,uniform,1,undefined,1,h,0,0,0,0,128,0,128,0,128,0,0,128,128,128,128,128,Sun Sep 20 21:30:06 2020,600,The main experiment item,yes,FlankerTask.osexp,/Users/tforestmoore/Desktop,no,mono,no,18,no,white,no,yes,768,psycho,48,79,/Users/tforestmoore/Desktop/TFM-subject-1.csv,psycho,Lentiform Loewenfeld,3.3.3,0,h,s,NA,s,NA,h,304.753721,23911.59296,NA,2303.429145,NA,304.753721,2,psycho,1024,2,48000,-16,experiment,HHHHH,1,odd,151551.1104,5908.717878,175465.1205,NA,219883.5834,3546.296135,194917.1606,NA,259033.0146,3586.751658,NA,257899.7306,259150.8257,259458.1746,259012.6811,259149.6484,Flanker Task,120,62104.20797,129,yes,1024
congruent,92.30769231,92.30769231,480.6550055,480.6550055,black,psycho,psycho,psycho,0,uniform,0,undefined,0,s,0,0,0,0,129,0,129,0,129,0,0,129,129,129,129,129,Sun Sep 20 21:30:06 2020,600,The main experiment item,yes,FlankerTask.osexp,/Users/tforestmoore/Desktop,no,mono,no,18,no,white,no,yes,768,psycho,49,79,/Users/tforestmoore/Desktop/TFM-subject-1.csv,psycho,Lentiform Loewenfeld,3.3.3,0,h,s,NA,s,NA,h,380.942743,23911.59296,NA,2303.429145,NA,380.942743,2,psycho,1024,2,48000,-16,experiment,SSSSS,1,odd,151551.1104,5908.717878,175465.1205,NA,219883.5834,3546.296135,194917.1606,NA,260599.594,3586.751658,NA,259466.5654,260717.0109,261104.0828,260579.8998,260716.1899,Flanker Task,120,62485.15071,130,yes,1024
incongruent,92.36641221,92.36641221,480.0968826,480.0968826,black,psycho,psycho,psycho,0,uniform,1,undefined,1,h,0,0,0,0,130,0,130,0,130,0,0,130,130,130,130,130,Sun Sep 20 21:30:06 2020,600,The main experiment item,yes,FlankerTask.osexp,/Users/tforestmoore/Desktop,no,mono,no,18,no,white,no,yes,768,psycho,50,79,/Users/tforestmoore/Desktop/TFM-subject-1.csv,psycho,Lentiform Loewenfeld,3.3.3,0,h,s,NA,s,NA,h,407.540908,23911.59296,NA,2303.429145,NA,407.540908,2,psycho,1024,2,48000,-16,experiment,SSHSS,1,odd,151551.1104,5908.717878,175465.1205,NA,261116.3759,3546.296135,194917.1606,NA,262766.2521,3586.751658,NA,261632.907,262884.0532,263294.0894,262745.8456,262882.8908,Flanker Task,121,62892.69162,131,yes,1024
incongruent,92.42424242,92.42424242,479.6665603,479.6665603,black,psycho,psycho,psycho,0,uniform,1,undefined,1,s,0,0,0,0,131,0,131,0,131,0,0,131,131,131,131,131,Sun Sep 20 21:30:06 2020,600,The main experiment item,yes,FlankerTask.osexp,/Users/tforestmoore/Desktop,no,mono,no,18,no,white,no,yes,768,psycho,51,79,/Users/tforestmoore/Desktop/TFM-subject-1.csv,psycho,Lentiform Loewenfeld,3.3.3,0,s,s,NA,s,NA,s,423.294335,23911.59296,NA,2303.429145,NA,423.294335,2,psycho,1024,2,48000,-16,experiment,HHSHH,1,odd,151551.1104,5908.717878,175465.1205,NA,261116.3759,3546.296135,194917.1606,NA,264449.6913,3586.751658,NA,263316.1005,264567.2485,264993.3315,264430.5438,264566.3934,Flanker Task,122,63315.98596,132,yes,1024
congruent,92.48120301,92.48120301,478.8958596,478.8958596,black,psycho,psycho,psycho,0,uniform,1,undefined,1,h,0,0,0,0,132,0,132,0,132,0,0,132,132,132,132,132,Sun Sep 20 21:30:06 2020,600,The main experiment item,yes,FlankerTask.osexp,/Users/tforestmoore/Desktop,no,mono,no,18,no,white,no,yes,768,psycho,52,79,/Users/tforestmoore/Desktop/TFM-subject-1.csv,psycho,Lentiform Loewenfeld,3.3.3,0,h,s,NA,s,NA,h,377.163368,23911.59296,NA,2303.429145,NA,377.163368,2,psycho,1024,2,48000,-16,experiment,HHHHH,1,odd,151551.1104,5908.717878,175465.1205,NA,261116.3759,3546.296135,194917.1606,NA,266150.2026,3586.751658,NA,265016.4309,266266.9956,266646.6662,266129.8213,266266.3997,Flanker Task,123,63693.14932,133,yes,1024
incongruent,92.53731343,92.53731343,478.1650814,478.1650814,black,psycho,psycho,psycho,0,uniform,1,undefined,1,s,0,0,0,0,133,0,133,0,133,0,0,133,133,133,133,133,Sun Sep 20 21:30:06 2020,600,The main experiment item,yes,FlankerTask.osexp,/Users/tforestmoore/Desktop,no,mono,no,18,no,white,no,yes,768,psycho,53,79,/Users/tforestmoore/Desktop/TFM-subject-1.csv,psycho,Lentiform Loewenfeld,3.3.3,0,s,s,NA,s,NA,s,380.97159,23911.59296,NA,2303.429145,NA,380.97159,2,psycho,1024,2,48000,-16,experiment,HHSHH,1,odd,151551.1104,5908.717878,175465.1205,NA,261116.3759,3546.296135,194917.1606,NA,267799.9839,3586.751658,NA,266666.3422,267916.9734,268300.6261,267780.0112,267916.3745,Flanker Task,124,64074.12091,134,yes,1024
incongruent,91.85185185,91.85185185,478.1324982,478.1324982,black,psycho,psycho,psycho,0,uniform,0,undefined,0,s,0,0,0,0,134,0,134,0,134,0,0,134,134,134,134,134,Sun Sep 20 21:30:06 2020,600,The main experiment item,yes,FlankerTask.osexp,/Users/tforestmoore/Desktop,no,mono,no,18,no,white,no,yes,768,psycho,54,79,/Users/tforestmoore/Desktop/TFM-subject-1.csv,psycho,Lentiform Loewenfeld,3.3.3,0,h,s,NA,s,NA,h,473.766339,23911.59296,NA,2303.429145,NA,473.766339,2,psycho,1024,2,48000,-16,experiment,HHSHH,1,odd,151551.1104,5908.717878,175465.1205,NA,261116.3759,3546.296135,194917.1606,NA,269416.0622,3586.751658,NA,268316.294,269534.1589,270010.5898,269407.7132,269533.0663,Flanker Task,124,64547.88725,135,yes,1024
incongruent,91.17647059,91.17647059,477.7308594,477.7308594,black,psycho,psycho,psycho,0,uniform,0,undefined,0,h,0,0,0,0,135,0,135,0,135,0,0,135,135,135,135,135,Sun Sep 20 21:30:06 2020,600,The main experiment item,yes,FlankerTask.osexp,/Users/tforestmoore/Desktop,no,mono,no,18,no,white,no,yes,768,psycho,55,79,/Users/tforestmoore/Desktop/TFM-subject-1.csv,psycho,Lentiform Loewenfeld,3.3.3,0,s,s,NA,s,NA,s,423.509627,23911.59296,NA,2303.429145,NA,423.509627,2,psycho,1024,2,48000,-16,experiment,SSHSS,1,odd,151551.1104,5908.717878,175465.1205,NA,270032.8394,3546.296135,194917.1606,NA,271649.586,3586.751658,NA,270549.5646,271767.0663,272193.1504,271640.8184,271766.242,Flanker Task,124,64971.39688,136,yes,1024
incongruent,91.24087591,91.24087591,476.9973367,476.9973367,black,psycho,psycho,psycho,0,uniform,1,undefined,1,s,0,0,0,0,136,0,136,0,136,0,0,136,136,136,136,136,Sun Sep 20 21:30:06 2020,600,The main experiment item,yes,FlankerTask.osexp,/Users/tforestmoore/Desktop,no,mono,no,18,no,white,no,yes,768,psycho,56,79,/Users/tforestmoore/Desktop/TFM-subject-1.csv,psycho,Lentiform Loewenfeld,3.3.3,0,s,s,NA,s,NA,s,377.23825,23911.59296,NA,2303.429145,NA,377.23825,2,psycho,1024,2,48000,-16,experiment,HHSHH,1,odd,151551.1104,5908.717878,175465.1205,NA,272216.1852,3546.296135,194917.1606,NA,273832.6696,3586.751658,NA,272732.8432,273950.6878,274333.7245,273824.2634,273949.5226,Flanker Task,125,65348.63513,137,yes,1024
congruent,91.30434783,91.30434783,476.3825958,476.3825958,black,psycho,psycho,psycho,0,uniform,1,undefined,1,s,0,0,0,0,137,0,137,0,137,0,0,137,137,137,137,137,Sun Sep 20 21:30:06 2020,600,The main experiment item,yes,FlankerTask.osexp,/Users/tforestmoore/Desktop,no,mono,no,18,no,white,no,yes,768,psycho,57,79,/Users/tforestmoore/Desktop/TFM-subject-1.csv,psycho,Lentiform Loewenfeld,3.3.3,0,s,s,NA,s,NA,s,392.163092,23911.59296,NA,2303.429145,NA,392.163092,2,psycho,1024,2,48000,-16,experiment,SSSSS,1,odd,151551.1104,5908.717878,175465.1205,NA,272216.1852,3546.296135,194917.1606,NA,275449.3262,3586.751658,NA,274349.466,275567.2153,275961.9371,275440.5021,275566.0844,Flanker Task,126,65740.79822,138,yes,1024
congruent,90.64748201,90.64748201,475.4370755,475.4370755,black,psycho,psycho,psycho,0,uniform,0,undefined,0,h,0,0,0,0,138,0,138,0,138,0,0,138,138,138,138,138,Sun Sep 20 21:30:06 2020,600,The main experiment item,yes,FlankerTask.osexp,/Users/tforestmoore/Desktop,no,mono,no,18,no,white,no,yes,768,psycho,58,79,/Users/tforestmoore/Desktop/TFM-subject-1.csv,psycho,Lentiform Loewenfeld,3.3.3,0,s,s,NA,s,NA,s,344.955277,23911.59296,NA,2303.429145,NA,344.955277,2,psycho,1024,2,48000,-16,experiment,HHHHH,1,odd,151551.1104,5908.717878,175465.1205,NA,272216.1852,3546.296135,194917.1606,NA,277082.9547,3586.751658,NA,275982.7545,277200.5619,277551.3262,277074.1635,277199.4064,Flanker Task,126,66085.7535,139,yes,1024
incongruent,90.71428571,90.71428571,475.4999612,475.4999612,black,psycho,psycho,psycho,0,uniform,1,undefined,1,s,0,0,0,0,139,0,139,0,139,0,0,139,139,139,139,139,Sun Sep 20 21:30:06 2020,600,The main experiment item,yes,FlankerTask.osexp,/Users/tforestmoore/Desktop,no,mono,no,18,no,white,no,yes,768,psycho,59,79,/Users/tforestmoore/Desktop/TFM-subject-1.csv,psycho,Lentiform Loewenfeld,3.3.3,0,s,s,NA,s,NA,s,484.241071,23911.59296,NA,2303.429145,NA,484.241071,2,psycho,1024,2,48000,-16,experiment,HHSHH,1,odd,151551.1104,5908.717878,175465.1205,NA,277566.1273,3546.296135,194917.1606,NA,279216.0845,3586.751658,NA,278082.7898,279333.9028,279820.6813,279196.7512,279332.8158,Flanker Task,127,66569.99457,140,yes,1024
congruent,90.78014184,90.78014184,475.1989133,475.1989133,black,psycho,psycho,psycho,0,uniform,1,undefined,1,h,0,0,0,0,140,0,140,0,140,0,0,140,140,140,140,140,Sun Sep 20 21:30:06 2020,600,The main experiment item,yes,FlankerTask.osexp,/Users/tforestmoore/Desktop,no,mono,no,18,no,white,no,yes,768,psycho,60,79,/Users/tforestmoore/Desktop/TFM-subject-1.csv,psycho,Lentiform Loewenfeld,3.3.3,0,h,s,NA,s,NA,h,433.052209,23911.59296,NA,2303.429145,NA,433.052209,2,psycho,1024,2,48000,-16,experiment,HHHHH,1,odd,151551.1104,5908.717878,175465.1205,NA,277566.1273,3546.296135,194917.1606,NA,280965.9437,3586.751658,NA,279832.6991,281083.7853,281519.3768,280946.1054,281082.7156,Flanker Task,128,67003.04678,141,yes,1024
congruent,90.84507042,90.84507042,475.6065255,475.6065255,black,psycho,psycho,psycho,0,uniform,1,undefined,1,h,0,0,0,0,141,0,141,0,141,0,0,141,141,141,141,141,Sun Sep 20 21:30:06 2020,600,The main experiment item,yes,FlankerTask.osexp,/Users/tforestmoore/Desktop,no,mono,no,18,no,white,no,yes,768,psycho,61,79,/Users/tforestmoore/Desktop/TFM-subject-1.csv,psycho,Lentiform Loewenfeld,3.3.3,0,h,s,NA,s,NA,h,533.079836,23911.59296,NA,2303.429145,NA,533.079836,2,psycho,1024,2,48000,-16,experiment,HHHHH,1,odd,151551.1104,5908.717878,175465.1205,NA,277566.1273,3546.296135,194917.1606,NA,282666.0217,3586.751658,NA,281532.701,282783.749,283322.9794,282646.061,282782.6905,Flanker Task,129,67536.12661,142,yes,1024
incongruent,90.90909091,90.90909091,476.4015032,476.4015032,black,psycho,psycho,psycho,0,uniform,1,undefined,1,h,0,0,0,0,142,0,142,0,142,0,0,142,142,142,142,142,Sun Sep 20 21:30:06 2020,600,The main experiment item,yes,FlankerTask.osexp,/Users/tforestmoore/Desktop,no,mono,no,18,no,white,no,yes,768,psycho,62,79,/Users/tforestmoore/Desktop/TFM-subject-1.csv,psycho,Lentiform Loewenfeld,3.3.3,0,h,s,NA,s,NA,h,589.288344,23911.59296,NA,2303.429145,NA,589.288344,2,psycho,1024,2,48000,-16,experiment,SSHSS,1,odd,151551.1104,5908.717878,175465.1205,NA,277566.1273,3546.296135,194917.1606,NA,284466.0334,3586.751658,NA,283333.1781,284583.804,285175.7119,284446.0018,284582.6811,Flanker Task,130,68125.41496,143,yes,1024
incongruent,90.97222222,90.97222222,476.803421,476.803421,black,psycho,psycho,psycho,0,uniform,1,undefined,1,h,0,0,0,0,143,0,143,0,143,0,0,143,143,143,143,143,Sun Sep 20 21:30:06 2020,600,The main experiment item,yes,FlankerTask.osexp,/Users/tforestmoore/Desktop,no,mono,no,18,no,white,no,yes,768,psycho,63,79,/Users/tforestmoore/Desktop/TFM-subject-1.csv,psycho,Lentiform Loewenfeld,3.3.3,0,h,s,NA,s,NA,h,534.277671,23911.59296,NA,2303.429145,NA,534.277671,2,psycho,1024,2,48000,-16,experiment,SSHSS,1,odd,151551.1104,5908.717878,175465.1205,NA,277566.1273,3546.296135,194917.1606,NA,286333.4018,3586.751658,NA,285199.4379,286450.0854,286990.5936,286312.3112,286449.4894,Flanker Task,131,68659.69263,144,yes,1024
