"acc","accuracy","average_response_time","avg_rt","background","canvas_backend","clock_backend","color_backend","compensation","condition","coordinates","correct","correct_instruction1","correct_keybordresponse","correct_response","count_Block1","count_Block2","count_Block3","count_errorfeedback","count_experiment","count_faster","count_finish","count_fixation","count_instruction1","count_instructions2","count_instructions3","count_isi","count_keybordresponse","count_logger","count_sequence","count_stimulus","datetime","deadline","description","disable_garbage_collection","experiment_file","experiment_path","font_bold","font_family","font_italic","font_size","font_underline","foreground","form_clicks","fullscreen","height","keyboard_backend","live_row","live_row_Block1","logfile","mouse_backend","opensesame_codename","opensesame_version","repeat_cycle","response","response_finish","response_instruction1","response_instructions2","response_instructions3","response_keybordresponse","response_time","response_time_finish","response_time_instruction1","response_time_instructions2","response_time_instructions3","response_time_keybordresponse","round_decimals","sampler_backend","sound_buf_size","sound_channels","sound_freq","sound_sample_size","start","stimulus","subject_nr","subject_parity","time_Block1","time_Block2","time_Block3","time_errorfeedback","time_experiment","time_faster","time_finish","time_fixation","time_instruction1","time_instructions2","time_instructions3","time_isi","time_keybordresponse","time_logger","time_sequence","time_stimulus","title","total_correct","total_response_time","total_responses","uniform_coordinates","width"
"100","100","654","654","black","legacy","legacy","legacy","0","incongruent","uniform","1","undefined","1","s","0","0","0","0","0","0","0","0","0","0","0","0","0","0","0","0","Sun Sep 27 20:16:42 2020","1500","The main experiment item","yes","FlankerTask.osexp","C:\Users\katri\OneDrive\Documents\Fall 2020\Flanker Test","no","mono","no","18","no","white","no","yes","768","legacy","0","0","C:/Users/katri/OneDrive/Documents/Fall 2020/Flanker Test/subject-6.csv","legacy","Lentiform Loewenfeld","3.3.3","0","s","NA","h","NA","NA","s","654","NA","33772","NA","NA","654","2","legacy","1024","2","48000","-16","experiment","HHSHH","6","even","36405","NA","NA","NA","2624","NA","NA","36462","2632","NA","NA","NA","36563","37218","36461","36563","Flanker Task","1","654","1","yes","1024"
"100","100","580","580","black","legacy","legacy","legacy","0","congruent","uniform","1","undefined","1","s","0","0","0","1","0","1","0","1","0","0","0","1","1","1","1","1","Sun Sep 27 20:16:42 2020","1500","The main experiment item","yes","FlankerTask.osexp","C:\Users\katri\OneDrive\Documents\Fall 2020\Flanker Test","no","mono","no","18","no","white","no","yes","768","legacy","1","1","C:/Users/katri/OneDrive/Documents/Fall 2020/Flanker Test/subject-6.csv","legacy","Lentiform Loewenfeld","3.3.3","0","s","NA","h","NA","NA","s","506","NA","33772","NA","NA","506","2","legacy","1024","2","48000","-16","experiment","SSSSS","6","even","36405","NA","NA","NA","2624","NA","NA","38312","2632","NA","NA","37246","38415","38921","38310","38414","Flanker Task","2","1160","2","yes","1024"
"100","100","506.6666666666667","506.6666666666667","black","legacy","legacy","legacy","0","incongruent","uniform","1","undefined","1","s","0","0","0","2","0","2","0","2","0","0","0","2","2","2","2","2","Sun Sep 27 20:16:42 2020","1500","The main experiment item","yes","FlankerTask.osexp","C:\Users\katri\OneDrive\Documents\Fall 2020\Flanker Test","no","mono","no","18","no","white","no","yes","768","legacy","2","2","C:/Users/katri/OneDrive/Documents/Fall 2020/Flanker Test/subject-6.csv","legacy","Lentiform Loewenfeld","3.3.3","0","s","NA","h","NA","NA","s","360","NA","33772","NA","NA","360","2","legacy","1024","2","48000","-16","experiment","HHSHH","6","even","36405","NA","NA","NA","2624","NA","NA","40027","2632","NA","NA","38945","40129","40490","40025","40129","Flanker Task","3","1520","3","yes","1024"
"100","100","468.5","468.5","black","legacy","legacy","legacy","0","incongruent","uniform","1","undefined","1","s","0","0","0","3","0","3","0","3","0","0","0","3","3","3","3","3","Sun Sep 27 20:16:42 2020","1500","The main experiment item","yes","FlankerTask.osexp","C:\Users\katri\OneDrive\Documents\Fall 2020\Flanker Test","no","mono","no","18","no","white","no","yes","768","legacy","3","3","C:/Users/katri/OneDrive/Documents/Fall 2020/Flanker Test/subject-6.csv","legacy","Lentiform Loewenfeld","3.3.3","0","s","NA","h","NA","NA","s","354","NA","33772","NA","NA","354","2","legacy","1024","2","48000","-16","experiment","HHSHH","6","even","36405","NA","NA","NA","2624","NA","NA","41595","2632","NA","NA","40512","41697","42051","41593","41697","Flanker Task","4","1874","4","yes","1024"
"100","100","490.2","490.2","black","legacy","legacy","legacy","0","incongrunet","uniform","1","undefined","1","h","0","0","0","4","0","4","0","4","0","0","0","4","4","4","4","4","Sun Sep 27 20:16:42 2020","1500","The main experiment item","yes","FlankerTask.osexp","C:\Users\katri\OneDrive\Documents\Fall 2020\Flanker Test","no","mono","no","18","no","white","no","yes","768","legacy","4","4","C:/Users/katri/OneDrive/Documents/Fall 2020/Flanker Test/subject-6.csv","legacy","Lentiform Loewenfeld","3.3.3","0","h","NA","h","NA","NA","h","577","NA","33772","NA","NA","577","2","legacy","1024","2","48000","-16","experiment","SSHSS","6","even","36405","NA","NA","NA","2624","NA","NA","43156","2632","NA","NA","42076","43258","43835","43153","43258","Flanker Task","5","2451","5","yes","1024"
"83.33333333333333","83.33333333333333","472.8333333333333","472.8333333333333","black","legacy","legacy","legacy","0","congruent","uniform","0","undefined","0","s","0","0","0","5","0","5","0","5","0","0","0","5","5","5","5","5","Sun Sep 27 20:16:42 2020","1500","The main experiment item","yes","FlankerTask.osexp","C:\Users\katri\OneDrive\Documents\Fall 2020\Flanker Test","no","mono","no","18","no","white","no","yes","768","legacy","5","5","C:/Users/katri/OneDrive/Documents/Fall 2020/Flanker Test/subject-6.csv","legacy","Lentiform Loewenfeld","3.3.3","0","h","NA","h","NA","NA","h","386","NA","33772","NA","NA","386","2","legacy","1024","2","48000","-16","experiment","SSSSS","6","even","36405","NA","NA","NA","2624","NA","NA","44939","2632","NA","NA","43859","45042","45428","44937","45042","Flanker Task","5","2837","6","yes","1024"
"85.71428571428571","85.71428571428571","487.57142857142856","487.57142857142856","black","legacy","legacy","legacy","0","incongruent","uniform","1","undefined","1","s","0","0","0","6","0","6","0","6","0","0","0","6","6","6","6","6","Sun Sep 27 20:16:42 2020","1500","The main experiment item","yes","FlankerTask.osexp","C:\Users\katri\OneDrive\Documents\Fall 2020\Flanker Test","no","mono","no","18","no","white","no","yes","768","legacy","6","6","C:/Users/katri/OneDrive/Documents/Fall 2020/Flanker Test/subject-6.csv","legacy","Lentiform Loewenfeld","3.3.3","0","s","NA","h","NA","NA","s","576","NA","33772","NA","NA","576","2","legacy","1024","2","48000","-16","experiment","HHSHH","6","even","36405","NA","NA","46455","2624","NA","NA","47024","2632","NA","NA","45453","47126","47703","47022","47126","Flanker Task","6","3413","7","yes","1024"
"87.5","87.5","499.625","499.625","black","legacy","legacy","legacy","0","congruent","uniform","1","undefined","1","h","0","0","0","7","0","7","0","7","0","0","0","7","7","7","7","7","Sun Sep 27 20:16:42 2020","1500","The main experiment item","yes","FlankerTask.osexp","C:\Users\katri\OneDrive\Documents\Fall 2020\Flanker Test","no","mono","no","18","no","white","no","yes","768","legacy","7","7","C:/Users/katri/OneDrive/Documents/Fall 2020/Flanker Test/subject-6.csv","legacy","Lentiform Loewenfeld","3.3.3","0","h","NA","h","NA","NA","h","584","NA","33772","NA","NA","584","2","legacy","1024","2","48000","-16","experiment","HHHHH","6","even","36405","NA","NA","46455","2624","NA","NA","48788","2632","NA","NA","47709","48890","49474","48786","48890","Flanker Task","7","3997","8","yes","1024"
"88.88888888888889","88.88888888888889","508.77777777777777","508.77777777777777","black","legacy","legacy","legacy","0","incongrunet","uniform","1","undefined","1","h","0","0","0","8","0","8","0","8","0","0","0","8","8","8","8","8","Sun Sep 27 20:16:42 2020","1500","The main experiment item","yes","FlankerTask.osexp","C:\Users\katri\OneDrive\Documents\Fall 2020\Flanker Test","no","mono","no","18","no","white","no","yes","768","legacy","8","8","C:/Users/katri/OneDrive/Documents/Fall 2020/Flanker Test/subject-6.csv","legacy","Lentiform Loewenfeld","3.3.3","0","h","NA","h","NA","NA","h","582","NA","33772","NA","NA","582","2","legacy","1024","2","48000","-16","experiment","SSHSS","6","even","36405","NA","NA","46455","2624","NA","NA","50544","2632","NA","NA","49481","50647","51229","50542","50647","Flanker Task","8","4579","9","yes","1024"
"90","90","513.6","513.6","black","legacy","legacy","legacy","0","incongrunet","uniform","1","undefined","1","h","0","0","0","9","0","9","0","9","0","0","0","9","9","9","9","9","Sun Sep 27 20:16:42 2020","1500","The main experiment item","yes","FlankerTask.osexp","C:\Users\katri\OneDrive\Documents\Fall 2020\Flanker Test","no","mono","no","18","no","white","no","yes","768","legacy","9","9","C:/Users/katri/OneDrive/Documents/Fall 2020/Flanker Test/subject-6.csv","legacy","Lentiform Loewenfeld","3.3.3","0","h","NA","h","NA","NA","h","557","NA","33772","NA","NA","557","2","legacy","1024","2","48000","-16","experiment","SSHSS","6","even","36405","NA","NA","46455","2624","NA","NA","52314","2632","NA","NA","51237","52416","52974","52312","52416","Flanker Task","9","5136","10","yes","1024"
"90.9090909090909","90.9090909090909","522.2727272727273","522.2727272727273","black","legacy","legacy","legacy","0","incongruent","uniform","1","undefined","1","s","0","0","0","10","0","10","0","10","0","0","0","10","10","10","10","10","Sun Sep 27 20:16:42 2020","1500","The main experiment item","yes","FlankerTask.osexp","C:\Users\katri\OneDrive\Documents\Fall 2020\Flanker Test","no","mono","no","18","no","white","no","yes","768","legacy","10","10","C:/Users/katri/OneDrive/Documents/Fall 2020/Flanker Test/subject-6.csv","legacy","Lentiform Loewenfeld","3.3.3","0","s","NA","h","NA","NA","s","609","NA","33772","NA","NA","609","2","legacy","1024","2","48000","-16","experiment","HHSHH","6","even","36405","NA","NA","46455","2624","NA","NA","54049","2632","NA","NA","52980","54151","54760","54047","54151","Flanker Task","10","5745","11","yes","1024"
"91.66666666666667","91.66666666666667","521.1666666666666","521.1666666666666","black","legacy","legacy","legacy","0","congruent","uniform","1","undefined","1","h","0","0","0","11","0","11","0","11","0","0","0","11","11","11","11","11","Sun Sep 27 20:16:42 2020","1500","The main experiment item","yes","FlankerTask.osexp","C:\Users\katri\OneDrive\Documents\Fall 2020\Flanker Test","no","mono","no","18","no","white","no","yes","768","legacy","11","11","C:/Users/katri/OneDrive/Documents/Fall 2020/Flanker Test/subject-6.csv","legacy","Lentiform Loewenfeld","3.3.3","0","h","NA","h","NA","NA","h","509","NA","33772","NA","NA","509","2","legacy","1024","2","48000","-16","experiment","HHHHH","6","even","36405","NA","NA","46455","2624","NA","NA","55866","2632","NA","NA","54786","55969","56478","55864","55969","Flanker Task","11","6254","12","yes","1024"
"92.3076923076923","92.3076923076923","528.6923076923077","528.6923076923077","black","legacy","legacy","legacy","0","incongrunet","uniform","1","undefined","1","h","0","0","0","12","0","12","0","12","0","0","0","12","12","12","12","12","Sun Sep 27 20:16:42 2020","1500","The main experiment item","yes","FlankerTask.osexp","C:\Users\katri\OneDrive\Documents\Fall 2020\Flanker Test","no","mono","no","18","no","white","no","yes","768","legacy","12","12","C:/Users/katri/OneDrive/Documents/Fall 2020/Flanker Test/subject-6.csv","legacy","Lentiform Loewenfeld","3.3.3","0","h","NA","h","NA","NA","h","619","NA","33772","NA","NA","619","2","legacy","1024","2","48000","-16","experiment","SSHSS","6","even","36405","NA","NA","46455","2624","NA","NA","57565","2632","NA","NA","56484","57667","58287","57563","57667","Flanker Task","12","6873","13","yes","1024"
"92.85714285714286","92.85714285714286","528","528","black","legacy","legacy","legacy","0","congruent","uniform","1","undefined","1","h","0","0","0","13","0","13","0","13","0","0","0","13","13","13","13","13","Sun Sep 27 20:16:42 2020","1500","The main experiment item","yes","FlankerTask.osexp","C:\Users\katri\OneDrive\Documents\Fall 2020\Flanker Test","no","mono","no","18","no","white","no","yes","768","legacy","13","13","C:/Users/katri/OneDrive/Documents/Fall 2020/Flanker Test/subject-6.csv","legacy","Lentiform Loewenfeld","3.3.3","0","h","NA","h","NA","NA","h","519","NA","33772","NA","NA","519","2","legacy","1024","2","48000","-16","experiment","HHHHH","6","even","36405","NA","NA","46455","2624","NA","NA","59372","2632","NA","NA","58295","59475","59994","59370","59475","Flanker Task","13","7392","14","yes","1024"
"93.33333333333333","93.33333333333333","522.9333333333333","522.9333333333333","black","legacy","legacy","legacy","0","congruent","uniform","1","undefined","1","h","0","0","0","14","0","14","0","14","0","0","0","14","14","14","14","14","Sun Sep 27 20:16:42 2020","1500","The main experiment item","yes","FlankerTask.osexp","C:\Users\katri\OneDrive\Documents\Fall 2020\Flanker Test","no","mono","no","18","no","white","no","yes","768","legacy","14","14","C:/Users/katri/OneDrive/Documents/Fall 2020/Flanker Test/subject-6.csv","legacy","Lentiform Loewenfeld","3.3.3","0","h","NA","h","NA","NA","h","452","NA","33772","NA","NA","452","2","legacy","1024","2","48000","-16","experiment","HHHHH","6","even","36405","NA","NA","46455","2624","NA","NA","61099","2632","NA","NA","60018","61202","61655","61096","61202","Flanker Task","14","7844","15","yes","1024"
"93.75","93.75","522.8125","522.8125","black","legacy","legacy","legacy","0","incongrunet","uniform","1","undefined","1","h","0","0","0","15","0","15","0","15","0","0","0","15","15","15","15","15","Sun Sep 27 20:16:42 2020","1500","The main experiment item","yes","FlankerTask.osexp","C:\Users\katri\OneDrive\Documents\Fall 2020\Flanker Test","no","mono","no","18","no","white","no","yes","768","legacy","15","15","C:/Users/katri/OneDrive/Documents/Fall 2020/Flanker Test/subject-6.csv","legacy","Lentiform Loewenfeld","3.3.3","0","h","NA","h","NA","NA","h","521","NA","33772","NA","NA","521","2","legacy","1024","2","48000","-16","experiment","SSHSS","6","even","36405","NA","NA","46455","2624","NA","NA","62739","2632","NA","NA","61663","62842","63363","62737","62842","Flanker Task","15","8365","16","yes","1024"
"94.11764705882354","94.11764705882354","516.7058823529412","516.7058823529412","black","legacy","legacy","legacy","0","congruent","uniform","1","undefined","1","s","0","0","0","16","0","16","0","16","0","0","0","16","16","16","16","16","Sun Sep 27 20:16:42 2020","1500","The main experiment item","yes","FlankerTask.osexp","C:\Users\katri\OneDrive\Documents\Fall 2020\Flanker Test","no","mono","no","18","no","white","no","yes","768","legacy","16","16","C:/Users/katri/OneDrive/Documents/Fall 2020/Flanker Test/subject-6.csv","legacy","Lentiform Loewenfeld","3.3.3","0","s","NA","h","NA","NA","s","419","NA","33772","NA","NA","419","2","legacy","1024","2","48000","-16","experiment","SSSSS","6","even","36405","NA","NA","46455","2624","NA","NA","64447","2632","NA","NA","63371","64550","64969","64445","64550","Flanker Task","16","8784","17","yes","1024"
"94.44444444444444","94.44444444444444","516.7777777777778","516.7777777777778","black","legacy","legacy","legacy","0","incongrunet","uniform","1","undefined","1","h","0","0","0","17","0","17","0","17","0","0","0","17","17","17","17","17","Sun Sep 27 20:16:42 2020","1500","The main experiment item","yes","FlankerTask.osexp","C:\Users\katri\OneDrive\Documents\Fall 2020\Flanker Test","no","mono","no","18","no","white","no","yes","768","legacy","17","17","C:/Users/katri/OneDrive/Documents/Fall 2020/Flanker Test/subject-6.csv","legacy","Lentiform Loewenfeld","3.3.3","0","h","NA","h","NA","NA","h","518","NA","33772","NA","NA","518","2","legacy","1024","2","48000","-16","experiment","SSHSS","6","even","36405","NA","NA","46455","2624","NA","NA","66050","2632","NA","NA","64972","66153","66671","66048","66153","Flanker Task","17","9302","18","yes","1024"
"94.73684210526316","94.73684210526316","510.94736842105266","510.94736842105266","black","legacy","legacy","legacy","0","incongruent","uniform","1","undefined","1","s","0","0","0","18","0","18","0","18","0","0","0","18","18","18","18","18","Sun Sep 27 20:16:42 2020","1500","The main experiment item","yes","FlankerTask.osexp","C:\Users\katri\OneDrive\Documents\Fall 2020\Flanker Test","no","mono","no","18","no","white","no","yes","768","legacy","18","18","C:/Users/katri/OneDrive/Documents/Fall 2020/Flanker Test/subject-6.csv","legacy","Lentiform Loewenfeld","3.3.3","0","s","NA","h","NA","NA","s","406","NA","33772","NA","NA","406","2","legacy","1024","2","48000","-16","experiment","HHSHH","6","even","36405","NA","NA","46455","2624","NA","NA","67743","2632","NA","NA","66675","67845","68251","67741","67844","Flanker Task","18","9708","19","yes","1024"
"95","95","507.6","507.6","black","legacy","legacy","legacy","0","congruent","uniform","1","undefined","1","h","0","0","0","19","0","19","0","19","0","0","0","19","19","19","19","19","Sun Sep 27 20:16:42 2020","1500","The main experiment item","yes","FlankerTask.osexp","C:\Users\katri\OneDrive\Documents\Fall 2020\Flanker Test","no","mono","no","18","no","white","no","yes","768","legacy","19","19","C:/Users/katri/OneDrive/Documents/Fall 2020/Flanker Test/subject-6.csv","legacy","Lentiform Loewenfeld","3.3.3","0","h","NA","h","NA","NA","h","444","NA","33772","NA","NA","444","2","legacy","1024","2","48000","-16","experiment","HHHHH","6","even","36405","NA","NA","46455","2624","NA","NA","69333","2632","NA","NA","68255","69435","69879","69331","69435","Flanker Task","19","10152","20","yes","1024"
"90.47619047619048","90.47619047619048","506.42857142857144","506.42857142857144","black","legacy","legacy","legacy","0","incongrunet","uniform","0","undefined","0","h","0","0","0","20","0","20","0","20","0","0","0","20","20","20","20","20","Sun Sep 27 20:16:42 2020","1500","The main experiment item","yes","FlankerTask.osexp","C:\Users\katri\OneDrive\Documents\Fall 2020\Flanker Test","no","mono","no","18","no","white","no","yes","768","legacy","20","20","C:/Users/katri/OneDrive/Documents/Fall 2020/Flanker Test/subject-6.csv","legacy","Lentiform Loewenfeld","3.3.3","0","s","NA","h","NA","NA","s","483","NA","33772","NA","NA","483","2","legacy","1024","2","48000","-16","experiment","SSHSS","6","even","36405","NA","NA","46455","2624","NA","NA","70964","2632","NA","NA","69884","71067","71550","70962","71066","Flanker Task","19","10635","21","yes","1024"
"90.9090909090909","90.9090909090909","506.3636363636364","506.3636363636364","black","legacy","legacy","legacy","0","congruent","uniform","1","undefined","1","h","0","0","0","21","0","21","0","21","0","0","0","21","21","21","21","21","Sun Sep 27 20:16:42 2020","1500","The main experiment item","yes","FlankerTask.osexp","C:\Users\katri\OneDrive\Documents\Fall 2020\Flanker Test","no","mono","no","18","no","white","no","yes","768","legacy","21","21","C:/Users/katri/OneDrive/Documents/Fall 2020/Flanker Test/subject-6.csv","legacy","Lentiform Loewenfeld","3.3.3","0","h","NA","h","NA","NA","h","505","NA","33772","NA","NA","505","2","legacy","1024","2","48000","-16","experiment","HHHHH","6","even","36405","NA","NA","72562","2624","NA","NA","73142","2632","NA","NA","71559","73245","73751","73140","73245","Flanker Task","20","11140","22","yes","1024"
"91.30434782608695","91.30434782608695","511.95652173913044","511.95652173913044","black","legacy","legacy","legacy","0","congruent","uniform","1","undefined","1","s","0","0","0","22","0","22","0","22","0","0","0","22","22","22","22","22","Sun Sep 27 20:16:42 2020","1500","The main experiment item","yes","FlankerTask.osexp","C:\Users\katri\OneDrive\Documents\Fall 2020\Flanker Test","no","mono","no","18","no","white","no","yes","768","legacy","22","22","C:/Users/katri/OneDrive/Documents/Fall 2020/Flanker Test/subject-6.csv","legacy","Lentiform Loewenfeld","3.3.3","0","s","NA","h","NA","NA","s","635","NA","33772","NA","NA","635","2","legacy","1024","2","48000","-16","experiment","SSSSS","6","even","36405","NA","NA","72562","2624","NA","NA","74844","2632","NA","NA","73761","74947","75582","74842","74947","Flanker Task","21","11775","23","yes","1024"
"91.66666666666667","91.66666666666667","511.3333333333333","511.3333333333333","black","legacy","legacy","legacy","0","incongrunet","uniform","1","undefined","1","h","0","0","0","23","0","23","0","23","0","0","0","23","23","23","23","23","Sun Sep 27 20:16:42 2020","1500","The main experiment item","yes","FlankerTask.osexp","C:\Users\katri\OneDrive\Documents\Fall 2020\Flanker Test","no","mono","no","18","no","white","no","yes","768","legacy","23","23","C:/Users/katri/OneDrive/Documents/Fall 2020/Flanker Test/subject-6.csv","legacy","Lentiform Loewenfeld","3.3.3","0","h","NA","h","NA","NA","h","497","NA","33772","NA","NA","497","2","legacy","1024","2","48000","-16","experiment","SSHSS","6","even","36405","NA","NA","72562","2624","NA","NA","76678","2632","NA","NA","75592","76782","77279","76676","76782","Flanker Task","22","12272","24","yes","1024"
"92","92","509.8","509.8","black","legacy","legacy","legacy","0","incongrunet","uniform","1","undefined","1","h","0","0","0","24","0","24","0","24","0","0","0","24","24","24","24","24","Sun Sep 27 20:16:42 2020","1500","The main experiment item","yes","FlankerTask.osexp","C:\Users\katri\OneDrive\Documents\Fall 2020\Flanker Test","no","mono","no","18","no","white","no","yes","768","legacy","24","24","C:/Users/katri/OneDrive/Documents/Fall 2020/Flanker Test/subject-6.csv","legacy","Lentiform Loewenfeld","3.3.3","0","h","NA","h","NA","NA","h","473","NA","33772","NA","NA","473","2","legacy","1024","2","48000","-16","experiment","SSHSS","6","even","36405","NA","NA","72562","2624","NA","NA","78379","2632","NA","NA","77282","78484","78957","78377","78483","Flanker Task","23","12745","25","yes","1024"
"92.3076923076923","92.3076923076923","512.3846153846154","512.3846153846154","black","legacy","legacy","legacy","0","incongrunet","uniform","1","undefined","1","h","0","0","0","25","0","25","0","25","0","0","0","25","25","25","25","25","Sun Sep 27 20:16:42 2020","1500","The main experiment item","yes","FlankerTask.osexp","C:\Users\katri\OneDrive\Documents\Fall 2020\Flanker Test","no","mono","no","18","no","white","no","yes","768","legacy","25","25","C:/Users/katri/OneDrive/Documents/Fall 2020/Flanker Test/subject-6.csv","legacy","Lentiform Loewenfeld","3.3.3","0","h","NA","h","NA","NA","h","577","NA","33772","NA","NA","577","2","legacy","1024","2","48000","-16","experiment","SSHSS","6","even","36405","NA","NA","72562","2624","NA","NA","80031","2632","NA","NA","78967","80133","80711","80029","80133","Flanker Task","24","13322","26","yes","1024"
"92.5925925925926","92.5925925925926","509.7037037037037","509.7037037037037","black","legacy","legacy","legacy","0","congruent","uniform","1","undefined","1","s","0","0","0","26","0","26","0","26","0","0","0","26","26","26","26","26","Sun Sep 27 20:16:42 2020","1500","The main experiment item","yes","FlankerTask.osexp","C:\Users\katri\OneDrive\Documents\Fall 2020\Flanker Test","no","mono","no","18","no","white","no","yes","768","legacy","26","26","C:/Users/katri/OneDrive/Documents/Fall 2020/Flanker Test/subject-6.csv","legacy","Lentiform Loewenfeld","3.3.3","0","s","NA","h","NA","NA","s","440","NA","33772","NA","NA","440","2","legacy","1024","2","48000","-16","experiment","SSSSS","6","even","36405","NA","NA","72562","2624","NA","NA","81803","2632","NA","NA","80720","81908","82349","81801","81908","Flanker Task","25","13762","27","yes","1024"
"92.85714285714286","92.85714285714286","508.75","508.75","black","legacy","legacy","legacy","0","congruent","uniform","1","undefined","1","s","0","0","0","27","0","27","0","27","0","0","0","27","27","27","27","27","Sun Sep 27 20:16:42 2020","1500","The main experiment item","yes","FlankerTask.osexp","C:\Users\katri\OneDrive\Documents\Fall 2020\Flanker Test","no","mono","no","18","no","white","no","yes","768","legacy","27","27","C:/Users/katri/OneDrive/Documents/Fall 2020/Flanker Test/subject-6.csv","legacy","Lentiform Loewenfeld","3.3.3","0","s","NA","h","NA","NA","s","483","NA","33772","NA","NA","483","2","legacy","1024","2","48000","-16","experiment","SSSSS","6","even","36405","NA","NA","72562","2624","NA","NA","83461","2632","NA","NA","82374","83566","84049","83459","83566","Flanker Task","26","14245","28","yes","1024"
"93.10344827586206","93.10344827586206","510.2413793103448","510.2413793103448","black","legacy","legacy","legacy","0","incongruent","uniform","1","undefined","1","s","0","0","0","28","0","28","0","28","0","0","0","28","28","28","28","28","Sun Sep 27 20:16:42 2020","1500","The main experiment item","yes","FlankerTask.osexp","C:\Users\katri\OneDrive\Documents\Fall 2020\Flanker Test","no","mono","no","18","no","white","no","yes","768","legacy","28","28","C:/Users/katri/OneDrive/Documents/Fall 2020/Flanker Test/subject-6.csv","legacy","Lentiform Loewenfeld","3.3.3","0","s","NA","h","NA","NA","s","552","NA","33772","NA","NA","552","2","legacy","1024","2","48000","-16","experiment","HHSHH","6","even","36405","NA","NA","72562","2624","NA","NA","85136","2632","NA","NA","84052","85241","85793","85134","85241","Flanker Task","27","14797","29","yes","1024"
"93.33333333333333","93.33333333333333","509.8","509.8","black","legacy","legacy","legacy","0","incongrunet","uniform","1","undefined","1","h","0","0","0","29","0","29","0","29","0","0","0","29","29","29","29","29","Sun Sep 27 20:16:42 2020","1500","The main experiment item","yes","FlankerTask.osexp","C:\Users\katri\OneDrive\Documents\Fall 2020\Flanker Test","no","mono","no","18","no","white","no","yes","768","legacy","29","29","C:/Users/katri/OneDrive/Documents/Fall 2020/Flanker Test/subject-6.csv","legacy","Lentiform Loewenfeld","3.3.3","0","h","NA","h","NA","NA","h","497","NA","33772","NA","NA","497","2","legacy","1024","2","48000","-16","experiment","SSHSS","6","even","36405","NA","NA","72562","2624","NA","NA","86870","2632","NA","NA","85802","86975","87473","86868","86975","Flanker Task","28","15294","30","yes","1024"
"93.54838709677419","93.54838709677419","506.38709677419354","506.38709677419354","black","legacy","legacy","legacy","0","congruent","uniform","1","undefined","1","s","0","0","0","30","0","30","0","30","0","0","0","30","30","30","30","30","Sun Sep 27 20:16:42 2020","1500","The main experiment item","yes","FlankerTask.osexp","C:\Users\katri\OneDrive\Documents\Fall 2020\Flanker Test","no","mono","no","18","no","white","no","yes","768","legacy","30","30","C:/Users/katri/OneDrive/Documents/Fall 2020/Flanker Test/subject-6.csv","legacy","Lentiform Loewenfeld","3.3.3","0","s","NA","h","NA","NA","s","404","NA","33772","NA","NA","404","2","legacy","1024","2","48000","-16","experiment","SSSSS","6","even","36405","NA","NA","72562","2624","NA","NA","88560","2632","NA","NA","87480","88665","89069","88558","88664","Flanker Task","29","15698","31","yes","1024"
"93.75","93.75","509.4375","509.4375","black","legacy","legacy","legacy","0","incongruent","uniform","1","undefined","1","s","0","0","0","31","0","31","0","31","0","0","0","31","31","31","31","31","Sun Sep 27 20:16:42 2020","1500","The main experiment item","yes","FlankerTask.osexp","C:\Users\katri\OneDrive\Documents\Fall 2020\Flanker Test","no","mono","no","18","no","white","no","yes","768","legacy","31","31","C:/Users/katri/OneDrive/Documents/Fall 2020/Flanker Test/subject-6.csv","legacy","Lentiform Loewenfeld","3.3.3","0","s","NA","h","NA","NA","s","604","NA","33772","NA","NA","604","2","legacy","1024","2","48000","-16","experiment","HHSHH","6","even","36405","NA","NA","72562","2624","NA","NA","90160","2632","NA","NA","89076","90266","90870","90158","90265","Flanker Task","30","16302","32","yes","1024"
"93.93939393939394","93.93939393939394","512.3333333333334","512.3333333333334","black","legacy","legacy","legacy","0","congruent","uniform","1","undefined","1","h","0","0","0","32","0","32","0","32","0","0","0","32","32","32","32","32","Sun Sep 27 20:16:42 2020","1500","The main experiment item","yes","FlankerTask.osexp","C:\Users\katri\OneDrive\Documents\Fall 2020\Flanker Test","no","mono","no","18","no","white","no","yes","768","legacy","32","32","C:/Users/katri/OneDrive/Documents/Fall 2020/Flanker Test/subject-6.csv","legacy","Lentiform Loewenfeld","3.3.3","0","h","NA","h","NA","NA","h","605","NA","33772","NA","NA","605","2","legacy","1024","2","48000","-16","experiment","HHHHH","6","even","36405","NA","NA","72562","2624","NA","NA","91964","2632","NA","NA","90874","92068","92674","91962","92068","Flanker Task","31","16907","33","yes","1024"
"94.11764705882354","94.11764705882354","514.1764705882352","514.1764705882352","black","legacy","legacy","legacy","0","incongrunet","uniform","1","undefined","1","h","0","0","0","33","0","33","0","33","0","0","0","33","33","33","33","33","Sun Sep 27 20:16:42 2020","1500","The main experiment item","yes","FlankerTask.osexp","C:\Users\katri\OneDrive\Documents\Fall 2020\Flanker Test","no","mono","no","18","no","white","no","yes","768","legacy","33","33","C:/Users/katri/OneDrive/Documents/Fall 2020/Flanker Test/subject-6.csv","legacy","Lentiform Loewenfeld","3.3.3","0","h","NA","h","NA","NA","h","575","NA","33772","NA","NA","575","2","legacy","1024","2","48000","-16","experiment","SSHSS","6","even","36405","NA","NA","72562","2624","NA","NA","93777","2632","NA","NA","92683","93882","94458","93775","93882","Flanker Task","32","17482","34","yes","1024"
"94.28571428571429","94.28571428571429","512.5142857142857","512.5142857142857","black","legacy","legacy","legacy","0","incongruent","uniform","1","undefined","1","s","0","0","0","34","0","34","0","34","0","0","0","34","34","34","34","34","Sun Sep 27 20:16:42 2020","1500","The main experiment item","yes","FlankerTask.osexp","C:\Users\katri\OneDrive\Documents\Fall 2020\Flanker Test","no","mono","no","18","no","white","no","yes","768","legacy","34","34","C:/Users/katri/OneDrive/Documents/Fall 2020/Flanker Test/subject-6.csv","legacy","Lentiform Loewenfeld","3.3.3","0","s","NA","h","NA","NA","s","456","NA","33772","NA","NA","456","2","legacy","1024","2","48000","-16","experiment","HHSHH","6","even","36405","NA","NA","72562","2624","NA","NA","95551","2632","NA","NA","94468","95656","96112","95549","95656","Flanker Task","33","17938","35","yes","1024"
"94.44444444444444","94.44444444444444","515.8888888888889","515.8888888888889","black","legacy","legacy","legacy","0","incongruent","uniform","1","undefined","1","s","0","0","0","35","0","35","0","35","0","0","0","35","35","35","35","35","Sun Sep 27 20:16:42 2020","1500","The main experiment item","yes","FlankerTask.osexp","C:\Users\katri\OneDrive\Documents\Fall 2020\Flanker Test","no","mono","no","18","no","white","no","yes","768","legacy","35","35","C:/Users/katri/OneDrive/Documents/Fall 2020/Flanker Test/subject-6.csv","legacy","Lentiform Loewenfeld","3.3.3","0","s","NA","h","NA","NA","s","634","NA","33772","NA","NA","634","2","legacy","1024","2","48000","-16","experiment","HHSHH","6","even","36405","NA","NA","72562","2624","NA","NA","97208","2632","NA","NA","96118","97309","97943","97205","97309","Flanker Task","34","18572","36","yes","1024"
"94.5945945945946","94.5945945945946","516.9459459459459","516.9459459459459","black","legacy","legacy","legacy","0","congruent","uniform","1","undefined","1","s","0","0","0","36","0","36","0","36","0","0","0","36","36","36","36","36","Sun Sep 27 20:16:42 2020","1500","The main experiment item","yes","FlankerTask.osexp","C:\Users\katri\OneDrive\Documents\Fall 2020\Flanker Test","no","mono","no","18","no","white","no","yes","768","legacy","36","36","C:/Users/katri/OneDrive/Documents/Fall 2020/Flanker Test/subject-6.csv","legacy","Lentiform Loewenfeld","3.3.3","0","s","NA","h","NA","NA","s","555","NA","33772","NA","NA","555","2","legacy","1024","2","48000","-16","experiment","SSSSS","6","even","36405","NA","NA","72562","2624","NA","NA","99034","2632","NA","NA","97951","99136","99691","99032","99135","Flanker Task","35","19127","37","yes","1024"
"94.73684210526316","94.73684210526316","516.3947368421053","516.3947368421053","black","legacy","legacy","legacy","0","incongruent","uniform","1","undefined","1","s","0","0","0","37","0","37","0","37","0","0","0","37","37","37","37","37","Sun Sep 27 20:16:42 2020","1500","The main experiment item","yes","FlankerTask.osexp","C:\Users\katri\OneDrive\Documents\Fall 2020\Flanker Test","no","mono","no","18","no","white","no","yes","768","legacy","37","37","C:/Users/katri/OneDrive/Documents/Fall 2020/Flanker Test/subject-6.csv","legacy","Lentiform Loewenfeld","3.3.3","0","s","NA","h","NA","NA","s","496","NA","33772","NA","NA","496","2","legacy","1024","2","48000","-16","experiment","HHSHH","6","even","36405","NA","NA","72562","2624","NA","NA","100784","2632","NA","NA","99700","100890","101387","100782","100889","Flanker Task","36","19623","38","yes","1024"
"94.87179487179488","94.87179487179488","515.2820512820513","515.2820512820513","black","legacy","legacy","legacy","0","congruent","uniform","1","undefined","1","s","0","0","0","38","0","38","0","38","0","0","0","38","38","38","38","38","Sun Sep 27 20:16:42 2020","1500","The main experiment item","yes","FlankerTask.osexp","C:\Users\katri\OneDrive\Documents\Fall 2020\Flanker Test","no","mono","no","18","no","white","no","yes","768","legacy","38","38","C:/Users/katri/OneDrive/Documents/Fall 2020/Flanker Test/subject-6.csv","legacy","Lentiform Loewenfeld","3.3.3","0","s","NA","h","NA","NA","s","473","NA","33772","NA","NA","473","2","legacy","1024","2","48000","-16","experiment","SSSSS","6","even","36405","NA","NA","72562","2624","NA","NA","102479","2632","NA","NA","101394","102584","103057","102477","102584","Flanker Task","37","20096","39","yes","1024"
"95","95","516.65","516.65","black","legacy","legacy","legacy","0","incongrunet","uniform","1","undefined","1","h","0","0","0","39","0","39","0","39","0","0","0","39","39","39","39","39","Sun Sep 27 20:16:42 2020","1500","The main experiment item","yes","FlankerTask.osexp","C:\Users\katri\OneDrive\Documents\Fall 2020\Flanker Test","no","mono","no","18","no","white","no","yes","768","legacy","39","39","C:/Users/katri/OneDrive/Documents/Fall 2020/Flanker Test/subject-6.csv","legacy","Lentiform Loewenfeld","3.3.3","0","h","NA","h","NA","NA","h","570","NA","33772","NA","NA","570","2","legacy","1024","2","48000","-16","experiment","SSHSS","6","even","36405","NA","NA","72562","2624","NA","NA","104171","2632","NA","NA","103084","104273","104843","104169","104273","Flanker Task","38","20666","40","yes","1024"
"95.1219512195122","95.1219512195122","517.829268292683","517.829268292683","black","legacy","legacy","legacy","0","congruent","uniform","1","undefined","1","s","0","0","0","40","0","40","0","40","0","0","0","40","40","40","40","40","Sun Sep 27 20:16:42 2020","1500","The main experiment item","yes","FlankerTask.osexp","C:\Users\katri\OneDrive\Documents\Fall 2020\Flanker Test","no","mono","no","18","no","white","no","yes","768","legacy","40","40","C:/Users/katri/OneDrive/Documents/Fall 2020/Flanker Test/subject-6.csv","legacy","Lentiform Loewenfeld","3.3.3","0","s","NA","h","NA","NA","s","565","NA","33772","NA","NA","565","2","legacy","1024","2","48000","-16","experiment","SSSSS","6","even","36405","NA","NA","72562","2624","NA","NA","105932","2632","NA","NA","104846","106036","106601","105930","106036","Flanker Task","39","21231","41","yes","1024"
"95.23809523809524","95.23809523809524","518.1190476190476","518.1190476190476","black","legacy","legacy","legacy","0","congruent","uniform","1","undefined","1","s","0","0","0","41","0","41","0","41","0","0","0","41","41","41","41","41","Sun Sep 27 20:16:42 2020","1500","The main experiment item","yes","FlankerTask.osexp","C:\Users\katri\OneDrive\Documents\Fall 2020\Flanker Test","no","mono","no","18","no","white","no","yes","768","legacy","41","41","C:/Users/katri/OneDrive/Documents/Fall 2020/Flanker Test/subject-6.csv","legacy","Lentiform Loewenfeld","3.3.3","0","s","NA","h","NA","NA","s","530","NA","33772","NA","NA","530","2","legacy","1024","2","48000","-16","experiment","SSSSS","6","even","36405","NA","NA","72562","2624","NA","NA","107730","2632","NA","NA","106626","107835","108366","107727","107835","Flanker Task","40","21761","42","yes","1024"
"95.34883720930233","95.34883720930233","520.1395348837209","520.1395348837209","black","legacy","legacy","legacy","0","congruent","uniform","1","undefined","1","h","0","0","0","42","0","42","0","42","0","0","0","42","42","42","42","42","Sun Sep 27 20:16:42 2020","1500","The main experiment item","yes","FlankerTask.osexp","C:\Users\katri\OneDrive\Documents\Fall 2020\Flanker Test","no","mono","no","18","no","white","no","yes","768","legacy","42","42","C:/Users/katri/OneDrive/Documents/Fall 2020/Flanker Test/subject-6.csv","legacy","Lentiform Loewenfeld","3.3.3","0","h","NA","h","NA","NA","h","605","NA","33772","NA","NA","605","2","legacy","1024","2","48000","-16","experiment","HHHHH","6","even","36405","NA","NA","72562","2624","NA","NA","109471","2632","NA","NA","108391","109576","110181","109469","109576","Flanker Task","41","22366","43","yes","1024"
"95.45454545454545","95.45454545454545","519.2727272727273","519.2727272727273","black","legacy","legacy","legacy","0","congruent","uniform","1","undefined","1","s","0","0","0","43","0","43","0","43","0","0","0","43","43","43","43","43","Sun Sep 27 20:16:42 2020","1500","The main experiment item","yes","FlankerTask.osexp","C:\Users\katri\OneDrive\Documents\Fall 2020\Flanker Test","no","mono","no","18","no","white","no","yes","768","legacy","43","43","C:/Users/katri/OneDrive/Documents/Fall 2020/Flanker Test/subject-6.csv","legacy","Lentiform Loewenfeld","3.3.3","0","s","NA","h","NA","NA","s","482","NA","33772","NA","NA","482","2","legacy","1024","2","48000","-16","experiment","SSSSS","6","even","36405","NA","NA","72562","2624","NA","NA","111289","2632","NA","NA","110205","111391","111873","111287","111391","Flanker Task","42","22848","44","yes","1024"
"95.55555555555556","95.55555555555556","522.7333333333333","522.7333333333333","black","legacy","legacy","legacy","0","incongrunet","uniform","1","undefined","1","h","0","0","0","44","0","44","0","44","0","0","0","44","44","44","44","44","Sun Sep 27 20:16:42 2020","1500","The main experiment item","yes","FlankerTask.osexp","C:\Users\katri\OneDrive\Documents\Fall 2020\Flanker Test","no","mono","no","18","no","white","no","yes","768","legacy","44","44","C:/Users/katri/OneDrive/Documents/Fall 2020/Flanker Test/subject-6.csv","legacy","Lentiform Loewenfeld","3.3.3","0","h","NA","h","NA","NA","h","675","NA","33772","NA","NA","675","2","legacy","1024","2","48000","-16","experiment","SSHSS","6","even","36405","NA","NA","72562","2624","NA","NA","112970","2632","NA","NA","111879","113075","113750","112968","113075","Flanker Task","43","23523","45","yes","1024"
"95.65217391304348","95.65217391304348","522.8695652173913","522.8695652173913","black","legacy","legacy","legacy","0","congruent","uniform","1","undefined","1","h","0","0","0","45","0","45","0","45","0","0","0","45","45","45","45","45","Sun Sep 27 20:16:42 2020","1500","The main experiment item","yes","FlankerTask.osexp","C:\Users\katri\OneDrive\Documents\Fall 2020\Flanker Test","no","mono","no","18","no","white","no","yes","768","legacy","45","45","C:/Users/katri/OneDrive/Documents/Fall 2020/Flanker Test/subject-6.csv","legacy","Lentiform Loewenfeld","3.3.3","0","h","NA","h","NA","NA","h","529","NA","33772","NA","NA","529","2","legacy","1024","2","48000","-16","experiment","HHHHH","6","even","36405","NA","NA","72562","2624","NA","NA","114862","2632","NA","NA","113774","114967","115497","114860","114967","Flanker Task","44","24052","46","yes","1024"
"95.74468085106383","95.74468085106383","522.5531914893617","522.5531914893617","black","legacy","legacy","legacy","0","congruent","uniform","1","undefined","1","s","0","0","0","46","0","46","0","46","0","0","0","46","46","46","46","46","Sun Sep 27 20:16:42 2020","1500","The main experiment item","yes","FlankerTask.osexp","C:\Users\katri\OneDrive\Documents\Fall 2020\Flanker Test","no","mono","no","18","no","white","no","yes","768","legacy","46","46","C:/Users/katri/OneDrive/Documents/Fall 2020/Flanker Test/subject-6.csv","legacy","Lentiform Loewenfeld","3.3.3","0","s","NA","h","NA","NA","s","508","NA","33772","NA","NA","508","2","legacy","1024","2","48000","-16","experiment","SSSSS","6","even","36405","NA","NA","72562","2624","NA","NA","116601","2632","NA","NA","115523","116706","117214","116599","116705","Flanker Task","45","24560","47","yes","1024"
"95.83333333333333","95.83333333333333","521.4583333333334","521.4583333333334","black","legacy","legacy","legacy","0","incongruent","uniform","1","undefined","1","s","0","0","0","47","0","47","0","47","0","0","0","47","47","47","47","47","Sun Sep 27 20:16:42 2020","1500","The main experiment item","yes","FlankerTask.osexp","C:\Users\katri\OneDrive\Documents\Fall 2020\Flanker Test","no","mono","no","18","no","white","no","yes","768","legacy","47","47","C:/Users/katri/OneDrive/Documents/Fall 2020/Flanker Test/subject-6.csv","legacy","Lentiform Loewenfeld","3.3.3","0","s","NA","h","NA","NA","s","470","NA","33772","NA","NA","470","2","legacy","1024","2","48000","-16","experiment","HHSHH","6","even","36405","NA","NA","72562","2624","NA","NA","118288","2632","NA","NA","117220","118393","118863","118286","118393","Flanker Task","46","25030","48","yes","1024"
"95.91836734693878","95.91836734693878","520.2448979591836","520.2448979591836","black","legacy","legacy","legacy","0","incongruent","uniform","1","undefined","1","s","0","0","0","48","0","48","0","48","0","0","0","48","48","48","48","48","Sun Sep 27 20:16:42 2020","1500","The main experiment item","yes","FlankerTask.osexp","C:\Users\katri\OneDrive\Documents\Fall 2020\Flanker Test","no","mono","no","18","no","white","no","yes","768","legacy","48","48","C:/Users/katri/OneDrive/Documents/Fall 2020/Flanker Test/subject-6.csv","legacy","Lentiform Loewenfeld","3.3.3","0","s","NA","h","NA","NA","s","462","NA","33772","NA","NA","462","2","legacy","1024","2","48000","-16","experiment","HHSHH","6","even","36405","NA","NA","72562","2624","NA","NA","119961","2632","NA","NA","118870","120063","120526","119959","120063","Flanker Task","47","25492","49","yes","1024"
"96","96","520.76","520.76","black","legacy","legacy","legacy","0","congruent","uniform","1","undefined","1","s","0","0","0","49","0","49","0","49","0","0","0","49","49","49","49","49","Sun Sep 27 20:16:42 2020","1500","The main experiment item","yes","FlankerTask.osexp","C:\Users\katri\OneDrive\Documents\Fall 2020\Flanker Test","no","mono","no","18","no","white","no","yes","768","legacy","49","49","C:/Users/katri/OneDrive/Documents/Fall 2020/Flanker Test/subject-6.csv","legacy","Lentiform Loewenfeld","3.3.3","0","s","NA","h","NA","NA","s","546","NA","33772","NA","NA","546","2","legacy","1024","2","48000","-16","experiment","SSSSS","6","even","36405","NA","NA","72562","2624","NA","NA","121618","2632","NA","NA","120533","121723","122269","121616","121723","Flanker Task","48","26038","50","yes","1024"
"96.07843137254902","96.07843137254902","520.6274509803922","520.6274509803922","black","legacy","legacy","legacy","0","incongruent","uniform","1","undefined","1","s","0","0","0","50","0","50","0","50","0","0","0","50","50","50","50","50","Sun Sep 27 20:16:42 2020","1500","The main experiment item","yes","FlankerTask.osexp","C:\Users\katri\OneDrive\Documents\Fall 2020\Flanker Test","no","mono","no","18","no","white","no","yes","768","legacy","50","50","C:/Users/katri/OneDrive/Documents/Fall 2020/Flanker Test/subject-6.csv","legacy","Lentiform Loewenfeld","3.3.3","0","s","NA","h","NA","NA","s","514","NA","33772","NA","NA","514","2","legacy","1024","2","48000","-16","experiment","HHSHH","6","even","36405","NA","NA","72562","2624","NA","NA","123363","2632","NA","NA","122279","123469","123983","123360","123468","Flanker Task","49","26552","51","yes","1024"
"96.15384615384616","96.15384615384616","520.4038461538462","520.4038461538462","black","legacy","legacy","legacy","0","incongruent","uniform","1","undefined","1","s","0","0","0","51","0","51","0","51","0","0","0","51","51","51","51","51","Sun Sep 27 20:16:42 2020","1500","The main experiment item","yes","FlankerTask.osexp","C:\Users\katri\OneDrive\Documents\Fall 2020\Flanker Test","no","mono","no","18","no","white","no","yes","768","legacy","51","51","C:/Users/katri/OneDrive/Documents/Fall 2020/Flanker Test/subject-6.csv","legacy","Lentiform Loewenfeld","3.3.3","0","s","NA","h","NA","NA","s","509","NA","33772","NA","NA","509","2","legacy","1024","2","48000","-16","experiment","HHSHH","6","even","36405","NA","NA","72562","2624","NA","NA","125076","2632","NA","NA","123991","125180","125689","125073","125180","Flanker Task","50","27061","52","yes","1024"
"96.22641509433963","96.22641509433963","519.4528301886793","519.4528301886793","black","legacy","legacy","legacy","0","congruent","uniform","1","undefined","1","h","0","0","0","52","0","52","0","52","0","0","0","52","52","52","52","52","Sun Sep 27 20:16:42 2020","1500","The main experiment item","yes","FlankerTask.osexp","C:\Users\katri\OneDrive\Documents\Fall 2020\Flanker Test","no","mono","no","18","no","white","no","yes","768","legacy","52","52","C:/Users/katri/OneDrive/Documents/Fall 2020/Flanker Test/subject-6.csv","legacy","Lentiform Loewenfeld","3.3.3","0","h","NA","h","NA","NA","h","470","NA","33772","NA","NA","470","2","legacy","1024","2","48000","-16","experiment","HHHHH","6","even","36405","NA","NA","72562","2624","NA","NA","126782","2632","NA","NA","125714","126886","127357","126780","126886","Flanker Task","51","27531","53","yes","1024"
"96.29629629629629","96.29629629629629","521.0185185185185","521.0185185185185","black","legacy","legacy","legacy","0","incongrunet","uniform","1","undefined","1","h","0","0","0","53","0","53","0","53","0","0","0","53","53","53","53","53","Sun Sep 27 20:16:42 2020","1500","The main experiment item","yes","FlankerTask.osexp","C:\Users\katri\OneDrive\Documents\Fall 2020\Flanker Test","no","mono","no","18","no","white","no","yes","768","legacy","53","53","C:/Users/katri/OneDrive/Documents/Fall 2020/Flanker Test/subject-6.csv","legacy","Lentiform Loewenfeld","3.3.3","0","h","NA","h","NA","NA","h","604","NA","33772","NA","NA","604","2","legacy","1024","2","48000","-16","experiment","SSHSS","6","even","36405","NA","NA","72562","2624","NA","NA","128459","2632","NA","NA","127367","128561","129166","128456","128560","Flanker Task","52","28135","54","yes","1024"
"96.36363636363636","96.36363636363636","522.2363636363636","522.2363636363636","black","legacy","legacy","legacy","0","incongrunet","uniform","1","undefined","1","h","0","0","0","54","0","54","0","54","0","0","0","54","54","54","54","54","Sun Sep 27 20:16:42 2020","1500","The main experiment item","yes","FlankerTask.osexp","C:\Users\katri\OneDrive\Documents\Fall 2020\Flanker Test","no","mono","no","18","no","white","no","yes","768","legacy","54","54","C:/Users/katri/OneDrive/Documents/Fall 2020/Flanker Test/subject-6.csv","legacy","Lentiform Loewenfeld","3.3.3","0","h","NA","h","NA","NA","h","588","NA","33772","NA","NA","588","2","legacy","1024","2","48000","-16","experiment","SSHSS","6","even","36405","NA","NA","72562","2624","NA","NA","130273","2632","NA","NA","129193","130378","130966","130271","130378","Flanker Task","53","28723","55","yes","1024"
"96.42857142857143","96.42857142857143","520.7857142857143","520.7857142857143","black","legacy","legacy","legacy","0","incongruent","uniform","1","undefined","1","s","0","0","0","55","0","55","0","55","0","0","0","55","55","55","55","55","Sun Sep 27 20:16:42 2020","1500","The main experiment item","yes","FlankerTask.osexp","C:\Users\katri\OneDrive\Documents\Fall 2020\Flanker Test","no","mono","no","18","no","white","no","yes","768","legacy","55","55","C:/Users/katri/OneDrive/Documents/Fall 2020/Flanker Test/subject-6.csv","legacy","Lentiform Loewenfeld","3.3.3","0","s","NA","h","NA","NA","s","441","NA","33772","NA","NA","441","2","legacy","1024","2","48000","-16","experiment","HHSHH","6","even","36405","NA","NA","72562","2624","NA","NA","132090","2632","NA","NA","130991","132194","132636","132088","132194","Flanker Task","54","29164","56","yes","1024"
"96.49122807017544","96.49122807017544","522.1578947368421","522.1578947368421","black","legacy","legacy","legacy","0","congruent","uniform","1","undefined","1","h","0","0","0","56","0","56","0","56","0","0","0","56","56","56","56","56","Sun Sep 27 20:16:42 2020","1500","The main experiment item","yes","FlankerTask.osexp","C:\Users\katri\OneDrive\Documents\Fall 2020\Flanker Test","no","mono","no","18","no","white","no","yes","768","legacy","56","56","C:/Users/katri/OneDrive/Documents/Fall 2020/Flanker Test/subject-6.csv","legacy","Lentiform Loewenfeld","3.3.3","0","h","NA","h","NA","NA","h","599","NA","33772","NA","NA","599","2","legacy","1024","2","48000","-16","experiment","HHHHH","6","even","36405","NA","NA","72562","2624","NA","NA","133728","2632","NA","NA","132643","133830","134429","133726","133830","Flanker Task","55","29763","57","yes","1024"
"96.55172413793103","96.55172413793103","522.9655172413793","522.9655172413793","black","legacy","legacy","legacy","0","incongrunet","uniform","1","undefined","1","h","0","0","0","57","0","57","0","57","0","0","0","57","57","57","57","57","Sun Sep 27 20:16:42 2020","1500","The main experiment item","yes","FlankerTask.osexp","C:\Users\katri\OneDrive\Documents\Fall 2020\Flanker Test","no","mono","no","18","no","white","no","yes","768","legacy","57","57","C:/Users/katri/OneDrive/Documents/Fall 2020/Flanker Test/subject-6.csv","legacy","Lentiform Loewenfeld","3.3.3","0","h","NA","h","NA","NA","h","569","NA","33772","NA","NA","569","2","legacy","1024","2","48000","-16","experiment","SSHSS","6","even","36405","NA","NA","72562","2624","NA","NA","135539","2632","NA","NA","134454","135644","136213","135537","135644","Flanker Task","56","30332","58","yes","1024"
"96.61016949152543","96.61016949152543","521.8135593220339","521.8135593220339","black","legacy","legacy","legacy","0","congruent","uniform","1","undefined","1","h","0","0","0","58","0","58","0","58","0","0","0","58","58","58","58","58","Sun Sep 27 20:16:42 2020","1500","The main experiment item","yes","FlankerTask.osexp","C:\Users\katri\OneDrive\Documents\Fall 2020\Flanker Test","no","mono","no","18","no","white","no","yes","768","legacy","58","58","C:/Users/katri/OneDrive/Documents/Fall 2020/Flanker Test/subject-6.csv","legacy","Lentiform Loewenfeld","3.3.3","0","h","NA","h","NA","NA","h","455","NA","33772","NA","NA","455","2","legacy","1024","2","48000","-16","experiment","HHHHH","6","even","36405","NA","NA","72562","2624","NA","NA","137316","2632","NA","NA","136219","137421","137877","137313","137421","Flanker Task","57","30787","59","yes","1024"
"96.66666666666667","96.66666666666667","522.0833333333334","522.0833333333334","black","legacy","legacy","legacy","0","incongrunet","uniform","1","undefined","1","h","0","0","0","59","0","59","0","59","0","0","0","59","59","59","59","59","Sun Sep 27 20:16:42 2020","1500","The main experiment item","yes","FlankerTask.osexp","C:\Users\katri\OneDrive\Documents\Fall 2020\Flanker Test","no","mono","no","18","no","white","no","yes","768","legacy","59","59","C:/Users/katri/OneDrive/Documents/Fall 2020/Flanker Test/subject-6.csv","legacy","Lentiform Loewenfeld","3.3.3","0","h","NA","h","NA","NA","h","538","NA","33772","NA","NA","538","2","legacy","1024","2","48000","-16","experiment","SSHSS","6","even","36405","NA","NA","72562","2624","NA","NA","138970","2632","NA","NA","137885","139075","139613","138968","139075","Flanker Task","58","31325","60","yes","1024"
"96.72131147540983","96.72131147540983","521.1639344262295","521.1639344262295","black","legacy","legacy","legacy","0","congruent","uniform","1","undefined","1","h","0","0","0","60","0","60","0","60","0","0","0","60","60","60","60","60","Sun Sep 27 20:16:42 2020","1500","The main experiment item","yes","FlankerTask.osexp","C:\Users\katri\OneDrive\Documents\Fall 2020\Flanker Test","no","mono","no","18","no","white","no","yes","768","legacy","60","60","C:/Users/katri/OneDrive/Documents/Fall 2020/Flanker Test/subject-6.csv","legacy","Lentiform Loewenfeld","3.3.3","0","h","NA","h","NA","NA","h","466","NA","33772","NA","NA","466","2","legacy","1024","2","48000","-16","experiment","HHHHH","6","even","36405","NA","NA","72562","2624","NA","NA","140719","2632","NA","NA","139636","140824","141290","140717","140824","Flanker Task","59","31791","61","yes","1024"
"96.7741935483871","96.7741935483871","520.4677419354839","520.4677419354839","black","legacy","legacy","legacy","0","congruent","uniform","1","undefined","1","h","0","0","0","61","0","61","0","61","0","0","0","61","61","61","61","61","Sun Sep 27 20:16:42 2020","1500","The main experiment item","yes","FlankerTask.osexp","C:\Users\katri\OneDrive\Documents\Fall 2020\Flanker Test","no","mono","no","18","no","white","no","yes","768","legacy","61","61","C:/Users/katri/OneDrive/Documents/Fall 2020/Flanker Test/subject-6.csv","legacy","Lentiform Loewenfeld","3.3.3","0","h","NA","h","NA","NA","h","478","NA","33772","NA","NA","478","2","legacy","1024","2","48000","-16","experiment","HHHHH","6","even","36405","NA","NA","72562","2624","NA","NA","142384","2632","NA","NA","141299","142486","142964","142382","142486","Flanker Task","60","32269","62","yes","1024"
"96.82539682539682","96.82539682539682","519.5396825396825","519.5396825396825","black","legacy","legacy","legacy","0","congruent","uniform","1","undefined","1","s","0","0","0","62","0","62","0","62","0","0","0","62","62","62","62","62","Sun Sep 27 20:16:42 2020","1500","The main experiment item","yes","FlankerTask.osexp","C:\Users\katri\OneDrive\Documents\Fall 2020\Flanker Test","no","mono","no","18","no","white","no","yes","768","legacy","62","62","C:/Users/katri/OneDrive/Documents/Fall 2020/Flanker Test/subject-6.csv","legacy","Lentiform Loewenfeld","3.3.3","0","s","NA","h","NA","NA","s","462","NA","33772","NA","NA","462","2","legacy","1024","2","48000","-16","experiment","SSSSS","6","even","36405","NA","NA","72562","2624","NA","NA","144088","2632","NA","NA","142990","144193","144656","144086","144193","Flanker Task","61","32731","63","yes","1024"
"96.875","96.875","521.03125","521.03125","black","legacy","legacy","legacy","0","congruent","uniform","1","undefined","1","h","0","0","0","63","0","63","0","63","0","0","0","63","63","63","63","63","Sun Sep 27 20:16:42 2020","1500","The main experiment item","yes","FlankerTask.osexp","C:\Users\katri\OneDrive\Documents\Fall 2020\Flanker Test","no","mono","no","18","no","white","no","yes","768","legacy","63","63","C:/Users/katri/OneDrive/Documents/Fall 2020/Flanker Test/subject-6.csv","legacy","Lentiform Loewenfeld","3.3.3","0","h","NA","h","NA","NA","h","615","NA","33772","NA","NA","615","2","legacy","1024","2","48000","-16","experiment","HHHHH","6","even","36405","NA","NA","72562","2624","NA","NA","145742","2632","NA","NA","144662","145846","146462","145740","145846","Flanker Task","62","33346","64","yes","1024"
"96.92307692307692","96.92307692307692","519.9230769230769","519.9230769230769","black","legacy","legacy","legacy","0","congruent","uniform","1","undefined","1","h","0","0","0","64","0","64","0","64","0","0","0","64","64","64","64","64","Sun Sep 27 20:16:42 2020","1500","The main experiment item","yes","FlankerTask.osexp","C:\Users\katri\OneDrive\Documents\Fall 2020\Flanker Test","no","mono","no","18","no","white","no","yes","768","legacy","64","64","C:/Users/katri/OneDrive/Documents/Fall 2020/Flanker Test/subject-6.csv","legacy","Lentiform Loewenfeld","3.3.3","0","h","NA","h","NA","NA","h","449","NA","33772","NA","NA","449","2","legacy","1024","2","48000","-16","experiment","HHHHH","6","even","36405","NA","NA","72562","2624","NA","NA","147568","2632","NA","NA","146487","147673","148122","147566","147673","Flanker Task","63","33795","65","yes","1024"
"96.96969696969697","96.96969696969697","518.4090909090909","518.4090909090909","black","legacy","legacy","legacy","0","congruent","uniform","1","undefined","1","s","0","0","0","65","0","65","0","65","0","0","0","65","65","65","65","65","Sun Sep 27 20:16:42 2020","1500","The main experiment item","yes","FlankerTask.osexp","C:\Users\katri\OneDrive\Documents\Fall 2020\Flanker Test","no","mono","no","18","no","white","no","yes","768","legacy","65","65","C:/Users/katri/OneDrive/Documents/Fall 2020/Flanker Test/subject-6.csv","legacy","Lentiform Loewenfeld","3.3.3","0","s","NA","h","NA","NA","s","420","NA","33772","NA","NA","420","2","legacy","1024","2","48000","-16","experiment","SSSSS","6","even","36405","NA","NA","72562","2624","NA","NA","149231","2632","NA","NA","148147","149337","149757","149229","149337","Flanker Task","64","34215","66","yes","1024"
"97.01492537313433","97.01492537313433","517.3432835820895","517.3432835820895","black","legacy","legacy","legacy","0","incongrunet","uniform","1","undefined","1","h","0","0","0","66","0","66","0","66","0","0","0","66","66","66","66","66","Sun Sep 27 20:16:42 2020","1500","The main experiment item","yes","FlankerTask.osexp","C:\Users\katri\OneDrive\Documents\Fall 2020\Flanker Test","no","mono","no","18","no","white","no","yes","768","legacy","66","66","C:/Users/katri/OneDrive/Documents/Fall 2020/Flanker Test/subject-6.csv","legacy","Lentiform Loewenfeld","3.3.3","0","h","NA","h","NA","NA","h","447","NA","33772","NA","NA","447","2","legacy","1024","2","48000","-16","experiment","SSHSS","6","even","36405","NA","NA","72562","2624","NA","NA","150863","2632","NA","NA","149783","150967","151415","150861","150967","Flanker Task","65","34662","67","yes","1024"
"97.05882352941177","97.05882352941177","516.9117647058823","516.9117647058823","black","legacy","legacy","legacy","0","congruent","uniform","1","undefined","1","h","0","0","0","67","0","67","0","67","0","0","0","67","67","67","67","67","Sun Sep 27 20:16:42 2020","1500","The main experiment item","yes","FlankerTask.osexp","C:\Users\katri\OneDrive\Documents\Fall 2020\Flanker Test","no","mono","no","18","no","white","no","yes","768","legacy","67","67","C:/Users/katri/OneDrive/Documents/Fall 2020/Flanker Test/subject-6.csv","legacy","Lentiform Loewenfeld","3.3.3","0","h","NA","h","NA","NA","h","488","NA","33772","NA","NA","488","2","legacy","1024","2","48000","-16","experiment","HHHHH","6","even","36405","NA","NA","72562","2624","NA","NA","152519","2632","NA","NA","151423","152624","153112","152517","152624","Flanker Task","66","35150","68","yes","1024"
"97.10144927536231","97.10144927536231","518.5652173913044","518.5652173913044","black","legacy","legacy","legacy","0","incongruent","uniform","1","undefined","1","s","0","0","0","68","0","68","0","68","0","0","0","68","68","68","68","68","Sun Sep 27 20:16:42 2020","1500","The main experiment item","yes","FlankerTask.osexp","C:\Users\katri\OneDrive\Documents\Fall 2020\Flanker Test","no","mono","no","18","no","white","no","yes","768","legacy","68","68","C:/Users/katri/OneDrive/Documents/Fall 2020/Flanker Test/subject-6.csv","legacy","Lentiform Loewenfeld","3.3.3","0","s","NA","h","NA","NA","s","631","NA","33772","NA","NA","631","2","legacy","1024","2","48000","-16","experiment","HHSHH","6","even","36405","NA","NA","72562","2624","NA","NA","154221","2632","NA","NA","153138","154326","154958","154219","154326","Flanker Task","67","35781","69","yes","1024"
"97.14285714285714","97.14285714285714","517.7857142857143","517.7857142857143","black","legacy","legacy","legacy","0","congruent","uniform","1","undefined","1","h","0","0","0","69","0","69","0","69","0","0","0","69","69","69","69","69","Sun Sep 27 20:16:42 2020","1500","The main experiment item","yes","FlankerTask.osexp","C:\Users\katri\OneDrive\Documents\Fall 2020\Flanker Test","no","mono","no","18","no","white","no","yes","768","legacy","69","69","C:/Users/katri/OneDrive/Documents/Fall 2020/Flanker Test/subject-6.csv","legacy","Lentiform Loewenfeld","3.3.3","0","h","NA","h","NA","NA","h","464","NA","33772","NA","NA","464","2","legacy","1024","2","48000","-16","experiment","HHHHH","6","even","36405","NA","NA","72562","2624","NA","NA","156041","2632","NA","NA","154961","156146","156610","156038","156146","Flanker Task","68","36245","70","yes","1024"
"97.1830985915493","97.1830985915493","517.7605633802817","517.7605633802817","black","legacy","legacy","legacy","0","congruent","uniform","1","undefined","1","h","0","0","0","70","0","70","0","70","0","0","0","70","70","70","70","70","Sun Sep 27 20:16:42 2020","1500","The main experiment item","yes","FlankerTask.osexp","C:\Users\katri\OneDrive\Documents\Fall 2020\Flanker Test","no","mono","no","18","no","white","no","yes","768","legacy","70","70","C:/Users/katri/OneDrive/Documents/Fall 2020/Flanker Test/subject-6.csv","legacy","Lentiform Loewenfeld","3.3.3","0","h","NA","h","NA","NA","h","516","NA","33772","NA","NA","516","2","legacy","1024","2","48000","-16","experiment","HHHHH","6","even","36405","NA","NA","72562","2624","NA","NA","157703","2632","NA","NA","156619","157809","158325","157701","157808","Flanker Task","69","36761","71","yes","1024"
"97.22222222222223","97.22222222222223","518.5833333333334","518.5833333333334","black","legacy","legacy","legacy","0","incongrunet","uniform","1","undefined","1","h","0","0","0","71","0","71","0","71","0","0","0","71","71","71","71","71","Sun Sep 27 20:16:42 2020","1500","The main experiment item","yes","FlankerTask.osexp","C:\Users\katri\OneDrive\Documents\Fall 2020\Flanker Test","no","mono","no","18","no","white","no","yes","768","legacy","71","71","C:/Users/katri/OneDrive/Documents/Fall 2020/Flanker Test/subject-6.csv","legacy","Lentiform Loewenfeld","3.3.3","0","h","NA","h","NA","NA","h","577","NA","33772","NA","NA","577","2","legacy","1024","2","48000","-16","experiment","SSHSS","6","even","36405","NA","NA","72562","2624","NA","NA","159419","2632","NA","NA","158350","159520","160098","159418","159520","Flanker Task","70","37338","72","yes","1024"
"97.26027397260275","97.26027397260275","517.4109589041096","517.4109589041096","black","legacy","legacy","legacy","0","congruent","uniform","1","undefined","1","s","0","0","0","72","0","72","0","72","0","0","0","72","72","72","72","72","Sun Sep 27 20:16:42 2020","1500","The main experiment item","yes","FlankerTask.osexp","C:\Users\katri\OneDrive\Documents\Fall 2020\Flanker Test","no","mono","no","18","no","white","no","yes","768","legacy","72","72","C:/Users/katri/OneDrive/Documents/Fall 2020/Flanker Test/subject-6.csv","legacy","Lentiform Loewenfeld","3.3.3","0","s","NA","h","NA","NA","s","433","NA","33772","NA","NA","433","2","legacy","1024","2","48000","-16","experiment","SSSSS","6","even","36405","NA","NA","72562","2624","NA","NA","161205","2632","NA","NA","160124","161310","161744","161202","161309","Flanker Task","71","37771","73","yes","1024"
"97.29729729729729","97.29729729729729","515.7162162162163","515.7162162162163","black","legacy","legacy","legacy","0","congruent","uniform","1","undefined","1","s","0","0","0","73","0","73","0","73","0","0","0","73","73","73","73","73","Sun Sep 27 20:16:42 2020","1500","The main experiment item","yes","FlankerTask.osexp","C:\Users\katri\OneDrive\Documents\Fall 2020\Flanker Test","no","mono","no","18","no","white","no","yes","768","legacy","73","73","C:/Users/katri/OneDrive/Documents/Fall 2020/Flanker Test/subject-6.csv","legacy","Lentiform Loewenfeld","3.3.3","0","s","NA","h","NA","NA","s","392","NA","33772","NA","NA","392","2","legacy","1024","2","48000","-16","experiment","SSSSS","6","even","36405","NA","NA","72562","2624","NA","NA","162853","2632","NA","NA","161769","162958","163351","162851","162958","Flanker Task","72","38163","74","yes","1024"
"97.33333333333333","97.33333333333333","514.8133333333334","514.8133333333334","black","legacy","legacy","legacy","0","incongruent","uniform","1","undefined","1","s","0","0","0","74","0","74","0","74","0","0","0","74","74","74","74","74","Sun Sep 27 20:16:42 2020","1500","The main experiment item","yes","FlankerTask.osexp","C:\Users\katri\OneDrive\Documents\Fall 2020\Flanker Test","no","mono","no","18","no","white","no","yes","768","legacy","74","74","C:/Users/katri/OneDrive/Documents/Fall 2020/Flanker Test/subject-6.csv","legacy","Lentiform Loewenfeld","3.3.3","0","s","NA","h","NA","NA","s","448","NA","33772","NA","NA","448","2","legacy","1024","2","48000","-16","experiment","HHSHH","6","even","36405","NA","NA","72562","2624","NA","NA","164464","2632","NA","NA","163377","164569","165017","164462","164569","Flanker Task","73","38611","75","yes","1024"
"97.36842105263158","97.36842105263158","514.578947368421","514.578947368421","black","legacy","legacy","legacy","0","congruent","uniform","1","undefined","1","s","0","0","0","75","0","75","0","75","0","0","0","75","75","75","75","75","Sun Sep 27 20:16:42 2020","1500","The main experiment item","yes","FlankerTask.osexp","C:\Users\katri\OneDrive\Documents\Fall 2020\Flanker Test","no","mono","no","18","no","white","no","yes","768","legacy","75","75","C:/Users/katri/OneDrive/Documents/Fall 2020/Flanker Test/subject-6.csv","legacy","Lentiform Loewenfeld","3.3.3","0","s","NA","h","NA","NA","s","497","NA","33772","NA","NA","497","2","legacy","1024","2","48000","-16","experiment","SSSSS","6","even","36405","NA","NA","72562","2624","NA","NA","166127","2632","NA","NA","165042","166232","166730","166124","166232","Flanker Task","74","39108","76","yes","1024"
"97.40259740259741","97.40259740259741","514.6233766233767","514.6233766233767","black","legacy","legacy","legacy","0","incongruent","uniform","1","undefined","1","s","0","0","0","76","0","76","0","76","0","0","0","76","76","76","76","76","Sun Sep 27 20:16:42 2020","1500","The main experiment item","yes","FlankerTask.osexp","C:\Users\katri\OneDrive\Documents\Fall 2020\Flanker Test","no","mono","no","18","no","white","no","yes","768","legacy","76","76","C:/Users/katri/OneDrive/Documents/Fall 2020/Flanker Test/subject-6.csv","legacy","Lentiform Loewenfeld","3.3.3","0","s","NA","h","NA","NA","s","518","NA","33772","NA","NA","518","2","legacy","1024","2","48000","-16","experiment","HHSHH","6","even","36405","NA","NA","72562","2624","NA","NA","167836","2632","NA","NA","166755","167937","168456","167833","167937","Flanker Task","75","39626","77","yes","1024"
"97.43589743589743","97.43589743589743","514.3461538461538","514.3461538461538","black","legacy","legacy","legacy","0","congruent","uniform","1","undefined","1","h","0","0","0","77","0","77","0","77","0","0","0","77","77","77","77","77","Sun Sep 27 20:16:42 2020","1500","The main experiment item","yes","FlankerTask.osexp","C:\Users\katri\OneDrive\Documents\Fall 2020\Flanker Test","no","mono","no","18","no","white","no","yes","768","legacy","77","77","C:/Users/katri/OneDrive/Documents/Fall 2020/Flanker Test/subject-6.csv","legacy","Lentiform Loewenfeld","3.3.3","0","h","NA","h","NA","NA","h","493","NA","33772","NA","NA","493","2","legacy","1024","2","48000","-16","experiment","HHHHH","6","even","36405","NA","NA","72562","2624","NA","NA","169576","2632","NA","NA","168480","169681","170174","169574","169680","Flanker Task","76","40119","78","yes","1024"
"96.20253164556962","96.20253164556962","513.1518987341772","513.1518987341772","black","legacy","legacy","legacy","0","incongruent","uniform","0","undefined","0","s","0","0","0","78","0","78","0","78","0","0","0","78","78","78","78","78","Sun Sep 27 20:16:42 2020","1500","The main experiment item","yes","FlankerTask.osexp","C:\Users\katri\OneDrive\Documents\Fall 2020\Flanker Test","no","mono","no","18","no","white","no","yes","768","legacy","78","78","C:/Users/katri/OneDrive/Documents/Fall 2020/Flanker Test/subject-6.csv","legacy","Lentiform Loewenfeld","3.3.3","0","h","NA","h","NA","NA","h","420","NA","33772","NA","NA","420","2","legacy","1024","2","48000","-16","experiment","HHSHH","6","even","36405","NA","NA","72562","2624","NA","NA","171276","2632","NA","NA","170180","171381","171801","171273","171381","Flanker Task","76","40539","79","yes","1024"
"96.25","96.25","512.575","512.575","black","legacy","legacy","legacy","0","congruent","uniform","1","undefined","1","s","0","0","0","79","0","79","0","79","0","0","0","79","79","79","79","79","Sun Sep 27 20:16:42 2020","1500","The main experiment item","yes","FlankerTask.osexp","C:\Users\katri\OneDrive\Documents\Fall 2020\Flanker Test","no","mono","no","18","no","white","no","yes","768","legacy","79","79","C:/Users/katri/OneDrive/Documents/Fall 2020/Flanker Test/subject-6.csv","legacy","Lentiform Loewenfeld","3.3.3","0","s","NA","h","NA","NA","s","467","NA","33772","NA","NA","467","2","legacy","1024","2","48000","-16","experiment","SSSSS","6","even","36405","NA","NA","172831","2624","NA","NA","173410","2632","NA","NA","171826","173515","173983","173409","173515","Flanker Task","77","41006","80","yes","1024"
"96.29629629629629","96.29629629629629","512.7283950617284","512.7283950617284","black","legacy","legacy","legacy","0","congruent","uniform","1","undefined","1","h","0","0","0","80","0","80","0","80","0","0","0","80","80","80","80","80","Sun Sep 27 20:16:42 2020","600","The main experiment item","yes","FlankerTask.osexp","C:\Users\katri\OneDrive\Documents\Fall 2020\Flanker Test","no","mono","no","18","no","white","no","yes","768","legacy","0","79","C:/Users/katri/OneDrive/Documents/Fall 2020/Flanker Test/subject-6.csv","legacy","Lentiform Loewenfeld","3.3.3","0","h","NA","h","h","NA","h","525","NA","33772","18125","NA","525","2","legacy","1024","2","48000","-16","experiment","HHHHH","6","even","36405","193171","NA","172831","2624","NA","NA","193224","2632","175046","NA","174008","193328","193855","193222","193327","Flanker Task","78","41531","81","yes","1024"
"96.34146341463415","96.34146341463415","512.8780487804878","512.8780487804878","black","legacy","legacy","legacy","0","incongrunet","uniform","1","undefined","1","h","0","0","0","81","0","81","0","81","0","0","0","81","81","81","81","81","Sun Sep 27 20:16:42 2020","600","The main experiment item","yes","FlankerTask.osexp","C:\Users\katri\OneDrive\Documents\Fall 2020\Flanker Test","no","mono","no","18","no","white","no","yes","768","legacy","1","79","C:/Users/katri/OneDrive/Documents/Fall 2020/Flanker Test/subject-6.csv","legacy","Lentiform Loewenfeld","3.3.3","0","h","NA","h","h","NA","h","525","NA","33772","18125","NA","525","2","legacy","1024","2","48000","-16","experiment","SSHSS","6","even","36405","193171","NA","172831","2624","NA","NA","194961","2632","175046","NA","193880","195062","195587","194959","195062","Flanker Task","79","42056","82","yes","1024"
"96.3855421686747","96.3855421686747","512.4096385542168","512.4096385542168","black","legacy","legacy","legacy","0","congruent","uniform","1","undefined","1","h","0","0","0","82","0","82","0","82","0","0","0","82","82","82","82","82","Sun Sep 27 20:16:42 2020","600","The main experiment item","yes","FlankerTask.osexp","C:\Users\katri\OneDrive\Documents\Fall 2020\Flanker Test","no","mono","no","18","no","white","no","yes","768","legacy","2","79","C:/Users/katri/OneDrive/Documents/Fall 2020/Flanker Test/subject-6.csv","legacy","Lentiform Loewenfeld","3.3.3","0","h","NA","h","h","NA","h","474","NA","33772","18125","NA","474","2","legacy","1024","2","48000","-16","experiment","HHHHH","6","even","36405","193171","NA","172831","2624","NA","NA","196707","2632","175046","NA","195612","196811","197286","196705","196811","Flanker Task","80","42530","83","yes","1024"
"96.42857142857143","96.42857142857143","511.5952380952381","511.5952380952381","black","legacy","legacy","legacy","0","incongruent","uniform","1","undefined","1","s","0","0","0","83","0","83","0","83","0","0","0","83","83","83","83","83","Sun Sep 27 20:16:42 2020","600","The main experiment item","yes","FlankerTask.osexp","C:\Users\katri\OneDrive\Documents\Fall 2020\Flanker Test","no","mono","no","18","no","white","no","yes","768","legacy","3","79","C:/Users/katri/OneDrive/Documents/Fall 2020/Flanker Test/subject-6.csv","legacy","Lentiform Loewenfeld","3.3.3","0","s","NA","h","h","NA","s","444","NA","33772","18125","NA","444","2","legacy","1024","2","48000","-16","experiment","HHSHH","6","even","36405","193171","NA","172831","2624","NA","NA","198384","2632","175046","NA","197293","198489","198934","198383","198489","Flanker Task","81","42974","84","yes","1024"
"96.47058823529412","96.47058823529412","511.6941176470588","511.6941176470588","black","legacy","legacy","legacy","0","incongruent","uniform","1","undefined","1","s","0","0","0","84","0","84","0","84","0","0","0","84","84","84","84","84","Sun Sep 27 20:16:42 2020","600","The main experiment item","yes","FlankerTask.osexp","C:\Users\katri\OneDrive\Documents\Fall 2020\Flanker Test","no","mono","no","18","no","white","no","yes","768","legacy","4","79","C:/Users/katri/OneDrive/Documents/Fall 2020/Flanker Test/subject-6.csv","legacy","Lentiform Loewenfeld","3.3.3","0","s","NA","h","h","NA","s","520","NA","33772","18125","NA","520","2","legacy","1024","2","48000","-16","experiment","HHSHH","6","even","36405","193171","NA","172831","2624","NA","NA","200025","2632","175046","NA","198942","200131","200652","200023","200131","Flanker Task","82","43494","85","yes","1024"
"96.51162790697674","96.51162790697674","510.77906976744185","510.77906976744185","black","legacy","legacy","legacy","0","incongrunet","uniform","1","undefined","1","h","0","0","0","85","0","85","0","85","0","0","0","85","85","85","85","85","Sun Sep 27 20:16:42 2020","600","The main experiment item","yes","FlankerTask.osexp","C:\Users\katri\OneDrive\Documents\Fall 2020\Flanker Test","no","mono","no","18","no","white","no","yes","768","legacy","5","79","C:/Users/katri/OneDrive/Documents/Fall 2020/Flanker Test/subject-6.csv","legacy","Lentiform Loewenfeld","3.3.3","0","h","NA","h","h","NA","h","433","NA","33772","18125","NA","433","2","legacy","1024","2","48000","-16","experiment","SSHSS","6","even","36405","193171","NA","172831","2624","NA","NA","201745","2632","175046","NA","200661","201849","202283","201743","201849","Flanker Task","83","43927","86","yes","1024"
"96.55172413793103","96.55172413793103","509.32183908045977","509.32183908045977","black","legacy","legacy","legacy","0","congruent","uniform","1","undefined","1","s","0","0","0","86","0","86","0","86","0","0","0","86","86","86","86","86","Sun Sep 27 20:16:42 2020","600","The main experiment item","yes","FlankerTask.osexp","C:\Users\katri\OneDrive\Documents\Fall 2020\Flanker Test","no","mono","no","18","no","white","no","yes","768","legacy","6","79","C:/Users/katri/OneDrive/Documents/Fall 2020/Flanker Test/subject-6.csv","legacy","Lentiform Loewenfeld","3.3.3","0","s","NA","h","h","NA","s","384","NA","33772","18125","NA","384","2","legacy","1024","2","48000","-16","experiment","SSSSS","6","even","36405","193171","NA","172831","2624","NA","NA","203371","2632","175046","NA","202290","203477","203862","203369","203476","Flanker Task","84","44311","87","yes","1024"
"96.5909090909091","96.5909090909091","508.29545454545456","508.29545454545456","black","legacy","legacy","legacy","0","congruent","uniform","1","undefined","1","s","0","0","0","87","0","87","0","87","0","0","0","87","87","87","87","87","Sun Sep 27 20:16:42 2020","600","The main experiment item","yes","FlankerTask.osexp","C:\Users\katri\OneDrive\Documents\Fall 2020\Flanker Test","no","mono","no","18","no","white","no","yes","768","legacy","7","79","C:/Users/katri/OneDrive/Documents/Fall 2020/Flanker Test/subject-6.csv","legacy","Lentiform Loewenfeld","3.3.3","0","s","NA","h","h","NA","s","419","NA","33772","18125","NA","419","2","legacy","1024","2","48000","-16","experiment","SSSSS","6","even","36405","193171","NA","172831","2624","NA","NA","204948","2632","175046","NA","203865","205053","205473","204946","205052","Flanker Task","85","44730","88","yes","1024"
"96.62921348314607","96.62921348314607","507.3820224719101","507.3820224719101","black","legacy","legacy","legacy","0","congruent","uniform","1","undefined","1","h","0","0","0","88","0","88","0","88","0","0","0","88","88","88","88","88","Sun Sep 27 20:16:42 2020","600","The main experiment item","yes","FlankerTask.osexp","C:\Users\katri\OneDrive\Documents\Fall 2020\Flanker Test","no","mono","no","18","no","white","no","yes","768","legacy","8","79","C:/Users/katri/OneDrive/Documents/Fall 2020/Flanker Test/subject-6.csv","legacy","Lentiform Loewenfeld","3.3.3","0","h","NA","h","h","NA","h","427","NA","33772","18125","NA","427","2","legacy","1024","2","48000","-16","experiment","HHHHH","6","even","36405","193171","NA","172831","2624","NA","NA","206564","2632","175046","NA","205482","206669","207097","206562","206668","Flanker Task","86","45157","89","yes","1024"
"96.66666666666667","96.66666666666667","507.4","507.4","black","legacy","legacy","legacy","0","incongruent","uniform","1","undefined","1","s","0","0","0","89","0","89","0","89","0","0","0","89","89","89","89","89","Sun Sep 27 20:16:42 2020","600","The main experiment item","yes","FlankerTask.osexp","C:\Users\katri\OneDrive\Documents\Fall 2020\Flanker Test","no","mono","no","18","no","white","no","yes","768","legacy","9","79","C:/Users/katri/OneDrive/Documents/Fall 2020/Flanker Test/subject-6.csv","legacy","Lentiform Loewenfeld","3.3.3","0","s","NA","h","h","NA","s","509","NA","33772","18125","NA","509","2","legacy","1024","2","48000","-16","experiment","HHSHH","6","even","36405","193171","NA","172831","2624","NA","NA","208189","2632","175046","NA","207105","208294","208803","208187","208294","Flanker Task","87","45666","90","yes","1024"
"96.7032967032967","96.7032967032967","507","507","black","legacy","legacy","legacy","0","incongruent","uniform","1","undefined","1","s","0","0","0","90","0","90","0","90","0","0","0","90","90","90","90","90","Sun Sep 27 20:16:42 2020","600","The main experiment item","yes","FlankerTask.osexp","C:\Users\katri\OneDrive\Documents\Fall 2020\Flanker Test","no","mono","no","18","no","white","no","yes","768","legacy","10","79","C:/Users/katri/OneDrive/Documents/Fall 2020/Flanker Test/subject-6.csv","legacy","Lentiform Loewenfeld","3.3.3","0","s","NA","h","h","NA","s","471","NA","33772","18125","NA","471","2","legacy","1024","2","48000","-16","experiment","HHSHH","6","even","36405","193171","NA","172831","2624","NA","NA","209908","2632","175046","NA","208828","210013","210485","209906","210013","Flanker Task","88","46137","91","yes","1024"
"96.73913043478261","96.73913043478261","507.4130434782609","507.4130434782609","black","legacy","legacy","legacy","0","incongrunet","uniform","1","undefined","1","h","0","0","0","91","0","91","0","91","0","0","0","91","91","91","91","91","Sun Sep 27 20:16:42 2020","600","The main experiment item","yes","FlankerTask.osexp","C:\Users\katri\OneDrive\Documents\Fall 2020\Flanker Test","no","mono","no","18","no","white","no","yes","768","legacy","11","79","C:/Users/katri/OneDrive/Documents/Fall 2020/Flanker Test/subject-6.csv","legacy","Lentiform Loewenfeld","3.3.3","0","h","NA","h","h","NA","h","545","NA","33772","18125","NA","545","2","legacy","1024","2","48000","-16","experiment","SSHSS","6","even","36405","193171","NA","172831","2624","NA","NA","211595","2632","175046","NA","210509","211699","212245","211592","211699","Flanker Task","89","46682","92","yes","1024"
"96.7741935483871","96.7741935483871","506.258064516129","506.258064516129","black","legacy","legacy","legacy","0","congruent","uniform","1","undefined","1","s","0","0","0","92","0","92","0","92","0","0","0","92","92","92","92","92","Sun Sep 27 20:16:42 2020","600","The main experiment item","yes","FlankerTask.osexp","C:\Users\katri\OneDrive\Documents\Fall 2020\Flanker Test","no","mono","no","18","no","white","no","yes","768","legacy","12","79","C:/Users/katri/OneDrive/Documents/Fall 2020/Flanker Test/subject-6.csv","legacy","Lentiform Loewenfeld","3.3.3","0","s","NA","h","h","NA","s","400","NA","33772","18125","NA","400","2","legacy","1024","2","48000","-16","experiment","SSSSS","6","even","36405","193171","NA","172831","2624","NA","NA","213339","2632","175046","NA","212253","213444","213845","213337","213444","Flanker Task","90","47082","93","yes","1024"
"96.80851063829788","96.80851063829788","505.3936170212766","505.3936170212766","black","legacy","legacy","legacy","0","congruent","uniform","1","undefined","1","h","0","0","0","93","0","93","0","93","0","0","0","93","93","93","93","93","Sun Sep 27 20:16:42 2020","600","The main experiment item","yes","FlankerTask.osexp","C:\Users\katri\OneDrive\Documents\Fall 2020\Flanker Test","no","mono","no","18","no","white","no","yes","768","legacy","13","79","C:/Users/katri/OneDrive/Documents/Fall 2020/Flanker Test/subject-6.csv","legacy","Lentiform Loewenfeld","3.3.3","0","h","NA","h","h","NA","h","425","NA","33772","18125","NA","425","2","legacy","1024","2","48000","-16","experiment","HHHHH","6","even","36405","193171","NA","172831","2624","NA","NA","214950","2632","175046","NA","213870","215053","215479","214948","215052","Flanker Task","91","47507","94","yes","1024"
"96.84210526315789","96.84210526315789","505.4947368421053","505.4947368421053","black","legacy","legacy","legacy","0","incongrunet","uniform","1","undefined","1","h","0","0","0","94","0","94","0","94","0","0","0","94","94","94","94","94","Sun Sep 27 20:16:42 2020","600","The main experiment item","yes","FlankerTask.osexp","C:\Users\katri\OneDrive\Documents\Fall 2020\Flanker Test","no","mono","no","18","no","white","no","yes","768","legacy","14","79","C:/Users/katri/OneDrive/Documents/Fall 2020/Flanker Test/subject-6.csv","legacy","Lentiform Loewenfeld","3.3.3","0","h","NA","h","h","NA","h","515","NA","33772","18125","NA","515","2","legacy","1024","2","48000","-16","experiment","SSHSS","6","even","36405","193171","NA","172831","2624","NA","NA","216579","2632","175046","NA","215487","216684","217200","216577","216683","Flanker Task","92","48022","95","yes","1024"
"96.875","96.875","504.84375","504.84375","black","legacy","legacy","legacy","0","congruent","uniform","1","undefined","1","h","0","0","0","95","0","95","0","95","0","0","0","95","95","95","95","95","Sun Sep 27 20:16:42 2020","600","The main experiment item","yes","FlankerTask.osexp","C:\Users\katri\OneDrive\Documents\Fall 2020\Flanker Test","no","mono","no","18","no","white","no","yes","768","legacy","15","79","C:/Users/katri/OneDrive/Documents/Fall 2020/Flanker Test/subject-6.csv","legacy","Lentiform Loewenfeld","3.3.3","0","h","NA","h","h","NA","h","443","NA","33772","18125","NA","443","2","legacy","1024","2","48000","-16","experiment","HHHHH","6","even","36405","193171","NA","172831","2624","NA","NA","218294","2632","175046","NA","217207","218396","218839","218292","218396","Flanker Task","93","48465","96","yes","1024"
"96.90721649484536","96.90721649484536","503.70103092783506","503.70103092783506","black","legacy","legacy","legacy","0","incongruent","uniform","1","undefined","1","s","0","0","0","96","0","96","0","96","0","0","0","96","96","96","96","96","Sun Sep 27 20:16:42 2020","600","The main experiment item","yes","FlankerTask.osexp","C:\Users\katri\OneDrive\Documents\Fall 2020\Flanker Test","no","mono","no","18","no","white","no","yes","768","legacy","16","79","C:/Users/katri/OneDrive/Documents/Fall 2020/Flanker Test/subject-6.csv","legacy","Lentiform Loewenfeld","3.3.3","0","s","NA","h","h","NA","s","394","NA","33772","18125","NA","394","2","legacy","1024","2","48000","-16","experiment","HHSHH","6","even","36405","193171","NA","172831","2624","NA","NA","219956","2632","175046","NA","218865","220061","220456","219954","220061","Flanker Task","94","48859","97","yes","1024"
"96.93877551020408","96.93877551020408","503.0612244897959","503.0612244897959","black","legacy","legacy","legacy","0","congruent","uniform","1","undefined","1","s","0","0","0","97","0","97","0","97","0","0","0","97","97","97","97","97","Sun Sep 27 20:16:42 2020","600","The main experiment item","yes","FlankerTask.osexp","C:\Users\katri\OneDrive\Documents\Fall 2020\Flanker Test","no","mono","no","18","no","white","no","yes","768","legacy","17","79","C:/Users/katri/OneDrive/Documents/Fall 2020/Flanker Test/subject-6.csv","legacy","Lentiform Loewenfeld","3.3.3","0","s","NA","h","h","NA","s","441","NA","33772","18125","NA","441","2","legacy","1024","2","48000","-16","experiment","SSSSS","6","even","36405","193171","NA","172831","2624","NA","NA","221558","2632","175046","NA","220464","221662","222104","221556","221662","Flanker Task","95","49300","98","yes","1024"
"96.96969696969697","96.96969696969697","502.5959595959596","502.5959595959596","black","legacy","legacy","legacy","0","incongrunet","uniform","1","undefined","1","h","0","0","0","98","0","98","0","98","0","0","0","98","98","98","98","98","Sun Sep 27 20:16:42 2020","600","The main experiment item","yes","FlankerTask.osexp","C:\Users\katri\OneDrive\Documents\Fall 2020\Flanker Test","no","mono","no","18","no","white","no","yes","768","legacy","18","79","C:/Users/katri/OneDrive/Documents/Fall 2020/Flanker Test/subject-6.csv","legacy","Lentiform Loewenfeld","3.3.3","0","h","NA","h","h","NA","h","457","NA","33772","18125","NA","457","2","legacy","1024","2","48000","-16","experiment","SSHSS","6","even","36405","193171","NA","172831","2624","NA","NA","223190","2632","175046","NA","222113","223294","223752","223188","223294","Flanker Task","96","49757","99","yes","1024"
"97","97","502.53","502.53","black","legacy","legacy","legacy","0","congruent","uniform","1","undefined","1","h","0","0","0","99","0","99","0","99","0","0","0","99","99","99","99","99","Sun Sep 27 20:16:42 2020","600","The main experiment item","yes","FlankerTask.osexp","C:\Users\katri\OneDrive\Documents\Fall 2020\Flanker Test","no","mono","no","18","no","white","no","yes","768","legacy","19","79","C:/Users/katri/OneDrive/Documents/Fall 2020/Flanker Test/subject-6.csv","legacy","Lentiform Loewenfeld","3.3.3","0","h","NA","h","h","NA","h","496","NA","33772","18125","NA","496","2","legacy","1024","2","48000","-16","experiment","HHHHH","6","even","36405","193171","NA","172831","2624","NA","NA","224870","2632","175046","NA","223778","224974","225471","224868","224974","Flanker Task","97","50253","100","yes","1024"
"97.02970297029702","97.02970297029702","502.18811881188117","502.18811881188117","black","legacy","legacy","legacy","0","incongrunet","uniform","1","undefined","1","h","0","0","0","100","0","100","0","100","0","0","0","100","100","100","100","100","Sun Sep 27 20:16:42 2020","600","The main experiment item","yes","FlankerTask.osexp","C:\Users\katri\OneDrive\Documents\Fall 2020\Flanker Test","no","mono","no","18","no","white","no","yes","768","legacy","20","79","C:/Users/katri/OneDrive/Documents/Fall 2020/Flanker Test/subject-6.csv","legacy","Lentiform Loewenfeld","3.3.3","0","h","NA","h","h","NA","h","468","NA","33772","18125","NA","468","2","legacy","1024","2","48000","-16","experiment","SSHSS","6","even","36405","193171","NA","172831","2624","NA","NA","226592","2632","175046","NA","225496","226696","227165","226590","226696","Flanker Task","98","50721","101","yes","1024"
"97.05882352941177","97.05882352941177","501.02941176470586","501.02941176470586","black","legacy","legacy","legacy","0","congruent","uniform","1","undefined","1","s","0","0","0","101","0","101","0","101","0","0","0","101","101","101","101","101","Sun Sep 27 20:16:42 2020","600","The main experiment item","yes","FlankerTask.osexp","C:\Users\katri\OneDrive\Documents\Fall 2020\Flanker Test","no","mono","no","18","no","white","no","yes","768","legacy","21","79","C:/Users/katri/OneDrive/Documents/Fall 2020/Flanker Test/subject-6.csv","legacy","Lentiform Loewenfeld","3.3.3","0","s","NA","h","h","NA","s","384","NA","33772","18125","NA","384","2","legacy","1024","2","48000","-16","experiment","SSSSS","6","even","36405","193171","NA","172831","2624","NA","NA","228272","2632","175046","NA","227173","228376","228760","228270","228376","Flanker Task","99","51105","102","yes","1024"
"97.0873786407767","97.0873786407767","501.41747572815535","501.41747572815535","black","legacy","legacy","legacy","0","incongruent","uniform","1","undefined","1","s","0","0","0","102","0","102","0","102","0","0","0","102","102","102","102","102","Sun Sep 27 20:16:42 2020","600","The main experiment item","yes","FlankerTask.osexp","C:\Users\katri\OneDrive\Documents\Fall 2020\Flanker Test","no","mono","no","18","no","white","no","yes","768","legacy","22","79","C:/Users/katri/OneDrive/Documents/Fall 2020/Flanker Test/subject-6.csv","legacy","Lentiform Loewenfeld","3.3.3","0","s","NA","h","h","NA","s","541","NA","33772","18125","NA","541","2","legacy","1024","2","48000","-16","experiment","HHSHH","6","even","36405","193171","NA","172831","2624","NA","NA","229868","2632","175046","NA","228786","229973","230514","229866","229972","Flanker Task","100","51646","103","yes","1024"
"97.11538461538461","97.11538461538461","500.7019230769231","500.7019230769231","black","legacy","legacy","legacy","0","incongrunet","uniform","1","undefined","1","h","0","0","0","103","0","103","0","103","0","0","0","103","103","103","103","103","Sun Sep 27 20:16:42 2020","600","The main experiment item","yes","FlankerTask.osexp","C:\Users\katri\OneDrive\Documents\Fall 2020\Flanker Test","no","mono","no","18","no","white","no","yes","768","legacy","23","79","C:/Users/katri/OneDrive/Documents/Fall 2020/Flanker Test/subject-6.csv","legacy","Lentiform Loewenfeld","3.3.3","0","h","NA","h","h","NA","h","427","NA","33772","18125","NA","427","2","legacy","1024","2","48000","-16","experiment","SSHSS","6","even","36405","193171","NA","172831","2624","NA","NA","231617","2632","175046","NA","230540","231722","232149","231614","231721","Flanker Task","101","52073","104","yes","1024"
"97.14285714285714","97.14285714285714","501.0190476190476","501.0190476190476","black","legacy","legacy","legacy","0","incongrunet","uniform","1","undefined","1","h","0","0","0","104","0","104","0","104","0","0","0","104","104","104","104","104","Sun Sep 27 20:16:42 2020","600","The main experiment item","yes","FlankerTask.osexp","C:\Users\katri\OneDrive\Documents\Fall 2020\Flanker Test","no","mono","no","18","no","white","no","yes","768","legacy","24","79","C:/Users/katri/OneDrive/Documents/Fall 2020/Flanker Test/subject-6.csv","legacy","Lentiform Loewenfeld","3.3.3","0","h","NA","h","h","NA","h","534","NA","33772","18125","NA","534","2","legacy","1024","2","48000","-16","experiment","SSHSS","6","even","36405","193171","NA","172831","2624","NA","NA","233241","2632","175046","NA","232157","233346","233880","233239","233346","Flanker Task","102","52607","105","yes","1024"
"97.16981132075472","97.16981132075472","501.20754716981133","501.20754716981133","black","legacy","legacy","legacy","0","incongruent","uniform","1","undefined","1","s","0","0","0","105","0","105","0","105","0","0","0","105","105","105","105","105","Sun Sep 27 20:16:42 2020","600","The main experiment item","yes","FlankerTask.osexp","C:\Users\katri\OneDrive\Documents\Fall 2020\Flanker Test","no","mono","no","18","no","white","no","yes","768","legacy","25","79","C:/Users/katri/OneDrive/Documents/Fall 2020/Flanker Test/subject-6.csv","legacy","Lentiform Loewenfeld","3.3.3","0","s","NA","h","h","NA","s","521","NA","33772","18125","NA","521","2","legacy","1024","2","48000","-16","experiment","HHSHH","6","even","36405","193171","NA","172831","2624","NA","NA","234989","2632","175046","NA","233905","235094","235616","234987","235094","Flanker Task","103","53128","106","yes","1024"
"97.19626168224299","97.19626168224299","501.1214953271028","501.1214953271028","black","legacy","legacy","legacy","0","congruent","uniform","1","undefined","1","h","0","0","0","106","0","106","0","106","0","0","0","106","106","106","106","106","Sun Sep 27 20:16:42 2020","600","The main experiment item","yes","FlankerTask.osexp","C:\Users\katri\OneDrive\Documents\Fall 2020\Flanker Test","no","mono","no","18","no","white","no","yes","768","legacy","26","79","C:/Users/katri/OneDrive/Documents/Fall 2020/Flanker Test/subject-6.csv","legacy","Lentiform Loewenfeld","3.3.3","0","h","NA","h","h","NA","h","492","NA","33772","18125","NA","492","2","legacy","1024","2","48000","-16","experiment","HHHHH","6","even","36405","193171","NA","172831","2624","NA","NA","236706","2632","175046","NA","235624","236810","237302","236703","236810","Flanker Task","104","53620","107","yes","1024"
"97.22222222222223","97.22222222222223","500.56481481481484","500.56481481481484","black","legacy","legacy","legacy","0","congruent","uniform","1","undefined","1","s","0","0","0","107","0","107","0","107","0","0","0","107","107","107","107","107","Sun Sep 27 20:16:42 2020","600","The main experiment item","yes","FlankerTask.osexp","C:\Users\katri\OneDrive\Documents\Fall 2020\Flanker Test","no","mono","no","18","no","white","no","yes","768","legacy","27","79","C:/Users/katri/OneDrive/Documents/Fall 2020/Flanker Test/subject-6.csv","legacy","Lentiform Loewenfeld","3.3.3","0","s","NA","h","h","NA","s","441","NA","33772","18125","NA","441","2","legacy","1024","2","48000","-16","experiment","SSSSS","6","even","36405","193171","NA","172831","2624","NA","NA","238405","2632","175046","NA","237311","238510","238952","238402","238510","Flanker Task","105","54061","108","yes","1024"
"97.24770642201835","97.24770642201835","500.2844036697248","500.2844036697248","black","legacy","legacy","legacy","0","congruent","uniform","1","undefined","1","h","0","0","0","108","0","108","0","108","0","0","0","108","108","108","108","108","Sun Sep 27 20:16:42 2020","600","The main experiment item","yes","FlankerTask.osexp","C:\Users\katri\OneDrive\Documents\Fall 2020\Flanker Test","no","mono","no","18","no","white","no","yes","768","legacy","28","79","C:/Users/katri/OneDrive/Documents/Fall 2020/Flanker Test/subject-6.csv","legacy","Lentiform Loewenfeld","3.3.3","0","h","NA","h","h","NA","h","470","NA","33772","18125","NA","470","2","legacy","1024","2","48000","-16","experiment","HHHHH","6","even","36405","193171","NA","172831","2624","NA","NA","240038","2632","175046","NA","238959","240143","240614","240036","240143","Flanker Task","106","54531","109","yes","1024"
"97.27272727272727","97.27272727272727","500.24545454545455","500.24545454545455","black","legacy","legacy","legacy","0","congruent","uniform","1","undefined","1","s","0","0","0","109","0","109","0","109","0","0","0","109","109","109","109","109","Sun Sep 27 20:16:42 2020","600","The main experiment item","yes","FlankerTask.osexp","C:\Users\katri\OneDrive\Documents\Fall 2020\Flanker Test","no","mono","no","18","no","white","no","yes","768","legacy","29","79","C:/Users/katri/OneDrive/Documents/Fall 2020/Flanker Test/subject-6.csv","legacy","Lentiform Loewenfeld","3.3.3","0","s","NA","h","h","NA","s","496","NA","33772","18125","NA","496","2","legacy","1024","2","48000","-16","experiment","SSSSS","6","even","36405","193171","NA","172831","2624","NA","NA","241728","2632","175046","NA","240639","241829","242326","241726","241829","Flanker Task","107","55027","110","yes","1024"
"97.29729729729729","97.29729729729729","500.1801801801802","500.1801801801802","black","legacy","legacy","legacy","0","incongrunet","uniform","1","undefined","1","h","0","0","0","110","0","110","0","110","0","0","0","110","110","110","110","110","Sun Sep 27 20:16:42 2020","600","The main experiment item","yes","FlankerTask.osexp","C:\Users\katri\OneDrive\Documents\Fall 2020\Flanker Test","no","mono","no","18","no","white","no","yes","768","legacy","30","79","C:/Users/katri/OneDrive/Documents/Fall 2020/Flanker Test/subject-6.csv","legacy","Lentiform Loewenfeld","3.3.3","0","h","NA","h","h","NA","h","493","NA","33772","18125","NA","493","2","legacy","1024","2","48000","-16","experiment","SSHSS","6","even","36405","193171","NA","172831","2624","NA","NA","243419","2632","175046","NA","242335","243524","244018","243417","243524","Flanker Task","108","55520","111","yes","1024"
"97.32142857142857","97.32142857142857","499.20535714285717","499.20535714285717","black","legacy","legacy","legacy","0","congruent","uniform","1","undefined","1","s","0","0","0","111","0","111","0","111","0","0","0","111","111","111","111","111","Sun Sep 27 20:16:42 2020","600","The main experiment item","yes","FlankerTask.osexp","C:\Users\katri\OneDrive\Documents\Fall 2020\Flanker Test","no","mono","no","18","no","white","no","yes","768","legacy","31","79","C:/Users/katri/OneDrive/Documents/Fall 2020/Flanker Test/subject-6.csv","legacy","Lentiform Loewenfeld","3.3.3","0","s","NA","h","h","NA","s","391","NA","33772","18125","NA","391","2","legacy","1024","2","48000","-16","experiment","SSSSS","6","even","36405","193171","NA","172831","2624","NA","NA","245111","2632","175046","NA","244027","245216","245608","245109","245216","Flanker Task","109","55911","112","yes","1024"
"97.34513274336283","97.34513274336283","499.0973451327434","499.0973451327434","black","legacy","legacy","legacy","0","incongruent","uniform","1","undefined","1","s","0","0","0","112","0","112","0","112","0","0","0","112","112","112","112","112","Sun Sep 27 20:16:42 2020","600","The main experiment item","yes","FlankerTask.osexp","C:\Users\katri\OneDrive\Documents\Fall 2020\Flanker Test","no","mono","no","18","no","white","no","yes","768","legacy","32","79","C:/Users/katri/OneDrive/Documents/Fall 2020/Flanker Test/subject-6.csv","legacy","Lentiform Loewenfeld","3.3.3","0","s","NA","h","h","NA","s","487","NA","33772","18125","NA","487","2","legacy","1024","2","48000","-16","experiment","HHSHH","6","even","36405","193171","NA","172831","2624","NA","NA","246714","2632","175046","NA","245632","246819","247307","246712","246819","Flanker Task","110","56398","113","yes","1024"
"97.36842105263158","97.36842105263158","498.280701754386","498.280701754386","black","legacy","legacy","legacy","0","congruent","uniform","1","undefined","1","h","0","0","0","113","0","113","0","113","0","0","0","113","113","113","113","113","Sun Sep 27 20:16:42 2020","600","The main experiment item","yes","FlankerTask.osexp","C:\Users\katri\OneDrive\Documents\Fall 2020\Flanker Test","no","mono","no","18","no","white","no","yes","768","legacy","33","79","C:/Users/katri/OneDrive/Documents/Fall 2020/Flanker Test/subject-6.csv","legacy","Lentiform Loewenfeld","3.3.3","0","h","NA","h","h","NA","h","406","NA","33772","18125","NA","406","2","legacy","1024","2","48000","-16","experiment","HHHHH","6","even","36405","193171","NA","172831","2624","NA","NA","248413","2632","175046","NA","247316","248518","248925","248410","248518","Flanker Task","111","56804","114","yes","1024"
