"acc","accuracy","average_response_time","avg_rt","background","canvas_backend","clock_backend","color_backend","compensation","condition","coordinates","correct","correct_Instructions1","correct_keyboard_response","correct_response","count_ISI","count_Instructions1","count_block1","count_block2","count_block3","count_errorFeedback","count_experiment","count_faster","count_finish","count_instructions2","count_instructions3","count_keyboard_response","count_logger","count_new_sketchpad","count_sequence","count_stimulus","datetime","deadline","description","disable_garbage_collection","experiment_file","experiment_path","font_bold","font_family","font_italic","font_size","font_underline","foreground","form_clicks","fullscreen","height","keyboard_backend","live_row","live_row_block1","logfile","mouse_backend","opensesame_codename","opensesame_version","repeat_cycle","response","response_Instructions1","response_finish","response_instructions2","response_instructions3","response_keyboard_response","response_time","response_time_Instructions1","response_time_finish","response_time_instructions2","response_time_instructions3","response_time_keyboard_response","round_decimals","sampler_backend","sound_buf_size","sound_channels","sound_freq","sound_sample_size","start","stimulus","subject_nr","subject_parity","time_ISI","time_Instructions1","time_block1","time_block2","time_block3","time_errorFeedback","time_experiment","time_faster","time_finish","time_instructions2","time_instructions3","time_keyboard_response","time_logger","time_new_sketchpad","time_sequence","time_stimulus","title","total_correct","total_response_time","total_responses","uniform_coordinates","width"
"0","0","1326","1326","black","legacy","legacy","legacy","0","congruent","uniform","0","undefined","0","h","0","0","0","0","0","0","0","0","0","0","0","0","0","0","0","0","Sat Sep 19 13:10:10 2020","1500","The main experiment item","yes","FlankerTask.osexp","/Applications/OpenSesame.app/Contents/Resources/share/opensesame_resources","no","mono","no","18","no","white","no","yes","768","legacy","0","0","/Users/tionnahough/Desktop/th-subject-2.csv","legacy","Lentiform Loewenfeld","3.3.3","0","s","h","NA","NA","NA","s","1326","46900","NA","NA","NA","1326","2","legacy","1024","2","48000","-16","experiment","HHHHH","2","even","NA","4802","51781","NA","NA","NA","4730","NA","NA","NA","NA","52067","53395","51946","51922","52066","Flanker Task","0","1326","1","yes","1024"
"0","0","993","993","black","legacy","legacy","legacy","0","congruent","uniform","0","undefined","0","s","1","0","0","0","0","1","0","1","0","0","0","1","1","1","1","1","Sat Sep 19 13:10:10 2020","1500","The main experiment item","yes","FlankerTask.osexp","/Applications/OpenSesame.app/Contents/Resources/share/opensesame_resources","no","mono","no","18","no","white","no","yes","768","legacy","1","1","/Users/tionnahough/Desktop/th-subject-2.csv","legacy","Lentiform Loewenfeld","3.3.3","0","h","h","NA","NA","NA","h","660","46900","NA","NA","NA","660","2","legacy","1024","2","48000","-16","experiment","SSSSS","2","even","53954","4802","51781","NA","NA","53437","4730","NA","NA","NA","NA","55358","56027","55240","55219","55357","Flanker Task","0","1986","2","yes","1024"
"33.333333333333336","33.333333333333336","846.3333333333334","846.3333333333334","black","legacy","legacy","legacy","0","congruent","uniform","1","undefined","1","h","2","0","0","0","0","2","0","2","0","0","0","2","2","2","2","2","Sat Sep 19 13:10:10 2020","1500","The main experiment item","yes","FlankerTask.osexp","/Applications/OpenSesame.app/Contents/Resources/share/opensesame_resources","no","mono","no","18","no","white","no","yes","768","legacy","2","2","/Users/tionnahough/Desktop/th-subject-2.csv","legacy","Lentiform Loewenfeld","3.3.3","0","h","h","NA","NA","NA","h","553","46900","NA","NA","NA","553","2","legacy","1024","2","48000","-16","experiment","HHHHH","2","even","56562","4802","51781","NA","NA","56043","4730","NA","NA","NA","NA","57768","58323","57655","57643","57768","Flanker Task","1","2539","3","yes","1024"
"50","50","861.25","861.25","black","legacy","legacy","legacy","0","incongruent","uniform","1","undefined","1","s","3","0","0","0","0","3","0","3","0","0","0","3","3","3","3","3","Sat Sep 19 13:10:10 2020","1500","The main experiment item","yes","FlankerTask.osexp","/Applications/OpenSesame.app/Contents/Resources/share/opensesame_resources","no","mono","no","18","no","white","no","yes","768","legacy","3","3","/Users/tionnahough/Desktop/th-subject-2.csv","legacy","Lentiform Loewenfeld","3.3.3","0","s","h","NA","NA","NA","s","906","46900","NA","NA","NA","906","2","legacy","1024","2","48000","-16","experiment","HHSHH","2","even","58344","4802","51781","NA","NA","56043","4730","NA","NA","NA","NA","59543","60451","59431","59418","59543","Flanker Task","2","3445","4","yes","1024"
"60","60","803.8","803.8","black","legacy","legacy","legacy","0","congruent","uniform","1","undefined","1","s","4","0","0","0","0","4","0","4","0","0","0","4","4","4","4","4","Sat Sep 19 13:10:10 2020","1500","The main experiment item","yes","FlankerTask.osexp","/Applications/OpenSesame.app/Contents/Resources/share/opensesame_resources","no","mono","no","18","no","white","no","yes","768","legacy","4","4","/Users/tionnahough/Desktop/th-subject-2.csv","legacy","Lentiform Loewenfeld","3.3.3","0","s","h","NA","NA","NA","s","574","46900","NA","NA","NA","574","2","legacy","1024","2","48000","-16","experiment","SSSSS","2","even","60465","4802","51781","NA","NA","56043","4730","NA","NA","NA","NA","61715","62291","61602","61588","61715","Flanker Task","3","4019","5","yes","1024"
"66.66666666666667","66.66666666666667","772.3333333333334","772.3333333333334","black","legacy","legacy","legacy","0","incongruent","uniform","1","undefined","1","h","5","0","0","0","0","5","0","5","0","0","0","5","5","5","5","5","Sat Sep 19 13:10:10 2020","1500","The main experiment item","yes","FlankerTask.osexp","/Applications/OpenSesame.app/Contents/Resources/share/opensesame_resources","no","mono","no","18","no","white","no","yes","768","legacy","5","5","/Users/tionnahough/Desktop/th-subject-2.csv","legacy","Lentiform Loewenfeld","3.3.3","0","h","h","NA","NA","NA","h","615","46900","NA","NA","NA","615","2","legacy","1024","2","48000","-16","experiment","SSHSS","2","even","62314","4802","51781","NA","NA","56043","4730","NA","NA","NA","NA","63547","64164","63432","63412","63547","Flanker Task","4","4634","6","yes","1024"
"71.42857142857143","71.42857142857143","753.7142857142857","753.7142857142857","black","legacy","legacy","legacy","0","incongruent","uniform","1","undefined","1","s","6","0","0","0","0","6","0","6","0","0","0","6","6","6","6","6","Sat Sep 19 13:10:10 2020","1500","The main experiment item","yes","FlankerTask.osexp","/Applications/OpenSesame.app/Contents/Resources/share/opensesame_resources","no","mono","no","18","no","white","no","yes","768","legacy","6","6","/Users/tionnahough/Desktop/th-subject-2.csv","legacy","Lentiform Loewenfeld","3.3.3","0","s","h","NA","NA","NA","s","642","46900","NA","NA","NA","642","2","legacy","1024","2","48000","-16","experiment","HHSHH","2","even","64185","4802","51781","NA","NA","56043","4730","NA","NA","NA","NA","65414","66058","65298","65279","65414","Flanker Task","5","5276","7","yes","1024"
"75","75","730.375","730.375","black","legacy","legacy","legacy","0","incongruent","uniform","1","undefined","1","h","7","0","0","0","0","7","0","7","0","0","0","7","7","7","7","7","Sat Sep 19 13:10:10 2020","1500","The main experiment item","yes","FlankerTask.osexp","/Applications/OpenSesame.app/Contents/Resources/share/opensesame_resources","no","mono","no","18","no","white","no","yes","768","legacy","7","7","/Users/tionnahough/Desktop/th-subject-2.csv","legacy","Lentiform Loewenfeld","3.3.3","0","h","h","NA","NA","NA","h","567","46900","NA","NA","NA","567","2","legacy","1024","2","48000","-16","experiment","SSHSS","2","even","66081","4802","51781","NA","NA","56043","4730","NA","NA","NA","NA","67307","67876","67188","67172","67307","Flanker Task","6","5843","8","yes","1024"
"77.77777777777777","77.77777777777777","714.7777777777778","714.7777777777778","black","legacy","legacy","legacy","0","incongruent","uniform","1","undefined","1","s","8","0","0","0","0","8","0","8","0","0","0","8","8","8","8","8","Sat Sep 19 13:10:10 2020","1500","The main experiment item","yes","FlankerTask.osexp","/Applications/OpenSesame.app/Contents/Resources/share/opensesame_resources","no","mono","no","18","no","white","no","yes","768","legacy","8","8","/Users/tionnahough/Desktop/th-subject-2.csv","legacy","Lentiform Loewenfeld","3.3.3","0","s","h","NA","NA","NA","s","590","46900","NA","NA","NA","590","2","legacy","1024","2","48000","-16","experiment","HHSHH","2","even","67892","4802","51781","NA","NA","56043","4730","NA","NA","NA","NA","69140","69732","69024","69006","69139","Flanker Task","7","6433","9","yes","1024"
"80","80","695.3","695.3","black","legacy","legacy","legacy","0","congruent","uniform","1","undefined","1","h","9","0","0","0","0","9","0","9","0","0","0","9","9","9","9","9","Sat Sep 19 13:10:10 2020","1500","The main experiment item","yes","FlankerTask.osexp","/Applications/OpenSesame.app/Contents/Resources/share/opensesame_resources","no","mono","no","18","no","white","no","yes","768","legacy","9","9","/Users/tionnahough/Desktop/th-subject-2.csv","legacy","Lentiform Loewenfeld","3.3.3","0","h","h","NA","NA","NA","h","520","46900","NA","NA","NA","520","2","legacy","1024","2","48000","-16","experiment","HHHHH","2","even","69762","4802","51781","NA","NA","56043","4730","NA","NA","NA","NA","70978","71500","70863","70847","70978","Flanker Task","8","6953","10","yes","1024"
"81.81818181818181","81.81818181818181","681.6363636363636","681.6363636363636","black","legacy","legacy","legacy","0","incongruent","uniform","1","undefined","1","s","10","0","0","0","0","10","0","10","0","0","0","10","10","10","10","10","Sat Sep 19 13:10:10 2020","1500","The main experiment item","yes","FlankerTask.osexp","/Applications/OpenSesame.app/Contents/Resources/share/opensesame_resources","no","mono","no","18","no","white","no","yes","768","legacy","10","10","/Users/tionnahough/Desktop/th-subject-2.csv","legacy","Lentiform Loewenfeld","3.3.3","0","s","h","NA","NA","NA","s","545","46900","NA","NA","NA","545","2","legacy","1024","2","48000","-16","experiment","HHSHH","2","even","71518","4802","51781","NA","NA","56043","4730","NA","NA","NA","NA","72721","73268","72606","72593","72721","Flanker Task","9","7498","11","yes","1024"
"83.33333333333333","83.33333333333333","671","671","black","legacy","legacy","legacy","0","incongruent","uniform","1","undefined","1","s","11","0","0","0","0","11","0","11","0","0","0","11","11","11","11","11","Sat Sep 19 13:10:10 2020","1500","The main experiment item","yes","FlankerTask.osexp","/Applications/OpenSesame.app/Contents/Resources/share/opensesame_resources","no","mono","no","18","no","white","no","yes","768","legacy","11","11","/Users/tionnahough/Desktop/th-subject-2.csv","legacy","Lentiform Loewenfeld","3.3.3","0","s","h","NA","NA","NA","s","554","46900","NA","NA","NA","554","2","legacy","1024","2","48000","-16","experiment","HHSHH","2","even","73288","4802","51781","NA","NA","56043","4730","NA","NA","NA","NA","74479","75034","74366","74352","74479","Flanker Task","10","8052","12","yes","1024"
"84.61538461538461","84.61538461538461","653.6923076923077","653.6923076923077","black","legacy","legacy","legacy","0","incongruent","uniform","1","undefined","1","s","12","0","0","0","0","12","0","12","0","0","0","12","12","12","12","12","Sat Sep 19 13:10:10 2020","1500","The main experiment item","yes","FlankerTask.osexp","/Applications/OpenSesame.app/Contents/Resources/share/opensesame_resources","no","mono","no","18","no","white","no","yes","768","legacy","12","12","/Users/tionnahough/Desktop/th-subject-2.csv","legacy","Lentiform Loewenfeld","3.3.3","0","s","h","NA","NA","NA","s","446","46900","NA","NA","NA","446","2","legacy","1024","2","48000","-16","experiment","HHSHH","2","even","75048","4802","51781","NA","NA","56043","4730","NA","NA","NA","NA","76243","76691","76130","76110","76242","Flanker Task","11","8498","13","yes","1024"
"78.57142857142857","78.57142857142857","639.0714285714286","639.0714285714286","black","legacy","legacy","legacy","0","congruent","uniform","0","undefined","0","h","13","0","0","0","0","13","0","13","0","0","0","13","13","13","13","13","Sat Sep 19 13:10:10 2020","1500","The main experiment item","yes","FlankerTask.osexp","/Applications/OpenSesame.app/Contents/Resources/share/opensesame_resources","no","mono","no","18","no","white","no","yes","768","legacy","13","13","/Users/tionnahough/Desktop/th-subject-2.csv","legacy","Lentiform Loewenfeld","3.3.3","0","s","h","NA","NA","NA","s","449","46900","NA","NA","NA","449","2","legacy","1024","2","48000","-16","experiment","HHHHH","2","even","76706","4802","51781","NA","NA","56043","4730","NA","NA","NA","NA","77895","78346","77782","77770","77895","Flanker Task","11","8947","14","yes","1024"
"80","80","627.6","627.6","black","legacy","legacy","legacy","0","congruent","uniform","1","undefined","1","s","14","0","0","0","0","14","0","14","0","0","0","14","14","14","14","14","Sat Sep 19 13:10:10 2020","1500","The main experiment item","yes","FlankerTask.osexp","/Applications/OpenSesame.app/Contents/Resources/share/opensesame_resources","no","mono","no","18","no","white","no","yes","768","legacy","14","14","/Users/tionnahough/Desktop/th-subject-2.csv","legacy","Lentiform Loewenfeld","3.3.3","0","s","h","NA","NA","NA","s","467","46900","NA","NA","NA","467","2","legacy","1024","2","48000","-16","experiment","SSSSS","2","even","78881","4802","51781","NA","NA","78369","4730","NA","NA","NA","NA","80071","80540","79956","79944","80071","Flanker Task","12","9414","15","yes","1024"
"81.25","81.25","618.125","618.125","black","legacy","legacy","legacy","0","incongruent","uniform","1","undefined","1","h","15","0","0","0","0","15","0","15","0","0","0","15","15","15","15","15","Sat Sep 19 13:10:10 2020","1500","The main experiment item","yes","FlankerTask.osexp","/Applications/OpenSesame.app/Contents/Resources/share/opensesame_resources","no","mono","no","18","no","white","no","yes","768","legacy","15","15","/Users/tionnahough/Desktop/th-subject-2.csv","legacy","Lentiform Loewenfeld","3.3.3","0","h","h","NA","NA","NA","h","476","46900","NA","NA","NA","476","2","legacy","1024","2","48000","-16","experiment","SSHSS","2","even","80554","4802","51781","NA","NA","78369","4730","NA","NA","NA","NA","81741","82218","81628","81617","81741","Flanker Task","13","9890","16","yes","1024"
"82.3529411764706","82.3529411764706","612.5294117647059","612.5294117647059","black","legacy","legacy","legacy","0","incongruent","uniform","1","undefined","1","s","16","0","0","0","0","16","0","16","0","0","0","16","16","16","16","16","Sat Sep 19 13:10:10 2020","1500","The main experiment item","yes","FlankerTask.osexp","/Applications/OpenSesame.app/Contents/Resources/share/opensesame_resources","no","mono","no","18","no","white","no","yes","768","legacy","16","16","/Users/tionnahough/Desktop/th-subject-2.csv","legacy","Lentiform Loewenfeld","3.3.3","0","s","h","NA","NA","NA","s","523","46900","NA","NA","NA","523","2","legacy","1024","2","48000","-16","experiment","HHSHH","2","even","82242","4802","51781","NA","NA","78369","4730","NA","NA","NA","NA","83439","83963","83326","83311","83439","Flanker Task","14","10413","17","yes","1024"
"83.33333333333333","83.33333333333333","609.8888888888889","609.8888888888889","black","legacy","legacy","legacy","0","congruent","uniform","1","undefined","1","s","17","0","0","0","0","17","0","17","0","0","0","17","17","17","17","17","Sat Sep 19 13:10:10 2020","1500","The main experiment item","yes","FlankerTask.osexp","/Applications/OpenSesame.app/Contents/Resources/share/opensesame_resources","no","mono","no","18","no","white","no","yes","768","legacy","17","17","/Users/tionnahough/Desktop/th-subject-2.csv","legacy","Lentiform Loewenfeld","3.3.3","0","s","h","NA","NA","NA","s","565","46900","NA","NA","NA","565","2","legacy","1024","2","48000","-16","experiment","SSSSS","2","even","83984","4802","51781","NA","NA","78369","4730","NA","NA","NA","NA","85188","85755","85075","85058","85188","Flanker Task","15","10978","18","yes","1024"
"84.21052631578948","84.21052631578948","602.578947368421","602.578947368421","black","legacy","legacy","legacy","0","congruent","uniform","1","undefined","1","h","18","0","0","0","0","18","0","18","0","0","0","18","18","18","18","18","Sat Sep 19 13:10:10 2020","1500","The main experiment item","yes","FlankerTask.osexp","/Applications/OpenSesame.app/Contents/Resources/share/opensesame_resources","no","mono","no","18","no","white","no","yes","768","legacy","18","18","/Users/tionnahough/Desktop/th-subject-2.csv","legacy","Lentiform Loewenfeld","3.3.3","0","h","h","NA","NA","NA","h","471","46900","NA","NA","NA","471","2","legacy","1024","2","48000","-16","experiment","HHHHH","2","even","85776","4802","51781","NA","NA","78369","4730","NA","NA","NA","NA","86969","87443","86854","86839","86969","Flanker Task","16","11449","19","yes","1024"
"85","85","596.55","596.55","black","legacy","legacy","legacy","0","congruent","uniform","1","undefined","1","s","19","0","0","0","0","19","0","19","0","0","0","19","19","19","19","19","Sat Sep 19 13:10:10 2020","1500","The main experiment item","yes","FlankerTask.osexp","/Applications/OpenSesame.app/Contents/Resources/share/opensesame_resources","no","mono","no","18","no","white","no","yes","768","legacy","19","19","/Users/tionnahough/Desktop/th-subject-2.csv","legacy","Lentiform Loewenfeld","3.3.3","0","s","h","NA","NA","NA","s","482","46900","NA","NA","NA","482","2","legacy","1024","2","48000","-16","experiment","SSSSS","2","even","87465","4802","51781","NA","NA","78369","4730","NA","NA","NA","NA","88662","89146","88548","88536","88662","Flanker Task","17","11931","20","yes","1024"
"85.71428571428571","85.71428571428571","588.8571428571429","588.8571428571429","black","legacy","legacy","legacy","0","congruent","uniform","1","undefined","1","h","20","0","0","0","0","20","0","20","0","0","0","20","20","20","20","20","Sat Sep 19 13:10:10 2020","1500","The main experiment item","yes","FlankerTask.osexp","/Applications/OpenSesame.app/Contents/Resources/share/opensesame_resources","no","mono","no","18","no","white","no","yes","768","legacy","20","20","/Users/tionnahough/Desktop/th-subject-2.csv","legacy","Lentiform Loewenfeld","3.3.3","0","h","h","NA","NA","NA","h","435","46900","NA","NA","NA","435","2","legacy","1024","2","48000","-16","experiment","HHHHH","2","even","89168","4802","51781","NA","NA","78369","4730","NA","NA","NA","NA","90358","90795","90244","90231","90358","Flanker Task","18","12366","21","yes","1024"
"81.81818181818181","81.81818181818181","586.6818181818181","586.6818181818181","black","legacy","legacy","legacy","0","incongruent","uniform","0","undefined","0","h","21","0","0","0","0","21","0","21","0","0","0","21","21","21","21","21","Sat Sep 19 13:10:10 2020","1500","The main experiment item","yes","FlankerTask.osexp","/Applications/OpenSesame.app/Contents/Resources/share/opensesame_resources","no","mono","no","18","no","white","no","yes","768","legacy","21","21","/Users/tionnahough/Desktop/th-subject-2.csv","legacy","Lentiform Loewenfeld","3.3.3","0","s","h","NA","NA","NA","s","541","46900","NA","NA","NA","541","2","legacy","1024","2","48000","-16","experiment","SSHSS","2","even","90817","4802","51781","NA","NA","78369","4730","NA","NA","NA","NA","92005","92547","91893","91882","92004","Flanker Task","18","12907","22","yes","1024"
"82.6086956521739","82.6086956521739","585.5217391304348","585.5217391304348","black","legacy","legacy","legacy","0","congruent","uniform","1","undefined","1","s","22","0","0","0","0","22","0","22","0","0","0","22","22","22","22","22","Sat Sep 19 13:10:10 2020","1500","The main experiment item","yes","FlankerTask.osexp","/Applications/OpenSesame.app/Contents/Resources/share/opensesame_resources","no","mono","no","18","no","white","no","yes","768","legacy","22","22","/Users/tionnahough/Desktop/th-subject-2.csv","legacy","Lentiform Loewenfeld","3.3.3","0","s","h","NA","NA","NA","s","560","46900","NA","NA","NA","560","2","legacy","1024","2","48000","-16","experiment","SSSSS","2","even","93076","4802","51781","NA","NA","92560","4730","NA","NA","NA","NA","94273","94835","94161","94146","94273","Flanker Task","19","13467","23","yes","1024"
"83.33333333333333","83.33333333333333","584.875","584.875","black","legacy","legacy","legacy","0","incongruent","uniform","1","undefined","1","h","23","0","0","0","0","23","0","23","0","0","0","23","23","23","23","23","Sat Sep 19 13:10:10 2020","1500","The main experiment item","yes","FlankerTask.osexp","/Applications/OpenSesame.app/Contents/Resources/share/opensesame_resources","no","mono","no","18","no","white","no","yes","768","legacy","23","23","/Users/tionnahough/Desktop/th-subject-2.csv","legacy","Lentiform Loewenfeld","3.3.3","0","h","h","NA","NA","NA","h","570","46900","NA","NA","NA","570","2","legacy","1024","2","48000","-16","experiment","SSHSS","2","even","94857","4802","51781","NA","NA","92560","4730","NA","NA","NA","NA","96047","96619","95934","95920","96047","Flanker Task","20","14037","24","yes","1024"
"84","84","582.8","582.8","black","legacy","legacy","legacy","0","congruent","uniform","1","undefined","1","h","24","0","0","0","0","24","0","24","0","0","0","24","24","24","24","24","Sat Sep 19 13:10:10 2020","1500","The main experiment item","yes","FlankerTask.osexp","/Applications/OpenSesame.app/Contents/Resources/share/opensesame_resources","no","mono","no","18","no","white","no","yes","768","legacy","24","24","/Users/tionnahough/Desktop/th-subject-2.csv","legacy","Lentiform Loewenfeld","3.3.3","0","h","h","NA","NA","NA","h","533","46900","NA","NA","NA","533","2","legacy","1024","2","48000","-16","experiment","HHHHH","2","even","96643","4802","51781","NA","NA","92560","4730","NA","NA","NA","NA","97835","98370","97719","97707","97835","Flanker Task","21","14570","25","yes","1024"
"84.61538461538461","84.61538461538461","582.4230769230769","582.4230769230769","black","legacy","legacy","legacy","0","congruent","uniform","1","undefined","1","s","25","0","0","0","0","25","0","25","0","0","0","25","25","25","25","25","Sat Sep 19 13:10:10 2020","1500","The main experiment item","yes","FlankerTask.osexp","/Applications/OpenSesame.app/Contents/Resources/share/opensesame_resources","no","mono","no","18","no","white","no","yes","768","legacy","25","25","/Users/tionnahough/Desktop/th-subject-2.csv","legacy","Lentiform Loewenfeld","3.3.3","0","s","h","NA","NA","NA","s","573","46900","NA","NA","NA","573","2","legacy","1024","2","48000","-16","experiment","SSSSS","2","even","98399","4802","51781","NA","NA","92560","4730","NA","NA","NA","NA","99587","100162","99475","99462","99587","Flanker Task","22","15143","26","yes","1024"
"85.18518518518519","85.18518518518519","586.4074074074074","586.4074074074074","black","legacy","legacy","legacy","0","incongruent","uniform","1","undefined","1","s","26","0","0","0","0","26","0","26","0","0","0","26","26","26","26","26","Sat Sep 19 13:10:10 2020","1500","The main experiment item","yes","FlankerTask.osexp","/Applications/OpenSesame.app/Contents/Resources/share/opensesame_resources","no","mono","no","18","no","white","no","yes","768","legacy","26","26","/Users/tionnahough/Desktop/th-subject-2.csv","legacy","Lentiform Loewenfeld","3.3.3","0","s","h","NA","NA","NA","s","690","46900","NA","NA","NA","690","2","legacy","1024","2","48000","-16","experiment","HHSHH","2","even","100176","4802","51781","NA","NA","92560","4730","NA","NA","NA","NA","101367","102058","101253","101240","101367","Flanker Task","23","15833","27","yes","1024"
"85.71428571428571","85.71428571428571","589.8214285714286","589.8214285714286","black","legacy","legacy","legacy","0","congruent","uniform","1","undefined","1","s","27","0","0","0","0","27","0","27","0","0","0","27","27","27","27","27","Sat Sep 19 13:10:10 2020","1500","The main experiment item","yes","FlankerTask.osexp","/Applications/OpenSesame.app/Contents/Resources/share/opensesame_resources","no","mono","no","18","no","white","no","yes","768","legacy","27","27","/Users/tionnahough/Desktop/th-subject-2.csv","legacy","Lentiform Loewenfeld","3.3.3","0","s","h","NA","NA","NA","s","682","46900","NA","NA","NA","682","2","legacy","1024","2","48000","-16","experiment","SSSSS","2","even","102074","4802","51781","NA","NA","92560","4730","NA","NA","NA","NA","103271","103955","103154","103142","103271","Flanker Task","24","16515","28","yes","1024"
"86.20689655172414","86.20689655172414","586.7241379310345","586.7241379310345","black","legacy","legacy","legacy","0","congruent","uniform","1","undefined","1","h","28","0","0","0","0","28","0","28","0","0","0","28","28","28","28","28","Sat Sep 19 13:10:10 2020","1500","The main experiment item","yes","FlankerTask.osexp","/Applications/OpenSesame.app/Contents/Resources/share/opensesame_resources","no","mono","no","18","no","white","no","yes","768","legacy","28","28","/Users/tionnahough/Desktop/th-subject-2.csv","legacy","Lentiform Loewenfeld","3.3.3","0","h","h","NA","NA","NA","h","500","46900","NA","NA","NA","500","2","legacy","1024","2","48000","-16","experiment","HHHHH","2","even","103977","4802","51781","NA","NA","92560","4730","NA","NA","NA","NA","105165","105667","105050","105038","105164","Flanker Task","25","17015","29","yes","1024"
"86.66666666666667","86.66666666666667","588.7666666666667","588.7666666666667","black","legacy","legacy","legacy","0","incongruent","uniform","1","undefined","1","h","29","0","0","0","0","29","0","29","0","0","0","29","29","29","29","29","Sat Sep 19 13:10:10 2020","1500","The main experiment item","yes","FlankerTask.osexp","/Applications/OpenSesame.app/Contents/Resources/share/opensesame_resources","no","mono","no","18","no","white","no","yes","768","legacy","29","29","/Users/tionnahough/Desktop/th-subject-2.csv","legacy","Lentiform Loewenfeld","3.3.3","0","h","h","NA","NA","NA","h","648","46900","NA","NA","NA","648","2","legacy","1024","2","48000","-16","experiment","SSHSS","2","even","105690","4802","51781","NA","NA","92560","4730","NA","NA","NA","NA","106881","107531","106765","106754","106880","Flanker Task","26","17663","30","yes","1024"
"87.09677419354838","87.09677419354838","591.258064516129","591.258064516129","black","legacy","legacy","legacy","0","congruent","uniform","1","undefined","1","h","30","0","0","0","0","30","0","30","0","0","0","30","30","30","30","30","Sat Sep 19 13:10:10 2020","1500","The main experiment item","yes","FlankerTask.osexp","/Applications/OpenSesame.app/Contents/Resources/share/opensesame_resources","no","mono","no","18","no","white","no","yes","768","legacy","30","30","/Users/tionnahough/Desktop/th-subject-2.csv","legacy","Lentiform Loewenfeld","3.3.3","0","h","h","NA","NA","NA","h","666","46900","NA","NA","NA","666","2","legacy","1024","2","48000","-16","experiment","HHHHH","2","even","107545","4802","51781","NA","NA","92560","4730","NA","NA","NA","NA","108734","109402","108622","108610","108734","Flanker Task","27","18329","31","yes","1024"
"87.5","87.5","593.15625","593.15625","black","legacy","legacy","legacy","0","congruent","uniform","1","undefined","1","s","31","0","0","0","0","31","0","31","0","0","0","31","31","31","31","31","Sat Sep 19 13:10:10 2020","1500","The main experiment item","yes","FlankerTask.osexp","/Applications/OpenSesame.app/Contents/Resources/share/opensesame_resources","no","mono","no","18","no","white","no","yes","768","legacy","31","31","/Users/tionnahough/Desktop/th-subject-2.csv","legacy","Lentiform Loewenfeld","3.3.3","0","s","h","NA","NA","NA","s","652","46900","NA","NA","NA","652","2","legacy","1024","2","48000","-16","experiment","SSSSS","2","even","109423","4802","51781","NA","NA","92560","4730","NA","NA","NA","NA","110612","111266","110499","110487","110612","Flanker Task","28","18981","32","yes","1024"
"87.87878787878788","87.87878787878788","595.4848484848485","595.4848484848485","black","legacy","legacy","legacy","0","incongruent","uniform","1","undefined","1","h","32","0","0","0","0","32","0","32","0","0","0","32","32","32","32","32","Sat Sep 19 13:10:10 2020","1500","The main experiment item","yes","FlankerTask.osexp","/Applications/OpenSesame.app/Contents/Resources/share/opensesame_resources","no","mono","no","18","no","white","no","yes","768","legacy","32","32","/Users/tionnahough/Desktop/th-subject-2.csv","legacy","Lentiform Loewenfeld","3.3.3","0","h","h","NA","NA","NA","h","670","46900","NA","NA","NA","670","2","legacy","1024","2","48000","-16","experiment","SSHSS","2","even","111287","4802","51781","NA","NA","92560","4730","NA","NA","NA","NA","112474","113146","112362","112350","112474","Flanker Task","29","19651","33","yes","1024"
"88.23529411764706","88.23529411764706","598.4411764705883","598.4411764705883","black","legacy","legacy","legacy","0","congruent","uniform","1","undefined","1","s","33","0","0","0","0","33","0","33","0","0","0","33","33","33","33","33","Sat Sep 19 13:10:10 2020","1500","The main experiment item","yes","FlankerTask.osexp","/Applications/OpenSesame.app/Contents/Resources/share/opensesame_resources","no","mono","no","18","no","white","no","yes","768","legacy","33","33","/Users/tionnahough/Desktop/th-subject-2.csv","legacy","Lentiform Loewenfeld","3.3.3","0","s","h","NA","NA","NA","s","696","46900","NA","NA","NA","696","2","legacy","1024","2","48000","-16","experiment","SSSSS","2","even","113159","4802","51781","NA","NA","92560","4730","NA","NA","NA","NA","114344","115042","114232","114221","114344","Flanker Task","30","20347","34","yes","1024"
"88.57142857142857","88.57142857142857","601.1714285714286","601.1714285714286","black","legacy","legacy","legacy","0","incongruent","uniform","1","undefined","1","h","34","0","0","0","0","34","0","34","0","0","0","34","34","34","34","34","Sat Sep 19 13:10:10 2020","1500","The main experiment item","yes","FlankerTask.osexp","/Applications/OpenSesame.app/Contents/Resources/share/opensesame_resources","no","mono","no","18","no","white","no","yes","768","legacy","34","34","/Users/tionnahough/Desktop/th-subject-2.csv","legacy","Lentiform Loewenfeld","3.3.3","0","h","h","NA","NA","NA","h","694","46900","NA","NA","NA","694","2","legacy","1024","2","48000","-16","experiment","SSHSS","2","even","115066","4802","51781","NA","NA","92560","4730","NA","NA","NA","NA","116259","116955","116147","116135","116259","Flanker Task","31","21041","35","yes","1024"
"88.88888888888889","88.88888888888889","599.1111111111111","599.1111111111111","black","legacy","legacy","legacy","0","congruent","uniform","1","undefined","1","h","35","0","0","0","0","35","0","35","0","0","0","35","35","35","35","35","Sat Sep 19 13:10:10 2020","1500","The main experiment item","yes","FlankerTask.osexp","/Applications/OpenSesame.app/Contents/Resources/share/opensesame_resources","no","mono","no","18","no","white","no","yes","768","legacy","35","35","/Users/tionnahough/Desktop/th-subject-2.csv","legacy","Lentiform Loewenfeld","3.3.3","0","h","h","NA","NA","NA","h","527","46900","NA","NA","NA","527","2","legacy","1024","2","48000","-16","experiment","HHHHH","2","even","116976","4802","51781","NA","NA","92560","4730","NA","NA","NA","NA","118162","118691","118049","118038","118162","Flanker Task","32","21568","36","yes","1024"
"89.1891891891892","89.1891891891892","597.6756756756756","597.6756756756756","black","legacy","legacy","legacy","0","incongruent","uniform","1","undefined","1","h","36","0","0","0","0","36","0","36","0","0","0","36","36","36","36","36","Sat Sep 19 13:10:10 2020","1500","The main experiment item","yes","FlankerTask.osexp","/Applications/OpenSesame.app/Contents/Resources/share/opensesame_resources","no","mono","no","18","no","white","no","yes","768","legacy","36","36","/Users/tionnahough/Desktop/th-subject-2.csv","legacy","Lentiform Loewenfeld","3.3.3","0","h","h","NA","NA","NA","h","546","46900","NA","NA","NA","546","2","legacy","1024","2","48000","-16","experiment","SSHSS","2","even","118712","4802","51781","NA","NA","92560","4730","NA","NA","NA","NA","119902","120450","119788","119775","119901","Flanker Task","33","22114","37","yes","1024"
"89.47368421052632","89.47368421052632","600.578947368421","600.578947368421","black","legacy","legacy","legacy","0","congruent","uniform","1","undefined","1","h","37","0","0","0","0","37","0","37","0","0","0","37","37","37","37","37","Sat Sep 19 13:10:10 2020","1500","The main experiment item","yes","FlankerTask.osexp","/Applications/OpenSesame.app/Contents/Resources/share/opensesame_resources","no","mono","no","18","no","white","no","yes","768","legacy","37","37","/Users/tionnahough/Desktop/th-subject-2.csv","legacy","Lentiform Loewenfeld","3.3.3","0","h","h","NA","NA","NA","h","708","46900","NA","NA","NA","708","2","legacy","1024","2","48000","-16","experiment","HHHHH","2","even","120464","4802","51781","NA","NA","92560","4730","NA","NA","NA","NA","121660","122370","121545","121534","121659","Flanker Task","34","22822","38","yes","1024"
"89.74358974358974","89.74358974358974","603.3589743589744","603.3589743589744","black","legacy","legacy","legacy","0","congruent","uniform","1","undefined","1","h","38","0","0","0","0","38","0","38","0","0","0","38","38","38","38","38","Sat Sep 19 13:10:10 2020","1500","The main experiment item","yes","FlankerTask.osexp","/Applications/OpenSesame.app/Contents/Resources/share/opensesame_resources","no","mono","no","18","no","white","no","yes","768","legacy","38","38","/Users/tionnahough/Desktop/th-subject-2.csv","legacy","Lentiform Loewenfeld","3.3.3","0","h","h","NA","NA","NA","h","709","46900","NA","NA","NA","709","2","legacy","1024","2","48000","-16","experiment","HHHHH","2","even","122392","4802","51781","NA","NA","92560","4730","NA","NA","NA","NA","123579","124290","123467","123454","123579","Flanker Task","35","23531","39","yes","1024"
"90","90","602.5","602.5","black","legacy","legacy","legacy","0","incongruent","uniform","1","undefined","1","h","39","0","0","0","0","39","0","39","0","0","0","39","39","39","39","39","Sat Sep 19 13:10:10 2020","1500","The main experiment item","yes","FlankerTask.osexp","/Applications/OpenSesame.app/Contents/Resources/share/opensesame_resources","no","mono","no","18","no","white","no","yes","768","legacy","39","39","/Users/tionnahough/Desktop/th-subject-2.csv","legacy","Lentiform Loewenfeld","3.3.3","0","h","h","NA","NA","NA","h","569","46900","NA","NA","NA","569","2","legacy","1024","2","48000","-16","experiment","SSHSS","2","even","124303","4802","51781","NA","NA","92560","4730","NA","NA","NA","NA","125495","126066","125377","125366","125495","Flanker Task","36","24100","40","yes","1024"
"90.2439024390244","90.2439024390244","600.390243902439","600.390243902439","black","legacy","legacy","legacy","0","congruent","uniform","1","undefined","1","s","40","0","0","0","0","40","0","40","0","0","0","40","40","40","40","40","Sat Sep 19 13:10:10 2020","1500","The main experiment item","yes","FlankerTask.osexp","/Applications/OpenSesame.app/Contents/Resources/share/opensesame_resources","no","mono","no","18","no","white","no","yes","768","legacy","40","40","/Users/tionnahough/Desktop/th-subject-2.csv","legacy","Lentiform Loewenfeld","3.3.3","0","s","h","NA","NA","NA","s","516","46900","NA","NA","NA","516","2","legacy","1024","2","48000","-16","experiment","SSSSS","2","even","126087","4802","51781","NA","NA","92560","4730","NA","NA","NA","NA","127293","127811","127175","127163","127293","Flanker Task","37","24616","41","yes","1024"
"90.47619047619048","90.47619047619048","598.7380952380952","598.7380952380952","black","legacy","legacy","legacy","0","congruent","uniform","1","undefined","1","s","41","0","0","0","0","41","0","41","0","0","0","41","41","41","41","41","Sat Sep 19 13:10:10 2020","1500","The main experiment item","yes","FlankerTask.osexp","/Applications/OpenSesame.app/Contents/Resources/share/opensesame_resources","no","mono","no","18","no","white","no","yes","768","legacy","41","41","/Users/tionnahough/Desktop/th-subject-2.csv","legacy","Lentiform Loewenfeld","3.3.3","0","s","h","NA","NA","NA","s","531","46900","NA","NA","NA","531","2","legacy","1024","2","48000","-16","experiment","SSSSS","2","even","127833","4802","51781","NA","NA","92560","4730","NA","NA","NA","NA","129022","129555","128910","128896","129022","Flanker Task","38","25147","42","yes","1024"
"90.69767441860465","90.69767441860465","601.3488372093024","601.3488372093024","black","legacy","legacy","legacy","0","incongruent","uniform","1","undefined","1","s","42","0","0","0","0","42","0","42","0","0","0","42","42","42","42","42","Sat Sep 19 13:10:10 2020","1500","The main experiment item","yes","FlankerTask.osexp","/Applications/OpenSesame.app/Contents/Resources/share/opensesame_resources","no","mono","no","18","no","white","no","yes","768","legacy","42","42","/Users/tionnahough/Desktop/th-subject-2.csv","legacy","Lentiform Loewenfeld","3.3.3","0","s","h","NA","NA","NA","s","711","46900","NA","NA","NA","711","2","legacy","1024","2","48000","-16","experiment","HHSHH","2","even","129580","4802","51781","NA","NA","92560","4730","NA","NA","NA","NA","130769","131482","130656","130644","130769","Flanker Task","39","25858","43","yes","1024"
"90.9090909090909","90.9090909090909","600.6818181818181","600.6818181818181","black","legacy","legacy","legacy","0","congruent","uniform","1","undefined","1","h","43","0","0","0","0","43","0","43","0","0","0","43","43","43","43","43","Sat Sep 19 13:10:10 2020","1500","The main experiment item","yes","FlankerTask.osexp","/Applications/OpenSesame.app/Contents/Resources/share/opensesame_resources","no","mono","no","18","no","white","no","yes","768","legacy","43","43","/Users/tionnahough/Desktop/th-subject-2.csv","legacy","Lentiform Loewenfeld","3.3.3","0","h","h","NA","NA","NA","h","572","46900","NA","NA","NA","572","2","legacy","1024","2","48000","-16","experiment","HHHHH","2","even","131504","4802","51781","NA","NA","92560","4730","NA","NA","NA","NA","132692","133266","132579","132567","132691","Flanker Task","40","26430","44","yes","1024"
"91.11111111111111","91.11111111111111","599.9111111111112","599.9111111111112","black","legacy","legacy","legacy","0","incongruent","uniform","1","undefined","1","h","44","0","0","0","0","44","0","44","0","0","0","44","44","44","44","44","Sat Sep 19 13:10:10 2020","1500","The main experiment item","yes","FlankerTask.osexp","/Applications/OpenSesame.app/Contents/Resources/share/opensesame_resources","no","mono","no","18","no","white","no","yes","768","legacy","44","44","/Users/tionnahough/Desktop/th-subject-2.csv","legacy","Lentiform Loewenfeld","3.3.3","0","h","h","NA","NA","NA","h","566","46900","NA","NA","NA","566","2","legacy","1024","2","48000","-16","experiment","SSHSS","2","even","133288","4802","51781","NA","NA","92560","4730","NA","NA","NA","NA","134474","135042","134363","134352","134474","Flanker Task","41","26996","45","yes","1024"
"91.30434782608695","91.30434782608695","597.5","597.5","black","legacy","legacy","legacy","0","congruent","uniform","1","undefined","1","s","45","0","0","0","0","45","0","45","0","0","0","45","45","45","45","45","Sat Sep 19 13:10:10 2020","1500","The main experiment item","yes","FlankerTask.osexp","/Applications/OpenSesame.app/Contents/Resources/share/opensesame_resources","no","mono","no","18","no","white","no","yes","768","legacy","45","45","/Users/tionnahough/Desktop/th-subject-2.csv","legacy","Lentiform Loewenfeld","3.3.3","0","s","h","NA","NA","NA","s","489","46900","NA","NA","NA","489","2","legacy","1024","2","48000","-16","experiment","SSSSS","2","even","135054","4802","51781","NA","NA","92560","4730","NA","NA","NA","NA","136248","136739","136136","136125","136248","Flanker Task","42","27485","46","yes","1024"
"89.36170212765957","89.36170212765957","596.1063829787234","596.1063829787234","black","legacy","legacy","legacy","0","congruent","uniform","0","undefined","0","h","46","0","0","0","0","46","0","46","0","0","0","46","46","46","46","46","Sat Sep 19 13:10:10 2020","1500","The main experiment item","yes","FlankerTask.osexp","/Applications/OpenSesame.app/Contents/Resources/share/opensesame_resources","no","mono","no","18","no","white","no","yes","768","legacy","46","46","/Users/tionnahough/Desktop/th-subject-2.csv","legacy","Lentiform Loewenfeld","3.3.3","0","s","h","NA","NA","NA","s","532","46900","NA","NA","NA","532","2","legacy","1024","2","48000","-16","experiment","HHHHH","2","even","136752","4802","51781","NA","NA","92560","4730","NA","NA","NA","NA","137940","138474","137827","137815","137939","Flanker Task","42","28017","47","yes","1024"
"89.58333333333333","89.58333333333333","596.4791666666666","596.4791666666666","black","legacy","legacy","legacy","0","incongruent","uniform","1","undefined","1","s","47","0","0","0","0","47","0","47","0","0","0","47","47","47","47","47","Sat Sep 19 13:10:10 2020","1500","The main experiment item","yes","FlankerTask.osexp","/Applications/OpenSesame.app/Contents/Resources/share/opensesame_resources","no","mono","no","18","no","white","no","yes","768","legacy","47","47","/Users/tionnahough/Desktop/th-subject-2.csv","legacy","Lentiform Loewenfeld","3.3.3","0","s","h","NA","NA","NA","s","614","46900","NA","NA","NA","614","2","legacy","1024","2","48000","-16","experiment","HHSHH","2","even","139000","4802","51781","NA","NA","138488","4730","NA","NA","NA","NA","140187","140803","140075","140063","140187","Flanker Task","43","28631","48","yes","1024"
"89.79591836734694","89.79591836734694","596.204081632653","596.204081632653","black","legacy","legacy","legacy","0","congruent","uniform","1","undefined","1","s","48","0","0","0","0","48","0","48","0","0","0","48","48","48","48","48","Sat Sep 19 13:10:10 2020","1500","The main experiment item","yes","FlankerTask.osexp","/Applications/OpenSesame.app/Contents/Resources/share/opensesame_resources","no","mono","no","18","no","white","no","yes","768","legacy","48","48","/Users/tionnahough/Desktop/th-subject-2.csv","legacy","Lentiform Loewenfeld","3.3.3","0","s","h","NA","NA","NA","s","583","46900","NA","NA","NA","583","2","legacy","1024","2","48000","-16","experiment","SSSSS","2","even","140827","4802","51781","NA","NA","138488","4730","NA","NA","NA","NA","142018","142603","141903","141890","142018","Flanker Task","44","29214","49","yes","1024"
"90","90","597.62","597.62","black","legacy","legacy","legacy","0","congruent","uniform","1","undefined","1","s","49","0","0","0","0","49","0","49","0","0","0","49","49","49","49","49","Sat Sep 19 13:10:10 2020","1500","The main experiment item","yes","FlankerTask.osexp","/Applications/OpenSesame.app/Contents/Resources/share/opensesame_resources","no","mono","no","18","no","white","no","yes","768","legacy","49","49","/Users/tionnahough/Desktop/th-subject-2.csv","legacy","Lentiform Loewenfeld","3.3.3","0","s","h","NA","NA","NA","s","667","46900","NA","NA","NA","667","2","legacy","1024","2","48000","-16","experiment","SSSSS","2","even","142624","4802","51781","NA","NA","138488","4730","NA","NA","NA","NA","143813","144482","143701","143687","143813","Flanker Task","45","29881","50","yes","1024"
"90.19607843137256","90.19607843137256","597.4705882352941","597.4705882352941","black","legacy","legacy","legacy","0","congruent","uniform","1","undefined","1","h","50","0","0","0","0","50","0","50","0","0","0","50","50","50","50","50","Sat Sep 19 13:10:10 2020","1500","The main experiment item","yes","FlankerTask.osexp","/Applications/OpenSesame.app/Contents/Resources/share/opensesame_resources","no","mono","no","18","no","white","no","yes","768","legacy","50","50","/Users/tionnahough/Desktop/th-subject-2.csv","legacy","Lentiform Loewenfeld","3.3.3","0","h","h","NA","NA","NA","h","590","46900","NA","NA","NA","590","2","legacy","1024","2","48000","-16","experiment","HHHHH","2","even","144500","4802","51781","NA","NA","138488","4730","NA","NA","NA","NA","145690","146282","145578","145564","145689","Flanker Task","46","30471","51","yes","1024"
"90.38461538461539","90.38461538461539","596.6923076923077","596.6923076923077","black","legacy","legacy","legacy","0","congruent","uniform","1","undefined","1","s","51","0","0","0","0","51","0","51","0","0","0","51","51","51","51","51","Sat Sep 19 13:10:10 2020","1500","The main experiment item","yes","FlankerTask.osexp","/Applications/OpenSesame.app/Contents/Resources/share/opensesame_resources","no","mono","no","18","no","white","no","yes","768","legacy","51","51","/Users/tionnahough/Desktop/th-subject-2.csv","legacy","Lentiform Loewenfeld","3.3.3","0","s","h","NA","NA","NA","s","557","46900","NA","NA","NA","557","2","legacy","1024","2","48000","-16","experiment","SSSSS","2","even","146307","4802","51781","NA","NA","138488","4730","NA","NA","NA","NA","147499","148058","147386","147374","147499","Flanker Task","47","31028","52","yes","1024"
"90.56603773584905","90.56603773584905","596.2075471698113","596.2075471698113","black","legacy","legacy","legacy","0","incongruent","uniform","1","undefined","1","s","52","0","0","0","0","52","0","52","0","0","0","52","52","52","52","52","Sat Sep 19 13:10:10 2020","1500","The main experiment item","yes","FlankerTask.osexp","/Applications/OpenSesame.app/Contents/Resources/share/opensesame_resources","no","mono","no","18","no","white","no","yes","768","legacy","52","52","/Users/tionnahough/Desktop/th-subject-2.csv","legacy","Lentiform Loewenfeld","3.3.3","0","s","h","NA","NA","NA","s","571","46900","NA","NA","NA","571","2","legacy","1024","2","48000","-16","experiment","HHSHH","2","even","148080","4802","51781","NA","NA","138488","4730","NA","NA","NA","NA","149270","149843","149158","149145","149270","Flanker Task","48","31599","53","yes","1024"
"90.74074074074075","90.74074074074075","597.9074074074074","597.9074074074074","black","legacy","legacy","legacy","0","incongruent","uniform","1","undefined","1","h","53","0","0","0","0","53","0","53","0","0","0","53","53","53","53","53","Sat Sep 19 13:10:10 2020","1500","The main experiment item","yes","FlankerTask.osexp","/Applications/OpenSesame.app/Contents/Resources/share/opensesame_resources","no","mono","no","18","no","white","no","yes","768","legacy","53","53","/Users/tionnahough/Desktop/th-subject-2.csv","legacy","Lentiform Loewenfeld","3.3.3","0","h","h","NA","NA","NA","h","688","46900","NA","NA","NA","688","2","legacy","1024","2","48000","-16","experiment","SSHSS","2","even","149866","4802","51781","NA","NA","138488","4730","NA","NA","NA","NA","151057","151747","150943","150930","151057","Flanker Task","49","32287","54","yes","1024"
"90.9090909090909","90.9090909090909","596.8181818181819","596.8181818181819","black","legacy","legacy","legacy","0","incongruent","uniform","1","undefined","1","h","54","0","0","0","0","54","0","54","0","0","0","54","54","54","54","54","Sat Sep 19 13:10:10 2020","1500","The main experiment item","yes","FlankerTask.osexp","/Applications/OpenSesame.app/Contents/Resources/share/opensesame_resources","no","mono","no","18","no","white","no","yes","768","legacy","54","54","/Users/tionnahough/Desktop/th-subject-2.csv","legacy","Lentiform Loewenfeld","3.3.3","0","h","h","NA","NA","NA","h","538","46900","NA","NA","NA","538","2","legacy","1024","2","48000","-16","experiment","SSHSS","2","even","151760","4802","51781","NA","NA","138488","4730","NA","NA","NA","NA","152959","153499","152842","152825","152959","Flanker Task","50","32825","55","yes","1024"
"91.07142857142857","91.07142857142857","595.9464285714286","595.9464285714286","black","legacy","legacy","legacy","0","incongruent","uniform","1","undefined","1","s","55","0","0","0","0","55","0","55","0","0","0","55","55","55","55","55","Sat Sep 19 13:10:10 2020","1500","The main experiment item","yes","FlankerTask.osexp","/Applications/OpenSesame.app/Contents/Resources/share/opensesame_resources","no","mono","no","18","no","white","no","yes","768","legacy","55","55","/Users/tionnahough/Desktop/th-subject-2.csv","legacy","Lentiform Loewenfeld","3.3.3","0","s","h","NA","NA","NA","s","548","46900","NA","NA","NA","548","2","legacy","1024","2","48000","-16","experiment","HHSHH","2","even","153520","4802","51781","NA","NA","138488","4730","NA","NA","NA","NA","154708","155258","154596","154582","154708","Flanker Task","51","33373","56","yes","1024"
"91.2280701754386","91.2280701754386","596.3157894736842","596.3157894736842","black","legacy","legacy","legacy","0","incongruent","uniform","1","undefined","1","s","56","0","0","0","0","56","0","56","0","0","0","56","56","56","56","56","Sat Sep 19 13:10:10 2020","1500","The main experiment item","yes","FlankerTask.osexp","/Applications/OpenSesame.app/Contents/Resources/share/opensesame_resources","no","mono","no","18","no","white","no","yes","768","legacy","56","56","/Users/tionnahough/Desktop/th-subject-2.csv","legacy","Lentiform Loewenfeld","3.3.3","0","s","h","NA","NA","NA","s","617","46900","NA","NA","NA","617","2","legacy","1024","2","48000","-16","experiment","HHSHH","2","even","155284","4802","51781","NA","NA","138488","4730","NA","NA","NA","NA","156479","157099","156362","156347","156478","Flanker Task","52","33990","57","yes","1024"
"91.37931034482759","91.37931034482759","595.6724137931035","595.6724137931035","black","legacy","legacy","legacy","0","incongruent","uniform","1","undefined","1","h","57","0","0","0","0","57","0","57","0","0","0","57","57","57","57","57","Sat Sep 19 13:10:10 2020","1500","The main experiment item","yes","FlankerTask.osexp","/Applications/OpenSesame.app/Contents/Resources/share/opensesame_resources","no","mono","no","18","no","white","no","yes","768","legacy","57","57","/Users/tionnahough/Desktop/th-subject-2.csv","legacy","Lentiform Loewenfeld","3.3.3","0","h","h","NA","NA","NA","h","559","46900","NA","NA","NA","559","2","legacy","1024","2","48000","-16","experiment","SSHSS","2","even","157124","4802","51781","NA","NA","138488","4730","NA","NA","NA","NA","158314","158875","158201","158189","158314","Flanker Task","53","34549","58","yes","1024"
"91.52542372881356","91.52542372881356","595.8305084745763","595.8305084745763","black","legacy","legacy","legacy","0","incongruent","uniform","1","undefined","1","h","58","0","0","0","0","58","0","58","0","0","0","58","58","58","58","58","Sat Sep 19 13:10:10 2020","1500","The main experiment item","yes","FlankerTask.osexp","/Applications/OpenSesame.app/Contents/Resources/share/opensesame_resources","no","mono","no","18","no","white","no","yes","768","legacy","58","58","/Users/tionnahough/Desktop/th-subject-2.csv","legacy","Lentiform Loewenfeld","3.3.3","0","h","h","NA","NA","NA","h","605","46900","NA","NA","NA","605","2","legacy","1024","2","48000","-16","experiment","SSHSS","2","even","158891","4802","51781","NA","NA","138488","4730","NA","NA","NA","NA","160084","160691","159967","159955","160083","Flanker Task","54","35154","59","yes","1024"
"91.66666666666667","91.66666666666667","597.2666666666667","597.2666666666667","black","legacy","legacy","legacy","0","incongruent","uniform","1","undefined","1","s","59","0","0","0","0","59","0","59","0","0","0","59","59","59","59","59","Sat Sep 19 13:10:10 2020","1500","The main experiment item","yes","FlankerTask.osexp","/Applications/OpenSesame.app/Contents/Resources/share/opensesame_resources","no","mono","no","18","no","white","no","yes","768","legacy","59","59","/Users/tionnahough/Desktop/th-subject-2.csv","legacy","Lentiform Loewenfeld","3.3.3","0","s","h","NA","NA","NA","s","682","46900","NA","NA","NA","682","2","legacy","1024","2","48000","-16","experiment","HHSHH","2","even","160712","4802","51781","NA","NA","138488","4730","NA","NA","NA","NA","161903","162587","161791","161777","161903","Flanker Task","55","35836","60","yes","1024"
"91.80327868852459","91.80327868852459","597.9016393442623","597.9016393442623","black","legacy","legacy","legacy","0","congruent","uniform","1","undefined","1","s","60","0","0","0","0","60","0","60","0","0","0","60","60","60","60","60","Sat Sep 19 13:10:10 2020","1500","The main experiment item","yes","FlankerTask.osexp","/Applications/OpenSesame.app/Contents/Resources/share/opensesame_resources","no","mono","no","18","no","white","no","yes","768","legacy","60","60","/Users/tionnahough/Desktop/th-subject-2.csv","legacy","Lentiform Loewenfeld","3.3.3","0","s","h","NA","NA","NA","s","636","46900","NA","NA","NA","636","2","legacy","1024","2","48000","-16","experiment","SSSSS","2","even","162608","4802","51781","NA","NA","138488","4730","NA","NA","NA","NA","163796","164434","163683","163670","163796","Flanker Task","56","36472","61","yes","1024"
"91.93548387096774","91.93548387096774","597.4677419354839","597.4677419354839","black","legacy","legacy","legacy","0","incongruent","uniform","1","undefined","1","h","61","0","0","0","0","61","0","61","0","0","0","61","61","61","61","61","Sat Sep 19 13:10:10 2020","1500","The main experiment item","yes","FlankerTask.osexp","/Applications/OpenSesame.app/Contents/Resources/share/opensesame_resources","no","mono","no","18","no","white","no","yes","768","legacy","61","61","/Users/tionnahough/Desktop/th-subject-2.csv","legacy","Lentiform Loewenfeld","3.3.3","0","h","h","NA","NA","NA","h","571","46900","NA","NA","NA","571","2","legacy","1024","2","48000","-16","experiment","SSHSS","2","even","164458","4802","51781","NA","NA","138488","4730","NA","NA","NA","NA","165645","166218","165533","165522","165645","Flanker Task","57","37043","62","yes","1024"
"92.06349206349206","92.06349206349206","597.0952380952381","597.0952380952381","black","legacy","legacy","legacy","0","incongruent","uniform","1","undefined","1","s","62","0","0","0","0","62","0","62","0","0","0","62","62","62","62","62","Sat Sep 19 13:10:10 2020","1500","The main experiment item","yes","FlankerTask.osexp","/Applications/OpenSesame.app/Contents/Resources/share/opensesame_resources","no","mono","no","18","no","white","no","yes","768","legacy","62","62","/Users/tionnahough/Desktop/th-subject-2.csv","legacy","Lentiform Loewenfeld","3.3.3","0","s","h","NA","NA","NA","s","574","46900","NA","NA","NA","574","2","legacy","1024","2","48000","-16","experiment","HHSHH","2","even","166231","4802","51781","NA","NA","138488","4730","NA","NA","NA","NA","167426","168002","167310","167295","167426","Flanker Task","58","37617","63","yes","1024"
"92.1875","92.1875","597.484375","597.484375","black","legacy","legacy","legacy","0","congruent","uniform","1","undefined","1","h","63","0","0","0","0","63","0","63","0","0","0","63","63","63","63","63","Sat Sep 19 13:10:10 2020","1500","The main experiment item","yes","FlankerTask.osexp","/Applications/OpenSesame.app/Contents/Resources/share/opensesame_resources","no","mono","no","18","no","white","no","yes","768","legacy","63","63","/Users/tionnahough/Desktop/th-subject-2.csv","legacy","Lentiform Loewenfeld","3.3.3","0","h","h","NA","NA","NA","h","622","46900","NA","NA","NA","622","2","legacy","1024","2","48000","-16","experiment","HHHHH","2","even","168028","4802","51781","NA","NA","138488","4730","NA","NA","NA","NA","169219","169843","169106","169095","169219","Flanker Task","59","38239","64","yes","1024"
"92.3076923076923","92.3076923076923","597.2153846153847","597.2153846153847","black","legacy","legacy","legacy","0","congruent","uniform","1","undefined","1","h","64","0","0","0","0","64","0","64","0","0","0","64","64","64","64","64","Sat Sep 19 13:10:10 2020","1500","The main experiment item","yes","FlankerTask.osexp","/Applications/OpenSesame.app/Contents/Resources/share/opensesame_resources","no","mono","no","18","no","white","no","yes","768","legacy","64","64","/Users/tionnahough/Desktop/th-subject-2.csv","legacy","Lentiform Loewenfeld","3.3.3","0","h","h","NA","NA","NA","h","580","46900","NA","NA","NA","580","2","legacy","1024","2","48000","-16","experiment","HHHHH","2","even","169856","4802","51781","NA","NA","138488","4730","NA","NA","NA","NA","171045","171627","170932","170920","171044","Flanker Task","60","38819","65","yes","1024"
"92.42424242424242","92.42424242424242","596.469696969697","596.469696969697","black","legacy","legacy","legacy","0","incongruent","uniform","1","undefined","1","h","65","0","0","0","0","65","0","65","0","0","0","65","65","65","65","65","Sat Sep 19 13:10:10 2020","1500","The main experiment item","yes","FlankerTask.osexp","/Applications/OpenSesame.app/Contents/Resources/share/opensesame_resources","no","mono","no","18","no","white","no","yes","768","legacy","65","65","/Users/tionnahough/Desktop/th-subject-2.csv","legacy","Lentiform Loewenfeld","3.3.3","0","h","h","NA","NA","NA","h","548","46900","NA","NA","NA","548","2","legacy","1024","2","48000","-16","experiment","SSHSS","2","even","171640","4802","51781","NA","NA","138488","4730","NA","NA","NA","NA","172828","173378","172716","172705","172828","Flanker Task","61","39367","66","yes","1024"
"92.53731343283582","92.53731343283582","596.4029850746268","596.4029850746268","black","legacy","legacy","legacy","0","incongruent","uniform","1","undefined","1","s","66","0","0","0","0","66","0","66","0","0","0","66","66","66","66","66","Sat Sep 19 13:10:10 2020","1500","The main experiment item","yes","FlankerTask.osexp","/Applications/OpenSesame.app/Contents/Resources/share/opensesame_resources","no","mono","no","18","no","white","no","yes","768","legacy","66","66","/Users/tionnahough/Desktop/th-subject-2.csv","legacy","Lentiform Loewenfeld","3.3.3","0","s","h","NA","NA","NA","s","592","46900","NA","NA","NA","592","2","legacy","1024","2","48000","-16","experiment","HHSHH","2","even","173402","4802","51781","NA","NA","138488","4730","NA","NA","NA","NA","174591","175187","174478","174466","174591","Flanker Task","62","39959","67","yes","1024"
"92.6470588235294","92.6470588235294","595.0735294117648","595.0735294117648","black","legacy","legacy","legacy","0","congruent","uniform","1","undefined","1","s","67","0","0","0","0","67","0","67","0","0","0","67","67","67","67","67","Sat Sep 19 13:10:10 2020","1500","The main experiment item","yes","FlankerTask.osexp","/Applications/OpenSesame.app/Contents/Resources/share/opensesame_resources","no","mono","no","18","no","white","no","yes","768","legacy","67","67","/Users/tionnahough/Desktop/th-subject-2.csv","legacy","Lentiform Loewenfeld","3.3.3","0","s","h","NA","NA","NA","s","506","46900","NA","NA","NA","506","2","legacy","1024","2","48000","-16","experiment","SSSSS","2","even","175248","4802","51781","NA","NA","138488","4730","NA","NA","NA","NA","176889","177405","176740","176704","176889","Flanker Task","63","40465","68","yes","1024"
"92.7536231884058","92.7536231884058","594.4202898550725","594.4202898550725","black","legacy","legacy","legacy","0","congruent","uniform","1","undefined","1","s","68","0","0","0","0","68","0","68","0","0","0","68","68","68","68","68","Sat Sep 19 13:10:10 2020","1500","The main experiment item","yes","FlankerTask.osexp","/Applications/OpenSesame.app/Contents/Resources/share/opensesame_resources","no","mono","no","18","no","white","no","yes","768","legacy","68","68","/Users/tionnahough/Desktop/th-subject-2.csv","legacy","Lentiform Loewenfeld","3.3.3","0","s","h","NA","NA","NA","s","550","46900","NA","NA","NA","550","2","legacy","1024","2","48000","-16","experiment","SSSSS","2","even","177423","4802","51781","NA","NA","138488","4730","NA","NA","NA","NA","178909","179463","178796","178773","178909","Flanker Task","64","41015","69","yes","1024"
"92.85714285714286","92.85714285714286","593.3285714285714","593.3285714285714","black","legacy","legacy","legacy","0","congruent","uniform","1","undefined","1","h","69","0","0","0","0","69","0","69","0","0","0","69","69","69","69","69","Sat Sep 19 13:10:10 2020","1500","The main experiment item","yes","FlankerTask.osexp","/Applications/OpenSesame.app/Contents/Resources/share/opensesame_resources","no","mono","no","18","no","white","no","yes","768","legacy","69","69","/Users/tionnahough/Desktop/th-subject-2.csv","legacy","Lentiform Loewenfeld","3.3.3","0","h","h","NA","NA","NA","h","518","46900","NA","NA","NA","518","2","legacy","1024","2","48000","-16","experiment","HHHHH","2","even","179477","4802","51781","NA","NA","138488","4730","NA","NA","NA","NA","180682","181202","180570","180558","180682","Flanker Task","65","41533","70","yes","1024"
"92.95774647887323","92.95774647887323","592.943661971831","592.943661971831","black","legacy","legacy","legacy","0","incongruent","uniform","1","undefined","1","h","70","0","0","0","0","70","0","70","0","0","0","70","70","70","70","70","Sat Sep 19 13:10:10 2020","1500","The main experiment item","yes","FlankerTask.osexp","/Applications/OpenSesame.app/Contents/Resources/share/opensesame_resources","no","mono","no","18","no","white","no","yes","768","legacy","70","70","/Users/tionnahough/Desktop/th-subject-2.csv","legacy","Lentiform Loewenfeld","3.3.3","0","h","h","NA","NA","NA","h","566","46900","NA","NA","NA","566","2","legacy","1024","2","48000","-16","experiment","SSHSS","2","even","181224","4802","51781","NA","NA","138488","4730","NA","NA","NA","NA","182411","182979","182299","182288","182411","Flanker Task","66","42099","71","yes","1024"
"93.05555555555556","93.05555555555556","593.4444444444445","593.4444444444445","black","legacy","legacy","legacy","0","incongruent","uniform","1","undefined","1","h","71","0","0","0","0","71","0","71","0","0","0","71","71","71","71","71","Sat Sep 19 13:10:10 2020","1500","The main experiment item","yes","FlankerTask.osexp","/Applications/OpenSesame.app/Contents/Resources/share/opensesame_resources","no","mono","no","18","no","white","no","yes","768","legacy","71","71","/Users/tionnahough/Desktop/th-subject-2.csv","legacy","Lentiform Loewenfeld","3.3.3","0","h","h","NA","NA","NA","h","629","46900","NA","NA","NA","629","2","legacy","1024","2","48000","-16","experiment","SSHSS","2","even","182992","4802","51781","NA","NA","138488","4730","NA","NA","NA","NA","184260","184891","184148","184135","184260","Flanker Task","67","42728","72","yes","1024"
"93.15068493150685","93.15068493150685","595.3561643835617","595.3561643835617","black","legacy","legacy","legacy","0","incongruent","uniform","1","undefined","1","s","72","0","0","0","0","72","0","72","0","0","0","72","72","72","72","72","Sat Sep 19 13:10:10 2020","1500","The main experiment item","yes","FlankerTask.osexp","/Applications/OpenSesame.app/Contents/Resources/share/opensesame_resources","no","mono","no","18","no","white","no","yes","768","legacy","72","72","/Users/tionnahough/Desktop/th-subject-2.csv","legacy","Lentiform Loewenfeld","3.3.3","0","s","h","NA","NA","NA","s","733","46900","NA","NA","NA","733","2","legacy","1024","2","48000","-16","experiment","HHSHH","2","even","184924","4802","51781","NA","NA","138488","4730","NA","NA","NA","NA","186156","186892","186037","186024","186156","Flanker Task","68","43461","73","yes","1024"
"93.24324324324324","93.24324324324324","594.7027027027027","594.7027027027027","black","legacy","legacy","legacy","0","congruent","uniform","1","undefined","1","h","73","0","0","0","0","73","0","73","0","0","0","73","73","73","73","73","Sat Sep 19 13:10:10 2020","1500","The main experiment item","yes","FlankerTask.osexp","/Applications/OpenSesame.app/Contents/Resources/share/opensesame_resources","no","mono","no","18","no","white","no","yes","768","legacy","73","73","/Users/tionnahough/Desktop/th-subject-2.csv","legacy","Lentiform Loewenfeld","3.3.3","0","h","h","NA","NA","NA","h","547","46900","NA","NA","NA","547","2","legacy","1024","2","48000","-16","experiment","HHHHH","2","even","186916","4802","51781","NA","NA","138488","4730","NA","NA","NA","NA","188198","188747","188087","188073","188198","Flanker Task","69","44008","74","yes","1024"
"93.33333333333333","93.33333333333333","595.52","595.52","black","legacy","legacy","legacy","0","incongruent","uniform","1","undefined","1","s","74","0","0","0","0","74","0","74","0","0","0","74","74","74","74","74","Sat Sep 19 13:10:10 2020","1500","The main experiment item","yes","FlankerTask.osexp","/Applications/OpenSesame.app/Contents/Resources/share/opensesame_resources","no","mono","no","18","no","white","no","yes","768","legacy","74","74","/Users/tionnahough/Desktop/th-subject-2.csv","legacy","Lentiform Loewenfeld","3.3.3","0","s","h","NA","NA","NA","s","656","46900","NA","NA","NA","656","2","legacy","1024","2","48000","-16","experiment","HHSHH","2","even","188769","4802","51781","NA","NA","138488","4730","NA","NA","NA","NA","189985","190643","189861","189847","189985","Flanker Task","70","44664","75","yes","1024"
"93.42105263157895","93.42105263157895","594.3026315789474","594.3026315789474","black","legacy","legacy","legacy","0","incongruent","uniform","1","undefined","1","s","75","0","0","0","0","75","0","75","0","0","0","75","75","75","75","75","Sat Sep 19 13:10:10 2020","1500","The main experiment item","yes","FlankerTask.osexp","/Applications/OpenSesame.app/Contents/Resources/share/opensesame_resources","no","mono","no","18","no","white","no","yes","768","legacy","75","75","/Users/tionnahough/Desktop/th-subject-2.csv","legacy","Lentiform Loewenfeld","3.3.3","0","s","h","NA","NA","NA","s","503","46900","NA","NA","NA","503","2","legacy","1024","2","48000","-16","experiment","HHSHH","2","even","190669","4802","51781","NA","NA","138488","4730","NA","NA","NA","NA","191857","192362","191746","191734","191857","Flanker Task","71","45167","76","yes","1024"
"93.50649350649351","93.50649350649351","593.2987012987013","593.2987012987013","black","legacy","legacy","legacy","0","incongruent","uniform","1","undefined","1","h","76","0","0","0","0","76","0","76","0","0","0","76","76","76","76","76","Sat Sep 19 13:10:10 2020","1500","The main experiment item","yes","FlankerTask.osexp","/Applications/OpenSesame.app/Contents/Resources/share/opensesame_resources","no","mono","no","18","no","white","no","yes","768","legacy","76","76","/Users/tionnahough/Desktop/th-subject-2.csv","legacy","Lentiform Loewenfeld","3.3.3","0","h","h","NA","NA","NA","h","517","46900","NA","NA","NA","517","2","legacy","1024","2","48000","-16","experiment","SSHSS","2","even","192382","4802","51781","NA","NA","138488","4730","NA","NA","NA","NA","193579","194098","193466","193455","193579","Flanker Task","72","45684","77","yes","1024"
"93.58974358974359","93.58974358974359","591.6153846153846","591.6153846153846","black","legacy","legacy","legacy","0","congruent","uniform","1","undefined","1","h","77","0","0","0","0","77","0","77","0","0","0","77","77","77","77","77","Sat Sep 19 13:10:10 2020","1500","The main experiment item","yes","FlankerTask.osexp","/Applications/OpenSesame.app/Contents/Resources/share/opensesame_resources","no","mono","no","18","no","white","no","yes","768","legacy","77","77","/Users/tionnahough/Desktop/th-subject-2.csv","legacy","Lentiform Loewenfeld","3.3.3","0","h","h","NA","NA","NA","h","462","46900","NA","NA","NA","462","2","legacy","1024","2","48000","-16","experiment","HHHHH","2","even","194114","4802","51781","NA","NA","138488","4730","NA","NA","NA","NA","195307","195772","195189","195176","195307","Flanker Task","73","46146","78","yes","1024"
"93.67088607594937","93.67088607594937","591.632911392405","591.632911392405","black","legacy","legacy","legacy","0","incongruent","uniform","1","undefined","1","s","78","0","0","0","0","78","0","78","0","0","0","78","78","78","78","78","Sat Sep 19 13:10:10 2020","1500","The main experiment item","yes","FlankerTask.osexp","/Applications/OpenSesame.app/Contents/Resources/share/opensesame_resources","no","mono","no","18","no","white","no","yes","768","legacy","78","78","/Users/tionnahough/Desktop/th-subject-2.csv","legacy","Lentiform Loewenfeld","3.3.3","0","s","h","NA","NA","NA","s","593","46900","NA","NA","NA","593","2","legacy","1024","2","48000","-16","experiment","HHSHH","2","even","195793","4802","51781","NA","NA","138488","4730","NA","NA","NA","NA","197008","197603","196893","196878","197008","Flanker Task","74","46739","79","yes","1024"
"93.75","93.75","591.2625","591.2625","black","legacy","legacy","legacy","0","congruent","uniform","1","undefined","1","s","79","0","0","0","0","79","0","79","0","0","0","79","79","79","79","79","Sat Sep 19 13:10:10 2020","1500","The main experiment item","yes","FlankerTask.osexp","/Applications/OpenSesame.app/Contents/Resources/share/opensesame_resources","no","mono","no","18","no","white","no","yes","768","legacy","79","79","/Users/tionnahough/Desktop/th-subject-2.csv","legacy","Lentiform Loewenfeld","3.3.3","0","s","h","NA","NA","NA","s","562","46900","NA","NA","NA","562","2","legacy","1024","2","48000","-16","experiment","SSSSS","2","even","197626","4802","51781","NA","NA","138488","4730","NA","NA","NA","NA","198847","199418","198732","198720","198846","Flanker Task","75","47301","80","yes","1024"
"92.5925925925926","92.5925925925926","589.6543209876543","589.6543209876543","black","legacy","legacy","legacy","0","incongruent","uniform","0","undefined","0","h","80","0","0","0","0","80","0","80","0","0","0","80","80","80","80","80","Sat Sep 19 13:10:10 2020","600","The main experiment item","yes","FlankerTask.osexp","/Applications/OpenSesame.app/Contents/Resources/share/opensesame_resources","no","mono","no","18","no","white","no","yes","768","legacy","0","79","/Users/tionnahough/Desktop/th-subject-2.csv","legacy","Lentiform Loewenfeld","3.3.3","0","s","h","NA","s","NA","s","461","46900","NA","27525","NA","461","2","legacy","1024","2","48000","-16","experiment","SSHSS","2","even","199443","4802","51781","228028","NA","138488","4730","NA","NA","200494","NA","228246","228709","228134","228119","228246","Flanker Task","75","47762","81","yes","1024"
"91.46341463414635","91.46341463414635","589.2682926829268","589.2682926829268","black","legacy","legacy","legacy","0","incongruent","uniform","0","undefined","0","s","81","0","0","0","0","81","0","81","0","0","0","81","81","81","81","81","Sat Sep 19 13:10:10 2020","600","The main experiment item","yes","FlankerTask.osexp","/Applications/OpenSesame.app/Contents/Resources/share/opensesame_resources","no","mono","no","18","no","white","no","yes","768","legacy","1","79","/Users/tionnahough/Desktop/th-subject-2.csv","legacy","Lentiform Loewenfeld","3.3.3","0","h","h","NA","s","NA","h","558","46900","NA","27525","NA","558","2","legacy","1024","2","48000","-16","experiment","HHSHH","2","even","229248","4802","51781","228028","NA","228732","4730","NA","NA","200494","NA","230572","231132","230459","230445","230572","Flanker Task","75","48320","82","yes","1024"
"91.56626506024097","91.56626506024097","588.5060240963855","588.5060240963855","black","legacy","legacy","legacy","0","congruent","uniform","1","undefined","1","s","82","0","0","0","0","82","0","82","0","0","0","82","82","82","82","82","Sat Sep 19 13:10:10 2020","600","The main experiment item","yes","FlankerTask.osexp","/Applications/OpenSesame.app/Contents/Resources/share/opensesame_resources","no","mono","no","18","no","white","no","yes","768","legacy","2","79","/Users/tionnahough/Desktop/th-subject-2.csv","legacy","Lentiform Loewenfeld","3.3.3","0","s","h","NA","s","NA","s","526","46900","NA","27525","NA","526","2","legacy","1024","2","48000","-16","experiment","SSSSS","2","even","231658","4802","51781","228028","NA","231146","4730","NA","NA","200494","NA","232852","233380","232740","232724","232852","Flanker Task","76","48846","83","yes","1024"
"91.66666666666667","91.66666666666667","587.1904761904761","587.1904761904761","black","legacy","legacy","legacy","0","incongruent","uniform","1","undefined","1","h","83","0","0","0","0","83","0","83","0","0","0","83","83","83","83","83","Sat Sep 19 13:10:10 2020","600","The main experiment item","yes","FlankerTask.osexp","/Applications/OpenSesame.app/Contents/Resources/share/opensesame_resources","no","mono","no","18","no","white","no","yes","768","legacy","3","79","/Users/tionnahough/Desktop/th-subject-2.csv","legacy","Lentiform Loewenfeld","3.3.3","0","h","h","NA","s","NA","h","478","46900","NA","27525","NA","478","2","legacy","1024","2","48000","-16","experiment","SSHSS","2","even","233404","4802","51781","228028","NA","231146","4730","NA","NA","200494","NA","234605","235086","234491","234478","234605","Flanker Task","77","49324","84","yes","1024"
"91.76470588235294","91.76470588235294","586.7294117647059","586.7294117647059","black","legacy","legacy","legacy","0","congruent","uniform","1","undefined","1","s","84","0","0","0","0","84","0","84","0","0","0","84","84","84","84","84","Sat Sep 19 13:10:10 2020","600","The main experiment item","yes","FlankerTask.osexp","/Applications/OpenSesame.app/Contents/Resources/share/opensesame_resources","no","mono","no","18","no","white","no","yes","768","legacy","4","79","/Users/tionnahough/Desktop/th-subject-2.csv","legacy","Lentiform Loewenfeld","3.3.3","0","s","h","NA","s","NA","s","548","46900","NA","27525","NA","548","2","legacy","1024","2","48000","-16","experiment","SSSSS","2","even","235113","4802","51781","228028","NA","231146","4730","NA","NA","200494","NA","236303","236854","236191","236176","236303","Flanker Task","78","49872","85","yes","1024"
"91.86046511627907","91.86046511627907","586.3488372093024","586.3488372093024","black","legacy","legacy","legacy","0","congruent","uniform","1","undefined","1","h","85","0","0","0","0","85","0","85","0","0","0","85","85","85","85","85","Sat Sep 19 13:10:10 2020","600","The main experiment item","yes","FlankerTask.osexp","/Applications/OpenSesame.app/Contents/Resources/share/opensesame_resources","no","mono","no","18","no","white","no","yes","768","legacy","5","79","/Users/tionnahough/Desktop/th-subject-2.csv","legacy","Lentiform Loewenfeld","3.3.3","0","h","h","NA","s","NA","h","554","46900","NA","27525","NA","554","2","legacy","1024","2","48000","-16","experiment","HHHHH","2","even","236884","4802","51781","228028","NA","231146","4730","NA","NA","200494","NA","238089","238645","237975","237952","238089","Flanker Task","79","50426","86","yes","1024"
"91.95402298850574","91.95402298850574","586.6666666666666","586.6666666666666","black","legacy","legacy","legacy","0","incongruent","uniform","1","undefined","1","s","86","0","0","0","0","86","0","86","0","0","0","86","86","86","86","86","Sat Sep 19 13:10:10 2020","600","The main experiment item","yes","FlankerTask.osexp","/Applications/OpenSesame.app/Contents/Resources/share/opensesame_resources","no","mono","no","18","no","white","no","yes","768","legacy","6","79","/Users/tionnahough/Desktop/th-subject-2.csv","legacy","Lentiform Loewenfeld","3.3.3","0","s","h","NA","s","NA","s","614","46900","NA","27525","NA","614","2","legacy","1024","2","48000","-16","experiment","HHSHH","2","even","238658","4802","51781","228028","NA","231146","4730","NA","NA","200494","NA","239877","240494","239761","239745","239877","Flanker Task","80","51040","87","yes","1024"
"92.04545454545455","92.04545454545455","585.0113636363636","585.0113636363636","black","legacy","legacy","legacy","0","incongruent","uniform","1","undefined","1","h","87","0","0","0","0","87","0","87","0","0","0","87","87","87","87","87","Sat Sep 19 13:10:10 2020","600","The main experiment item","yes","FlankerTask.osexp","/Applications/OpenSesame.app/Contents/Resources/share/opensesame_resources","no","mono","no","18","no","white","no","yes","768","legacy","7","79","/Users/tionnahough/Desktop/th-subject-2.csv","legacy","Lentiform Loewenfeld","3.3.3","0","h","h","NA","s","NA","h","441","46900","NA","27525","NA","441","2","legacy","1024","2","48000","-16","experiment","SSHSS","2","even","241034","4802","51781","228028","NA","231146","4730","240508","NA","200494","NA","242242","242686","242121","242105","242242","Flanker Task","81","51481","88","yes","1024"
"92.13483146067416","92.13483146067416","582.685393258427","582.685393258427","black","legacy","legacy","legacy","0","congruent","uniform","1","undefined","1","s","88","0","0","0","0","88","0","88","0","0","0","88","88","88","88","88","Sat Sep 19 13:10:10 2020","600","The main experiment item","yes","FlankerTask.osexp","/Applications/OpenSesame.app/Contents/Resources/share/opensesame_resources","no","mono","no","18","no","white","no","yes","768","legacy","8","79","/Users/tionnahough/Desktop/th-subject-2.csv","legacy","Lentiform Loewenfeld","3.3.3","0","s","h","NA","s","NA","s","378","46900","NA","27525","NA","378","2","legacy","1024","2","48000","-16","experiment","SSSSS","2","even","242703","4802","51781","228028","NA","231146","4730","240508","NA","200494","NA","243896","244276","243783","243769","243896","Flanker Task","82","51859","89","yes","1024"
"92.22222222222223","92.22222222222223","582.0555555555555","582.0555555555555","black","legacy","legacy","legacy","0","incongruent","uniform","1","undefined","1","h","89","0","0","0","0","89","0","89","0","0","0","89","89","89","89","89","Sat Sep 19 13:10:10 2020","600","The main experiment item","yes","FlankerTask.osexp","/Applications/OpenSesame.app/Contents/Resources/share/opensesame_resources","no","mono","no","18","no","white","no","yes","768","legacy","9","79","/Users/tionnahough/Desktop/th-subject-2.csv","legacy","Lentiform Loewenfeld","3.3.3","0","h","h","NA","s","NA","h","526","46900","NA","27525","NA","526","2","legacy","1024","2","48000","-16","experiment","SSHSS","2","even","244299","4802","51781","228028","NA","231146","4730","240508","NA","200494","NA","245484","246012","245373","245362","245484","Flanker Task","83","52385","90","yes","1024"
"92.3076923076923","92.3076923076923","581.2527472527472","581.2527472527472","black","legacy","legacy","legacy","0","incongruent","uniform","1","undefined","1","h","90","0","0","0","0","90","0","90","0","0","0","90","90","90","90","90","Sat Sep 19 13:10:10 2020","600","The main experiment item","yes","FlankerTask.osexp","/Applications/OpenSesame.app/Contents/Resources/share/opensesame_resources","no","mono","no","18","no","white","no","yes","768","legacy","10","79","/Users/tionnahough/Desktop/th-subject-2.csv","legacy","Lentiform Loewenfeld","3.3.3","0","h","h","NA","s","NA","h","509","46900","NA","27525","NA","509","2","legacy","1024","2","48000","-16","experiment","SSHSS","2","even","246032","4802","51781","228028","NA","231146","4730","240508","NA","200494","NA","247246","247757","247133","247119","247246","Flanker Task","84","52894","91","yes","1024"
"92.3913043478261","92.3913043478261","580.554347826087","580.554347826087","black","legacy","legacy","legacy","0","incongruent","uniform","1","undefined","1","h","91","0","0","0","0","91","0","91","0","0","0","91","91","91","91","91","Sat Sep 19 13:10:10 2020","600","The main experiment item","yes","FlankerTask.osexp","/Applications/OpenSesame.app/Contents/Resources/share/opensesame_resources","no","mono","no","18","no","white","no","yes","768","legacy","11","79","/Users/tionnahough/Desktop/th-subject-2.csv","legacy","Lentiform Loewenfeld","3.3.3","0","h","h","NA","s","NA","h","517","46900","NA","27525","NA","517","2","legacy","1024","2","48000","-16","experiment","SSHSS","2","even","247771","4802","51781","228028","NA","231146","4730","240508","NA","200494","NA","248957","249476","248845","248834","248957","Flanker Task","85","53411","92","yes","1024"
"92.47311827956989","92.47311827956989","577.4731182795699","577.4731182795699","black","legacy","legacy","legacy","0","congruent","uniform","1","undefined","1","s","92","0","0","0","0","92","0","92","0","0","0","92","92","92","92","92","Sat Sep 19 13:10:10 2020","600","The main experiment item","yes","FlankerTask.osexp","/Applications/OpenSesame.app/Contents/Resources/share/opensesame_resources","no","mono","no","18","no","white","no","yes","768","legacy","12","79","/Users/tionnahough/Desktop/th-subject-2.csv","legacy","Lentiform Loewenfeld","3.3.3","0","s","h","NA","s","NA","s","294","46900","NA","27525","NA","294","2","legacy","1024","2","48000","-16","experiment","SSSSS","2","even","249498","4802","51781","228028","NA","231146","4730","240508","NA","200494","NA","250685","250981","250573","250561","250685","Flanker Task","86","53705","93","yes","1024"
"91.48936170212765","91.48936170212765","575.936170212766","575.936170212766","black","legacy","legacy","legacy","0","incongruent","uniform","0","undefined","0","s","93","0","0","0","0","93","0","93","0","0","0","93","93","93","93","93","Sat Sep 19 13:10:10 2020","600","The main experiment item","yes","FlankerTask.osexp","/Applications/OpenSesame.app/Contents/Resources/share/opensesame_resources","no","mono","no","18","no","white","no","yes","768","legacy","13","79","/Users/tionnahough/Desktop/th-subject-2.csv","legacy","Lentiform Loewenfeld","3.3.3","0","h","h","NA","s","NA","h","433","46900","NA","27525","NA","433","2","legacy","1024","2","48000","-16","experiment","HHSHH","2","even","251002","4802","51781","228028","NA","231146","4730","240508","NA","200494","NA","252194","252629","252082","252066","252194","Flanker Task","86","54138","94","yes","1024"
"91.57894736842105","91.57894736842105","574.4105263157895","574.4105263157895","black","legacy","legacy","legacy","0","congruent","uniform","1","undefined","1","s","94","0","0","0","0","94","0","94","0","0","0","94","94","94","94","94","Sat Sep 19 13:10:10 2020","600","The main experiment item","yes","FlankerTask.osexp","/Applications/OpenSesame.app/Contents/Resources/share/opensesame_resources","no","mono","no","18","no","white","no","yes","768","legacy","14","79","/Users/tionnahough/Desktop/th-subject-2.csv","legacy","Lentiform Loewenfeld","3.3.3","0","s","h","NA","s","NA","s","431","46900","NA","27525","NA","431","2","legacy","1024","2","48000","-16","experiment","SSSSS","2","even","253168","4802","51781","228028","NA","252657","4730","240508","NA","200494","NA","254356","254789","254244","254233","254356","Flanker Task","87","54569","95","yes","1024"
"91.66666666666667","91.66666666666667","573.5520833333334","573.5520833333334","black","legacy","legacy","legacy","0","congruent","uniform","1","undefined","1","h","95","0","0","0","0","95","0","95","0","0","0","95","95","95","95","95","Sat Sep 19 13:10:10 2020","600","The main experiment item","yes","FlankerTask.osexp","/Applications/OpenSesame.app/Contents/Resources/share/opensesame_resources","no","mono","no","18","no","white","no","yes","768","legacy","15","79","/Users/tionnahough/Desktop/th-subject-2.csv","legacy","Lentiform Loewenfeld","3.3.3","0","h","h","NA","s","NA","h","492","46900","NA","27525","NA","492","2","legacy","1024","2","48000","-16","experiment","HHHHH","2","even","254811","4802","51781","228028","NA","252657","4730","240508","NA","200494","NA","255999","256493","255887","255875","255999","Flanker Task","88","55061","96","yes","1024"
"91.75257731958763","91.75257731958763","571.4639175257732","571.4639175257732","black","legacy","legacy","legacy","0","congruent","uniform","1","undefined","1","s","96","0","0","0","0","96","0","96","0","0","0","96","96","96","96","96","Sat Sep 19 13:10:10 2020","600","The main experiment item","yes","FlankerTask.osexp","/Applications/OpenSesame.app/Contents/Resources/share/opensesame_resources","no","mono","no","18","no","white","no","yes","768","legacy","16","79","/Users/tionnahough/Desktop/th-subject-2.csv","legacy","Lentiform Loewenfeld","3.3.3","0","s","h","NA","s","NA","s","371","46900","NA","27525","NA","371","2","legacy","1024","2","48000","-16","experiment","SSSSS","2","even","256511","4802","51781","228028","NA","252657","4730","240508","NA","200494","NA","257712","258086","257596","257581","257712","Flanker Task","89","55432","97","yes","1024"
"91.83673469387755","91.83673469387755","571.4183673469388","571.4183673469388","black","legacy","legacy","legacy","0","incongruent","uniform","1","undefined","1","s","97","0","0","0","0","97","0","97","0","0","0","97","97","97","97","97","Sat Sep 19 13:10:10 2020","600","The main experiment item","yes","FlankerTask.osexp","/Applications/OpenSesame.app/Contents/Resources/share/opensesame_resources","no","mono","no","18","no","white","no","yes","768","legacy","17","79","/Users/tionnahough/Desktop/th-subject-2.csv","legacy","Lentiform Loewenfeld","3.3.3","0","s","h","NA","s","NA","s","567","46900","NA","27525","NA","567","2","legacy","1024","2","48000","-16","experiment","HHSHH","2","even","258102","4802","51781","228028","NA","252657","4730","240508","NA","200494","NA","259356","259925","259243","259198","259355","Flanker Task","90","55999","98","yes","1024"
"90.9090909090909","90.9090909090909","569.89898989899","569.89898989899","black","legacy","legacy","legacy","0","incongruent","uniform","0","undefined","0","h","98","0","0","0","0","98","0","98","0","0","0","98","98","98","98","98","Sat Sep 19 13:10:10 2020","600","The main experiment item","yes","FlankerTask.osexp","/Applications/OpenSesame.app/Contents/Resources/share/opensesame_resources","no","mono","no","18","no","white","no","yes","768","legacy","18","79","/Users/tionnahough/Desktop/th-subject-2.csv","legacy","Lentiform Loewenfeld","3.3.3","0","s","h","NA","s","NA","s","421","46900","NA","27525","NA","421","2","legacy","1024","2","48000","-16","experiment","SSHSS","2","even","259939","4802","51781","228028","NA","252657","4730","240508","NA","200494","NA","261126","261549","261013","261001","261126","Flanker Task","90","56420","99","yes","1024"
"90","90","567.82","567.82","black","legacy","legacy","legacy","0","incongruent","uniform","0","undefined","0","s","99","0","0","0","0","99","0","99","0","0","0","99","99","99","99","99","Sat Sep 19 13:10:10 2020","600","The main experiment item","yes","FlankerTask.osexp","/Applications/OpenSesame.app/Contents/Resources/share/opensesame_resources","no","mono","no","18","no","white","no","yes","768","legacy","19","79","/Users/tionnahough/Desktop/th-subject-2.csv","legacy","Lentiform Loewenfeld","3.3.3","0","h","h","NA","s","NA","h","362","46900","NA","27525","NA","362","2","legacy","1024","2","48000","-16","experiment","HHSHH","2","even","262086","4802","51781","228028","NA","261570","4730","240508","NA","200494","NA","263273","263637","263161","263148","263273","Flanker Task","90","56782","100","yes","1024"
"90.0990099009901","90.0990099009901","566.6534653465346","566.6534653465346","black","legacy","legacy","legacy","0","congruent","uniform","1","undefined","1","s","100","0","0","0","0","100","0","100","0","0","0","100","100","100","100","100","Sat Sep 19 13:10:10 2020","600","The main experiment item","yes","FlankerTask.osexp","/Applications/OpenSesame.app/Contents/Resources/share/opensesame_resources","no","mono","no","18","no","white","no","yes","768","legacy","20","79","/Users/tionnahough/Desktop/th-subject-2.csv","legacy","Lentiform Loewenfeld","3.3.3","0","s","h","NA","s","NA","s","450","46900","NA","27525","NA","450","2","legacy","1024","2","48000","-16","experiment","SSSSS","2","even","264171","4802","51781","228028","NA","263660","4730","240508","NA","200494","NA","265361","265813","265246","265233","265360","Flanker Task","91","57232","101","yes","1024"
"90.19607843137256","90.19607843137256","566.6274509803922","566.6274509803922","black","legacy","legacy","legacy","0","incongruent","uniform","1","undefined","1","s","101","0","0","0","0","101","0","101","0","0","0","101","101","101","101","101","Sat Sep 19 13:10:10 2020","600","The main experiment item","yes","FlankerTask.osexp","/Applications/OpenSesame.app/Contents/Resources/share/opensesame_resources","no","mono","no","18","no","white","no","yes","768","legacy","21","79","/Users/tionnahough/Desktop/th-subject-2.csv","legacy","Lentiform Loewenfeld","3.3.3","0","s","h","NA","s","NA","s","564","46900","NA","27525","NA","564","2","legacy","1024","2","48000","-16","experiment","HHSHH","2","even","265826","4802","51781","228028","NA","263660","4730","240508","NA","200494","NA","267015","267582","266904","266892","267015","Flanker Task","92","57796","102","yes","1024"
"90.29126213592232","90.29126213592232","564.9611650485436","564.9611650485436","black","legacy","legacy","legacy","0","congruent","uniform","1","undefined","1","h","102","0","0","0","0","102","0","102","0","0","0","102","102","102","102","102","Sat Sep 19 13:10:10 2020","600","The main experiment item","yes","FlankerTask.osexp","/Applications/OpenSesame.app/Contents/Resources/share/opensesame_resources","no","mono","no","18","no","white","no","yes","768","legacy","22","79","/Users/tionnahough/Desktop/th-subject-2.csv","legacy","Lentiform Loewenfeld","3.3.3","0","h","h","NA","s","NA","h","395","46900","NA","27525","NA","395","2","legacy","1024","2","48000","-16","experiment","HHHHH","2","even","267600","4802","51781","228028","NA","263660","4730","240508","NA","200494","NA","268815","269214","268696","268675","268815","Flanker Task","93","58191","103","yes","1024"
"90.38461538461539","90.38461538461539","564.2115384615385","564.2115384615385","black","legacy","legacy","legacy","0","incongruent","uniform","1","undefined","1","s","103","0","0","0","0","103","0","103","0","0","0","103","103","103","103","103","Sat Sep 19 13:10:10 2020","600","The main experiment item","yes","FlankerTask.osexp","/Applications/OpenSesame.app/Contents/Resources/share/opensesame_resources","no","mono","no","18","no","white","no","yes","768","legacy","23","79","/Users/tionnahough/Desktop/th-subject-2.csv","legacy","Lentiform Loewenfeld","3.3.3","0","s","h","NA","s","NA","s","487","46900","NA","27525","NA","487","2","legacy","1024","2","48000","-16","experiment","HHSHH","2","even","269231","4802","51781","228028","NA","263660","4730","240508","NA","200494","NA","270460","270950","270345","270326","270459","Flanker Task","94","58678","104","yes","1024"
"90.47619047619048","90.47619047619048","562.5428571428571","562.5428571428571","black","legacy","legacy","legacy","0","congruent","uniform","1","undefined","1","s","104","0","0","0","0","104","0","104","0","0","0","104","104","104","104","104","Sat Sep 19 13:10:10 2020","600","The main experiment item","yes","FlankerTask.osexp","/Applications/OpenSesame.app/Contents/Resources/share/opensesame_resources","no","mono","no","18","no","white","no","yes","768","legacy","24","79","/Users/tionnahough/Desktop/th-subject-2.csv","legacy","Lentiform Loewenfeld","3.3.3","0","s","h","NA","s","NA","s","389","46900","NA","27525","NA","389","2","legacy","1024","2","48000","-16","experiment","SSSSS","2","even","270974","4802","51781","228028","NA","263660","4730","240508","NA","200494","NA","272166","272557","272055","272038","272166","Flanker Task","95","59067","105","yes","1024"
"90.56603773584905","90.56603773584905","561.2075471698113","561.2075471698113","black","legacy","legacy","legacy","0","incongruent","uniform","1","undefined","1","h","105","0","0","0","0","105","0","105","0","0","0","105","105","105","105","105","Sat Sep 19 13:10:10 2020","600","The main experiment item","yes","FlankerTask.osexp","/Applications/OpenSesame.app/Contents/Resources/share/opensesame_resources","no","mono","no","18","no","white","no","yes","768","legacy","25","79","/Users/tionnahough/Desktop/th-subject-2.csv","legacy","Lentiform Loewenfeld","3.3.3","0","h","h","NA","s","NA","h","421","46900","NA","27525","NA","421","2","legacy","1024","2","48000","-16","experiment","SSHSS","2","even","272570","4802","51781","228028","NA","263660","4730","240508","NA","200494","NA","273757","274180","273644","273633","273756","Flanker Task","96","59488","106","yes","1024"
"90.65420560747664","90.65420560747664","560.392523364486","560.392523364486","black","legacy","legacy","legacy","0","congruent","uniform","1","undefined","1","s","106","0","0","0","0","106","0","106","0","0","0","106","106","106","106","106","Sat Sep 19 13:10:10 2020","600","The main experiment item","yes","FlankerTask.osexp","/Applications/OpenSesame.app/Contents/Resources/share/opensesame_resources","no","mono","no","18","no","white","no","yes","768","legacy","26","79","/Users/tionnahough/Desktop/th-subject-2.csv","legacy","Lentiform Loewenfeld","3.3.3","0","s","h","NA","s","NA","s","474","46900","NA","27525","NA","474","2","legacy","1024","2","48000","-16","experiment","SSSSS","2","even","274192","4802","51781","228028","NA","263660","4730","240508","NA","200494","NA","275393","275869","275282","275269","275393","Flanker Task","97","59962","107","yes","1024"
"90.74074074074075","90.74074074074075","558.7870370370371","558.7870370370371","black","legacy","legacy","legacy","0","congruent","uniform","1","undefined","1","h","107","0","0","0","0","107","0","107","0","0","0","107","107","107","107","107","Sat Sep 19 13:10:10 2020","600","The main experiment item","yes","FlankerTask.osexp","/Applications/OpenSesame.app/Contents/Resources/share/opensesame_resources","no","mono","no","18","no","white","no","yes","768","legacy","27","79","/Users/tionnahough/Desktop/th-subject-2.csv","legacy","Lentiform Loewenfeld","3.3.3","0","h","h","NA","s","NA","h","387","46900","NA","27525","NA","387","2","legacy","1024","2","48000","-16","experiment","HHHHH","2","even","275892","4802","51781","228028","NA","263660","4730","240508","NA","200494","NA","277079","277468","276968","276956","277079","Flanker Task","98","60349","108","yes","1024"
"89.90825688073394","89.90825688073394","557.0917431192661","557.0917431192661","black","legacy","legacy","legacy","0","incongruent","uniform","0","undefined","0","h","108","0","0","0","0","108","0","108","0","0","0","108","108","108","108","108","Sat Sep 19 13:10:10 2020","600","The main experiment item","yes","FlankerTask.osexp","/Applications/OpenSesame.app/Contents/Resources/share/opensesame_resources","no","mono","no","18","no","white","no","yes","768","legacy","28","79","/Users/tionnahough/Desktop/th-subject-2.csv","legacy","Lentiform Loewenfeld","3.3.3","0","s","h","NA","s","NA","s","374","46900","NA","27525","NA","374","2","legacy","1024","2","48000","-16","experiment","SSHSS","2","even","277490","4802","51781","228028","NA","263660","4730","240508","NA","200494","NA","278692","279068","278576","278563","278692","Flanker Task","98","60723","109","yes","1024"
"89.0909090909091","89.0909090909091","556.0636363636364","556.0636363636364","black","legacy","legacy","legacy","0","incongruent","uniform","0","undefined","0","s","109","0","0","0","0","109","0","109","0","0","0","109","109","109","109","109","Sat Sep 19 13:10:10 2020","600","The main experiment item","yes","FlankerTask.osexp","/Applications/OpenSesame.app/Contents/Resources/share/opensesame_resources","no","mono","no","18","no","white","no","yes","768","legacy","29","79","/Users/tionnahough/Desktop/th-subject-2.csv","legacy","Lentiform Loewenfeld","3.3.3","0","h","h","NA","s","NA","h","444","46900","NA","27525","NA","444","2","legacy","1024","2","48000","-16","experiment","HHSHH","2","even","279597","4802","51781","228028","NA","279085","4730","240508","NA","200494","NA","280814","281261","280701","280682","280813","Flanker Task","98","61167","110","yes","1024"
"89.1891891891892","89.1891891891892","555.6036036036036","555.6036036036036","black","legacy","legacy","legacy","0","congruent","uniform","1","undefined","1","h","110","0","0","0","0","110","0","110","0","0","0","110","110","110","110","110","Sat Sep 19 13:10:10 2020","600","The main experiment item","yes","FlankerTask.osexp","/Applications/OpenSesame.app/Contents/Resources/share/opensesame_resources","no","mono","no","18","no","white","no","yes","768","legacy","30","79","/Users/tionnahough/Desktop/th-subject-2.csv","legacy","Lentiform Loewenfeld","3.3.3","0","h","h","NA","s","NA","h","505","46900","NA","27525","NA","505","2","legacy","1024","2","48000","-16","experiment","HHHHH","2","even","281791","4802","51781","228028","NA","281278","4730","240508","NA","200494","NA","282994","283501","282880","282866","282994","Flanker Task","99","61672","111","yes","1024"
"89.28571428571429","89.28571428571429","554.3482142857143","554.3482142857143","black","legacy","legacy","legacy","0","congruent","uniform","1","undefined","1","h","111","0","0","0","0","111","0","111","0","0","0","111","111","111","111","111","Sat Sep 19 13:10:10 2020","600","The main experiment item","yes","FlankerTask.osexp","/Applications/OpenSesame.app/Contents/Resources/share/opensesame_resources","no","mono","no","18","no","white","no","yes","768","legacy","31","79","/Users/tionnahough/Desktop/th-subject-2.csv","legacy","Lentiform Loewenfeld","3.3.3","0","h","h","NA","s","NA","h","415","46900","NA","27525","NA","415","2","legacy","1024","2","48000","-16","experiment","HHHHH","2","even","283514","4802","51781","228028","NA","281278","4730","240508","NA","200494","NA","284884","285302","284762","284688","284883","Flanker Task","100","62087","112","yes","1024"
"89.38053097345133","89.38053097345133","552.9026548672566","552.9026548672566","black","legacy","legacy","legacy","0","congruent","uniform","1","undefined","1","s","112","0","0","0","0","112","0","112","0","0","0","112","112","112","112","112","Sat Sep 19 13:10:10 2020","600","The main experiment item","yes","FlankerTask.osexp","/Applications/OpenSesame.app/Contents/Resources/share/opensesame_resources","no","mono","no","18","no","white","no","yes","768","legacy","32","79","/Users/tionnahough/Desktop/th-subject-2.csv","legacy","Lentiform Loewenfeld","3.3.3","0","s","h","NA","s","NA","s","391","46900","NA","27525","NA","391","2","legacy","1024","2","48000","-16","experiment","SSSSS","2","even","285342","4802","51781","228028","NA","281278","4730","240508","NA","200494","NA","286580","286973","286466","286444","286580","Flanker Task","101","62478","113","yes","1024"
"88.59649122807018","88.59649122807018","551.7456140350877","551.7456140350877","black","legacy","legacy","legacy","0","incongruent","uniform","0","undefined","0","h","113","0","0","0","0","113","0","113","0","0","0","113","113","113","113","113","Sat Sep 19 13:10:10 2020","600","The main experiment item","yes","FlankerTask.osexp","/Applications/OpenSesame.app/Contents/Resources/share/opensesame_resources","no","mono","no","18","no","white","no","yes","768","legacy","33","79","/Users/tionnahough/Desktop/th-subject-2.csv","legacy","Lentiform Loewenfeld","3.3.3","0","s","h","NA","s","NA","s","421","46900","NA","27525","NA","421","2","legacy","1024","2","48000","-16","experiment","SSHSS","2","even","286986","4802","51781","228028","NA","281278","4730","240508","NA","200494","NA","288198","288621","288085","288067","288197","Flanker Task","101","62899","114","yes","1024"
"88.69565217391305","88.69565217391305","551.2","551.2","black","legacy","legacy","legacy","0","congruent","uniform","1","undefined","1","h","114","0","0","0","0","114","0","114","0","0","0","114","114","114","114","114","Sat Sep 19 13:10:10 2020","600","The main experiment item","yes","FlankerTask.osexp","/Applications/OpenSesame.app/Contents/Resources/share/opensesame_resources","no","mono","no","18","no","white","no","yes","768","legacy","34","79","/Users/tionnahough/Desktop/th-subject-2.csv","legacy","Lentiform Loewenfeld","3.3.3","0","h","h","NA","s","NA","h","489","46900","NA","27525","NA","489","2","legacy","1024","2","48000","-16","experiment","HHHHH","2","even","289156","4802","51781","228028","NA","288643","4730","240508","NA","200494","NA","290346","290837","290233","290220","290346","Flanker Task","102","63388","115","yes","1024"
