"acc","accuracy","average_response_time","avg_rt","background","canvas_backend","clock_backend","color_backend","compensation","condition","coordinates","correct","correct_Instructions1","correct_keyboard_response","correct_response","count_Finish","count_ISI","count_Instructions1","count_Instructions2","count_Instructions3","count_block1","count_block2","count_block3","count_errorFeedback","count_experiment","count_faster","count_fixation","count_keyboard_response","count_logger","count_sequence","count_stimulus","datetime","deadline","description","disable_garbage_collection","experiment_file","experiment_path","font_bold","font_family","font_italic","font_size","font_underline","foreground","form_clicks","fullscreen","height","keyboard_backend","live_row","live_row_block1","logfile","mouse_backend","opensesame_codename","opensesame_version","repeat_cycle","response","response_Finish","response_Instructions1","response_Instructions2","response_Instructions3","response_keyboard_response","response_time","response_time_Finish","response_time_Instructions1","response_time_Instructions2","response_time_Instructions3","response_time_keyboard_response","round_decimals","sampler_backend","sound_buf_size","sound_channels","sound_freq","sound_sample_size","start","stimulus","subject_nr","subject_parity","time_Finish","time_ISI","time_Instructions1","time_Instructions2","time_Instructions3","time_block1","time_block2","time_block3","time_errorFeedback","time_experiment","time_faster","time_fixation","time_keyboard_response","time_logger","time_sequence","time_stimulus","title","total_correct","total_response_time","total_responses","uniform_coordinates","width"
"100","100","865","865","black","legacy","legacy","legacy","0","incongruent","uniform","1","undefined","1","s","0","0","0","0","0","0","0","0","0","0","0","0","0","0","0","0","09/26/20 22:49:10","1500","The main experiment item","yes","FlankerTask.osexp","C:\Users\Jennifer Wright\Desktop\PSYC5613","no","mono","no","18","no","white","no","yes","768","legacy","0","0","C:/Users/Jennifer Wright/Desktop/PSYC5613/th-subject-4.csv","legacy","Lentiform Loewenfeld","3.3.3","0","s","NA","s","NA","NA","s","865","NA","232378","NA","NA","865","2","legacy","1024","2","48000","-16","experiment","HHSHH","4","even","NA","NA","6502","NA","NA","238883","NA","NA","NA","6493","NA","239747","239852","240718","239740","239852","Flanker Task","1","865","1","yes","1024"
"100","100","765.5","765.5","black","legacy","legacy","legacy","0","incongruent","uniform","1","undefined","1","s","0","1","0","0","0","0","0","0","1","0","1","1","1","1","1","1","09/26/20 22:49:10","1500","The main experiment item","yes","FlankerTask.osexp","C:\Users\Jennifer Wright\Desktop\PSYC5613","no","mono","no","18","no","white","no","yes","768","legacy","1","1","C:/Users/Jennifer Wright/Desktop/PSYC5613/th-subject-4.csv","legacy","Lentiform Loewenfeld","3.3.3","0","s","NA","s","NA","NA","s","666","NA","232378","NA","NA","666","2","legacy","1024","2","48000","-16","experiment","HHSHH","4","even","NA","240851","6502","NA","NA","238883","NA","NA","NA","6493","NA","242049","242155","242822","242042","242154","Flanker Task","2","1531","2","yes","1024"
"100","100","748.333333333","748.333333333","black","legacy","legacy","legacy","0","congruent","uniform","1","undefined","1","s","0","2","0","0","0","0","0","0","2","0","2","2","2","2","2","2","09/26/20 22:49:10","1500","The main experiment item","yes","FlankerTask.osexp","C:\Users\Jennifer Wright\Desktop\PSYC5613","no","mono","no","18","no","white","no","yes","768","legacy","2","2","C:/Users/Jennifer Wright/Desktop/PSYC5613/th-subject-4.csv","legacy","Lentiform Loewenfeld","3.3.3","0","s","NA","s","NA","NA","s","714","NA","232378","NA","NA","714","2","legacy","1024","2","48000","-16","experiment","SSSSS","4","even","NA","242867","6502","NA","NA","238883","NA","NA","NA","6493","NA","244070","244175","244891","244063","244175","Flanker Task","3","2245","3","yes","1024"
"100","100","703.25","703.25","black","legacy","legacy","legacy","0","incongruent","uniform","1","undefined","1","s","0","3","0","0","0","0","0","0","3","0","3","3","3","3","3","3","09/26/20 22:49:10","1500","The main experiment item","yes","FlankerTask.osexp","C:\Users\Jennifer Wright\Desktop\PSYC5613","no","mono","no","18","no","white","no","yes","768","legacy","3","3","C:/Users/Jennifer Wright/Desktop/PSYC5613/th-subject-4.csv","legacy","Lentiform Loewenfeld","3.3.3","0","s","NA","s","NA","NA","s","568","NA","232378","NA","NA","568","2","legacy","1024","2","48000","-16","experiment","HHSHH","4","even","NA","244937","6502","NA","NA","238883","NA","NA","NA","6493","NA","246130","246236","246805","246122","246236","Flanker Task","4","2813","4","yes","1024"
"100","100","686.8","686.8","black","legacy","legacy","legacy","0","incongruent","uniform","1","undefined","1","h","0","4","0","0","0","0","0","0","4","0","4","4","4","4","4","4","09/26/20 22:49:10","1500","The main experiment item","yes","FlankerTask.osexp","C:\Users\Jennifer Wright\Desktop\PSYC5613","no","mono","no","18","no","white","no","yes","768","legacy","4","4","C:/Users/Jennifer Wright/Desktop/PSYC5613/th-subject-4.csv","legacy","Lentiform Loewenfeld","3.3.3","0","h","NA","s","NA","NA","h","621","NA","232378","NA","NA","621","2","legacy","1024","2","48000","-16","experiment","SSHSS","4","even","NA","246883","6502","NA","NA","238883","NA","NA","NA","6493","NA","248071","248177","248799","248065","248176","Flanker Task","5","3434","5","yes","1024"
"100","100","661.833333333","661.833333333","black","legacy","legacy","legacy","0","incongruent","uniform","1","undefined","1","h","0","5","0","0","0","0","0","0","5","0","5","5","5","5","5","5","09/26/20 22:49:10","1500","The main experiment item","yes","FlankerTask.osexp","C:\Users\Jennifer Wright\Desktop\PSYC5613","no","mono","no","18","no","white","no","yes","768","legacy","5","5","C:/Users/Jennifer Wright/Desktop/PSYC5613/th-subject-4.csv","legacy","Lentiform Loewenfeld","3.3.3","0","h","NA","s","NA","NA","h","537","NA","232378","NA","NA","537","2","legacy","1024","2","48000","-16","experiment","SSHSS","4","even","NA","248854","6502","NA","NA","238883","NA","NA","NA","6493","NA","250043","250150","250688","250037","250149","Flanker Task","6","3971","6","yes","1024"
"100","100","625.142857143","625.142857143","black","legacy","legacy","legacy","0","incongruent","uniform","1","undefined","1","h","0","6","0","0","0","0","0","0","6","0","6","6","6","6","6","6","09/26/20 22:49:10","1500","The main experiment item","yes","FlankerTask.osexp","C:\Users\Jennifer Wright\Desktop\PSYC5613","no","mono","no","18","no","white","no","yes","768","legacy","6","6","C:/Users/Jennifer Wright/Desktop/PSYC5613/th-subject-4.csv","legacy","Lentiform Loewenfeld","3.3.3","0","h","NA","s","NA","NA","h","405","NA","232378","NA","NA","405","2","legacy","1024","2","48000","-16","experiment","SSHSS","4","even","NA","250725","6502","NA","NA","238883","NA","NA","NA","6493","NA","251921","252032","252439","251913","252032","Flanker Task","7","4376","7","yes","1024"
"100","100","605.875","605.875","black","legacy","legacy","legacy","0","incongruent","uniform","1","undefined","1","s","0","7","0","0","0","0","0","0","7","0","7","7","7","7","7","7","09/26/20 22:49:10","1500","The main experiment item","yes","FlankerTask.osexp","C:\Users\Jennifer Wright\Desktop\PSYC5613","no","mono","no","18","no","white","no","yes","768","legacy","7","7","C:/Users/Jennifer Wright/Desktop/PSYC5613/th-subject-4.csv","legacy","Lentiform Loewenfeld","3.3.3","0","s","NA","s","NA","NA","s","471","NA","232378","NA","NA","471","2","legacy","1024","2","48000","-16","experiment","HHSHH","4","even","NA","252531","6502","NA","NA","238883","NA","NA","NA","6493","NA","253724","253830","254303","253717","253829","Flanker Task","8","4847","8","yes","1024"
"100","100","586","586","black","legacy","legacy","legacy","0","congruent","uniform","1","undefined","1","h","0","8","0","0","0","0","0","0","8","0","8","8","8","8","8","8","09/26/20 22:49:10","1500","The main experiment item","yes","FlankerTask.osexp","C:\Users\Jennifer Wright\Desktop\PSYC5613","no","mono","no","18","no","white","no","yes","768","legacy","8","8","C:/Users/Jennifer Wright/Desktop/PSYC5613/th-subject-4.csv","legacy","Lentiform Loewenfeld","3.3.3","0","h","NA","s","NA","NA","h","427","NA","232378","NA","NA","427","2","legacy","1024","2","48000","-16","experiment","HHHHH","4","even","NA","254334","6502","NA","NA","238883","NA","NA","NA","6493","NA","255522","255628","256057","255516","255627","Flanker Task","9","5274","9","yes","1024"
"100","100","589.6","589.6","black","legacy","legacy","legacy","0","incongruent","uniform","1","undefined","1","h","0","9","0","0","0","0","0","0","9","0","9","9","9","9","9","9","09/26/20 22:49:10","1500","The main experiment item","yes","FlankerTask.osexp","C:\Users\Jennifer Wright\Desktop\PSYC5613","no","mono","no","18","no","white","no","yes","768","legacy","9","9","C:/Users/Jennifer Wright/Desktop/PSYC5613/th-subject-4.csv","legacy","Lentiform Loewenfeld","3.3.3","0","h","NA","s","NA","NA","h","622","NA","232378","NA","NA","622","2","legacy","1024","2","48000","-16","experiment","SSHSS","4","even","NA","256094","6502","NA","NA","238883","NA","NA","NA","6493","NA","257298","257405","258028","257291","257404","Flanker Task","10","5896","10","yes","1024"
"100","100","573.090909091","573.090909091","black","legacy","legacy","legacy","0","incongruent","uniform","1","undefined","1","h","0","10","0","0","0","0","0","0","10","0","10","10","10","10","10","10","09/26/20 22:49:10","1500","The main experiment item","yes","FlankerTask.osexp","C:\Users\Jennifer Wright\Desktop\PSYC5613","no","mono","no","18","no","white","no","yes","768","legacy","10","10","C:/Users/Jennifer Wright/Desktop/PSYC5613/th-subject-4.csv","legacy","Lentiform Loewenfeld","3.3.3","0","h","NA","s","NA","NA","h","408","NA","232378","NA","NA","408","2","legacy","1024","2","48000","-16","experiment","SSHSS","4","even","NA","258081","6502","NA","NA","238883","NA","NA","NA","6493","NA","259309","259415","259824","259302","259415","Flanker Task","11","6304","11","yes","1024"
"100","100","572.5","572.5","black","legacy","legacy","legacy","0","incongruent","uniform","1","undefined","1","s","0","11","0","0","0","0","0","0","11","0","11","11","11","11","11","11","09/26/20 22:49:10","1500","The main experiment item","yes","FlankerTask.osexp","C:\Users\Jennifer Wright\Desktop\PSYC5613","no","mono","no","18","no","white","no","yes","768","legacy","11","11","C:/Users/Jennifer Wright/Desktop/PSYC5613/th-subject-4.csv","legacy","Lentiform Loewenfeld","3.3.3","0","s","NA","s","NA","NA","s","566","NA","232378","NA","NA","566","2","legacy","1024","2","48000","-16","experiment","HHSHH","4","even","NA","259869","6502","NA","NA","238883","NA","NA","NA","6493","NA","261091","261197","261765","261084","261197","Flanker Task","12","6870","12","yes","1024"
"100","100","561.923076923","561.923076923","black","legacy","legacy","legacy","0","congruent","uniform","1","undefined","1","s","0","12","0","0","0","0","0","0","12","0","12","12","12","12","12","12","09/26/20 22:49:10","1500","The main experiment item","yes","FlankerTask.osexp","C:\Users\Jennifer Wright\Desktop\PSYC5613","no","mono","no","18","no","white","no","yes","768","legacy","12","12","C:/Users/Jennifer Wright/Desktop/PSYC5613/th-subject-4.csv","legacy","Lentiform Loewenfeld","3.3.3","0","s","NA","s","NA","NA","s","435","NA","232378","NA","NA","435","2","legacy","1024","2","48000","-16","experiment","SSSSS","4","even","NA","261919","6502","NA","NA","238883","NA","NA","NA","6493","NA","263106","263212","263648","263100","263212","Flanker Task","13","7305","13","yes","1024"
"100","100","553.357142857","553.357142857","black","legacy","legacy","legacy","0","congruent","uniform","1","undefined","1","s","0","13","0","0","0","0","0","0","13","0","13","13","13","13","13","13","09/26/20 22:49:10","1500","The main experiment item","yes","FlankerTask.osexp","C:\Users\Jennifer Wright\Desktop\PSYC5613","no","mono","no","18","no","white","no","yes","768","legacy","13","13","C:/Users/Jennifer Wright/Desktop/PSYC5613/th-subject-4.csv","legacy","Lentiform Loewenfeld","3.3.3","0","s","NA","s","NA","NA","s","442","NA","232378","NA","NA","442","2","legacy","1024","2","48000","-16","experiment","SSSSS","4","even","NA","263677","6502","NA","NA","238883","NA","NA","NA","6493","NA","264875","264981","265425","264869","264981","Flanker Task","14","7747","14","yes","1024"
"100","100","543.933333333","543.933333333","black","legacy","legacy","legacy","0","congruent","uniform","1","undefined","1","s","0","14","0","0","0","0","0","0","14","0","14","14","14","14","14","14","09/26/20 22:49:10","1500","The main experiment item","yes","FlankerTask.osexp","C:\Users\Jennifer Wright\Desktop\PSYC5613","no","mono","no","18","no","white","no","yes","768","legacy","14","14","C:/Users/Jennifer Wright/Desktop/PSYC5613/th-subject-4.csv","legacy","Lentiform Loewenfeld","3.3.3","0","s","NA","s","NA","NA","s","412","NA","232378","NA","NA","412","2","legacy","1024","2","48000","-16","experiment","SSSSS","4","even","NA","265470","6502","NA","NA","238883","NA","NA","NA","6493","NA","266673","266779","267193","266666","266778","Flanker Task","15","8159","15","yes","1024"
"100","100","534.6875","534.6875","black","legacy","legacy","legacy","0","congruent","uniform","1","undefined","1","s","0","15","0","0","0","0","0","0","15","0","15","15","15","15","15","15","09/26/20 22:49:10","1500","The main experiment item","yes","FlankerTask.osexp","C:\Users\Jennifer Wright\Desktop\PSYC5613","no","mono","no","18","no","white","no","yes","768","legacy","15","15","C:/Users/Jennifer Wright/Desktop/PSYC5613/th-subject-4.csv","legacy","Lentiform Loewenfeld","3.3.3","0","s","NA","s","NA","NA","s","396","NA","232378","NA","NA","396","2","legacy","1024","2","48000","-16","experiment","SSSSS","4","even","NA","267275","6502","NA","NA","238883","NA","NA","NA","6493","NA","268491","268596","268994","268484","268596","Flanker Task","16","8555","16","yes","1024"
"100","100","526.823529412","526.823529412","black","legacy","legacy","legacy","0","congruent","uniform","1","undefined","1","h","0","16","0","0","0","0","0","0","16","0","16","16","16","16","16","16","09/26/20 22:49:10","1500","The main experiment item","yes","FlankerTask.osexp","C:\Users\Jennifer Wright\Desktop\PSYC5613","no","mono","no","18","no","white","no","yes","768","legacy","16","16","C:/Users/Jennifer Wright/Desktop/PSYC5613/th-subject-4.csv","legacy","Lentiform Loewenfeld","3.3.3","0","h","NA","s","NA","NA","h","401","NA","232378","NA","NA","401","2","legacy","1024","2","48000","-16","experiment","HHHHH","4","even","NA","269057","6502","NA","NA","238883","NA","NA","NA","6493","NA","270274","270380","270783","270266","270380","Flanker Task","17","8956","17","yes","1024"
"100","100","519.333333333","519.333333333","black","legacy","legacy","legacy","0","congruent","uniform","1","undefined","1","h","0","17","0","0","0","0","0","0","17","0","17","17","17","17","17","17","09/26/20 22:49:10","1500","The main experiment item","yes","FlankerTask.osexp","C:\Users\Jennifer Wright\Desktop\PSYC5613","no","mono","no","18","no","white","no","yes","768","legacy","17","17","C:/Users/Jennifer Wright/Desktop/PSYC5613/th-subject-4.csv","legacy","Lentiform Loewenfeld","3.3.3","0","h","NA","s","NA","NA","h","392","NA","232378","NA","NA","392","2","legacy","1024","2","48000","-16","experiment","HHHHH","4","even","NA","270817","6502","NA","NA","238883","NA","NA","NA","6493","NA","272035","272140","272534","272028","272140","Flanker Task","18","9348","18","yes","1024"
"100","100","513.421052632","513.421052632","black","legacy","legacy","legacy","0","incongruent","uniform","1","undefined","1","h","0","18","0","0","0","0","0","0","18","0","18","18","18","18","18","18","09/26/20 22:49:10","1500","The main experiment item","yes","FlankerTask.osexp","C:\Users\Jennifer Wright\Desktop\PSYC5613","no","mono","no","18","no","white","no","yes","768","legacy","18","18","C:/Users/Jennifer Wright/Desktop/PSYC5613/th-subject-4.csv","legacy","Lentiform Loewenfeld","3.3.3","0","h","NA","s","NA","NA","h","407","NA","232378","NA","NA","407","2","legacy","1024","2","48000","-16","experiment","SSHSS","4","even","NA","272600","6502","NA","NA","238883","NA","NA","NA","6493","NA","273814","273920","274329","273807","273920","Flanker Task","19","9755","19","yes","1024"
"100","100","505.75","505.75","black","legacy","legacy","legacy","0","congruent","uniform","1","undefined","1","h","0","19","0","0","0","0","0","0","19","0","19","19","19","19","19","19","09/26/20 22:49:10","1500","The main experiment item","yes","FlankerTask.osexp","C:\Users\Jennifer Wright\Desktop\PSYC5613","no","mono","no","18","no","white","no","yes","768","legacy","19","19","C:/Users/Jennifer Wright/Desktop/PSYC5613/th-subject-4.csv","legacy","Lentiform Loewenfeld","3.3.3","0","h","NA","s","NA","NA","h","360","NA","232378","NA","NA","360","2","legacy","1024","2","48000","-16","experiment","HHHHH","4","even","NA","274405","6502","NA","NA","238883","NA","NA","NA","6493","NA","275615","275719","276081","275608","275719","Flanker Task","20","10115","20","yes","1024"
"100","100","506.095238095","506.095238095","black","legacy","legacy","legacy","0","congruent","uniform","1","undefined","1","h","0","20","0","0","0","0","0","0","20","0","20","20","20","20","20","20","09/26/20 22:49:10","1500","The main experiment item","yes","FlankerTask.osexp","C:\Users\Jennifer Wright\Desktop\PSYC5613","no","mono","no","18","no","white","no","yes","768","legacy","20","20","C:/Users/Jennifer Wright/Desktop/PSYC5613/th-subject-4.csv","legacy","Lentiform Loewenfeld","3.3.3","0","h","NA","s","NA","NA","h","513","NA","232378","NA","NA","513","2","legacy","1024","2","48000","-16","experiment","HHHHH","4","even","NA","276109","6502","NA","NA","238883","NA","NA","NA","6493","NA","277318","277424","277939","277312","277424","Flanker Task","21","10628","21","yes","1024"
"100","100","499.454545455","499.454545455","black","legacy","legacy","legacy","0","incongruent","uniform","1","undefined","1","s","0","21","0","0","0","0","0","0","21","0","21","21","21","21","21","21","09/26/20 22:49:10","1500","The main experiment item","yes","FlankerTask.osexp","C:\Users\Jennifer Wright\Desktop\PSYC5613","no","mono","no","18","no","white","no","yes","768","legacy","21","21","C:/Users/Jennifer Wright/Desktop/PSYC5613/th-subject-4.csv","legacy","Lentiform Loewenfeld","3.3.3","0","s","NA","s","NA","NA","s","360","NA","232378","NA","NA","360","2","legacy","1024","2","48000","-16","experiment","HHSHH","4","even","NA","278001","6502","NA","NA","238883","NA","NA","NA","6493","NA","279210","279315","279680","279203","279315","Flanker Task","22","10988","22","yes","1024"
"100","100","500.47826087","500.47826087","black","legacy","legacy","legacy","0","incongruent","uniform","1","undefined","1","h","0","22","0","0","0","0","0","0","22","0","22","22","22","22","22","22","09/26/20 22:49:10","1500","The main experiment item","yes","FlankerTask.osexp","C:\Users\Jennifer Wright\Desktop\PSYC5613","no","mono","no","18","no","white","no","yes","768","legacy","22","22","C:/Users/Jennifer Wright/Desktop/PSYC5613/th-subject-4.csv","legacy","Lentiform Loewenfeld","3.3.3","0","h","NA","s","NA","NA","h","523","NA","232378","NA","NA","523","2","legacy","1024","2","48000","-16","experiment","SSHSS","4","even","NA","279751","6502","NA","NA","238883","NA","NA","NA","6493","NA","280967","281072","281597","280960","281072","Flanker Task","23","11511","23","yes","1024"
"100","100","497.916666667","497.916666667","black","legacy","legacy","legacy","0","congruent","uniform","1","undefined","1","s","0","23","0","0","0","0","0","0","23","0","23","23","23","23","23","23","09/26/20 22:49:10","1500","The main experiment item","yes","FlankerTask.osexp","C:\Users\Jennifer Wright\Desktop\PSYC5613","no","mono","no","18","no","white","no","yes","768","legacy","23","23","C:/Users/Jennifer Wright/Desktop/PSYC5613/th-subject-4.csv","legacy","Lentiform Loewenfeld","3.3.3","0","s","NA","s","NA","NA","s","439","NA","232378","NA","NA","439","2","legacy","1024","2","48000","-16","experiment","SSSSS","4","even","NA","281632","6502","NA","NA","238883","NA","NA","NA","6493","NA","282826","282931","283372","282820","282931","Flanker Task","24","11950","24","yes","1024"
"100","100","495.36","495.36","black","legacy","legacy","legacy","0","congruent","uniform","1","undefined","1","h","0","24","0","0","0","0","0","0","24","0","24","24","24","24","24","24","09/26/20 22:49:10","1500","The main experiment item","yes","FlankerTask.osexp","C:\Users\Jennifer Wright\Desktop\PSYC5613","no","mono","no","18","no","white","no","yes","768","legacy","24","24","C:/Users/Jennifer Wright/Desktop/PSYC5613/th-subject-4.csv","legacy","Lentiform Loewenfeld","3.3.3","0","h","NA","s","NA","NA","h","434","NA","232378","NA","NA","434","2","legacy","1024","2","48000","-16","experiment","HHHHH","4","even","NA","283403","6502","NA","NA","238883","NA","NA","NA","6493","NA","284596","284702","285138","284590","284702","Flanker Task","25","12384","25","yes","1024"
"100","100","495.961538462","495.961538462","black","legacy","legacy","legacy","0","incongruent","uniform","1","undefined","1","h","0","25","0","0","0","0","0","0","25","0","25","25","25","25","25","25","09/26/20 22:49:10","1500","The main experiment item","yes","FlankerTask.osexp","C:\Users\Jennifer Wright\Desktop\PSYC5613","no","mono","no","18","no","white","no","yes","768","legacy","25","25","C:/Users/Jennifer Wright/Desktop/PSYC5613/th-subject-4.csv","legacy","Lentiform Loewenfeld","3.3.3","0","h","NA","s","NA","NA","h","511","NA","232378","NA","NA","511","2","legacy","1024","2","48000","-16","experiment","SSHSS","4","even","NA","285207","6502","NA","NA","238883","NA","NA","NA","6493","NA","286408","286514","287027","286401","286513","Flanker Task","26","12895","26","yes","1024"
"100","100","497.259259259","497.259259259","black","legacy","legacy","legacy","0","incongruent","uniform","1","undefined","1","s","0","26","0","0","0","0","0","0","26","0","26","26","26","26","26","26","09/26/20 22:49:10","1500","The main experiment item","yes","FlankerTask.osexp","C:\Users\Jennifer Wright\Desktop\PSYC5613","no","mono","no","18","no","white","no","yes","768","legacy","26","26","C:/Users/Jennifer Wright/Desktop/PSYC5613/th-subject-4.csv","legacy","Lentiform Loewenfeld","3.3.3","0","s","NA","s","NA","NA","s","531","NA","232378","NA","NA","531","2","legacy","1024","2","48000","-16","experiment","HHSHH","4","even","NA","287055","6502","NA","NA","238883","NA","NA","NA","6493","NA","288243","288349","288882","288237","288348","Flanker Task","27","13426","27","yes","1024"
"100","100","494.142857143","494.142857143","black","legacy","legacy","legacy","0","congruent","uniform","1","undefined","1","h","0","27","0","0","0","0","0","0","27","0","27","27","27","27","27","27","09/26/20 22:49:10","1500","The main experiment item","yes","FlankerTask.osexp","C:\Users\Jennifer Wright\Desktop\PSYC5613","no","mono","no","18","no","white","no","yes","768","legacy","27","27","C:/Users/Jennifer Wright/Desktop/PSYC5613/th-subject-4.csv","legacy","Lentiform Loewenfeld","3.3.3","0","h","NA","s","NA","NA","h","410","NA","232378","NA","NA","410","2","legacy","1024","2","48000","-16","experiment","HHHHH","4","even","NA","288915","6502","NA","NA","238883","NA","NA","NA","6493","NA","290113","290218","290630","290105","290217","Flanker Task","28","13836","28","yes","1024"
"100","100","493.655172414","493.655172414","black","legacy","legacy","legacy","0","congruent","uniform","1","undefined","1","h","0","28","0","0","0","0","0","0","28","0","28","28","28","28","28","28","09/26/20 22:49:10","1500","The main experiment item","yes","FlankerTask.osexp","C:\Users\Jennifer Wright\Desktop\PSYC5613","no","mono","no","18","no","white","no","yes","768","legacy","28","28","C:/Users/Jennifer Wright/Desktop/PSYC5613/th-subject-4.csv","legacy","Lentiform Loewenfeld","3.3.3","0","h","NA","s","NA","NA","h","480","NA","232378","NA","NA","480","2","legacy","1024","2","48000","-16","experiment","HHHHH","4","even","NA","290654","6502","NA","NA","238883","NA","NA","NA","6493","NA","291848","291953","292435","291841","291953","Flanker Task","29","14316","29","yes","1024"
"100","100","493.6","493.6","black","legacy","legacy","legacy","0","incongruent","uniform","1","undefined","1","s","0","29","0","0","0","0","0","0","29","0","29","29","29","29","29","29","09/26/20 22:49:10","1500","The main experiment item","yes","FlankerTask.osexp","C:\Users\Jennifer Wright\Desktop\PSYC5613","no","mono","no","18","no","white","no","yes","768","legacy","29","29","C:/Users/Jennifer Wright/Desktop/PSYC5613/th-subject-4.csv","legacy","Lentiform Loewenfeld","3.3.3","0","s","NA","s","NA","NA","s","492","NA","232378","NA","NA","492","2","legacy","1024","2","48000","-16","experiment","HHSHH","4","even","NA","292503","6502","NA","NA","238883","NA","NA","NA","6493","NA","293691","293801","294295","293684","293800","Flanker Task","30","14808","30","yes","1024"
"100","100","493.290322581","493.290322581","black","legacy","legacy","legacy","0","congruent","uniform","1","undefined","1","h","0","30","0","0","0","0","0","0","30","0","30","30","30","30","30","30","09/26/20 22:49:10","1500","The main experiment item","yes","FlankerTask.osexp","C:\Users\Jennifer Wright\Desktop\PSYC5613","no","mono","no","18","no","white","no","yes","768","legacy","30","30","C:/Users/Jennifer Wright/Desktop/PSYC5613/th-subject-4.csv","legacy","Lentiform Loewenfeld","3.3.3","0","h","NA","s","NA","NA","h","484","NA","232378","NA","NA","484","2","legacy","1024","2","48000","-16","experiment","HHHHH","4","even","NA","294329","6502","NA","NA","238883","NA","NA","NA","6493","NA","295523","295630","296116","295516","295630","Flanker Task","31","15292","31","yes","1024"
"100","100","491.5","491.5","black","legacy","legacy","legacy","0","congruent","uniform","1","undefined","1","h","0","31","0","0","0","0","0","0","31","0","31","31","31","31","31","31","09/26/20 22:49:10","1500","The main experiment item","yes","FlankerTask.osexp","C:\Users\Jennifer Wright\Desktop\PSYC5613","no","mono","no","18","no","white","no","yes","768","legacy","31","31","C:/Users/Jennifer Wright/Desktop/PSYC5613/th-subject-4.csv","legacy","Lentiform Loewenfeld","3.3.3","0","h","NA","s","NA","NA","h","436","NA","232378","NA","NA","436","2","legacy","1024","2","48000","-16","experiment","HHHHH","4","even","NA","296144","6502","NA","NA","238883","NA","NA","NA","6493","NA","297334","297439","297878","297328","297438","Flanker Task","32","15728","32","yes","1024"
"100","100","490.666666667","490.666666667","black","legacy","legacy","legacy","0","congruent","uniform","1","undefined","1","h","0","32","0","0","0","0","0","0","32","0","32","32","32","32","32","32","09/26/20 22:49:10","1500","The main experiment item","yes","FlankerTask.osexp","C:\Users\Jennifer Wright\Desktop\PSYC5613","no","mono","no","18","no","white","no","yes","768","legacy","32","32","C:/Users/Jennifer Wright/Desktop/PSYC5613/th-subject-4.csv","legacy","Lentiform Loewenfeld","3.3.3","0","h","NA","s","NA","NA","h","464","NA","232378","NA","NA","464","2","legacy","1024","2","48000","-16","experiment","HHHHH","4","even","NA","297916","6502","NA","NA","238883","NA","NA","NA","6493","NA","299105","299211","299677","299098","299210","Flanker Task","33","16192","33","yes","1024"
"100","100","493.352941176","493.352941176","black","legacy","legacy","legacy","0","incongruent","uniform","1","undefined","1","h","0","33","0","0","0","0","0","0","33","0","33","33","33","33","33","33","09/26/20 22:49:10","1500","The main experiment item","yes","FlankerTask.osexp","C:\Users\Jennifer Wright\Desktop\PSYC5613","no","mono","no","18","no","white","no","yes","768","legacy","33","33","C:/Users/Jennifer Wright/Desktop/PSYC5613/th-subject-4.csv","legacy","Lentiform Loewenfeld","3.3.3","0","h","NA","s","NA","NA","h","582","NA","232378","NA","NA","582","2","legacy","1024","2","48000","-16","experiment","SSHSS","4","even","NA","299720","6502","NA","NA","238883","NA","NA","NA","6493","NA","300915","301021","301605","300908","301021","Flanker Task","34","16774","34","yes","1024"
"100","100","494.142857143","494.142857143","black","legacy","legacy","legacy","0","incongruent","uniform","1","undefined","1","h","0","34","0","0","0","0","0","0","34","0","34","34","34","34","34","34","09/26/20 22:49:10","1500","The main experiment item","yes","FlankerTask.osexp","C:\Users\Jennifer Wright\Desktop\PSYC5613","no","mono","no","18","no","white","no","yes","768","legacy","34","34","C:/Users/Jennifer Wright/Desktop/PSYC5613/th-subject-4.csv","legacy","Lentiform Loewenfeld","3.3.3","0","h","NA","s","NA","NA","h","521","NA","232378","NA","NA","521","2","legacy","1024","2","48000","-16","experiment","SSHSS","4","even","NA","301673","6502","NA","NA","238883","NA","NA","NA","6493","NA","302867","302972","303495","302860","302972","Flanker Task","35","17295","35","yes","1024"
"100","100","492.194444444","492.194444444","black","legacy","legacy","legacy","0","congruent","uniform","1","undefined","1","s","0","35","0","0","0","0","0","0","35","0","35","35","35","35","35","35","09/26/20 22:49:10","1500","The main experiment item","yes","FlankerTask.osexp","C:\Users\Jennifer Wright\Desktop\PSYC5613","no","mono","no","18","no","white","no","yes","768","legacy","35","35","C:/Users/Jennifer Wright/Desktop/PSYC5613/th-subject-4.csv","legacy","Lentiform Loewenfeld","3.3.3","0","s","NA","s","NA","NA","s","424","NA","232378","NA","NA","424","2","legacy","1024","2","48000","-16","experiment","SSSSS","4","even","NA","303598","6502","NA","NA","238883","NA","NA","NA","6493","NA","304797","304903","305330","304790","304903","Flanker Task","36","17719","36","yes","1024"
"100","100","488.351351351","488.351351351","black","legacy","legacy","legacy","0","congruent","uniform","1","undefined","1","s","0","36","0","0","0","0","0","0","36","0","36","36","36","36","36","36","09/26/20 22:49:10","1500","The main experiment item","yes","FlankerTask.osexp","C:\Users\Jennifer Wright\Desktop\PSYC5613","no","mono","no","18","no","white","no","yes","768","legacy","36","36","C:/Users/Jennifer Wright/Desktop/PSYC5613/th-subject-4.csv","legacy","Lentiform Loewenfeld","3.3.3","0","s","NA","s","NA","NA","s","350","NA","232378","NA","NA","350","2","legacy","1024","2","48000","-16","experiment","SSSSS","4","even","NA","305404","6502","NA","NA","238883","NA","NA","NA","6493","NA","306591","306695","307048","306584","306695","Flanker Task","37","18069","37","yes","1024"
"100","100","485.157894737","485.157894737","black","legacy","legacy","legacy","0","congruent","uniform","1","undefined","1","s","0","37","0","0","0","0","0","0","37","0","37","37","37","37","37","37","09/26/20 22:49:10","1500","The main experiment item","yes","FlankerTask.osexp","C:\Users\Jennifer Wright\Desktop\PSYC5613","no","mono","no","18","no","white","no","yes","768","legacy","37","37","C:/Users/Jennifer Wright/Desktop/PSYC5613/th-subject-4.csv","legacy","Lentiform Loewenfeld","3.3.3","0","s","NA","s","NA","NA","s","367","NA","232378","NA","NA","367","2","legacy","1024","2","48000","-16","experiment","SSSSS","4","even","NA","307105","6502","NA","NA","238883","NA","NA","NA","6493","NA","308294","308401","308771","308287","308401","Flanker Task","38","18436","38","yes","1024"
"100","100","482.743589744","482.743589744","black","legacy","legacy","legacy","0","congruent","uniform","1","undefined","1","s","0","38","0","0","0","0","0","0","38","0","38","38","38","38","38","38","09/26/20 22:49:10","1500","The main experiment item","yes","FlankerTask.osexp","C:\Users\Jennifer Wright\Desktop\PSYC5613","no","mono","no","18","no","white","no","yes","768","legacy","38","38","C:/Users/Jennifer Wright/Desktop/PSYC5613/th-subject-4.csv","legacy","Lentiform Loewenfeld","3.3.3","0","s","NA","s","NA","NA","s","391","NA","232378","NA","NA","391","2","legacy","1024","2","48000","-16","experiment","SSSSS","4","even","NA","308839","6502","NA","NA","238883","NA","NA","NA","6493","NA","310029","310142","310536","310022","310142","Flanker Task","39","18827","39","yes","1024"
"100","100","479.95","479.95","black","legacy","legacy","legacy","0","incongruent","uniform","1","undefined","1","h","0","39","0","0","0","0","0","0","39","0","39","39","39","39","39","39","09/26/20 22:49:10","1500","The main experiment item","yes","FlankerTask.osexp","C:\Users\Jennifer Wright\Desktop\PSYC5613","no","mono","no","18","no","white","no","yes","768","legacy","39","39","C:/Users/Jennifer Wright/Desktop/PSYC5613/th-subject-4.csv","legacy","Lentiform Loewenfeld","3.3.3","0","h","NA","s","NA","NA","h","371","NA","232378","NA","NA","371","2","legacy","1024","2","48000","-16","experiment","SSHSS","4","even","NA","310604","6502","NA","NA","238883","NA","NA","NA","6493","NA","311795","311900","312273","311787","311900","Flanker Task","40","19198","40","yes","1024"
"97.5609756098","97.5609756098","478.951219512","478.951219512","black","legacy","legacy","legacy","0","congruent","uniform","0","undefined","0","s","0","40","0","0","0","0","0","0","40","0","40","40","40","40","40","40","09/26/20 22:49:10","1500","The main experiment item","yes","FlankerTask.osexp","C:\Users\Jennifer Wright\Desktop\PSYC5613","no","mono","no","18","no","white","no","yes","768","legacy","40","40","C:/Users/Jennifer Wright/Desktop/PSYC5613/th-subject-4.csv","legacy","Lentiform Loewenfeld","3.3.3","0","h","NA","s","NA","NA","h","439","NA","232378","NA","NA","439","2","legacy","1024","2","48000","-16","experiment","SSSSS","4","even","NA","312368","6502","NA","NA","238883","NA","NA","NA","6493","NA","313578","313683","314126","313570","313682","Flanker Task","40","19637","41","yes","1024"
"97.619047619","97.619047619","483.238095238","483.238095238","black","legacy","legacy","legacy","0","incongruent","uniform","1","undefined","1","s","0","41","0","0","0","0","0","0","41","0","41","41","41","41","41","41","09/26/20 22:49:10","1500","The main experiment item","yes","FlankerTask.osexp","C:\Users\Jennifer Wright\Desktop\PSYC5613","no","mono","no","18","no","white","no","yes","768","legacy","41","41","C:/Users/Jennifer Wright/Desktop/PSYC5613/th-subject-4.csv","legacy","Lentiform Loewenfeld","3.3.3","0","s","NA","s","NA","NA","s","659","NA","232378","NA","NA","659","2","legacy","1024","2","48000","-16","experiment","HHSHH","4","even","NA","314665","6502","NA","NA","238883","NA","NA","314160","6493","NA","315841","315946","316608","315835","315945","Flanker Task","41","20296","42","yes","1024"
"97.6744186047","97.6744186047","484.162790698","484.162790698","black","legacy","legacy","legacy","0","incongruent","uniform","1","undefined","1","s","0","42","0","0","0","0","0","0","42","0","42","42","42","42","42","42","09/26/20 22:49:10","1500","The main experiment item","yes","FlankerTask.osexp","C:\Users\Jennifer Wright\Desktop\PSYC5613","no","mono","no","18","no","white","no","yes","768","legacy","42","42","C:/Users/Jennifer Wright/Desktop/PSYC5613/th-subject-4.csv","legacy","Lentiform Loewenfeld","3.3.3","0","s","NA","s","NA","NA","s","523","NA","232378","NA","NA","523","2","legacy","1024","2","48000","-16","experiment","HHSHH","4","even","NA","316670","6502","NA","NA","238883","NA","NA","314160","6493","NA","317861","317966","318491","317855","317966","Flanker Task","42","20819","43","yes","1024"
"97.7272727273","97.7272727273","484.954545455","484.954545455","black","legacy","legacy","legacy","0","congruent","uniform","1","undefined","1","h","0","43","0","0","0","0","0","0","43","0","43","43","43","43","43","43","09/26/20 22:49:10","1500","The main experiment item","yes","FlankerTask.osexp","C:\Users\Jennifer Wright\Desktop\PSYC5613","no","mono","no","18","no","white","no","yes","768","legacy","43","43","C:/Users/Jennifer Wright/Desktop/PSYC5613/th-subject-4.csv","legacy","Lentiform Loewenfeld","3.3.3","0","h","NA","s","NA","NA","h","519","NA","232378","NA","NA","519","2","legacy","1024","2","48000","-16","experiment","HHHHH","4","even","NA","318517","6502","NA","NA","238883","NA","NA","314160","6493","NA","319701","319806","320327","319695","319805","Flanker Task","43","21338","44","yes","1024"
"97.7777777778","97.7777777778","485.311111111","485.311111111","black","legacy","legacy","legacy","0","congruent","uniform","1","undefined","1","h","0","44","0","0","0","0","0","0","44","0","44","44","44","44","44","44","09/26/20 22:49:10","1500","The main experiment item","yes","FlankerTask.osexp","C:\Users\Jennifer Wright\Desktop\PSYC5613","no","mono","no","18","no","white","no","yes","768","legacy","44","44","C:/Users/Jennifer Wright/Desktop/PSYC5613/th-subject-4.csv","legacy","Lentiform Loewenfeld","3.3.3","0","h","NA","s","NA","NA","h","501","NA","232378","NA","NA","501","2","legacy","1024","2","48000","-16","experiment","HHHHH","4","even","NA","320385","6502","NA","NA","238883","NA","NA","314160","6493","NA","321583","321688","322192","321576","321688","Flanker Task","44","21839","45","yes","1024"
"97.8260869565","97.8260869565","486.717391304","486.717391304","black","legacy","legacy","legacy","0","incongruent","uniform","1","undefined","1","h","0","45","0","0","0","0","0","0","45","0","45","45","45","45","45","45","09/26/20 22:49:10","1500","The main experiment item","yes","FlankerTask.osexp","C:\Users\Jennifer Wright\Desktop\PSYC5613","no","mono","no","18","no","white","no","yes","768","legacy","45","45","C:/Users/Jennifer Wright/Desktop/PSYC5613/th-subject-4.csv","legacy","Lentiform Loewenfeld","3.3.3","0","h","NA","s","NA","NA","h","550","NA","232378","NA","NA","550","2","legacy","1024","2","48000","-16","experiment","SSHSS","4","even","NA","322229","6502","NA","NA","238883","NA","NA","314160","6493","NA","323410","323514","324067","323404","323514","Flanker Task","45","22389","46","yes","1024"
"97.8723404255","97.8723404255","487.276595745","487.276595745","black","legacy","legacy","legacy","0","congruent","uniform","1","undefined","1","h","0","46","0","0","0","0","0","0","46","0","46","46","46","46","46","46","09/26/20 22:49:10","1500","The main experiment item","yes","FlankerTask.osexp","C:\Users\Jennifer Wright\Desktop\PSYC5613","no","mono","no","18","no","white","no","yes","768","legacy","46","46","C:/Users/Jennifer Wright/Desktop/PSYC5613/th-subject-4.csv","legacy","Lentiform Loewenfeld","3.3.3","0","h","NA","s","NA","NA","h","513","NA","232378","NA","NA","513","2","legacy","1024","2","48000","-16","experiment","HHHHH","4","even","NA","324098","6502","NA","NA","238883","NA","NA","314160","6493","NA","325290","325395","325910","325283","325395","Flanker Task","46","22902","47","yes","1024"
"97.9166666667","97.9166666667","487.979166667","487.979166667","black","legacy","legacy","legacy","0","congruent","uniform","1","undefined","1","h","0","47","0","0","0","0","0","0","47","0","47","47","47","47","47","47","09/26/20 22:49:10","1500","The main experiment item","yes","FlankerTask.osexp","C:\Users\Jennifer Wright\Desktop\PSYC5613","no","mono","no","18","no","white","no","yes","768","legacy","47","47","C:/Users/Jennifer Wright/Desktop/PSYC5613/th-subject-4.csv","legacy","Lentiform Loewenfeld","3.3.3","0","h","NA","s","NA","NA","h","521","NA","232378","NA","NA","521","2","legacy","1024","2","48000","-16","experiment","HHHHH","4","even","NA","325984","6502","NA","NA","238883","NA","NA","314160","6493","NA","327179","327285","327809","327171","327285","Flanker Task","47","23423","48","yes","1024"
"97.9591836735","97.9591836735","487.714285714","487.714285714","black","legacy","legacy","legacy","0","congruent","uniform","1","undefined","1","s","0","48","0","0","0","0","0","0","48","0","48","48","48","48","48","48","09/26/20 22:49:10","1500","The main experiment item","yes","FlankerTask.osexp","C:\Users\Jennifer Wright\Desktop\PSYC5613","no","mono","no","18","no","white","no","yes","768","legacy","48","48","C:/Users/Jennifer Wright/Desktop/PSYC5613/th-subject-4.csv","legacy","Lentiform Loewenfeld","3.3.3","0","s","NA","s","NA","NA","s","475","NA","232378","NA","NA","475","2","legacy","1024","2","48000","-16","experiment","SSSSS","4","even","NA","327842","6502","NA","NA","238883","NA","NA","314160","6493","NA","329028","329137","329614","329020","329137","Flanker Task","48","23898","49","yes","1024"
"98","98","489.26","489.26","black","legacy","legacy","legacy","0","incongruent","uniform","1","undefined","1","s","0","49","0","0","0","0","0","0","49","0","49","49","49","49","49","49","09/26/20 22:49:10","1500","The main experiment item","yes","FlankerTask.osexp","C:\Users\Jennifer Wright\Desktop\PSYC5613","no","mono","no","18","no","white","no","yes","768","legacy","49","49","C:/Users/Jennifer Wright/Desktop/PSYC5613/th-subject-4.csv","legacy","Lentiform Loewenfeld","3.3.3","0","s","NA","s","NA","NA","s","565","NA","232378","NA","NA","565","2","legacy","1024","2","48000","-16","experiment","HHSHH","4","even","NA","329682","6502","NA","NA","238883","NA","NA","314160","6493","NA","330873","330979","331547","330866","330979","Flanker Task","49","24463","50","yes","1024"
"98.0392156863","98.0392156863","489.235294118","489.235294118","black","legacy","legacy","legacy","0","congruent","uniform","1","undefined","1","h","0","50","0","0","0","0","0","0","50","0","50","50","50","50","50","50","09/26/20 22:49:10","1500","The main experiment item","yes","FlankerTask.osexp","C:\Users\Jennifer Wright\Desktop\PSYC5613","no","mono","no","18","no","white","no","yes","768","legacy","50","50","C:/Users/Jennifer Wright/Desktop/PSYC5613/th-subject-4.csv","legacy","Lentiform Loewenfeld","3.3.3","0","h","NA","s","NA","NA","h","488","NA","232378","NA","NA","488","2","legacy","1024","2","48000","-16","experiment","HHHHH","4","even","NA","331621","6502","NA","NA","238883","NA","NA","314160","6493","NA","332812","332919","333409","332805","332918","Flanker Task","50","24951","51","yes","1024"
"98.0769230769","98.0769230769","489.365384615","489.365384615","black","legacy","legacy","legacy","0","incongruent","uniform","1","undefined","1","s","0","51","0","0","0","0","0","0","51","0","51","51","51","51","51","51","09/26/20 22:49:10","1500","The main experiment item","yes","FlankerTask.osexp","C:\Users\Jennifer Wright\Desktop\PSYC5613","no","mono","no","18","no","white","no","yes","768","legacy","51","51","C:/Users/Jennifer Wright/Desktop/PSYC5613/th-subject-4.csv","legacy","Lentiform Loewenfeld","3.3.3","0","s","NA","s","NA","NA","s","496","NA","232378","NA","NA","496","2","legacy","1024","2","48000","-16","experiment","HHSHH","4","even","NA","333443","6502","NA","NA","238883","NA","NA","314160","6493","NA","334633","334745","335244","334626","334744","Flanker Task","51","25447","52","yes","1024"
"98.1132075472","98.1132075472","488.79245283","488.79245283","black","legacy","legacy","legacy","0","incongruent","uniform","1","undefined","1","s","0","52","0","0","0","0","0","0","52","0","52","52","52","52","52","52","09/26/20 22:49:10","1500","The main experiment item","yes","FlankerTask.osexp","C:\Users\Jennifer Wright\Desktop\PSYC5613","no","mono","no","18","no","white","no","yes","768","legacy","52","52","C:/Users/Jennifer Wright/Desktop/PSYC5613/th-subject-4.csv","legacy","Lentiform Loewenfeld","3.3.3","0","s","NA","s","NA","NA","s","459","NA","232378","NA","NA","459","2","legacy","1024","2","48000","-16","experiment","HHSHH","4","even","NA","335315","6502","NA","NA","238883","NA","NA","314160","6493","NA","336507","336614","337076","336500","336613","Flanker Task","52","25906","53","yes","1024"
"98.1481481481","98.1481481481","488.685185185","488.685185185","black","legacy","legacy","legacy","0","congruent","uniform","1","undefined","1","s","0","53","0","0","0","0","0","0","53","0","53","53","53","53","53","53","09/26/20 22:49:10","1500","The main experiment item","yes","FlankerTask.osexp","C:\Users\Jennifer Wright\Desktop\PSYC5613","no","mono","no","18","no","white","no","yes","768","legacy","53","53","C:/Users/Jennifer Wright/Desktop/PSYC5613/th-subject-4.csv","legacy","Lentiform Loewenfeld","3.3.3","0","s","NA","s","NA","NA","s","483","NA","232378","NA","NA","483","2","legacy","1024","2","48000","-16","experiment","SSSSS","4","even","NA","337143","6502","NA","NA","238883","NA","NA","314160","6493","NA","338342","338446","338932","338335","338446","Flanker Task","53","26389","54","yes","1024"
"98.1818181818","98.1818181818","487.381818182","487.381818182","black","legacy","legacy","legacy","0","congruent","uniform","1","undefined","1","s","0","54","0","0","0","0","0","0","54","0","54","54","54","54","54","54","09/26/20 22:49:10","1500","The main experiment item","yes","FlankerTask.osexp","C:\Users\Jennifer Wright\Desktop\PSYC5613","no","mono","no","18","no","white","no","yes","768","legacy","54","54","C:/Users/Jennifer Wright/Desktop/PSYC5613/th-subject-4.csv","legacy","Lentiform Loewenfeld","3.3.3","0","s","NA","s","NA","NA","s","417","NA","232378","NA","NA","417","2","legacy","1024","2","48000","-16","experiment","SSSSS","4","even","NA","339000","6502","NA","NA","238883","NA","NA","314160","6493","NA","340192","340296","340716","340185","340296","Flanker Task","54","26806","55","yes","1024"
"98.2142857143","98.2142857143","487.089285714","487.089285714","black","legacy","legacy","legacy","0","incongruent","uniform","1","undefined","1","s","0","55","0","0","0","0","0","0","55","0","55","55","55","55","55","55","09/26/20 22:49:10","1500","The main experiment item","yes","FlankerTask.osexp","C:\Users\Jennifer Wright\Desktop\PSYC5613","no","mono","no","18","no","white","no","yes","768","legacy","55","55","C:/Users/Jennifer Wright/Desktop/PSYC5613/th-subject-4.csv","legacy","Lentiform Loewenfeld","3.3.3","0","s","NA","s","NA","NA","s","471","NA","232378","NA","NA","471","2","legacy","1024","2","48000","-16","experiment","HHSHH","4","even","NA","340787","6502","NA","NA","238883","NA","NA","314160","6493","NA","341966","342073","342547","341959","342073","Flanker Task","55","27277","56","yes","1024"
"96.4912280702","96.4912280702","485.50877193","485.50877193","black","legacy","legacy","legacy","0","incongruent","uniform","0","undefined","0","h","0","56","0","0","0","0","0","0","56","0","56","56","56","56","56","56","09/26/20 22:49:10","1500","The main experiment item","yes","FlankerTask.osexp","C:\Users\Jennifer Wright\Desktop\PSYC5613","no","mono","no","18","no","white","no","yes","768","legacy","56","56","C:/Users/Jennifer Wright/Desktop/PSYC5613/th-subject-4.csv","legacy","Lentiform Loewenfeld","3.3.3","0","s","NA","s","NA","NA","s","397","NA","232378","NA","NA","397","2","legacy","1024","2","48000","-16","experiment","SSHSS","4","even","NA","342628","6502","NA","NA","238883","NA","NA","314160","6493","NA","343816","343922","344322","343809","343921","Flanker Task","55","27674","57","yes","1024"
"96.5517241379","96.5517241379","484.879310345","484.879310345","black","legacy","legacy","legacy","0","incongruent","uniform","1","undefined","1","s","0","57","0","0","0","0","0","0","57","0","57","57","57","57","57","57","09/26/20 22:49:10","1500","The main experiment item","yes","FlankerTask.osexp","C:\Users\Jennifer Wright\Desktop\PSYC5613","no","mono","no","18","no","white","no","yes","768","legacy","57","57","C:/Users/Jennifer Wright/Desktop/PSYC5613/th-subject-4.csv","legacy","Lentiform Loewenfeld","3.3.3","0","s","NA","s","NA","NA","s","449","NA","232378","NA","NA","449","2","legacy","1024","2","48000","-16","experiment","HHSHH","4","even","NA","344903","6502","NA","NA","238883","NA","NA","344396","6493","NA","346083","346190","346642","346077","346190","Flanker Task","56","28123","58","yes","1024"
"96.6101694915","96.6101694915","486.423728814","486.423728814","black","legacy","legacy","legacy","0","incongruent","uniform","1","undefined","1","h","0","58","0","0","0","0","0","0","58","0","58","58","58","58","58","58","09/26/20 22:49:10","1500","The main experiment item","yes","FlankerTask.osexp","C:\Users\Jennifer Wright\Desktop\PSYC5613","no","mono","no","18","no","white","no","yes","768","legacy","58","58","C:/Users/Jennifer Wright/Desktop/PSYC5613/th-subject-4.csv","legacy","Lentiform Loewenfeld","3.3.3","0","h","NA","s","NA","NA","h","576","NA","232378","NA","NA","576","2","legacy","1024","2","48000","-16","experiment","SSHSS","4","even","NA","346719","6502","NA","NA","238883","NA","NA","344396","6493","NA","347915","348023","348602","347908","348023","Flanker Task","57","28699","59","yes","1024"
"96.6666666667","96.6666666667","488.866666667","488.866666667","black","legacy","legacy","legacy","0","incongruent","uniform","1","undefined","1","h","0","59","0","0","0","0","0","0","59","0","59","59","59","59","59","59","09/26/20 22:49:10","1500","The main experiment item","yes","FlankerTask.osexp","C:\Users\Jennifer Wright\Desktop\PSYC5613","no","mono","no","18","no","white","no","yes","768","legacy","59","59","C:/Users/Jennifer Wright/Desktop/PSYC5613/th-subject-4.csv","legacy","Lentiform Loewenfeld","3.3.3","0","h","NA","s","NA","NA","h","633","NA","232378","NA","NA","633","2","legacy","1024","2","48000","-16","experiment","SSHSS","4","even","NA","348631","6502","NA","NA","238883","NA","NA","344396","6493","NA","349824","349929","350565","349817","349929","Flanker Task","58","29332","60","yes","1024"
"96.7213114754","96.7213114754","489","489","black","legacy","legacy","legacy","0","incongruent","uniform","1","undefined","1","s","0","60","0","0","0","0","0","0","60","0","60","60","60","60","60","60","09/26/20 22:49:10","1500","The main experiment item","yes","FlankerTask.osexp","C:\Users\Jennifer Wright\Desktop\PSYC5613","no","mono","no","18","no","white","no","yes","768","legacy","60","60","C:/Users/Jennifer Wright/Desktop/PSYC5613/th-subject-4.csv","legacy","Lentiform Loewenfeld","3.3.3","0","s","NA","s","NA","NA","s","497","NA","232378","NA","NA","497","2","legacy","1024","2","48000","-16","experiment","HHSHH","4","even","NA","350636","6502","NA","NA","238883","NA","NA","344396","6493","NA","351825","351935","352434","351818","351935","Flanker Task","59","29829","61","yes","1024"
"96.7741935484","96.7741935484","488.161290323","488.161290323","black","legacy","legacy","legacy","0","congruent","uniform","1","undefined","1","s","0","61","0","0","0","0","0","0","61","0","61","61","61","61","61","61","09/26/20 22:49:10","1500","The main experiment item","yes","FlankerTask.osexp","C:\Users\Jennifer Wright\Desktop\PSYC5613","no","mono","no","18","no","white","no","yes","768","legacy","61","61","C:/Users/Jennifer Wright/Desktop/PSYC5613/th-subject-4.csv","legacy","Lentiform Loewenfeld","3.3.3","0","s","NA","s","NA","NA","s","437","NA","232378","NA","NA","437","2","legacy","1024","2","48000","-16","experiment","SSSSS","4","even","NA","352505","6502","NA","NA","238883","NA","NA","344396","6493","NA","353688","353795","354235","353681","353794","Flanker Task","60","30266","62","yes","1024"
"96.8253968254","96.8253968254","488.079365079","488.079365079","black","legacy","legacy","legacy","0","congruent","uniform","1","undefined","1","h","0","62","0","0","0","0","0","0","62","0","62","62","62","62","62","62","09/26/20 22:49:10","1500","The main experiment item","yes","FlankerTask.osexp","C:\Users\Jennifer Wright\Desktop\PSYC5613","no","mono","no","18","no","white","no","yes","768","legacy","62","62","C:/Users/Jennifer Wright/Desktop/PSYC5613/th-subject-4.csv","legacy","Lentiform Loewenfeld","3.3.3","0","h","NA","s","NA","NA","h","483","NA","232378","NA","NA","483","2","legacy","1024","2","48000","-16","experiment","HHHHH","4","even","NA","354303","6502","NA","NA","238883","NA","NA","344396","6493","NA","355497","355603","356089","355490","355603","Flanker Task","61","30749","63","yes","1024"
"96.875","96.875","485.484375","485.484375","black","legacy","legacy","legacy","0","congruent","uniform","1","undefined","1","s","0","63","0","0","0","0","0","0","63","0","63","63","63","63","63","63","09/26/20 22:49:10","1500","The main experiment item","yes","FlankerTask.osexp","C:\Users\Jennifer Wright\Desktop\PSYC5613","no","mono","no","18","no","white","no","yes","768","legacy","63","63","C:/Users/Jennifer Wright/Desktop/PSYC5613/th-subject-4.csv","legacy","Lentiform Loewenfeld","3.3.3","0","s","NA","s","NA","NA","s","322","NA","232378","NA","NA","322","2","legacy","1024","2","48000","-16","experiment","SSSSS","4","even","NA","356159","6502","NA","NA","238883","NA","NA","344396","6493","NA","357346","357452","357777","357340","357452","Flanker Task","62","31071","64","yes","1024"
"96.9230769231","96.9230769231","485.292307692","485.292307692","black","legacy","legacy","legacy","0","congruent","uniform","1","undefined","1","s","0","64","0","0","0","0","0","0","64","0","64","64","64","64","64","64","09/26/20 22:49:10","1500","The main experiment item","yes","FlankerTask.osexp","C:\Users\Jennifer Wright\Desktop\PSYC5613","no","mono","no","18","no","white","no","yes","768","legacy","64","64","C:/Users/Jennifer Wright/Desktop/PSYC5613/th-subject-4.csv","legacy","Lentiform Loewenfeld","3.3.3","0","s","NA","s","NA","NA","s","473","NA","232378","NA","NA","473","2","legacy","1024","2","48000","-16","experiment","SSSSS","4","even","NA","357971","6502","NA","NA","238883","NA","NA","344396","6493","NA","359152","359260","359736","359146","359259","Flanker Task","63","31544","65","yes","1024"
"96.9696969697","96.9696969697","483.757575758","483.757575758","black","legacy","legacy","legacy","0","incongruent","uniform","1","undefined","1","s","0","65","0","0","0","0","0","0","65","0","65","65","65","65","65","65","09/26/20 22:49:10","1500","The main experiment item","yes","FlankerTask.osexp","C:\Users\Jennifer Wright\Desktop\PSYC5613","no","mono","no","18","no","white","no","yes","768","legacy","65","65","C:/Users/Jennifer Wright/Desktop/PSYC5613/th-subject-4.csv","legacy","Lentiform Loewenfeld","3.3.3","0","s","NA","s","NA","NA","s","384","NA","232378","NA","NA","384","2","legacy","1024","2","48000","-16","experiment","HHSHH","4","even","NA","359801","6502","NA","NA","238883","NA","NA","344396","6493","NA","360995","361107","361494","360988","361106","Flanker Task","64","31928","66","yes","1024"
"97.0149253731","97.0149253731","483","483","black","legacy","legacy","legacy","0","congruent","uniform","1","undefined","1","s","0","66","0","0","0","0","0","0","66","0","66","66","66","66","66","66","09/26/20 22:49:10","1500","The main experiment item","yes","FlankerTask.osexp","C:\Users\Jennifer Wright\Desktop\PSYC5613","no","mono","no","18","no","white","no","yes","768","legacy","66","66","C:/Users/Jennifer Wright/Desktop/PSYC5613/th-subject-4.csv","legacy","Lentiform Loewenfeld","3.3.3","0","s","NA","s","NA","NA","s","433","NA","232378","NA","NA","433","2","legacy","1024","2","48000","-16","experiment","SSSSS","4","even","NA","361560","6502","NA","NA","238883","NA","NA","344396","6493","NA","362752","362863","363300","362745","362863","Flanker Task","65","32361","67","yes","1024"
"97.0588235294","97.0588235294","483.382352941","483.382352941","black","legacy","legacy","legacy","0","incongruent","uniform","1","undefined","1","s","0","67","0","0","0","0","0","0","67","0","67","67","67","67","67","67","09/26/20 22:49:10","1500","The main experiment item","yes","FlankerTask.osexp","C:\Users\Jennifer Wright\Desktop\PSYC5613","no","mono","no","18","no","white","no","yes","768","legacy","67","67","C:/Users/Jennifer Wright/Desktop/PSYC5613/th-subject-4.csv","legacy","Lentiform Loewenfeld","3.3.3","0","s","NA","s","NA","NA","s","509","NA","232378","NA","NA","509","2","legacy","1024","2","48000","-16","experiment","HHSHH","4","even","NA","363367","6502","NA","NA","238883","NA","NA","344396","6493","NA","364555","364662","365174","364548","364662","Flanker Task","66","32870","68","yes","1024"
"97.1014492754","97.1014492754","483.072463768","483.072463768","black","legacy","legacy","legacy","0","incongruent","uniform","1","undefined","1","h","0","68","0","0","0","0","0","0","68","0","68","68","68","68","68","68","09/26/20 22:49:10","1500","The main experiment item","yes","FlankerTask.osexp","C:\Users\Jennifer Wright\Desktop\PSYC5613","no","mono","no","18","no","white","no","yes","768","legacy","68","68","C:/Users/Jennifer Wright/Desktop/PSYC5613/th-subject-4.csv","legacy","Lentiform Loewenfeld","3.3.3","0","h","NA","s","NA","NA","h","462","NA","232378","NA","NA","462","2","legacy","1024","2","48000","-16","experiment","SSHSS","4","even","NA","365233","6502","NA","NA","238883","NA","NA","344396","6493","NA","366411","366517","366982","366405","366517","Flanker Task","67","33332","69","yes","1024"
"97.1428571429","97.1428571429","483.785714286","483.785714286","black","legacy","legacy","legacy","0","incongruent","uniform","1","undefined","1","s","0","69","0","0","0","0","0","0","69","0","69","69","69","69","69","69","09/26/20 22:49:10","1500","The main experiment item","yes","FlankerTask.osexp","C:\Users\Jennifer Wright\Desktop\PSYC5613","no","mono","no","18","no","white","no","yes","768","legacy","69","69","C:/Users/Jennifer Wright/Desktop/PSYC5613/th-subject-4.csv","legacy","Lentiform Loewenfeld","3.3.3","0","s","NA","s","NA","NA","s","533","NA","232378","NA","NA","533","2","legacy","1024","2","48000","-16","experiment","HHSHH","4","even","NA","367040","6502","NA","NA","238883","NA","NA","344396","6493","NA","368239","368344","368881","368232","368344","Flanker Task","68","33865","70","yes","1024"
"97.1830985915","97.1830985915","484.197183099","484.197183099","black","legacy","legacy","legacy","0","incongruent","uniform","1","undefined","1","s","0","70","0","0","0","0","0","0","70","0","70","70","70","70","70","70","09/26/20 22:49:10","1500","The main experiment item","yes","FlankerTask.osexp","C:\Users\Jennifer Wright\Desktop\PSYC5613","no","mono","no","18","no","white","no","yes","768","legacy","70","70","C:/Users/Jennifer Wright/Desktop/PSYC5613/th-subject-4.csv","legacy","Lentiform Loewenfeld","3.3.3","0","s","NA","s","NA","NA","s","513","NA","232378","NA","NA","513","2","legacy","1024","2","48000","-16","experiment","HHSHH","4","even","NA","368946","6502","NA","NA","238883","NA","NA","344396","6493","NA","370148","370253","370769","370140","370253","Flanker Task","69","34378","71","yes","1024"
"97.2222222222","97.2222222222","484.875","484.875","black","legacy","legacy","legacy","0","congruent","uniform","1","undefined","1","h","0","71","0","0","0","0","0","0","71","0","71","71","71","71","71","71","09/26/20 22:49:10","1500","The main experiment item","yes","FlankerTask.osexp","C:\Users\Jennifer Wright\Desktop\PSYC5613","no","mono","no","18","no","white","no","yes","768","legacy","71","71","C:/Users/Jennifer Wright/Desktop/PSYC5613/th-subject-4.csv","legacy","Lentiform Loewenfeld","3.3.3","0","h","NA","s","NA","NA","h","533","NA","232378","NA","NA","533","2","legacy","1024","2","48000","-16","experiment","HHHHH","4","even","NA","370822","6502","NA","NA","238883","NA","NA","344396","6493","NA","372017","372122","372659","372010","372122","Flanker Task","70","34911","72","yes","1024"
"97.2602739726","97.2602739726","485.452054795","485.452054795","black","legacy","legacy","legacy","0","incongruent","uniform","1","undefined","1","h","0","72","0","0","0","0","0","0","72","0","72","72","72","72","72","72","09/26/20 22:49:10","1500","The main experiment item","yes","FlankerTask.osexp","C:\Users\Jennifer Wright\Desktop\PSYC5613","no","mono","no","18","no","white","no","yes","768","legacy","72","72","C:/Users/Jennifer Wright/Desktop/PSYC5613/th-subject-4.csv","legacy","Lentiform Loewenfeld","3.3.3","0","h","NA","s","NA","NA","h","527","NA","232378","NA","NA","527","2","legacy","1024","2","48000","-16","experiment","SSHSS","4","even","NA","372741","6502","NA","NA","238883","NA","NA","344396","6493","NA","373929","374040","374571","373923","374039","Flanker Task","71","35438","73","yes","1024"
"97.2972972973","97.2972972973","487.054054054","487.054054054","black","legacy","legacy","legacy","0","incongruent","uniform","1","undefined","1","h","0","73","0","0","0","0","0","0","73","0","73","73","73","73","73","73","09/26/20 22:49:10","1500","The main experiment item","yes","FlankerTask.osexp","C:\Users\Jennifer Wright\Desktop\PSYC5613","no","mono","no","18","no","white","no","yes","768","legacy","73","73","C:/Users/Jennifer Wright/Desktop/PSYC5613/th-subject-4.csv","legacy","Lentiform Loewenfeld","3.3.3","0","h","NA","s","NA","NA","h","604","NA","232378","NA","NA","604","2","legacy","1024","2","48000","-16","experiment","SSHSS","4","even","NA","374634","6502","NA","NA","238883","NA","NA","344396","6493","NA","375821","375929","376536","375814","375929","Flanker Task","72","36042","74","yes","1024"
"97.3333333333","97.3333333333","487.426666667","487.426666667","black","legacy","legacy","legacy","0","congruent","uniform","1","undefined","1","s","0","74","0","0","0","0","0","0","74","0","74","74","74","74","74","74","09/26/20 22:49:10","1500","The main experiment item","yes","FlankerTask.osexp","C:\Users\Jennifer Wright\Desktop\PSYC5613","no","mono","no","18","no","white","no","yes","768","legacy","74","74","C:/Users/Jennifer Wright/Desktop/PSYC5613/th-subject-4.csv","legacy","Lentiform Loewenfeld","3.3.3","0","s","NA","s","NA","NA","s","515","NA","232378","NA","NA","515","2","legacy","1024","2","48000","-16","experiment","SSSSS","4","even","NA","376590","6502","NA","NA","238883","NA","NA","344396","6493","NA","377776","377883","378402","377769","377882","Flanker Task","73","36557","75","yes","1024"
"97.3684210526","97.3684210526","488.578947368","488.578947368","black","legacy","legacy","legacy","0","incongruent","uniform","1","undefined","1","h","0","75","0","0","0","0","0","0","75","0","75","75","75","75","75","75","09/26/20 22:49:10","1500","The main experiment item","yes","FlankerTask.osexp","C:\Users\Jennifer Wright\Desktop\PSYC5613","no","mono","no","18","no","white","no","yes","768","legacy","75","75","C:/Users/Jennifer Wright/Desktop/PSYC5613/th-subject-4.csv","legacy","Lentiform Loewenfeld","3.3.3","0","h","NA","s","NA","NA","h","575","NA","232378","NA","NA","575","2","legacy","1024","2","48000","-16","experiment","SSHSS","4","even","NA","378444","6502","NA","NA","238883","NA","NA","344396","6493","NA","379631","379738","380316","379625","379738","Flanker Task","74","37132","76","yes","1024"
"97.4025974026","97.4025974026","487.649350649","487.649350649","black","legacy","legacy","legacy","0","congruent","uniform","1","undefined","1","s","0","76","0","0","0","0","0","0","76","0","76","76","76","76","76","76","09/26/20 22:49:10","1500","The main experiment item","yes","FlankerTask.osexp","C:\Users\Jennifer Wright\Desktop\PSYC5613","no","mono","no","18","no","white","no","yes","768","legacy","76","76","C:/Users/Jennifer Wright/Desktop/PSYC5613/th-subject-4.csv","legacy","Lentiform Loewenfeld","3.3.3","0","s","NA","s","NA","NA","s","417","NA","232378","NA","NA","417","2","legacy","1024","2","48000","-16","experiment","SSSSS","4","even","NA","380380","6502","NA","NA","238883","NA","NA","344396","6493","NA","381569","381676","382097","381562","381676","Flanker Task","75","37549","77","yes","1024"
"97.4358974359","97.4358974359","488.525641026","488.525641026","black","legacy","legacy","legacy","0","incongruent","uniform","1","undefined","1","h","0","77","0","0","0","0","0","0","77","0","77","77","77","77","77","77","09/26/20 22:49:10","1500","The main experiment item","yes","FlankerTask.osexp","C:\Users\Jennifer Wright\Desktop\PSYC5613","no","mono","no","18","no","white","no","yes","768","legacy","77","77","C:/Users/Jennifer Wright/Desktop/PSYC5613/th-subject-4.csv","legacy","Lentiform Loewenfeld","3.3.3","0","h","NA","s","NA","NA","h","556","NA","232378","NA","NA","556","2","legacy","1024","2","48000","-16","experiment","SSHSS","4","even","NA","382164","6502","NA","NA","238883","NA","NA","344396","6493","NA","383350","383464","384023","383344","383464","Flanker Task","76","38105","78","yes","1024"
"97.4683544304","97.4683544304","488.594936709","488.594936709","black","legacy","legacy","legacy","0","congruent","uniform","1","undefined","1","h","0","78","0","0","0","0","0","0","78","0","78","78","78","78","78","78","09/26/20 22:49:10","1500","The main experiment item","yes","FlankerTask.osexp","C:\Users\Jennifer Wright\Desktop\PSYC5613","no","mono","no","18","no","white","no","yes","768","legacy","78","78","C:/Users/Jennifer Wright/Desktop/PSYC5613/th-subject-4.csv","legacy","Lentiform Loewenfeld","3.3.3","0","h","NA","s","NA","NA","h","494","NA","232378","NA","NA","494","2","legacy","1024","2","48000","-16","experiment","HHHHH","4","even","NA","384091","6502","NA","NA","238883","NA","NA","344396","6493","NA","385270","385379","385877","385264","385378","Flanker Task","77","38599","79","yes","1024"
"97.5","97.5","488.6125","488.6125","black","legacy","legacy","legacy","0","congruent","uniform","1","undefined","1","h","0","79","0","0","0","0","0","0","79","0","79","79","79","79","79","79","09/26/20 22:49:10","1500","The main experiment item","yes","FlankerTask.osexp","C:\Users\Jennifer Wright\Desktop\PSYC5613","no","mono","no","18","no","white","no","yes","768","legacy","79","79","C:/Users/Jennifer Wright/Desktop/PSYC5613/th-subject-4.csv","legacy","Lentiform Loewenfeld","3.3.3","0","h","NA","s","NA","NA","h","490","NA","232378","NA","NA","490","2","legacy","1024","2","48000","-16","experiment","HHHHH","4","even","NA","385949","6502","NA","NA","238883","NA","NA","344396","6493","NA","387135","387240","387733","387128","387239","Flanker Task","78","39089","80","yes","1024"
"97.5308641975","97.5308641975","490.543209877","490.543209877","black","legacy","legacy","legacy","0","incongruent","uniform","1","undefined","1","s","0","80","0","0","0","0","0","0","80","0","80","80","80","80","80","80","09/26/20 22:49:10","600","The main experiment item","yes","FlankerTask.osexp","C:\Users\Jennifer Wright\Desktop\PSYC5613","no","mono","no","18","no","white","no","yes","768","legacy","0","79","C:/Users/Jennifer Wright/Desktop/PSYC5613/th-subject-4.csv","legacy","Lentiform Loewenfeld","3.3.3","0","s","NA","s","s","NA","s","645","NA","232378","28443","NA","645","2","legacy","1024","2","48000","-16","experiment","HHSHH","4","even","NA","387819","6502","388864","NA","238883","417310","NA","344396","6493","NA","417497","417603","418251","417493","417603","Flanker Task","79","39734","81","yes","1024"
"97.5609756098","97.5609756098","490.365853659","490.365853659","black","legacy","legacy","legacy","0","incongruent","uniform","1","undefined","1","s","0","81","0","0","0","0","0","0","81","0","81","81","81","81","81","81","09/26/20 22:49:10","600","The main experiment item","yes","FlankerTask.osexp","C:\Users\Jennifer Wright\Desktop\PSYC5613","no","mono","no","18","no","white","no","yes","768","legacy","1","79","C:/Users/Jennifer Wright/Desktop/PSYC5613/th-subject-4.csv","legacy","Lentiform Loewenfeld","3.3.3","0","s","NA","s","s","NA","s","476","NA","232378","28443","NA","476","2","legacy","1024","2","48000","-16","experiment","HHSHH","4","even","NA","418316","6502","388864","NA","238883","417310","NA","344396","6493","NA","419517","419622","420101","419510","419622","Flanker Task","80","40210","82","yes","1024"
"97.5903614458","97.5903614458","489.686746988","489.686746988","black","legacy","legacy","legacy","0","congruent","uniform","1","undefined","1","h","0","82","0","0","0","0","0","0","82","0","82","82","82","82","82","82","09/26/20 22:49:10","600","The main experiment item","yes","FlankerTask.osexp","C:\Users\Jennifer Wright\Desktop\PSYC5613","no","mono","no","18","no","white","no","yes","768","legacy","2","79","C:/Users/Jennifer Wright/Desktop/PSYC5613/th-subject-4.csv","legacy","Lentiform Loewenfeld","3.3.3","0","h","NA","s","s","NA","h","434","NA","232378","28443","NA","434","2","legacy","1024","2","48000","-16","experiment","HHHHH","4","even","NA","420167","6502","388864","NA","238883","417310","NA","344396","6493","NA","421367","421474","421912","421359","421474","Flanker Task","81","40644","83","yes","1024"
"97.619047619","97.619047619","488.892857143","488.892857143","black","legacy","legacy","legacy","0","congruent","uniform","1","undefined","1","h","0","83","0","0","0","0","0","0","83","0","83","83","83","83","83","83","09/26/20 22:49:10","600","The main experiment item","yes","FlankerTask.osexp","C:\Users\Jennifer Wright\Desktop\PSYC5613","no","mono","no","18","no","white","no","yes","768","legacy","3","79","C:/Users/Jennifer Wright/Desktop/PSYC5613/th-subject-4.csv","legacy","Lentiform Loewenfeld","3.3.3","0","h","NA","s","s","NA","h","423","NA","232378","28443","NA","423","2","legacy","1024","2","48000","-16","experiment","HHHHH","4","even","NA","421982","6502","388864","NA","238883","417310","NA","344396","6493","NA","423177","423283","423710","423170","423283","Flanker Task","82","41067","84","yes","1024"
"97.6470588235","97.6470588235","488.764705882","488.764705882","black","legacy","legacy","legacy","0","incongruent","uniform","1","undefined","1","s","0","84","0","0","0","0","0","0","84","0","84","84","84","84","84","84","09/26/20 22:49:10","600","The main experiment item","yes","FlankerTask.osexp","C:\Users\Jennifer Wright\Desktop\PSYC5613","no","mono","no","18","no","white","no","yes","768","legacy","4","79","C:/Users/Jennifer Wright/Desktop/PSYC5613/th-subject-4.csv","legacy","Lentiform Loewenfeld","3.3.3","0","s","NA","s","s","NA","s","478","NA","232378","28443","NA","478","2","legacy","1024","2","48000","-16","experiment","HHSHH","4","even","NA","423734","6502","388864","NA","238883","417310","NA","344396","6493","NA","424929","425036","425517","424922","425036","Flanker Task","83","41545","85","yes","1024"
"97.6744186047","97.6744186047","489.465116279","489.465116279","black","legacy","legacy","legacy","0","incongruent","uniform","1","undefined","1","s","0","85","0","0","0","0","0","0","85","0","85","85","85","85","85","85","09/26/20 22:49:10","600","The main experiment item","yes","FlankerTask.osexp","C:\Users\Jennifer Wright\Desktop\PSYC5613","no","mono","no","18","no","white","no","yes","768","legacy","5","79","C:/Users/Jennifer Wright/Desktop/PSYC5613/th-subject-4.csv","legacy","Lentiform Loewenfeld","3.3.3","0","s","NA","s","s","NA","s","549","NA","232378","28443","NA","549","2","legacy","1024","2","48000","-16","experiment","HHSHH","4","even","NA","425597","6502","388864","NA","238883","417310","NA","344396","6493","NA","426789","426899","427452","426783","426899","Flanker Task","84","42094","86","yes","1024"
"97.7011494253","97.7011494253","488.103448276","488.103448276","black","legacy","legacy","legacy","0","congruent","uniform","1","undefined","1","s","0","86","0","0","0","0","0","0","86","0","86","86","86","86","86","86","09/26/20 22:49:10","600","The main experiment item","yes","FlankerTask.osexp","C:\Users\Jennifer Wright\Desktop\PSYC5613","no","mono","no","18","no","white","no","yes","768","legacy","6","79","C:/Users/Jennifer Wright/Desktop/PSYC5613/th-subject-4.csv","legacy","Lentiform Loewenfeld","3.3.3","0","s","NA","s","s","NA","s","371","NA","232378","28443","NA","371","2","legacy","1024","2","48000","-16","experiment","SSSSS","4","even","NA","427512","6502","388864","NA","238883","417310","NA","344396","6493","NA","428703","428812","429187","428696","428811","Flanker Task","85","42465","87","yes","1024"
"97.7272727273","97.7272727273","486.852272727","486.852272727","black","legacy","legacy","legacy","0","congruent","uniform","1","undefined","1","s","0","87","0","0","0","0","0","0","87","0","87","87","87","87","87","87","09/26/20 22:49:10","600","The main experiment item","yes","FlankerTask.osexp","C:\Users\Jennifer Wright\Desktop\PSYC5613","no","mono","no","18","no","white","no","yes","768","legacy","7","79","C:/Users/Jennifer Wright/Desktop/PSYC5613/th-subject-4.csv","legacy","Lentiform Loewenfeld","3.3.3","0","s","NA","s","s","NA","s","378","NA","232378","28443","NA","378","2","legacy","1024","2","48000","-16","experiment","SSSSS","4","even","NA","429253","6502","388864","NA","238883","417310","NA","344396","6493","NA","430432","430539","430921","430425","430538","Flanker Task","86","42843","88","yes","1024"
"97.7528089888","97.7528089888","486.213483146","486.213483146","black","legacy","legacy","legacy","0","incongruent","uniform","1","undefined","1","h","0","88","0","0","0","0","0","0","88","0","88","88","88","88","88","88","09/26/20 22:49:10","600","The main experiment item","yes","FlankerTask.osexp","C:\Users\Jennifer Wright\Desktop\PSYC5613","no","mono","no","18","no","white","no","yes","768","legacy","8","79","C:/Users/Jennifer Wright/Desktop/PSYC5613/th-subject-4.csv","legacy","Lentiform Loewenfeld","3.3.3","0","h","NA","s","s","NA","h","430","NA","232378","28443","NA","430","2","legacy","1024","2","48000","-16","experiment","SSHSS","4","even","NA","430977","6502","388864","NA","238883","417310","NA","344396","6493","NA","432169","432274","432708","432162","432274","Flanker Task","87","43273","89","yes","1024"
"97.7777777778","97.7777777778","485.077777778","485.077777778","black","legacy","legacy","legacy","0","incongruent","uniform","1","undefined","1","h","0","89","0","0","0","0","0","0","89","0","89","89","89","89","89","89","09/26/20 22:49:10","600","The main experiment item","yes","FlankerTask.osexp","C:\Users\Jennifer Wright\Desktop\PSYC5613","no","mono","no","18","no","white","no","yes","768","legacy","9","79","C:/Users/Jennifer Wright/Desktop/PSYC5613/th-subject-4.csv","legacy","Lentiform Loewenfeld","3.3.3","0","h","NA","s","s","NA","h","384","NA","232378","28443","NA","384","2","legacy","1024","2","48000","-16","experiment","SSHSS","4","even","NA","432774","6502","388864","NA","238883","417310","NA","344396","6493","NA","433973","434079","434467","433966","434079","Flanker Task","88","43657","90","yes","1024"
"97.8021978022","97.8021978022","484.098901099","484.098901099","black","legacy","legacy","legacy","0","incongruent","uniform","1","undefined","1","h","0","90","0","0","0","0","0","0","90","0","90","90","90","90","90","90","09/26/20 22:49:10","600","The main experiment item","yes","FlankerTask.osexp","C:\Users\Jennifer Wright\Desktop\PSYC5613","no","mono","no","18","no","white","no","yes","768","legacy","10","79","C:/Users/Jennifer Wright/Desktop/PSYC5613/th-subject-4.csv","legacy","Lentiform Loewenfeld","3.3.3","0","h","NA","s","s","NA","h","396","NA","232378","28443","NA","396","2","legacy","1024","2","48000","-16","experiment","SSHSS","4","even","NA","434535","6502","388864","NA","238883","417310","NA","344396","6493","NA","435719","435825","436225","435713","435825","Flanker Task","89","44053","91","yes","1024"
"97.8260869565","97.8260869565","484.282608696","484.282608696","black","legacy","legacy","legacy","0","congruent","uniform","1","undefined","1","s","0","91","0","0","0","0","0","0","91","0","91","91","91","91","91","91","09/26/20 22:49:10","600","The main experiment item","yes","FlankerTask.osexp","C:\Users\Jennifer Wright\Desktop\PSYC5613","no","mono","no","18","no","white","no","yes","768","legacy","11","79","C:/Users/Jennifer Wright/Desktop/PSYC5613/th-subject-4.csv","legacy","Lentiform Loewenfeld","3.3.3","0","s","NA","s","s","NA","s","501","NA","232378","28443","NA","501","2","legacy","1024","2","48000","-16","experiment","SSSSS","4","even","NA","436297","6502","388864","NA","238883","417310","NA","344396","6493","NA","437496","437602","438107","437489","437602","Flanker Task","90","44554","92","yes","1024"
"97.8494623656","97.8494623656","485.043010753","485.043010753","black","legacy","legacy","legacy","0","incongruent","uniform","1","undefined","1","s","0","92","0","0","0","0","0","0","92","0","92","92","92","92","92","92","09/26/20 22:49:10","600","The main experiment item","yes","FlankerTask.osexp","C:\Users\Jennifer Wright\Desktop\PSYC5613","no","mono","no","18","no","white","no","yes","768","legacy","12","79","C:/Users/Jennifer Wright/Desktop/PSYC5613/th-subject-4.csv","legacy","Lentiform Loewenfeld","3.3.3","0","s","NA","s","s","NA","s","555","NA","232378","28443","NA","555","2","legacy","1024","2","48000","-16","experiment","HHSHH","4","even","NA","438177","6502","388864","NA","238883","417310","NA","344396","6493","NA","439369","439475","440034","439362","439475","Flanker Task","91","45109","93","yes","1024"
"97.8723404255","97.8723404255","485.478723404","485.478723404","black","legacy","legacy","legacy","0","incongruent","uniform","1","undefined","1","h","0","93","0","0","0","0","0","0","93","0","93","93","93","93","93","93","09/26/20 22:49:10","600","The main experiment item","yes","FlankerTask.osexp","C:\Users\Jennifer Wright\Desktop\PSYC5613","no","mono","no","18","no","white","no","yes","768","legacy","13","79","C:/Users/Jennifer Wright/Desktop/PSYC5613/th-subject-4.csv","legacy","Lentiform Loewenfeld","3.3.3","0","h","NA","s","s","NA","h","526","NA","232378","28443","NA","526","2","legacy","1024","2","48000","-16","experiment","SSHSS","4","even","NA","440108","6502","388864","NA","238883","417310","NA","344396","6493","NA","441300","441406","441936","441293","441406","Flanker Task","92","45635","94","yes","1024"
"97.8947368421","97.8947368421","484.778947368","484.778947368","black","legacy","legacy","legacy","0","congruent","uniform","1","undefined","1","h","0","94","0","0","0","0","0","0","94","0","94","94","94","94","94","94","09/26/20 22:49:10","600","The main experiment item","yes","FlankerTask.osexp","C:\Users\Jennifer Wright\Desktop\PSYC5613","no","mono","no","18","no","white","no","yes","768","legacy","14","79","C:/Users/Jennifer Wright/Desktop/PSYC5613/th-subject-4.csv","legacy","Lentiform Loewenfeld","3.3.3","0","h","NA","s","s","NA","h","419","NA","232378","28443","NA","419","2","legacy","1024","2","48000","-16","experiment","HHHHH","4","even","NA","442007","6502","388864","NA","238883","417310","NA","344396","6493","NA","443207","443313","443736","443199","443313","Flanker Task","93","46054","95","yes","1024"
"97.9166666667","97.9166666667","484.833333333","484.833333333","black","legacy","legacy","legacy","0","congruent","uniform","1","undefined","1","h","0","95","0","0","0","0","0","0","95","0","95","95","95","95","95","95","09/26/20 22:49:10","600","The main experiment item","yes","FlankerTask.osexp","C:\Users\Jennifer Wright\Desktop\PSYC5613","no","mono","no","18","no","white","no","yes","768","legacy","15","79","C:/Users/Jennifer Wright/Desktop/PSYC5613/th-subject-4.csv","legacy","Lentiform Loewenfeld","3.3.3","0","h","NA","s","s","NA","h","490","NA","232378","28443","NA","490","2","legacy","1024","2","48000","-16","experiment","HHHHH","4","even","NA","443760","6502","388864","NA","238883","417310","NA","344396","6493","NA","444948","445054","445548","444941","445054","Flanker Task","94","46544","96","yes","1024"
"97.9381443299","97.9381443299","485.195876289","485.195876289","black","legacy","legacy","legacy","0","incongruent","uniform","1","undefined","1","h","0","96","0","0","0","0","0","0","96","0","96","96","96","96","96","96","09/26/20 22:49:10","600","The main experiment item","yes","FlankerTask.osexp","C:\Users\Jennifer Wright\Desktop\PSYC5613","no","mono","no","18","no","white","no","yes","768","legacy","16","79","C:/Users/Jennifer Wright/Desktop/PSYC5613/th-subject-4.csv","legacy","Lentiform Loewenfeld","3.3.3","0","h","NA","s","s","NA","h","520","NA","232378","28443","NA","520","2","legacy","1024","2","48000","-16","experiment","SSHSS","4","even","NA","445614","6502","388864","NA","238883","417310","NA","344396","6493","NA","446804","446910","447434","446798","446910","Flanker Task","95","47064","97","yes","1024"
"97.9591836735","97.9591836735","485.081632653","485.081632653","black","legacy","legacy","legacy","0","congruent","uniform","1","undefined","1","h","0","97","0","0","0","0","0","0","97","0","97","97","97","97","97","97","09/26/20 22:49:10","600","The main experiment item","yes","FlankerTask.osexp","C:\Users\Jennifer Wright\Desktop\PSYC5613","no","mono","no","18","no","white","no","yes","768","legacy","17","79","C:/Users/Jennifer Wright/Desktop/PSYC5613/th-subject-4.csv","legacy","Lentiform Loewenfeld","3.3.3","0","h","NA","s","s","NA","h","474","NA","232378","28443","NA","474","2","legacy","1024","2","48000","-16","experiment","HHHHH","4","even","NA","447499","6502","388864","NA","238883","417310","NA","344396","6493","NA","448687","448794","449272","448680","448793","Flanker Task","96","47538","98","yes","1024"
"97.9797979798","97.9797979798","484.696969697","484.696969697","black","legacy","legacy","legacy","0","incongruent","uniform","1","undefined","1","h","0","98","0","0","0","0","0","0","98","0","98","98","98","98","98","98","09/26/20 22:49:10","600","The main experiment item","yes","FlankerTask.osexp","C:\Users\Jennifer Wright\Desktop\PSYC5613","no","mono","no","18","no","white","no","yes","768","legacy","18","79","C:/Users/Jennifer Wright/Desktop/PSYC5613/th-subject-4.csv","legacy","Lentiform Loewenfeld","3.3.3","0","h","NA","s","s","NA","h","447","NA","232378","28443","NA","447","2","legacy","1024","2","48000","-16","experiment","SSHSS","4","even","NA","449331","6502","388864","NA","238883","417310","NA","344396","6493","NA","450527","450633","451084","450519","450633","Flanker Task","97","47985","99","yes","1024"
"98","98","484.08","484.08","black","legacy","legacy","legacy","0","congruent","uniform","1","undefined","1","s","0","99","0","0","0","0","0","0","99","0","99","99","99","99","99","99","09/26/20 22:49:10","600","The main experiment item","yes","FlankerTask.osexp","C:\Users\Jennifer Wright\Desktop\PSYC5613","no","mono","no","18","no","white","no","yes","768","legacy","19","79","C:/Users/Jennifer Wright/Desktop/PSYC5613/th-subject-4.csv","legacy","Lentiform Loewenfeld","3.3.3","0","s","NA","s","s","NA","s","423","NA","232378","28443","NA","423","2","legacy","1024","2","48000","-16","experiment","SSSSS","4","even","NA","451151","6502","388864","NA","238883","417310","NA","344396","6493","NA","452344","452452","452879","452336","452451","Flanker Task","98","48408","100","yes","1024"
"98.0198019802","98.0198019802","483.643564356","483.643564356","black","legacy","legacy","legacy","0","incongruent","uniform","1","undefined","1","s","0","100","0","0","0","0","0","0","100","0","100","100","100","100","100","100","09/26/20 22:49:10","600","The main experiment item","yes","FlankerTask.osexp","C:\Users\Jennifer Wright\Desktop\PSYC5613","no","mono","no","18","no","white","no","yes","768","legacy","20","79","C:/Users/Jennifer Wright/Desktop/PSYC5613/th-subject-4.csv","legacy","Lentiform Loewenfeld","3.3.3","0","s","NA","s","s","NA","s","440","NA","232378","28443","NA","440","2","legacy","1024","2","48000","-16","experiment","HHSHH","4","even","NA","452941","6502","388864","NA","238883","417310","NA","344396","6493","NA","454136","454245","454689","454130","454245","Flanker Task","99","48848","101","yes","1024"
"98.0392156863","98.0392156863","483.12745098","483.12745098","black","legacy","legacy","legacy","0","incongruent","uniform","1","undefined","1","s","0","101","0","0","0","0","0","0","101","0","101","101","101","101","101","101","09/26/20 22:49:10","600","The main experiment item","yes","FlankerTask.osexp","C:\Users\Jennifer Wright\Desktop\PSYC5613","no","mono","no","18","no","white","no","yes","768","legacy","21","79","C:/Users/Jennifer Wright/Desktop/PSYC5613/th-subject-4.csv","legacy","Lentiform Loewenfeld","3.3.3","0","s","NA","s","s","NA","s","431","NA","232378","28443","NA","431","2","legacy","1024","2","48000","-16","experiment","HHSHH","4","even","NA","454759","6502","388864","NA","238883","417310","NA","344396","6493","NA","455952","456061","456497","455945","456061","Flanker Task","100","49279","102","yes","1024"
"98.0582524272","98.0582524272","482.368932039","482.368932039","black","legacy","legacy","legacy","0","congruent","uniform","1","undefined","1","s","0","102","0","0","0","0","0","0","102","0","102","102","102","102","102","102","09/26/20 22:49:10","600","The main experiment item","yes","FlankerTask.osexp","C:\Users\Jennifer Wright\Desktop\PSYC5613","no","mono","no","18","no","white","no","yes","768","legacy","22","79","C:/Users/Jennifer Wright/Desktop/PSYC5613/th-subject-4.csv","legacy","Lentiform Loewenfeld","3.3.3","0","s","NA","s","s","NA","s","405","NA","232378","28443","NA","405","2","legacy","1024","2","48000","-16","experiment","SSSSS","4","even","NA","456562","6502","388864","NA","238883","417310","NA","344396","6493","NA","457757","457867","458277","457749","457866","Flanker Task","101","49684","103","yes","1024"
"98.0769230769","98.0769230769","482.480769231","482.480769231","black","legacy","legacy","legacy","0","incongruent","uniform","1","undefined","1","s","0","103","0","0","0","0","0","0","103","0","103","103","103","103","103","103","09/26/20 22:49:10","600","The main experiment item","yes","FlankerTask.osexp","C:\Users\Jennifer Wright\Desktop\PSYC5613","no","mono","no","18","no","white","no","yes","768","legacy","23","79","C:/Users/Jennifer Wright/Desktop/PSYC5613/th-subject-4.csv","legacy","Lentiform Loewenfeld","3.3.3","0","s","NA","s","s","NA","s","494","NA","232378","28443","NA","494","2","legacy","1024","2","48000","-16","experiment","HHSHH","4","even","NA","458346","6502","388864","NA","238883","417310","NA","344396","6493","NA","459547","459652","460150","459540","459652","Flanker Task","102","50178","104","yes","1024"
"98.0952380952","98.0952380952","483.19047619","483.19047619","black","legacy","legacy","legacy","0","congruent","uniform","1","undefined","1","h","0","104","0","0","0","0","0","0","104","0","104","104","104","104","104","104","09/26/20 22:49:10","600","The main experiment item","yes","FlankerTask.osexp","C:\Users\Jennifer Wright\Desktop\PSYC5613","no","mono","no","18","no","white","no","yes","768","legacy","24","79","C:/Users/Jennifer Wright/Desktop/PSYC5613/th-subject-4.csv","legacy","Lentiform Loewenfeld","3.3.3","0","h","NA","s","s","NA","h","557","NA","232378","28443","NA","557","2","legacy","1024","2","48000","-16","experiment","HHHHH","4","even","NA","460217","6502","388864","NA","238883","417310","NA","344396","6493","NA","461411","461519","462080","461404","461519","Flanker Task","103","50735","105","yes","1024"
"98.1132075472","98.1132075472","483.41509434","483.41509434","black","legacy","legacy","legacy","0","incongruent","uniform","1","undefined","1","h","0","105","0","0","0","0","0","0","105","0","105","105","105","105","105","105","09/26/20 22:49:10","600","The main experiment item","yes","FlankerTask.osexp","C:\Users\Jennifer Wright\Desktop\PSYC5613","no","mono","no","18","no","white","no","yes","768","legacy","25","79","C:/Users/Jennifer Wright/Desktop/PSYC5613/th-subject-4.csv","legacy","Lentiform Loewenfeld","3.3.3","0","h","NA","s","s","NA","h","507","NA","232378","28443","NA","507","2","legacy","1024","2","48000","-16","experiment","SSHSS","4","even","NA","462153","6502","388864","NA","238883","417310","NA","344396","6493","NA","463356","463462","463973","463349","463462","Flanker Task","104","51242","106","yes","1024"
"98.1308411215","98.1308411215","482.953271028","482.953271028","black","legacy","legacy","legacy","0","congruent","uniform","1","undefined","1","h","0","106","0","0","0","0","0","0","106","0","106","106","106","106","106","106","09/26/20 22:49:10","600","The main experiment item","yes","FlankerTask.osexp","C:\Users\Jennifer Wright\Desktop\PSYC5613","no","mono","no","18","no","white","no","yes","768","legacy","26","79","C:/Users/Jennifer Wright/Desktop/PSYC5613/th-subject-4.csv","legacy","Lentiform Loewenfeld","3.3.3","0","h","NA","s","s","NA","h","434","NA","232378","28443","NA","434","2","legacy","1024","2","48000","-16","experiment","HHHHH","4","even","NA","463996","6502","388864","NA","238883","417310","NA","344396","6493","NA","465190","465297","465736","465184","465296","Flanker Task","105","51676","107","yes","1024"
"98.1481481481","98.1481481481","482.805555556","482.805555556","black","legacy","legacy","legacy","0","congruent","uniform","1","undefined","1","h","0","107","0","0","0","0","0","0","107","0","107","107","107","107","107","107","09/26/20 22:49:10","600","The main experiment item","yes","FlankerTask.osexp","C:\Users\Jennifer Wright\Desktop\PSYC5613","no","mono","no","18","no","white","no","yes","768","legacy","27","79","C:/Users/Jennifer Wright/Desktop/PSYC5613/th-subject-4.csv","legacy","Lentiform Loewenfeld","3.3.3","0","h","NA","s","s","NA","h","467","NA","232378","28443","NA","467","2","legacy","1024","2","48000","-16","experiment","HHHHH","4","even","NA","465816","6502","388864","NA","238883","417310","NA","344396","6493","NA","466998","467109","467580","466991","467108","Flanker Task","106","52143","108","yes","1024"
"98.1651376147","98.1651376147","482.577981651","482.577981651","black","legacy","legacy","legacy","0","congruent","uniform","1","undefined","1","s","0","108","0","0","0","0","0","0","108","0","108","108","108","108","108","108","09/26/20 22:49:10","600","The main experiment item","yes","FlankerTask.osexp","C:\Users\Jennifer Wright\Desktop\PSYC5613","no","mono","no","18","no","white","no","yes","768","legacy","28","79","C:/Users/Jennifer Wright/Desktop/PSYC5613/th-subject-4.csv","legacy","Lentiform Loewenfeld","3.3.3","0","s","NA","s","s","NA","s","458","NA","232378","28443","NA","458","2","legacy","1024","2","48000","-16","experiment","SSSSS","4","even","NA","467645","6502","388864","NA","238883","417310","NA","344396","6493","NA","468837","468943","469405","468830","468942","Flanker Task","107","52601","109","yes","1024"
"98.1818181818","98.1818181818","481.963636364","481.963636364","black","legacy","legacy","legacy","0","congruent","uniform","1","undefined","1","s","0","109","0","0","0","0","0","0","109","0","109","109","109","109","109","109","09/26/20 22:49:10","600","The main experiment item","yes","FlankerTask.osexp","C:\Users\Jennifer Wright\Desktop\PSYC5613","no","mono","no","18","no","white","no","yes","768","legacy","29","79","C:/Users/Jennifer Wright/Desktop/PSYC5613/th-subject-4.csv","legacy","Lentiform Loewenfeld","3.3.3","0","s","NA","s","s","NA","s","415","NA","232378","28443","NA","415","2","legacy","1024","2","48000","-16","experiment","SSSSS","4","even","NA","469469","6502","388864","NA","238883","417310","NA","344396","6493","NA","470655","470767","471187","470648","470766","Flanker Task","108","53016","110","yes","1024"
"98.1981981982","98.1981981982","482.243243243","482.243243243","black","legacy","legacy","legacy","0","congruent","uniform","1","undefined","1","h","0","110","0","0","0","0","0","0","110","0","110","110","110","110","110","110","09/26/20 22:49:10","600","The main experiment item","yes","FlankerTask.osexp","C:\Users\Jennifer Wright\Desktop\PSYC5613","no","mono","no","18","no","white","no","yes","768","legacy","30","79","C:/Users/Jennifer Wright/Desktop/PSYC5613/th-subject-4.csv","legacy","Lentiform Loewenfeld","3.3.3","0","h","NA","s","s","NA","h","513","NA","232378","28443","NA","513","2","legacy","1024","2","48000","-16","experiment","HHHHH","4","even","NA","471260","6502","388864","NA","238883","417310","NA","344396","6493","NA","472451","472560","473077","472444","472559","Flanker Task","109","53529","111","yes","1024"
"98.2142857143","98.2142857143","482.446428571","482.446428571","black","legacy","legacy","legacy","0","congruent","uniform","1","undefined","1","s","0","111","0","0","0","0","0","0","111","0","111","111","111","111","111","111","09/26/20 22:49:10","600","The main experiment item","yes","FlankerTask.osexp","C:\Users\Jennifer Wright\Desktop\PSYC5613","no","mono","no","18","no","white","no","yes","768","legacy","31","79","C:/Users/Jennifer Wright/Desktop/PSYC5613/th-subject-4.csv","legacy","Lentiform Loewenfeld","3.3.3","0","s","NA","s","s","NA","s","505","NA","232378","28443","NA","505","2","legacy","1024","2","48000","-16","experiment","SSSSS","4","even","NA","473150","6502","388864","NA","238883","417310","NA","344396","6493","NA","474337","474445","474955","474330","474444","Flanker Task","110","54034","112","yes","1024"
"98.2300884956","98.2300884956","482.477876106","482.477876106","black","legacy","legacy","legacy","0","congruent","uniform","1","undefined","1","h","0","112","0","0","0","0","0","0","112","0","112","112","112","112","112","112","09/26/20 22:49:10","600","The main experiment item","yes","FlankerTask.osexp","C:\Users\Jennifer Wright\Desktop\PSYC5613","no","mono","no","18","no","white","no","yes","768","legacy","32","79","C:/Users/Jennifer Wright/Desktop/PSYC5613/th-subject-4.csv","legacy","Lentiform Loewenfeld","3.3.3","0","h","NA","s","s","NA","h","486","NA","232378","28443","NA","486","2","legacy","1024","2","48000","-16","experiment","HHHHH","4","even","NA","475031","6502","388864","NA","238883","417310","NA","344396","6493","NA","476222","476330","476820","476215","476330","Flanker Task","111","54520","113","yes","1024"
"98.2456140351","98.2456140351","483.596491228","483.596491228","black","legacy","legacy","legacy","0","incongruent","uniform","1","undefined","1","h","0","113","0","0","0","0","0","0","113","0","113","113","113","113","113","113","09/26/20 22:49:10","600","The main experiment item","yes","FlankerTask.osexp","C:\Users\Jennifer Wright\Desktop\PSYC5613","no","mono","no","18","no","white","no","yes","768","legacy","33","79","C:/Users/Jennifer Wright/Desktop/PSYC5613/th-subject-4.csv","legacy","Lentiform Loewenfeld","3.3.3","0","h","NA","s","s","NA","h","610","NA","232378","28443","NA","610","2","legacy","1024","2","48000","-16","experiment","SSHSS","4","even","NA","476939","6502","388864","NA","238883","417310","NA","344396","6493","NA","478121","478228","478843","478115","478227","Flanker Task","112","55130","114","yes","1024"
"98.2608695652","98.2608695652","483.443478261","483.443478261","black","legacy","legacy","legacy","0","congruent","uniform","1","undefined","1","h","0","114","0","0","0","0","0","0","114","0","114","114","114","114","114","114","09/26/20 22:49:10","600","The main experiment item","yes","FlankerTask.osexp","C:\Users\Jennifer Wright\Desktop\PSYC5613","no","mono","no","18","no","white","no","yes","768","legacy","34","79","C:/Users/Jennifer Wright/Desktop/PSYC5613/th-subject-4.csv","legacy","Lentiform Loewenfeld","3.3.3","0","h","NA","s","s","NA","h","466","NA","232378","28443","NA","466","2","legacy","1024","2","48000","-16","experiment","HHHHH","4","even","NA","478915","6502","388864","NA","238883","417310","NA","344396","6493","NA","480108","480212","480682","480100","480212","Flanker Task","113","55596","115","yes","1024"
"98.275862069","98.275862069","483.379310345","483.379310345","black","legacy","legacy","legacy","0","congruent","uniform","1","undefined","1","s","0","115","0","0","0","0","0","0","115","0","115","115","115","115","115","115","09/26/20 22:49:10","600","The main experiment item","yes","FlankerTask.osexp","C:\Users\Jennifer Wright\Desktop\PSYC5613","no","mono","no","18","no","white","no","yes","768","legacy","35","79","C:/Users/Jennifer Wright/Desktop/PSYC5613/th-subject-4.csv","legacy","Lentiform Loewenfeld","3.3.3","0","s","NA","s","s","NA","s","476","NA","232378","28443","NA","476","2","legacy","1024","2","48000","-16","experiment","SSSSS","4","even","NA","480714","6502","388864","NA","238883","417310","NA","344396","6493","NA","481899","482007","482488","481893","482007","Flanker Task","114","56072","116","yes","1024"
"98.2905982906","98.2905982906","483.222222222","483.222222222","black","legacy","legacy","legacy","0","congruent","uniform","1","undefined","1","h","0","116","0","0","0","0","0","0","116","0","116","116","116","116","116","116","09/26/20 22:49:10","600","The main experiment item","yes","FlankerTask.osexp","C:\Users\Jennifer Wright\Desktop\PSYC5613","no","mono","no","18","no","white","no","yes","768","legacy","36","79","C:/Users/Jennifer Wright/Desktop/PSYC5613/th-subject-4.csv","legacy","Lentiform Loewenfeld","3.3.3","0","h","NA","s","s","NA","h","465","NA","232378","28443","NA","465","2","legacy","1024","2","48000","-16","experiment","HHHHH","4","even","NA","482516","6502","388864","NA","238883","417310","NA","344396","6493","NA","483711","483817","484288","483705","483817","Flanker Task","115","56537","117","yes","1024"
"98.3050847458","98.3050847458","483.237288136","483.237288136","black","legacy","legacy","legacy","0","congruent","uniform","1","undefined","1","h","0","117","0","0","0","0","0","0","117","0","117","117","117","117","117","117","09/26/20 22:49:10","600","The main experiment item","yes","FlankerTask.osexp","C:\Users\Jennifer Wright\Desktop\PSYC5613","no","mono","no","18","no","white","no","yes","768","legacy","37","79","C:/Users/Jennifer Wright/Desktop/PSYC5613/th-subject-4.csv","legacy","Lentiform Loewenfeld","3.3.3","0","h","NA","s","s","NA","h","485","NA","232378","28443","NA","485","2","legacy","1024","2","48000","-16","experiment","HHHHH","4","even","NA","484321","6502","388864","NA","238883","417310","NA","344396","6493","NA","485526","485632","486121","485518","485632","Flanker Task","116","57022","118","yes","1024"
"98.3193277311","98.3193277311","483.235294118","483.235294118","black","legacy","legacy","legacy","0","congruent","uniform","1","undefined","1","s","0","118","0","0","0","0","0","0","118","0","118","118","118","118","118","118","09/26/20 22:49:10","600","The main experiment item","yes","FlankerTask.osexp","C:\Users\Jennifer Wright\Desktop\PSYC5613","no","mono","no","18","no","white","no","yes","768","legacy","38","79","C:/Users/Jennifer Wright/Desktop/PSYC5613/th-subject-4.csv","legacy","Lentiform Loewenfeld","3.3.3","0","s","NA","s","s","NA","s","483","NA","232378","28443","NA","483","2","legacy","1024","2","48000","-16","experiment","SSSSS","4","even","NA","486183","6502","388864","NA","238883","417310","NA","344396","6493","NA","487370","487481","487969","487363","487480","Flanker Task","117","57505","119","yes","1024"
"98.3333333333","98.3333333333","483.408333333","483.408333333","black","legacy","legacy","legacy","0","incongruent","uniform","1","undefined","1","h","0","119","0","0","0","0","0","0","119","0","119","119","119","119","119","119","09/26/20 22:49:10","600","The main experiment item","yes","FlankerTask.osexp","C:\Users\Jennifer Wright\Desktop\PSYC5613","no","mono","no","18","no","white","no","yes","768","legacy","39","79","C:/Users/Jennifer Wright/Desktop/PSYC5613/th-subject-4.csv","legacy","Lentiform Loewenfeld","3.3.3","0","h","NA","s","s","NA","h","504","NA","232378","28443","NA","504","2","legacy","1024","2","48000","-16","experiment","SSHSS","4","even","NA","488035","6502","388864","NA","238883","417310","NA","344396","6493","NA","489232","489337","489846","489226","489337","Flanker Task","118","58009","120","yes","1024"
"98.347107438","98.347107438","482.743801653","482.743801653","black","legacy","legacy","legacy","0","incongruent","uniform","1","undefined","1","h","0","120","0","0","0","0","0","0","120","0","120","120","120","120","120","120","09/26/20 22:49:10","600","The main experiment item","yes","FlankerTask.osexp","C:\Users\Jennifer Wright\Desktop\PSYC5613","no","mono","no","18","no","white","no","yes","768","legacy","40","79","C:/Users/Jennifer Wright/Desktop/PSYC5613/th-subject-4.csv","legacy","Lentiform Loewenfeld","3.3.3","0","h","NA","s","s","NA","h","403","NA","232378","28443","NA","403","2","legacy","1024","2","48000","-16","experiment","SSHSS","4","even","NA","489915","6502","388864","NA","238883","417310","NA","344396","6493","NA","491108","491215","491622","491101","491214","Flanker Task","119","58412","121","yes","1024"
