Stimulus,acc,accuracy,average_response_time,avg_rt,background,canvas_backend,clock_backend,color_backend,compensation,condition,coordinates,correct,correct_instructions1,correct_keyboard_response,correct_response,count_Block3,count_ErrorFeedback,count_ISI,count_Logger,count_block1,count_block2,count_experiment,count_faster,count_finish,count_fixation,count_instruction2,count_instructions1,count_instructions3,count_keyboard_response,count_sequence,count_stimulus,datetime,deadline,description,disable_garbage_collection,experiment_file,experiment_path,font_bold,font_family,font_italic,font_size,font_underline,foreground,form_clicks,fullscreen,height,keyboard_backend,live_row,live_row_block1,logfile,mouse_backend,opensesame_codename,opensesame_version,repeat_cycle,response,response_finish,response_instruction2,response_instructions1,response_instructions3,response_keyboard_response,response_time,response_time_finish,response_time_instruction2,response_time_instructions1,response_time_instructions3,response_time_keyboard_response,round_decimals,sampler_backend,sound_buf_size,sound_channels,sound_freq,sound_sample_size,start,subject_nr,subject_parity,time_Block3,time_ErrorFeedback,time_ISI,time_Logger,time_block1,time_block2,time_experiment,time_faster,time_finish,time_fixation,time_instruction2,time_instructions1,time_instructions3,time_keyboard_response,time_sequence,time_stimulus,title,total_correct,total_response_time,total_responses,uniform_coordinates,width
HHSHH,100,100,802,802,black,legacy,legacy,legacy,0,incongruent,uniform,1,undefined,1,s,0,0,0,0,0,0,0,0,0,0,0,0,0,0,0,0,Sun Sep 13 09:33:13 2020,1500,The main experiment item,yes,FlankerTask.osexp,C:/Users/Owner/Documents,no,mono,no,18,no,white,no,yes,768,legacy,0,0,C:/Users/Owner/Documents/KJPsubject-0.csv,legacy,Lentiform Loewenfeld,3.3.3,0,s,NA,NA,s,NA,s,802,NA,NA,8694,NA,802,2,legacy,1024,2,48000,-16,experiment,0,even,NA,NA,NA,12465,11499,NA,2800,NA,NA,11559,NA,2804,NA,11663,11558,11662,Flanker Test,1,802,1,yes,1024
SSSSS,100,100,640,640,black,legacy,legacy,legacy,0,congruent,uniform,1,undefined,1,s,0,1,1,1,0,0,0,1,0,1,0,0,0,1,1,1,Sun Sep 13 09:33:13 2020,1500,The main experiment item,yes,FlankerTask.osexp,C:/Users/Owner/Documents,no,mono,no,18,no,white,no,yes,768,legacy,1,1,C:/Users/Owner/Documents/KJPsubject-0.csv,legacy,Lentiform Loewenfeld,3.3.3,0,s,NA,NA,s,NA,s,478,NA,NA,8694,NA,478,2,legacy,1024,2,48000,-16,experiment,0,even,NA,NA,12471,14159,11499,NA,2800,NA,NA,13578,NA,2804,NA,13680,13577,13679,Flanker Test,2,1280,2,yes,1024
HHSHH,100,100,596,596,black,legacy,legacy,legacy,0,incongruent,uniform,1,undefined,1,s,0,2,2,2,0,0,0,2,0,2,0,0,0,2,2,2,Sun Sep 13 09:33:13 2020,1500,The main experiment item,yes,FlankerTask.osexp,C:/Users/Owner/Documents,no,mono,no,18,no,white,no,yes,768,legacy,2,2,C:/Users/Owner/Documents/KJPsubject-0.csv,legacy,Lentiform Loewenfeld,3.3.3,0,s,NA,NA,s,NA,s,508,NA,NA,8694,NA,508,2,legacy,1024,2,48000,-16,experiment,0,even,NA,NA,14162,15870,11499,NA,2800,NA,NA,15260,NA,2804,NA,15361,15258,15361,Flanker Test,3,1788,3,yes,1024
HHSHH,100,100,568.25,568.25,black,legacy,legacy,legacy,0,incongruent,uniform,1,undefined,1,s,0,3,3,3,0,0,0,3,0,3,0,0,0,3,3,3,Sun Sep 13 09:33:13 2020,1500,The main experiment item,yes,FlankerTask.osexp,C:/Users/Owner/Documents,no,mono,no,18,no,white,no,yes,768,legacy,3,3,C:/Users/Owner/Documents/KJPsubject-0.csv,legacy,Lentiform Loewenfeld,3.3.3,0,s,NA,NA,s,NA,s,485,NA,NA,8694,NA,485,2,legacy,1024,2,48000,-16,experiment,0,even,NA,NA,15874,17563,11499,NA,2800,NA,NA,16975,NA,2804,NA,17078,16974,17077,Flanker Test,4,2273,4,yes,1024
SSHSS,100,100,568.8,568.8,black,legacy,legacy,legacy,0,incongruent,uniform,1,undefined,1,h,0,4,4,4,0,0,0,4,0,4,0,0,0,4,4,4,Sun Sep 13 09:33:13 2020,1500,The main experiment item,yes,FlankerTask.osexp,C:/Users/Owner/Documents,no,mono,no,18,no,white,no,yes,768,legacy,4,4,C:/Users/Owner/Documents/KJPsubject-0.csv,legacy,Lentiform Loewenfeld,3.3.3,0,h,NA,NA,s,NA,h,571,NA,NA,8694,NA,571,2,legacy,1024,2,48000,-16,experiment,0,even,NA,NA,17567,19350,11499,NA,2800,NA,NA,18675,NA,2804,NA,18778,18673,18778,Flanker Test,5,2844,5,yes,1024
SSHSS,100,100,558.5,558.5,black,legacy,legacy,legacy,0,incongruent,uniform,1,undefined,1,h,0,5,5,5,0,0,0,5,0,5,0,0,0,5,5,5,Sun Sep 13 09:33:13 2020,1500,The main experiment item,yes,FlankerTask.osexp,C:/Users/Owner/Documents,no,mono,no,18,no,white,no,yes,768,legacy,5,5,C:/Users/Owner/Documents/KJPsubject-0.csv,legacy,Lentiform Loewenfeld,3.3.3,0,h,NA,NA,s,NA,h,507,NA,NA,8694,NA,507,2,legacy,1024,2,48000,-16,experiment,0,even,NA,NA,19354,21066,11499,NA,2800,NA,NA,20456,NA,2804,NA,20557,20454,20557,Flanker Test,6,3351,6,yes,1024
SSHSS,100,100,553.4285714,553.4285714,black,legacy,legacy,legacy,0,incongruent,uniform,1,undefined,1,h,0,6,6,6,0,0,0,6,0,6,0,0,0,6,6,6,Sun Sep 13 09:33:13 2020,1500,The main experiment item,yes,FlankerTask.osexp,C:/Users/Owner/Documents,no,mono,no,18,no,white,no,yes,768,legacy,6,6,C:/Users/Owner/Documents/KJPsubject-0.csv,legacy,Lentiform Loewenfeld,3.3.3,0,h,NA,NA,s,NA,h,523,NA,NA,8694,NA,523,2,legacy,1024,2,48000,-16,experiment,0,even,NA,NA,21069,22791,11499,NA,2800,NA,NA,22165,NA,2804,NA,22267,22164,22267,Flanker Test,7,3874,7,yes,1024
SSSSS,100,100,538.25,538.25,black,legacy,legacy,legacy,0,congruent,uniform,1,undefined,1,s,0,7,7,7,0,0,0,7,0,7,0,0,0,7,7,7,Sun Sep 13 09:33:13 2020,1500,The main experiment item,yes,FlankerTask.osexp,C:/Users/Owner/Documents,no,mono,no,18,no,white,no,yes,768,legacy,7,7,C:/Users/Owner/Documents/KJPsubject-0.csv,legacy,Lentiform Loewenfeld,3.3.3,0,s,NA,NA,s,NA,s,432,NA,NA,8694,NA,432,2,legacy,1024,2,48000,-16,experiment,0,even,NA,NA,22795,24434,11499,NA,2800,NA,NA,23897,NA,2804,NA,24001,23896,24001,Flanker Test,8,4306,8,yes,1024
SSSSS,100,100,527.6666667,527.6666667,black,legacy,legacy,legacy,0,congruent,uniform,1,undefined,1,s,0,8,8,8,0,0,0,8,0,8,0,0,0,8,8,8,Sun Sep 13 09:33:13 2020,1500,The main experiment item,yes,FlankerTask.osexp,C:/Users/Owner/Documents,no,mono,no,18,no,white,no,yes,768,legacy,8,8,C:/Users/Owner/Documents/KJPsubject-0.csv,legacy,Lentiform Loewenfeld,3.3.3,0,s,NA,NA,s,NA,s,443,NA,NA,8694,NA,443,2,legacy,1024,2,48000,-16,experiment,0,even,NA,NA,24437,26082,11499,NA,2800,NA,NA,25536,NA,2804,NA,25638,25534,25638,Flanker Test,9,4749,9,yes,1024
SSSSS,100,100,520.8,520.8,black,legacy,legacy,legacy,0,congruent,uniform,1,undefined,1,s,0,9,9,9,0,0,0,9,0,9,0,0,0,9,9,9,Sun Sep 13 09:33:13 2020,1500,The main experiment item,yes,FlankerTask.osexp,C:/Users/Owner/Documents,no,mono,no,18,no,white,no,yes,768,legacy,9,9,C:/Users/Owner/Documents/KJPsubject-0.csv,legacy,Lentiform Loewenfeld,3.3.3,0,s,NA,NA,s,NA,s,459,NA,NA,8694,NA,459,2,legacy,1024,2,48000,-16,experiment,0,even,NA,NA,26086,27755,11499,NA,2800,NA,NA,27194,NA,2804,NA,27295,27193,27295,Flanker Test,10,5208,10,yes,1024
SSSSS,100,100,511.9090909,511.9090909,black,legacy,legacy,legacy,0,congruent,uniform,1,undefined,1,s,0,10,10,10,0,0,0,10,0,10,0,0,0,10,10,10,Sun Sep 13 09:33:13 2020,1500,The main experiment item,yes,FlankerTask.osexp,C:/Users/Owner/Documents,no,mono,no,18,no,white,no,yes,768,legacy,10,10,C:/Users/Owner/Documents/KJPsubject-0.csv,legacy,Lentiform Loewenfeld,3.3.3,0,s,NA,NA,s,NA,s,423,NA,NA,8694,NA,423,2,legacy,1024,2,48000,-16,experiment,0,even,NA,NA,27759,29342,11499,NA,2800,NA,NA,28814,NA,2804,NA,28917,28812,28917,Flanker Test,11,5631,11,yes,1024
SSHSS,100,100,516.5833333,516.5833333,black,legacy,legacy,legacy,0,incongruent,uniform,1,undefined,1,h,0,11,11,11,0,0,0,11,0,11,0,0,0,11,11,11,Sun Sep 13 09:33:13 2020,1500,The main experiment item,yes,FlankerTask.osexp,C:/Users/Owner/Documents,no,mono,no,18,no,white,no,yes,768,legacy,11,11,C:/Users/Owner/Documents/KJPsubject-0.csv,legacy,Lentiform Loewenfeld,3.3.3,0,h,NA,NA,s,NA,h,568,NA,NA,8694,NA,568,2,legacy,1024,2,48000,-16,experiment,0,even,NA,NA,29344,31083,11499,NA,2800,NA,NA,30411,NA,2804,NA,30514,30409,30514,Flanker Test,12,6199,12,yes,1024
HHSHH,100,100,521.9230769,521.9230769,black,legacy,legacy,legacy,0,incongruent,uniform,1,undefined,1,s,0,12,12,12,0,0,0,12,0,12,0,0,0,12,12,12,Sun Sep 13 09:33:13 2020,1500,The main experiment item,yes,FlankerTask.osexp,C:/Users/Owner/Documents,no,mono,no,18,no,white,no,yes,768,legacy,12,12,C:/Users/Owner/Documents/KJPsubject-0.csv,legacy,Lentiform Loewenfeld,3.3.3,0,s,NA,NA,s,NA,s,586,NA,NA,8694,NA,586,2,legacy,1024,2,48000,-16,experiment,0,even,NA,NA,31086,32863,11499,NA,2800,NA,NA,32172,NA,2804,NA,32276,32171,32276,Flanker Test,13,6785,13,yes,1024
HHSHH,100,100,518.0714286,518.0714286,black,legacy,legacy,legacy,0,incongruent,uniform,1,undefined,1,s,0,13,13,13,0,0,0,13,0,13,0,0,0,13,13,13,Sun Sep 13 09:33:13 2020,1500,The main experiment item,yes,FlankerTask.osexp,C:/Users/Owner/Documents,no,mono,no,18,no,white,no,yes,768,legacy,13,13,C:/Users/Owner/Documents/KJPsubject-0.csv,legacy,Lentiform Loewenfeld,3.3.3,0,s,NA,NA,s,NA,s,468,NA,NA,8694,NA,468,2,legacy,1024,2,48000,-16,experiment,0,even,NA,NA,32867,34540,11499,NA,2800,NA,NA,33969,NA,2804,NA,34071,33967,34070,Flanker Test,14,7253,14,yes,1024
HHSHH,100,100,514.6666667,514.6666667,black,legacy,legacy,legacy,0,incongruent,uniform,1,undefined,1,s,0,14,14,14,0,0,0,14,0,14,0,0,0,14,14,14,Sun Sep 13 09:33:13 2020,1500,The main experiment item,yes,FlankerTask.osexp,C:/Users/Owner/Documents,no,mono,no,18,no,white,no,yes,768,legacy,14,14,C:/Users/Owner/Documents/KJPsubject-0.csv,legacy,Lentiform Loewenfeld,3.3.3,0,s,NA,NA,s,NA,s,467,NA,NA,8694,NA,467,2,legacy,1024,2,48000,-16,experiment,0,even,NA,NA,34545,36224,11499,NA,2800,NA,NA,35652,NA,2804,NA,35756,35650,35756,Flanker Test,15,7720,15,yes,1024
SSSSS,100,100,513.6875,513.6875,black,legacy,legacy,legacy,0,congruent,uniform,1,undefined,1,s,0,15,15,15,0,0,0,15,0,15,0,0,0,15,15,15,Sun Sep 13 09:33:13 2020,1500,The main experiment item,yes,FlankerTask.osexp,C:/Users/Owner/Documents,no,mono,no,18,no,white,no,yes,768,legacy,15,15,C:/Users/Owner/Documents/KJPsubject-0.csv,legacy,Lentiform Loewenfeld,3.3.3,0,s,NA,NA,s,NA,s,499,NA,NA,8694,NA,499,2,legacy,1024,2,48000,-16,experiment,0,even,NA,NA,36228,37934,11499,NA,2800,NA,NA,37333,NA,2804,NA,37434,37331,37434,Flanker Test,16,8219,16,yes,1024
HHHHH,100,100,510.6470588,510.6470588,black,legacy,legacy,legacy,0,congruent,uniform,1,undefined,1,h,0,16,16,16,0,0,0,16,0,16,0,0,0,16,16,16,Sun Sep 13 09:33:13 2020,1500,The main experiment item,yes,FlankerTask.osexp,C:/Users/Owner/Documents,no,mono,no,18,no,white,no,yes,768,legacy,16,16,C:/Users/Owner/Documents/KJPsubject-0.csv,legacy,Lentiform Loewenfeld,3.3.3,0,h,NA,NA,s,NA,h,462,NA,NA,8694,NA,462,2,legacy,1024,2,48000,-16,experiment,0,even,NA,NA,37937,39600,11499,NA,2800,NA,NA,39035,NA,2804,NA,39137,39034,39137,Flanker Test,17,8681,17,yes,1024
HHSHH,100,100,510.8333333,510.8333333,black,legacy,legacy,legacy,0,incongruent,uniform,1,undefined,1,s,0,17,17,17,0,0,0,17,0,17,0,0,0,17,17,17,Sun Sep 13 09:33:13 2020,1500,The main experiment item,yes,FlankerTask.osexp,C:/Users/Owner/Documents,no,mono,no,18,no,white,no,yes,768,legacy,17,17,C:/Users/Owner/Documents/KJPsubject-0.csv,legacy,Lentiform Loewenfeld,3.3.3,0,s,NA,NA,s,NA,s,514,NA,NA,8694,NA,514,2,legacy,1024,2,48000,-16,experiment,0,even,NA,NA,39603,41302,11499,NA,2800,NA,NA,40686,NA,2804,NA,40787,40684,40787,Flanker Test,18,9195,18,yes,1024
HHHHH,100,100,508.4736842,508.4736842,black,legacy,legacy,legacy,0,congruent,uniform,1,undefined,1,h,0,18,18,18,0,0,0,18,0,18,0,0,0,18,18,18,Sun Sep 13 09:33:13 2020,1500,The main experiment item,yes,FlankerTask.osexp,C:/Users/Owner/Documents,no,mono,no,18,no,white,no,yes,768,legacy,18,18,C:/Users/Owner/Documents/KJPsubject-0.csv,legacy,Lentiform Loewenfeld,3.3.3,0,h,NA,NA,s,NA,h,466,NA,NA,8694,NA,466,2,legacy,1024,2,48000,-16,experiment,0,even,NA,NA,41306,42984,11499,NA,2800,NA,NA,42412,NA,2804,NA,42517,42411,42517,Flanker Test,19,9661,19,yes,1024
SSSSS,100,100,504.95,504.95,black,legacy,legacy,legacy,0,congruent,uniform,1,undefined,1,s,0,19,19,19,0,0,0,19,0,19,0,0,0,19,19,19,Sun Sep 13 09:33:13 2020,1500,The main experiment item,yes,FlankerTask.osexp,C:/Users/Owner/Documents,no,mono,no,18,no,white,no,yes,768,legacy,19,19,C:/Users/Owner/Documents/KJPsubject-0.csv,legacy,Lentiform Loewenfeld,3.3.3,0,s,NA,NA,s,NA,s,438,NA,NA,8694,NA,438,2,legacy,1024,2,48000,-16,experiment,0,even,NA,NA,42988,44636,11499,NA,2800,NA,NA,44095,NA,2804,NA,44197,44093,44197,Flanker Test,20,10099,20,yes,1024
SSHSS,100,100,508.952381,508.952381,black,legacy,legacy,legacy,0,incongruent,uniform,1,undefined,1,h,0,20,20,20,0,0,0,20,0,20,0,0,0,20,20,20,Sun Sep 13 09:33:13 2020,1500,The main experiment item,yes,FlankerTask.osexp,C:/Users/Owner/Documents,no,mono,no,18,no,white,no,yes,768,legacy,20,20,C:/Users/Owner/Documents/KJPsubject-0.csv,legacy,Lentiform Loewenfeld,3.3.3,0,h,NA,NA,s,NA,h,589,NA,NA,8694,NA,589,2,legacy,1024,2,48000,-16,experiment,0,even,NA,NA,44639,46438,11499,NA,2800,NA,NA,45744,NA,2804,NA,45848,45742,45848,Flanker Test,21,10688,21,yes,1024
HHHHH,100,100,508.1818182,508.1818182,black,legacy,legacy,legacy,0,congruent,uniform,1,undefined,1,h,0,21,21,21,0,0,0,21,0,21,0,0,0,21,21,21,Sun Sep 13 09:33:13 2020,1500,The main experiment item,yes,FlankerTask.osexp,C:/Users/Owner/Documents,no,mono,no,18,no,white,no,yes,768,legacy,21,21,C:/Users/Owner/Documents/KJPsubject-0.csv,legacy,Lentiform Loewenfeld,3.3.3,0,h,NA,NA,s,NA,h,492,NA,NA,8694,NA,492,2,legacy,1024,2,48000,-16,experiment,0,even,NA,NA,46440,48094,11499,NA,2800,NA,NA,47496,NA,2804,NA,47600,47494,47600,Flanker Test,22,11180,22,yes,1024
SSHSS,100,100,511.0869565,511.0869565,black,legacy,legacy,legacy,0,incongruent,uniform,1,undefined,1,h,0,22,22,22,0,0,0,22,0,22,0,0,0,22,22,22,Sun Sep 13 09:33:13 2020,1500,The main experiment item,yes,FlankerTask.osexp,C:/Users/Owner/Documents,no,mono,no,18,no,white,no,yes,768,legacy,22,22,C:/Users/Owner/Documents/KJPsubject-0.csv,legacy,Lentiform Loewenfeld,3.3.3,0,h,NA,NA,s,NA,h,575,NA,NA,8694,NA,575,2,legacy,1024,2,48000,-16,experiment,0,even,NA,NA,48097,49863,11499,NA,2800,NA,NA,49185,NA,2804,NA,49286,49184,49286,Flanker Test,23,11755,23,yes,1024
HHSHH,100,100,512.5416667,512.5416667,black,legacy,legacy,legacy,0,incongruent,uniform,1,undefined,1,s,0,23,23,23,0,0,0,23,0,23,0,0,0,23,23,23,Sun Sep 13 09:33:13 2020,1500,The main experiment item,yes,FlankerTask.osexp,C:/Users/Owner/Documents,no,mono,no,18,no,white,no,yes,768,legacy,23,23,C:/Users/Owner/Documents/KJPsubject-0.csv,legacy,Lentiform Loewenfeld,3.3.3,0,s,NA,NA,s,NA,s,546,NA,NA,8694,NA,546,2,legacy,1024,2,48000,-16,experiment,0,even,NA,NA,49866,51619,11499,NA,2800,NA,NA,50972,NA,2804,NA,51073,50970,51073,Flanker Test,24,12301,24,yes,1024
HHHHH,100,100,511.8,511.8,black,legacy,legacy,legacy,0,congruent,uniform,1,undefined,1,h,0,24,24,24,0,0,0,24,0,24,0,0,0,24,24,24,Sun Sep 13 09:33:13 2020,1500,The main experiment item,yes,FlankerTask.osexp,C:/Users/Owner/Documents,no,mono,no,18,no,white,no,yes,768,legacy,24,24,C:/Users/Owner/Documents/KJPsubject-0.csv,legacy,Lentiform Loewenfeld,3.3.3,0,h,NA,NA,s,NA,h,494,NA,NA,8694,NA,494,2,legacy,1024,2,48000,-16,experiment,0,even,NA,NA,51623,53332,11499,NA,2800,NA,NA,52733,NA,2804,NA,52837,52731,52837,Flanker Test,25,12795,25,yes,1024
SSSSS,100,100,510.3076923,510.3076923,black,legacy,legacy,legacy,0,congruent,uniform,1,undefined,1,s,0,25,25,25,0,0,0,25,0,25,0,0,0,25,25,25,Sun Sep 13 09:33:13 2020,1500,The main experiment item,yes,FlankerTask.osexp,C:/Users/Owner/Documents,no,mono,no,18,no,white,no,yes,768,legacy,25,25,C:/Users/Owner/Documents/KJPsubject-0.csv,legacy,Lentiform Loewenfeld,3.3.3,0,s,NA,NA,s,NA,s,473,NA,NA,8694,NA,473,2,legacy,1024,2,48000,-16,experiment,0,even,NA,NA,53336,55012,11499,NA,2800,NA,NA,54436,NA,2804,NA,54539,54435,54538,Flanker Test,26,13268,26,yes,1024
SSHSS,100,100,510.037037,510.037037,black,legacy,legacy,legacy,0,incongruent,uniform,1,undefined,1,h,0,26,26,26,0,0,0,26,0,26,0,0,0,26,26,26,Sun Sep 13 09:33:13 2020,1500,The main experiment item,yes,FlankerTask.osexp,C:/Users/Owner/Documents,no,mono,no,18,no,white,no,yes,768,legacy,26,26,C:/Users/Owner/Documents/KJPsubject-0.csv,legacy,Lentiform Loewenfeld,3.3.3,0,h,NA,NA,s,NA,h,503,NA,NA,8694,NA,503,2,legacy,1024,2,48000,-16,experiment,0,even,NA,NA,55016,56721,11499,NA,2800,NA,NA,56114,NA,2804,NA,56216,56112,56216,Flanker Test,27,13771,27,yes,1024
HHSHH,100,100,510.4285714,510.4285714,black,legacy,legacy,legacy,0,incongruent,uniform,1,undefined,1,s,0,27,27,27,0,0,0,27,0,27,0,0,0,27,27,27,Sun Sep 13 09:33:13 2020,1500,The main experiment item,yes,FlankerTask.osexp,C:/Users/Owner/Documents,no,mono,no,18,no,white,no,yes,768,legacy,27,27,C:/Users/Owner/Documents/KJPsubject-0.csv,legacy,Lentiform Loewenfeld,3.3.3,0,s,NA,NA,s,NA,s,521,NA,NA,8694,NA,521,2,legacy,1024,2,48000,-16,experiment,0,even,NA,NA,56724,58438,11499,NA,2800,NA,NA,57813,NA,2804,NA,57916,57812,57916,Flanker Test,28,14292,28,yes,1024
SSHSS,100,100,510.2413793,510.2413793,black,legacy,legacy,legacy,0,incongruent,uniform,1,undefined,1,h,0,28,28,28,0,0,0,28,0,28,0,0,0,28,28,28,Sun Sep 13 09:33:13 2020,1500,The main experiment item,yes,FlankerTask.osexp,C:/Users/Owner/Documents,no,mono,no,18,no,white,no,yes,768,legacy,28,28,C:/Users/Owner/Documents/KJPsubject-0.csv,legacy,Lentiform Loewenfeld,3.3.3,0,h,NA,NA,s,NA,h,505,NA,NA,8694,NA,505,2,legacy,1024,2,48000,-16,experiment,0,even,NA,NA,58442,60155,11499,NA,2800,NA,NA,59547,NA,2804,NA,59648,59545,59648,Flanker Test,29,14797,29,yes,1024
SSHSS,100,100,510.1333333,510.1333333,black,legacy,legacy,legacy,0,incongruent,uniform,1,undefined,1,h,0,29,29,29,0,0,0,29,0,29,0,0,0,29,29,29,Sun Sep 13 09:33:13 2020,1500,The main experiment item,yes,FlankerTask.osexp,C:/Users/Owner/Documents,no,mono,no,18,no,white,no,yes,768,legacy,29,29,C:/Users/Owner/Documents/KJPsubject-0.csv,legacy,Lentiform Loewenfeld,3.3.3,0,h,NA,NA,s,NA,h,507,NA,NA,8694,NA,507,2,legacy,1024,2,48000,-16,experiment,0,even,NA,NA,60159,61869,11499,NA,2800,NA,NA,61260,NA,2804,NA,61361,61258,61361,Flanker Test,30,15304,30,yes,1024
HHHHH,100,100,509.6774194,509.6774194,black,legacy,legacy,legacy,0,congruent,uniform,1,undefined,1,h,0,30,30,30,0,0,0,30,0,30,0,0,0,30,30,30,Sun Sep 13 09:33:13 2020,1500,The main experiment item,yes,FlankerTask.osexp,C:/Users/Owner/Documents,no,mono,no,18,no,white,no,yes,768,legacy,30,30,C:/Users/Owner/Documents/KJPsubject-0.csv,legacy,Lentiform Loewenfeld,3.3.3,0,h,NA,NA,s,NA,h,496,NA,NA,8694,NA,496,2,legacy,1024,2,48000,-16,experiment,0,even,NA,NA,61872,63573,11499,NA,2800,NA,NA,62974,NA,2804,NA,63076,62972,63076,Flanker Test,31,15800,31,yes,1024
HHHHH,100,100,507.15625,507.15625,black,legacy,legacy,legacy,0,congruent,uniform,1,undefined,1,h,0,31,31,31,0,0,0,31,0,31,0,0,0,31,31,31,Sun Sep 13 09:33:13 2020,1500,The main experiment item,yes,FlankerTask.osexp,C:/Users/Owner/Documents,no,mono,no,18,no,white,no,yes,768,legacy,31,31,C:/Users/Owner/Documents/KJPsubject-0.csv,legacy,Lentiform Loewenfeld,3.3.3,0,h,NA,NA,s,NA,h,429,NA,NA,8694,NA,429,2,legacy,1024,2,48000,-16,experiment,0,even,NA,NA,63576,65214,11499,NA,2800,NA,NA,64679,NA,2804,NA,64783,64677,64783,Flanker Test,32,16229,32,yes,1024
HHSHH,100,100,507.5454545,507.5454545,black,legacy,legacy,legacy,0,incongruent,uniform,1,undefined,1,s,0,32,32,32,0,0,0,32,0,32,0,0,0,32,32,32,Sun Sep 13 09:33:13 2020,1500,The main experiment item,yes,FlankerTask.osexp,C:/Users/Owner/Documents,no,mono,no,18,no,white,no,yes,768,legacy,32,32,C:/Users/Owner/Documents/KJPsubject-0.csv,legacy,Lentiform Loewenfeld,3.3.3,0,s,NA,NA,s,NA,s,520,NA,NA,8694,NA,520,2,legacy,1024,2,48000,-16,experiment,0,even,NA,NA,65217,66924,11499,NA,2800,NA,NA,66300,NA,2804,NA,66404,66298,66404,Flanker Test,33,16749,33,yes,1024
SSSSS,100,100,505.2352941,505.2352941,black,legacy,legacy,legacy,0,congruent,uniform,1,undefined,1,s,0,33,33,33,0,0,0,33,0,33,0,0,0,33,33,33,Sun Sep 13 09:33:13 2020,1500,The main experiment item,yes,FlankerTask.osexp,C:/Users/Owner/Documents,no,mono,no,18,no,white,no,yes,768,legacy,33,33,C:/Users/Owner/Documents/KJPsubject-0.csv,legacy,Lentiform Loewenfeld,3.3.3,0,s,NA,NA,s,NA,s,429,NA,NA,8694,NA,429,2,legacy,1024,2,48000,-16,experiment,0,even,NA,NA,66928,68561,11499,NA,2800,NA,NA,68027,NA,2804,NA,68130,68026,68130,Flanker Test,34,17178,34,yes,1024
HHSHH,100,100,504.3428571,504.3428571,black,legacy,legacy,legacy,0,incongruent,uniform,1,undefined,1,s,0,34,34,34,0,0,0,34,0,34,0,0,0,34,34,34,Sun Sep 13 09:33:13 2020,1500,The main experiment item,yes,FlankerTask.osexp,C:/Users/Owner/Documents,no,mono,no,18,no,white,no,yes,768,legacy,34,34,C:/Users/Owner/Documents/KJPsubject-0.csv,legacy,Lentiform Loewenfeld,3.3.3,0,s,NA,NA,s,NA,s,474,NA,NA,8694,NA,474,2,legacy,1024,2,48000,-16,experiment,0,even,NA,NA,68564,70247,11499,NA,2800,NA,NA,69671,NA,2804,NA,69772,69670,69772,Flanker Test,35,17652,35,yes,1024
HHHHH,100,100,502.8333333,502.8333333,black,legacy,legacy,legacy,0,congruent,uniform,1,undefined,1,h,0,35,35,35,0,0,0,35,0,35,0,0,0,35,35,35,Sun Sep 13 09:33:13 2020,1500,The main experiment item,yes,FlankerTask.osexp,C:/Users/Owner/Documents,no,mono,no,18,no,white,no,yes,768,legacy,35,35,C:/Users/Owner/Documents/KJPsubject-0.csv,legacy,Lentiform Loewenfeld,3.3.3,0,h,NA,NA,s,NA,h,450,NA,NA,8694,NA,450,2,legacy,1024,2,48000,-16,experiment,0,even,NA,NA,70251,71904,11499,NA,2800,NA,NA,71352,NA,2804,NA,71453,71350,71453,Flanker Test,36,18102,36,yes,1024
SSSSS,100,100,503.5135135,503.5135135,black,legacy,legacy,legacy,0,congruent,uniform,1,undefined,1,s,0,36,36,36,0,0,0,36,0,36,0,0,0,36,36,36,Sun Sep 13 09:33:13 2020,1500,The main experiment item,yes,FlankerTask.osexp,C:/Users/Owner/Documents,no,mono,no,18,no,white,no,yes,768,legacy,36,36,C:/Users/Owner/Documents/KJPsubject-0.csv,legacy,Lentiform Loewenfeld,3.3.3,0,s,NA,NA,s,NA,s,528,NA,NA,8694,NA,528,2,legacy,1024,2,48000,-16,experiment,0,even,NA,NA,71906,73638,11499,NA,2800,NA,NA,73005,NA,2804,NA,73109,73003,73109,Flanker Test,37,18630,37,yes,1024
HHHHH,100,100,503.3421053,503.3421053,black,legacy,legacy,legacy,0,congruent,uniform,1,undefined,1,h,0,37,37,37,0,0,0,37,0,37,0,0,0,37,37,37,Sun Sep 13 09:33:13 2020,1500,The main experiment item,yes,FlankerTask.osexp,C:/Users/Owner/Documents,no,mono,no,18,no,white,no,yes,768,legacy,37,37,C:/Users/Owner/Documents/KJPsubject-0.csv,legacy,Lentiform Loewenfeld,3.3.3,0,h,NA,NA,s,NA,h,497,NA,NA,8694,NA,497,2,legacy,1024,2,48000,-16,experiment,0,even,NA,NA,73640,75343,11499,NA,2800,NA,NA,74743,NA,2804,NA,74845,74742,74845,Flanker Test,38,19127,38,yes,1024
SSHSS,100,100,505.7692308,505.7692308,black,legacy,legacy,legacy,0,incongruent,uniform,1,undefined,1,h,0,38,38,38,0,0,0,38,0,38,0,0,0,38,38,38,Sun Sep 13 09:33:13 2020,1500,The main experiment item,yes,FlankerTask.osexp,C:/Users/Owner/Documents,no,mono,no,18,no,white,no,yes,768,legacy,38,38,C:/Users/Owner/Documents/KJPsubject-0.csv,legacy,Lentiform Loewenfeld,3.3.3,0,h,NA,NA,s,NA,h,598,NA,NA,8694,NA,598,2,legacy,1024,2,48000,-16,experiment,0,even,NA,NA,75346,77153,11499,NA,2800,NA,NA,76451,NA,2804,NA,76554,76449,76554,Flanker Test,39,19725,39,yes,1024
HHHHH,100,100,504.2,504.2,black,legacy,legacy,legacy,0,congruent,uniform,1,undefined,1,h,0,39,39,39,0,0,0,39,0,39,0,0,0,39,39,39,Sun Sep 13 09:33:13 2020,1500,The main experiment item,yes,FlankerTask.osexp,C:/Users/Owner/Documents,no,mono,no,18,no,white,no,yes,768,legacy,39,39,C:/Users/Owner/Documents/KJPsubject-0.csv,legacy,Lentiform Loewenfeld,3.3.3,0,h,NA,NA,s,NA,h,443,NA,NA,8694,NA,443,2,legacy,1024,2,48000,-16,experiment,0,even,NA,NA,77157,78811,11499,NA,2800,NA,NA,78262,NA,2804,NA,78367,78260,78366,Flanker Test,40,20168,40,yes,1024
HHHHH,100,100,502.6585366,502.6585366,black,legacy,legacy,legacy,0,congruent,uniform,1,undefined,1,h,0,40,40,40,0,0,0,40,0,40,0,0,0,40,40,40,Sun Sep 13 09:33:13 2020,1500,The main experiment item,yes,FlankerTask.osexp,C:/Users/Owner/Documents,no,mono,no,18,no,white,no,yes,768,legacy,40,40,C:/Users/Owner/Documents/KJPsubject-0.csv,legacy,Lentiform Loewenfeld,3.3.3,0,h,NA,NA,s,NA,h,441,NA,NA,8694,NA,441,2,legacy,1024,2,48000,-16,experiment,0,even,NA,NA,78815,80461,11499,NA,2800,NA,NA,79918,NA,2804,NA,80019,79917,80019,Flanker Test,41,20609,41,yes,1024
HHHHH,100,100,500.6190476,500.6190476,black,legacy,legacy,legacy,0,congruent,uniform,1,undefined,1,h,0,41,41,41,0,0,0,41,0,41,0,0,0,41,41,41,Sun Sep 13 09:33:13 2020,1500,The main experiment item,yes,FlankerTask.osexp,C:/Users/Owner/Documents,no,mono,no,18,no,white,no,yes,768,legacy,41,41,C:/Users/Owner/Documents/KJPsubject-0.csv,legacy,Lentiform Loewenfeld,3.3.3,0,h,NA,NA,s,NA,h,417,NA,NA,8694,NA,417,2,legacy,1024,2,48000,-16,experiment,0,even,NA,NA,80464,82086,11499,NA,2800,NA,NA,81564,NA,2804,NA,81668,81563,81668,Flanker Test,42,21026,42,yes,1024
HHHHH,100,100,499.255814,499.255814,black,legacy,legacy,legacy,0,congruent,uniform,1,undefined,1,h,0,42,42,42,0,0,0,42,0,42,0,0,0,42,42,42,Sun Sep 13 09:33:13 2020,1500,The main experiment item,yes,FlankerTask.osexp,C:/Users/Owner/Documents,no,mono,no,18,no,white,no,yes,768,legacy,42,42,C:/Users/Owner/Documents/KJPsubject-0.csv,legacy,Lentiform Loewenfeld,3.3.3,0,h,NA,NA,s,NA,h,442,NA,NA,8694,NA,442,2,legacy,1024,2,48000,-16,experiment,0,even,NA,NA,82090,83744,11499,NA,2800,NA,NA,83198,NA,2804,NA,83301,83197,83301,Flanker Test,43,21468,43,yes,1024
HHHHH,100,100,497.9090909,497.9090909,black,legacy,legacy,legacy,0,congruent,uniform,1,undefined,1,h,0,43,43,43,0,0,0,43,0,43,0,0,0,43,43,43,Sun Sep 13 09:33:13 2020,1500,The main experiment item,yes,FlankerTask.osexp,C:/Users/Owner/Documents,no,mono,no,18,no,white,no,yes,768,legacy,43,43,C:/Users/Owner/Documents/KJPsubject-0.csv,legacy,Lentiform Loewenfeld,3.3.3,0,h,NA,NA,s,NA,h,440,NA,NA,8694,NA,440,2,legacy,1024,2,48000,-16,experiment,0,even,NA,NA,83747,85352,11499,NA,2800,NA,NA,84808,NA,2804,NA,84911,84806,84911,Flanker Test,44,21908,44,yes,1024
HHSHH,100,100,503.1111111,503.1111111,black,legacy,legacy,legacy,0,incongruent,uniform,1,undefined,1,s,0,44,44,44,0,0,0,44,0,44,0,0,0,44,44,44,Sun Sep 13 09:33:13 2020,1500,The main experiment item,yes,FlankerTask.osexp,C:/Users/Owner/Documents,no,mono,no,18,no,white,no,yes,768,legacy,44,44,C:/Users/Owner/Documents/KJPsubject-0.csv,legacy,Lentiform Loewenfeld,3.3.3,0,s,NA,NA,s,NA,s,732,NA,NA,8694,NA,732,2,legacy,1024,2,48000,-16,experiment,0,even,NA,NA,85355,87289,11499,NA,2800,NA,NA,86455,NA,2804,NA,86556,86454,86556,Flanker Test,45,22640,45,yes,1024
HHHHH,100,100,502,502,black,legacy,legacy,legacy,0,congruent,uniform,1,undefined,1,h,0,45,45,45,0,0,0,45,0,45,0,0,0,45,45,45,Sun Sep 13 09:33:13 2020,1500,The main experiment item,yes,FlankerTask.osexp,C:/Users/Owner/Documents,no,mono,no,18,no,white,no,yes,768,legacy,45,45,C:/Users/Owner/Documents/KJPsubject-0.csv,legacy,Lentiform Loewenfeld,3.3.3,0,h,NA,NA,s,NA,h,452,NA,NA,8694,NA,452,2,legacy,1024,2,48000,-16,experiment,0,even,NA,NA,87293,88947,11499,NA,2800,NA,NA,88393,NA,2804,NA,88494,88391,88494,Flanker Test,46,23092,46,yes,1024
SSHSS,100,100,501.7446809,501.7446809,black,legacy,legacy,legacy,0,incongruent,uniform,1,undefined,1,h,0,46,46,46,0,0,0,46,0,46,0,0,0,46,46,46,Sun Sep 13 09:33:13 2020,1500,The main experiment item,yes,FlankerTask.osexp,C:/Users/Owner/Documents,no,mono,no,18,no,white,no,yes,768,legacy,46,46,C:/Users/Owner/Documents/KJPsubject-0.csv,legacy,Lentiform Loewenfeld,3.3.3,0,h,NA,NA,s,NA,h,490,NA,NA,8694,NA,490,2,legacy,1024,2,48000,-16,experiment,0,even,NA,NA,88949,90636,11499,NA,2800,NA,NA,90041,NA,2804,NA,90145,90040,90145,Flanker Test,47,23582,47,yes,1024
SSSSS,100,100,501.6041667,501.6041667,black,legacy,legacy,legacy,0,congruent,uniform,1,undefined,1,s,0,47,47,47,0,0,0,47,0,47,0,0,0,47,47,47,Sun Sep 13 09:33:13 2020,1500,The main experiment item,yes,FlankerTask.osexp,C:/Users/Owner/Documents,no,mono,no,18,no,white,no,yes,768,legacy,47,47,C:/Users/Owner/Documents/KJPsubject-0.csv,legacy,Lentiform Loewenfeld,3.3.3,0,s,NA,NA,s,NA,s,495,NA,NA,8694,NA,495,2,legacy,1024,2,48000,-16,experiment,0,even,NA,NA,90640,92347,11499,NA,2800,NA,NA,91747,NA,2804,NA,91851,91745,91851,Flanker Test,48,24077,48,yes,1024
SSHSS,100,100,501.4285714,501.4285714,black,legacy,legacy,legacy,0,incongruent,uniform,1,undefined,1,h,0,48,48,48,0,0,0,48,0,48,0,0,0,48,48,48,Sun Sep 13 09:33:13 2020,1500,The main experiment item,yes,FlankerTask.osexp,C:/Users/Owner/Documents,no,mono,no,18,no,white,no,yes,768,legacy,48,48,C:/Users/Owner/Documents/KJPsubject-0.csv,legacy,Lentiform Loewenfeld,3.3.3,0,h,NA,NA,s,NA,h,493,NA,NA,8694,NA,493,2,legacy,1024,2,48000,-16,experiment,0,even,NA,NA,92351,94006,11499,NA,2800,NA,NA,93408,NA,2804,NA,93512,93406,93512,Flanker Test,49,24570,49,yes,1024
SSSSS,100,100,500.7,500.7,black,legacy,legacy,legacy,0,congruent,uniform,1,undefined,1,s,0,49,49,49,0,0,0,49,0,49,0,0,0,49,49,49,Sun Sep 13 09:33:13 2020,1500,The main experiment item,yes,FlankerTask.osexp,C:/Users/Owner/Documents,no,mono,no,18,no,white,no,yes,768,legacy,49,49,C:/Users/Owner/Documents/KJPsubject-0.csv,legacy,Lentiform Loewenfeld,3.3.3,0,s,NA,NA,s,NA,s,465,NA,NA,8694,NA,465,2,legacy,1024,2,48000,-16,experiment,0,even,NA,NA,94009,95675,11499,NA,2800,NA,NA,95105,NA,2804,NA,95209,95104,95209,Flanker Test,50,25035,50,yes,1024
HHSHH,100,100,501.8235294,501.8235294,black,legacy,legacy,legacy,0,incongruent,uniform,1,undefined,1,s,0,50,50,50,0,0,0,50,0,50,0,0,0,50,50,50,Sun Sep 13 09:33:13 2020,1500,The main experiment item,yes,FlankerTask.osexp,C:/Users/Owner/Documents,no,mono,no,18,no,white,no,yes,768,legacy,50,50,C:/Users/Owner/Documents/KJPsubject-0.csv,legacy,Lentiform Loewenfeld,3.3.3,0,s,NA,NA,s,NA,s,558,NA,NA,8694,NA,558,2,legacy,1024,2,48000,-16,experiment,0,even,NA,NA,95680,97449,11499,NA,2800,NA,NA,96789,NA,2804,NA,96890,96788,96890,Flanker Test,51,25593,51,yes,1024
HHHHH,100,100,500.9807692,500.9807692,black,legacy,legacy,legacy,0,congruent,uniform,1,undefined,1,h,0,51,51,51,0,0,0,51,0,51,0,0,0,51,51,51,Sun Sep 13 09:33:13 2020,1500,The main experiment item,yes,FlankerTask.osexp,C:/Users/Owner/Documents,no,mono,no,18,no,white,no,yes,768,legacy,51,51,C:/Users/Owner/Documents/KJPsubject-0.csv,legacy,Lentiform Loewenfeld,3.3.3,0,h,NA,NA,s,NA,h,458,NA,NA,8694,NA,458,2,legacy,1024,2,48000,-16,experiment,0,even,NA,NA,97453,99070,11499,NA,2800,NA,NA,98509,NA,2804,NA,98610,98508,98610,Flanker Test,52,26051,52,yes,1024
SSSSS,100,100,500.2264151,500.2264151,black,legacy,legacy,legacy,0,congruent,uniform,1,undefined,1,s,0,52,52,52,0,0,0,52,0,52,0,0,0,52,52,52,Sun Sep 13 09:33:13 2020,1500,The main experiment item,yes,FlankerTask.osexp,C:/Users/Owner/Documents,no,mono,no,18,no,white,no,yes,768,legacy,52,52,C:/Users/Owner/Documents/KJPsubject-0.csv,legacy,Lentiform Loewenfeld,3.3.3,0,s,NA,NA,s,NA,s,461,NA,NA,8694,NA,461,2,legacy,1024,2,48000,-16,experiment,0,even,NA,NA,99073,100736,11499,NA,2800,NA,NA,100172,NA,2804,NA,100273,100170,100273,Flanker Test,53,26512,53,yes,1024
SSHSS,100,100,499.9444444,499.9444444,black,legacy,legacy,legacy,0,incongruent,uniform,1,undefined,1,h,0,53,53,53,0,0,0,53,0,53,0,0,0,53,53,53,Sun Sep 13 09:33:13 2020,1500,The main experiment item,yes,FlankerTask.osexp,C:/Users/Owner/Documents,no,mono,no,18,no,white,no,yes,768,legacy,53,53,C:/Users/Owner/Documents/KJPsubject-0.csv,legacy,Lentiform Loewenfeld,3.3.3,0,h,NA,NA,s,NA,h,485,NA,NA,8694,NA,485,2,legacy,1024,2,48000,-16,experiment,0,even,NA,NA,100740,102432,11499,NA,2800,NA,NA,101845,NA,2804,NA,101946,101843,101946,Flanker Test,54,26997,54,yes,1024
SSSSS,100,100,499.4363636,499.4363636,black,legacy,legacy,legacy,0,congruent,uniform,1,undefined,1,s,0,54,54,54,0,0,0,54,0,54,0,0,0,54,54,54,Sun Sep 13 09:33:13 2020,1500,The main experiment item,yes,FlankerTask.osexp,C:/Users/Owner/Documents,no,mono,no,18,no,white,no,yes,768,legacy,54,54,C:/Users/Owner/Documents/KJPsubject-0.csv,legacy,Lentiform Loewenfeld,3.3.3,0,s,NA,NA,s,NA,s,472,NA,NA,8694,NA,472,2,legacy,1024,2,48000,-16,experiment,0,even,NA,NA,102436,104112,11499,NA,2800,NA,NA,103538,NA,2804,NA,103639,103537,103639,Flanker Test,55,27469,55,yes,1024
HHSHH,100,100,500.1607143,500.1607143,black,legacy,legacy,legacy,0,incongruent,uniform,1,undefined,1,s,0,55,55,55,0,0,0,55,0,55,0,0,0,55,55,55,Sun Sep 13 09:33:13 2020,1500,The main experiment item,yes,FlankerTask.osexp,C:/Users/Owner/Documents,no,mono,no,18,no,white,no,yes,768,legacy,55,55,C:/Users/Owner/Documents/KJPsubject-0.csv,legacy,Lentiform Loewenfeld,3.3.3,0,s,NA,NA,s,NA,s,540,NA,NA,8694,NA,540,2,legacy,1024,2,48000,-16,experiment,0,even,NA,NA,104116,105861,11499,NA,2800,NA,NA,105214,NA,2804,NA,105319,105212,105319,Flanker Test,56,28009,56,yes,1024
SSHSS,100,100,501.1754386,501.1754386,black,legacy,legacy,legacy,0,incongruent,uniform,1,undefined,1,h,0,56,56,56,0,0,0,56,0,56,0,0,0,56,56,56,Sun Sep 13 09:33:13 2020,1500,The main experiment item,yes,FlankerTask.osexp,C:/Users/Owner/Documents,no,mono,no,18,no,white,no,yes,768,legacy,56,56,C:/Users/Owner/Documents/KJPsubject-0.csv,legacy,Lentiform Loewenfeld,3.3.3,0,h,NA,NA,s,NA,h,558,NA,NA,8694,NA,558,2,legacy,1024,2,48000,-16,experiment,0,even,NA,NA,105864,107629,11499,NA,2800,NA,NA,106967,NA,2804,NA,107070,106966,107070,Flanker Test,57,28567,57,yes,1024
SSHSS,100,100,502.137931,502.137931,black,legacy,legacy,legacy,0,incongruent,uniform,1,undefined,1,h,0,57,57,57,0,0,0,57,0,57,0,0,0,57,57,57,Sun Sep 13 09:33:13 2020,1500,The main experiment item,yes,FlankerTask.osexp,C:/Users/Owner/Documents,no,mono,no,18,no,white,no,yes,768,legacy,57,57,C:/Users/Owner/Documents/KJPsubject-0.csv,legacy,Lentiform Loewenfeld,3.3.3,0,h,NA,NA,s,NA,h,557,NA,NA,8694,NA,557,2,legacy,1024,2,48000,-16,experiment,0,even,NA,NA,107633,109399,11499,NA,2800,NA,NA,108740,NA,2804,NA,108841,108738,108841,Flanker Test,58,29124,58,yes,1024
HHHHH,100,100,501.6440678,501.6440678,black,legacy,legacy,legacy,0,congruent,uniform,1,undefined,1,h,0,58,58,58,0,0,0,58,0,58,0,0,0,58,58,58,Sun Sep 13 09:33:13 2020,1500,The main experiment item,yes,FlankerTask.osexp,C:/Users/Owner/Documents,no,mono,no,18,no,white,no,yes,768,legacy,58,58,C:/Users/Owner/Documents/KJPsubject-0.csv,legacy,Lentiform Loewenfeld,3.3.3,0,h,NA,NA,s,NA,h,473,NA,NA,8694,NA,473,2,legacy,1024,2,48000,-16,experiment,0,even,NA,NA,109402,111081,11499,NA,2800,NA,NA,110503,NA,2804,NA,110607,110502,110607,Flanker Test,59,29597,59,yes,1024
SSHSS,100,100,501.5833333,501.5833333,black,legacy,legacy,legacy,0,incongruent,uniform,1,undefined,1,h,0,59,59,59,0,0,0,59,0,59,0,0,0,59,59,59,Sun Sep 13 09:33:13 2020,1500,The main experiment item,yes,FlankerTask.osexp,C:/Users/Owner/Documents,no,mono,no,18,no,white,no,yes,768,legacy,59,59,C:/Users/Owner/Documents/KJPsubject-0.csv,legacy,Lentiform Loewenfeld,3.3.3,0,h,NA,NA,s,NA,h,498,NA,NA,8694,NA,498,2,legacy,1024,2,48000,-16,experiment,0,even,NA,NA,111085,112764,11499,NA,2800,NA,NA,112161,NA,2804,NA,112265,112159,112265,Flanker Test,60,30095,60,yes,1024
SSHSS,100,100,501.7213115,501.7213115,black,legacy,legacy,legacy,0,incongruent,uniform,1,undefined,1,h,0,60,60,60,0,0,0,60,0,60,0,0,0,60,60,60,Sun Sep 13 09:33:13 2020,1500,The main experiment item,yes,FlankerTask.osexp,C:/Users/Owner/Documents,no,mono,no,18,no,white,no,yes,768,legacy,60,60,C:/Users/Owner/Documents/KJPsubject-0.csv,legacy,Lentiform Loewenfeld,3.3.3,0,h,NA,NA,s,NA,h,510,NA,NA,8694,NA,510,2,legacy,1024,2,48000,-16,experiment,0,even,NA,NA,112768,114483,11499,NA,2800,NA,NA,113869,NA,2804,NA,113972,113868,113972,Flanker Test,61,30605,61,yes,1024
HHSHH,100,100,502.6290323,502.6290323,black,legacy,legacy,legacy,0,incongruent,uniform,1,undefined,1,s,0,61,61,61,0,0,0,61,0,61,0,0,0,61,61,61,Sun Sep 13 09:33:13 2020,1500,The main experiment item,yes,FlankerTask.osexp,C:/Users/Owner/Documents,no,mono,no,18,no,white,no,yes,768,legacy,61,61,C:/Users/Owner/Documents/KJPsubject-0.csv,legacy,Lentiform Loewenfeld,3.3.3,0,s,NA,NA,s,NA,s,558,NA,NA,8694,NA,558,2,legacy,1024,2,48000,-16,experiment,0,even,NA,NA,114487,116255,11499,NA,2800,NA,NA,115593,NA,2804,NA,115696,115591,115696,Flanker Test,62,31163,62,yes,1024
HHSHH,100,100,502.9365079,502.9365079,black,legacy,legacy,legacy,0,incongruent,uniform,1,undefined,1,s,0,62,62,62,0,0,0,62,0,62,0,0,0,62,62,62,Sun Sep 13 09:33:13 2020,1500,The main experiment item,yes,FlankerTask.osexp,C:/Users/Owner/Documents,no,mono,no,18,no,white,no,yes,768,legacy,62,62,C:/Users/Owner/Documents/KJPsubject-0.csv,legacy,Lentiform Loewenfeld,3.3.3,0,s,NA,NA,s,NA,s,522,NA,NA,8694,NA,522,2,legacy,1024,2,48000,-16,experiment,0,even,NA,NA,116258,117984,11499,NA,2800,NA,NA,117356,NA,2804,NA,117460,117355,117459,Flanker Test,63,31685,63,yes,1024
SSSSS,100,100,502.25,502.25,black,legacy,legacy,legacy,0,congruent,uniform,1,undefined,1,s,0,63,63,63,0,0,0,63,0,63,0,0,0,63,63,63,Sun Sep 13 09:33:13 2020,1500,The main experiment item,yes,FlankerTask.osexp,C:/Users/Owner/Documents,no,mono,no,18,no,white,no,yes,768,legacy,63,63,C:/Users/Owner/Documents/KJPsubject-0.csv,legacy,Lentiform Loewenfeld,3.3.3,0,s,NA,NA,s,NA,s,459,NA,NA,8694,NA,459,2,legacy,1024,2,48000,-16,experiment,0,even,NA,NA,117988,119643,11499,NA,2800,NA,NA,119082,NA,2804,NA,119183,119081,119183,Flanker Test,64,32144,64,yes,1024
HHSHH,100,100,501.5692308,501.5692308,black,legacy,legacy,legacy,0,incongruent,uniform,1,undefined,1,s,0,64,64,64,0,0,0,64,0,64,0,0,0,64,64,64,Sun Sep 13 09:33:13 2020,1500,The main experiment item,yes,FlankerTask.osexp,C:/Users/Owner/Documents,no,mono,no,18,no,white,no,yes,768,legacy,64,64,C:/Users/Owner/Documents/KJPsubject-0.csv,legacy,Lentiform Loewenfeld,3.3.3,0,s,NA,NA,s,NA,s,458,NA,NA,8694,NA,458,2,legacy,1024,2,48000,-16,experiment,0,even,NA,NA,119647,121308,11499,NA,2800,NA,NA,120746,NA,2804,NA,120849,120745,120849,Flanker Test,65,32602,65,yes,1024
HHSHH,100,100,501,501,black,legacy,legacy,legacy,0,incongruent,uniform,1,undefined,1,s,0,65,65,65,0,0,0,65,0,65,0,0,0,65,65,65,Sun Sep 13 09:33:13 2020,1500,The main experiment item,yes,FlankerTask.osexp,C:/Users/Owner/Documents,no,mono,no,18,no,white,no,yes,768,legacy,65,65,C:/Users/Owner/Documents/KJPsubject-0.csv,legacy,Lentiform Loewenfeld,3.3.3,0,s,NA,NA,s,NA,s,464,NA,NA,8694,NA,464,2,legacy,1024,2,48000,-16,experiment,0,even,NA,NA,121312,122985,11499,NA,2800,NA,NA,122416,NA,2804,NA,122520,122414,122520,Flanker Test,66,33066,66,yes,1024
HHSHH,100,100,500.641791,500.641791,black,legacy,legacy,legacy,0,incongruent,uniform,1,undefined,1,s,0,66,66,66,0,0,0,66,0,66,0,0,0,66,66,66,Sun Sep 13 09:33:13 2020,1500,The main experiment item,yes,FlankerTask.osexp,C:/Users/Owner/Documents,no,mono,no,18,no,white,no,yes,768,legacy,66,66,C:/Users/Owner/Documents/KJPsubject-0.csv,legacy,Lentiform Loewenfeld,3.3.3,0,s,NA,NA,s,NA,s,477,NA,NA,8694,NA,477,2,legacy,1024,2,48000,-16,experiment,0,even,NA,NA,122989,124627,11499,NA,2800,NA,NA,124044,NA,2804,NA,124147,124042,124147,Flanker Test,67,33543,67,yes,1024
SSSSS,100,100,500.0735294,500.0735294,black,legacy,legacy,legacy,0,congruent,uniform,1,undefined,1,s,0,67,67,67,0,0,0,67,0,67,0,0,0,67,67,67,Sun Sep 13 09:33:13 2020,1500,The main experiment item,yes,FlankerTask.osexp,C:/Users/Owner/Documents,no,mono,no,18,no,white,no,yes,768,legacy,67,67,C:/Users/Owner/Documents/KJPsubject-0.csv,legacy,Lentiform Loewenfeld,3.3.3,0,s,NA,NA,s,NA,s,462,NA,NA,8694,NA,462,2,legacy,1024,2,48000,-16,experiment,0,even,NA,NA,124635,126300,11499,NA,2800,NA,NA,125734,NA,2804,NA,125837,125733,125837,Flanker Test,68,34005,68,yes,1024
SSHSS,100,100,507.1014493,507.1014493,black,legacy,legacy,legacy,0,incongruent,uniform,1,undefined,1,h,0,68,68,68,0,0,0,68,0,68,0,0,0,68,68,68,Sun Sep 13 09:33:13 2020,1500,The main experiment item,yes,FlankerTask.osexp,C:/Users/Owner/Documents,no,mono,no,18,no,white,no,yes,768,legacy,68,68,C:/Users/Owner/Documents/KJPsubject-0.csv,legacy,Lentiform Loewenfeld,3.3.3,0,h,NA,NA,s,NA,h,985,NA,NA,8694,NA,985,2,legacy,1024,2,48000,-16,experiment,0,even,NA,NA,126304,128452,11499,NA,2800,NA,NA,127362,NA,2804,NA,127466,127360,127466,Flanker Test,69,34990,69,yes,1024
SSSSS,100,100,507.0857143,507.0857143,black,legacy,legacy,legacy,0,congruent,uniform,1,undefined,1,s,0,69,69,69,0,0,0,69,0,69,0,0,0,69,69,69,Sun Sep 13 09:33:13 2020,1500,The main experiment item,yes,FlankerTask.osexp,C:/Users/Owner/Documents,no,mono,no,18,no,white,no,yes,768,legacy,69,69,C:/Users/Owner/Documents/KJPsubject-0.csv,legacy,Lentiform Loewenfeld,3.3.3,0,s,NA,NA,s,NA,s,506,NA,NA,8694,NA,506,2,legacy,1024,2,48000,-16,experiment,0,even,NA,NA,128454,130172,11499,NA,2800,NA,NA,129562,NA,2804,NA,129665,129560,129665,Flanker Test,70,35496,70,yes,1024
SSHSS,100,100,507.8591549,507.8591549,black,legacy,legacy,legacy,0,incongruent,uniform,1,undefined,1,h,0,70,70,70,0,0,0,70,0,70,0,0,0,70,70,70,Sun Sep 13 09:33:13 2020,1500,The main experiment item,yes,FlankerTask.osexp,C:/Users/Owner/Documents,no,mono,no,18,no,white,no,yes,768,legacy,70,70,C:/Users/Owner/Documents/KJPsubject-0.csv,legacy,Lentiform Loewenfeld,3.3.3,0,h,NA,NA,s,NA,h,562,NA,NA,8694,NA,562,2,legacy,1024,2,48000,-16,experiment,0,even,NA,NA,130175,131935,11499,NA,2800,NA,NA,131271,NA,2804,NA,131372,131270,131372,Flanker Test,71,36058,71,yes,1024
HHHHH,100,100,506.8611111,506.8611111,black,legacy,legacy,legacy,0,congruent,uniform,1,undefined,1,h,0,71,71,71,0,0,0,71,0,71,0,0,0,71,71,71,Sun Sep 13 09:33:13 2020,1500,The main experiment item,yes,FlankerTask.osexp,C:/Users/Owner/Documents,no,mono,no,18,no,white,no,yes,768,legacy,71,71,C:/Users/Owner/Documents/KJPsubject-0.csv,legacy,Lentiform Loewenfeld,3.3.3,0,h,NA,NA,s,NA,h,436,NA,NA,8694,NA,436,2,legacy,1024,2,48000,-16,experiment,0,even,NA,NA,131939,133579,11499,NA,2800,NA,NA,133040,NA,2804,NA,133142,133038,133142,Flanker Test,72,36494,72,yes,1024
HHHHH,100,100,506.5479452,506.5479452,black,legacy,legacy,legacy,0,congruent,uniform,1,undefined,1,h,0,72,72,72,0,0,0,72,0,72,0,0,0,72,72,72,Sun Sep 13 09:33:13 2020,1500,The main experiment item,yes,FlankerTask.osexp,C:/Users/Owner/Documents,no,mono,no,18,no,white,no,yes,768,legacy,72,72,C:/Users/Owner/Documents/KJPsubject-0.csv,legacy,Lentiform Loewenfeld,3.3.3,0,h,NA,NA,s,NA,h,484,NA,NA,8694,NA,484,2,legacy,1024,2,48000,-16,experiment,0,even,NA,NA,133583,135274,11499,NA,2800,NA,NA,134686,NA,2804,NA,134789,134684,134789,Flanker Test,73,36978,73,yes,1024
HHHHH,100,100,505.0945946,505.0945946,black,legacy,legacy,legacy,0,congruent,uniform,1,undefined,1,h,0,73,73,73,0,0,0,73,0,73,0,0,0,73,73,73,Sun Sep 13 09:33:13 2020,1500,The main experiment item,yes,FlankerTask.osexp,C:/Users/Owner/Documents,no,mono,no,18,no,white,no,yes,768,legacy,73,73,C:/Users/Owner/Documents/KJPsubject-0.csv,legacy,Lentiform Loewenfeld,3.3.3,0,h,NA,NA,s,NA,h,399,NA,NA,8694,NA,399,2,legacy,1024,2,48000,-16,experiment,0,even,NA,NA,135277,136877,11499,NA,2800,NA,NA,136373,NA,2804,NA,136477,136371,136477,Flanker Test,74,37377,74,yes,1024
SSSSS,100,100,505.1733333,505.1733333,black,legacy,legacy,legacy,0,congruent,uniform,1,undefined,1,s,0,74,74,74,0,0,0,74,0,74,0,0,0,74,74,74,Sun Sep 13 09:33:13 2020,1500,The main experiment item,yes,FlankerTask.osexp,C:/Users/Owner/Documents,no,mono,no,18,no,white,no,yes,768,legacy,74,74,C:/Users/Owner/Documents/KJPsubject-0.csv,legacy,Lentiform Loewenfeld,3.3.3,0,s,NA,NA,s,NA,s,511,NA,NA,8694,NA,511,2,legacy,1024,2,48000,-16,experiment,0,even,NA,NA,136880,138559,11499,NA,2800,NA,NA,137943,NA,2804,NA,138047,137942,138047,Flanker Test,75,37888,75,yes,1024
SSHSS,100,100,505.5526316,505.5526316,black,legacy,legacy,legacy,0,incongruent,uniform,1,undefined,1,h,0,75,75,75,0,0,0,75,0,75,0,0,0,75,75,75,Sun Sep 13 09:33:13 2020,1500,The main experiment item,yes,FlankerTask.osexp,C:/Users/Owner/Documents,no,mono,no,18,no,white,no,yes,768,legacy,75,75,C:/Users/Owner/Documents/KJPsubject-0.csv,legacy,Lentiform Loewenfeld,3.3.3,0,h,NA,NA,s,NA,h,534,NA,NA,8694,NA,534,2,legacy,1024,2,48000,-16,experiment,0,even,NA,NA,138562,140298,11499,NA,2800,NA,NA,139660,NA,2804,NA,139763,139659,139763,Flanker Test,76,38422,76,yes,1024
SSSSS,100,100,505.2987013,505.2987013,black,legacy,legacy,legacy,0,congruent,uniform,1,undefined,1,s,0,76,76,76,0,0,0,76,0,76,0,0,0,76,76,76,Sun Sep 13 09:33:13 2020,1500,The main experiment item,yes,FlankerTask.osexp,C:/Users/Owner/Documents,no,mono,no,18,no,white,no,yes,768,legacy,76,76,C:/Users/Owner/Documents/KJPsubject-0.csv,legacy,Lentiform Loewenfeld,3.3.3,0,s,NA,NA,s,NA,s,486,NA,NA,8694,NA,486,2,legacy,1024,2,48000,-16,experiment,0,even,NA,NA,140302,141970,11499,NA,2800,NA,NA,141382,NA,2804,NA,141483,141380,141483,Flanker Test,77,38908,77,yes,1024
HHHHH,100,100,505.5384615,505.5384615,black,legacy,legacy,legacy,0,congruent,uniform,1,undefined,1,h,0,77,77,77,0,0,0,77,0,77,0,0,0,77,77,77,Sun Sep 13 09:33:13 2020,1500,The main experiment item,yes,FlankerTask.osexp,C:/Users/Owner/Documents,no,mono,no,18,no,white,no,yes,768,legacy,77,77,C:/Users/Owner/Documents/KJPsubject-0.csv,legacy,Lentiform Loewenfeld,3.3.3,0,h,NA,NA,s,NA,h,524,NA,NA,8694,NA,524,2,legacy,1024,2,48000,-16,experiment,0,even,NA,NA,141974,143705,11499,NA,2800,NA,NA,143080,NA,2804,NA,143181,143078,143181,Flanker Test,78,39432,78,yes,1024
SSSSS,100,100,505.1012658,505.1012658,black,legacy,legacy,legacy,0,congruent,uniform,1,undefined,1,s,0,78,78,78,0,0,0,78,0,78,0,0,0,78,78,78,Sun Sep 13 09:33:13 2020,1500,The main experiment item,yes,FlankerTask.osexp,C:/Users/Owner/Documents,no,mono,no,18,no,white,no,yes,768,legacy,78,78,C:/Users/Owner/Documents/KJPsubject-0.csv,legacy,Lentiform Loewenfeld,3.3.3,0,s,NA,NA,s,NA,s,471,NA,NA,8694,NA,471,2,legacy,1024,2,48000,-16,experiment,0,even,NA,NA,143709,145387,11499,NA,2800,NA,NA,144810,NA,2804,NA,144914,144808,144914,Flanker Test,79,39903,79,yes,1024
HHSHH,98.75,98.75,504.0875,504.0875,black,legacy,legacy,legacy,0,incongruent,uniform,0,undefined,0,s,0,79,79,79,0,0,0,79,0,79,0,0,0,79,79,79,Sun Sep 13 09:33:13 2020,1500,The main experiment item,yes,FlankerTask.osexp,C:/Users/Owner/Documents,no,mono,no,18,no,white,no,yes,768,legacy,79,79,C:/Users/Owner/Documents/KJPsubject-0.csv,legacy,Lentiform Loewenfeld,3.3.3,0,h,NA,NA,s,NA,h,424,NA,NA,8694,NA,424,2,legacy,1024,2,48000,-16,experiment,0,even,NA,NA,145392,147017,11499,NA,2800,NA,NA,146487,NA,2804,NA,146591,146486,146591,Flanker Test,79,40327,80,yes,1024
HHHHH,98.7654321,98.7654321,504.6049383,504.6049383,black,legacy,legacy,legacy,0,congruent,uniform,1,undefined,1,h,0,80,80,80,0,0,0,80,0,80,0,0,0,80,80,80,Sun Sep 13 09:33:13 2020,600,The main experiment item,yes,FlankerTask.osexp,C:/Users/Owner/Documents,no,mono,no,18,no,white,no,yes,768,legacy,0,79,C:/Users/Owner/Documents/KJPsubject-0.csv,legacy,Lentiform Loewenfeld,3.3.3,0,h,NA,s,s,NA,h,546,NA,5171,8694,NA,546,2,legacy,1024,2,48000,-16,experiment,0,even,NA,147021,147525,154420,11499,153724,2800,NA,NA,153768,148552,2804,NA,153872,153767,153871,Flanker Test,80,40873,81,yes,1024
SSHSS,98.7804878,98.7804878,505.1585366,505.1585366,black,legacy,legacy,legacy,0,incongruent,uniform,1,undefined,1,h,0,81,81,81,0,0,0,81,0,81,0,0,0,81,81,81,Sun Sep 13 09:33:13 2020,600,The main experiment item,yes,FlankerTask.osexp,C:/Users/Owner/Documents,no,mono,no,18,no,white,no,yes,768,legacy,1,79,C:/Users/Owner/Documents/KJPsubject-0.csv,legacy,Lentiform Loewenfeld,3.3.3,0,h,NA,s,s,NA,h,550,NA,5171,8694,NA,550,2,legacy,1024,2,48000,-16,experiment,0,even,NA,147021,154423,156162,11499,153724,2800,NA,NA,155509,148552,2804,NA,155611,155507,155611,Flanker Test,81,41423,82,yes,1024
HHSHH,98.79518072,98.79518072,504.3855422,504.3855422,black,legacy,legacy,legacy,0,incongruent,uniform,1,undefined,1,s,0,82,82,82,0,0,0,82,0,82,0,0,0,82,82,82,Sun Sep 13 09:33:13 2020,600,The main experiment item,yes,FlankerTask.osexp,C:/Users/Owner/Documents,no,mono,no,18,no,white,no,yes,768,legacy,2,79,C:/Users/Owner/Documents/KJPsubject-0.csv,legacy,Lentiform Loewenfeld,3.3.3,0,s,NA,s,s,NA,s,441,NA,5171,8694,NA,441,2,legacy,1024,2,48000,-16,experiment,0,even,NA,147021,156166,157809,11499,153724,2800,NA,NA,157266,148552,2804,NA,157367,157265,157367,Flanker Test,82,41864,83,yes,1024
SSHSS,98.80952381,98.80952381,504.4166667,504.4166667,black,legacy,legacy,legacy,0,incongruent,uniform,1,undefined,1,h,0,83,83,83,0,0,0,83,0,83,0,0,0,83,83,83,Sun Sep 13 09:33:13 2020,600,The main experiment item,yes,FlankerTask.osexp,C:/Users/Owner/Documents,no,mono,no,18,no,white,no,yes,768,legacy,3,79,C:/Users/Owner/Documents/KJPsubject-0.csv,legacy,Lentiform Loewenfeld,3.3.3,0,h,NA,s,s,NA,h,507,NA,5171,8694,NA,507,2,legacy,1024,2,48000,-16,experiment,0,even,NA,147021,157813,159524,11499,153724,2800,NA,NA,158914,148552,2804,NA,159016,158912,159016,Flanker Test,83,42371,84,yes,1024
SSSSS,98.82352941,98.82352941,503.5647059,503.5647059,black,legacy,legacy,legacy,0,congruent,uniform,1,undefined,1,s,0,84,84,84,0,0,0,84,0,84,0,0,0,84,84,84,Sun Sep 13 09:33:13 2020,600,The main experiment item,yes,FlankerTask.osexp,C:/Users/Owner/Documents,no,mono,no,18,no,white,no,yes,768,legacy,4,79,C:/Users/Owner/Documents/KJPsubject-0.csv,legacy,Lentiform Loewenfeld,3.3.3,0,s,NA,s,s,NA,s,432,NA,5171,8694,NA,432,2,legacy,1024,2,48000,-16,experiment,0,even,NA,147021,159528,161171,11499,153724,2800,NA,NA,160636,148552,2804,NA,160737,160635,160737,Flanker Test,84,42803,85,yes,1024
HHHHH,98.8372093,98.8372093,502.9651163,502.9651163,black,legacy,legacy,legacy,0,congruent,uniform,1,undefined,1,h,0,85,85,85,0,0,0,85,0,85,0,0,0,85,85,85,Sun Sep 13 09:33:13 2020,600,The main experiment item,yes,FlankerTask.osexp,C:/Users/Owner/Documents,no,mono,no,18,no,white,no,yes,768,legacy,5,79,C:/Users/Owner/Documents/KJPsubject-0.csv,legacy,Lentiform Loewenfeld,3.3.3,0,h,NA,s,s,NA,h,452,NA,5171,8694,NA,452,2,legacy,1024,2,48000,-16,experiment,0,even,NA,147021,161174,162820,11499,153724,2800,NA,NA,162266,148552,2804,NA,162367,162264,162367,Flanker Test,85,43255,86,yes,1024
SSHSS,98.85057471,98.85057471,503.3333333,503.3333333,black,legacy,legacy,legacy,0,incongruent,uniform,1,undefined,1,h,0,86,86,86,0,0,0,86,0,86,0,0,0,86,86,86,Sun Sep 13 09:33:13 2020,600,The main experiment item,yes,FlankerTask.osexp,C:/Users/Owner/Documents,no,mono,no,18,no,white,no,yes,768,legacy,6,79,C:/Users/Owner/Documents/KJPsubject-0.csv,legacy,Lentiform Loewenfeld,3.3.3,0,h,NA,s,s,NA,h,535,NA,5171,8694,NA,535,2,legacy,1024,2,48000,-16,experiment,0,even,NA,147021,162824,164566,11499,153724,2800,NA,NA,163926,148552,2804,NA,164029,163924,164028,Flanker Test,86,43790,87,yes,1024
SSSSS,98.86363636,98.86363636,501.7727273,501.7727273,black,legacy,legacy,legacy,0,congruent,uniform,1,undefined,1,s,0,87,87,87,0,0,0,87,0,87,0,0,0,87,87,87,Sun Sep 13 09:33:13 2020,600,The main experiment item,yes,FlankerTask.osexp,C:/Users/Owner/Documents,no,mono,no,18,no,white,no,yes,768,legacy,7,79,C:/Users/Owner/Documents/KJPsubject-0.csv,legacy,Lentiform Loewenfeld,3.3.3,0,s,NA,s,s,NA,s,366,NA,5171,8694,NA,366,2,legacy,1024,2,48000,-16,experiment,0,even,NA,147021,164569,166095,11499,153724,2800,NA,NA,165625,148552,2804,NA,165727,165624,165727,Flanker Test,87,44156,88,yes,1024
HHHHH,98.87640449,98.87640449,499.9101124,499.9101124,black,legacy,legacy,legacy,0,congruent,uniform,1,undefined,1,h,0,88,88,88,0,0,0,88,0,88,0,0,0,88,88,88,Sun Sep 13 09:33:13 2020,600,The main experiment item,yes,FlankerTask.osexp,C:/Users/Owner/Documents,no,mono,no,18,no,white,no,yes,768,legacy,8,79,C:/Users/Owner/Documents/KJPsubject-0.csv,legacy,Lentiform Loewenfeld,3.3.3,0,h,NA,s,s,NA,h,336,NA,5171,8694,NA,336,2,legacy,1024,2,48000,-16,experiment,0,even,NA,147021,166098,167643,11499,153724,2800,NA,NA,167201,148552,2804,NA,167305,167199,167305,Flanker Test,88,44492,89,yes,1024
HHSHH,98.88888889,98.88888889,498.4111111,498.4111111,black,legacy,legacy,legacy,0,incongruent,uniform,1,undefined,1,s,0,89,89,89,0,0,0,89,0,89,0,0,0,89,89,89,Sun Sep 13 09:33:13 2020,600,The main experiment item,yes,FlankerTask.osexp,C:/Users/Owner/Documents,no,mono,no,18,no,white,no,yes,768,legacy,9,79,C:/Users/Owner/Documents/KJPsubject-0.csv,legacy,Lentiform Loewenfeld,3.3.3,0,s,NA,s,s,NA,s,365,NA,5171,8694,NA,365,2,legacy,1024,2,48000,-16,experiment,0,even,NA,147021,167646,169191,11499,153724,2800,NA,NA,168723,148552,2804,NA,168825,168721,168825,Flanker Test,89,44857,90,yes,1024
HHSHH,98.9010989,98.9010989,497.9010989,497.9010989,black,legacy,legacy,legacy,0,incongruent,uniform,1,undefined,1,s,0,90,90,90,0,0,0,90,0,90,0,0,0,90,90,90,Sun Sep 13 09:33:13 2020,600,The main experiment item,yes,FlankerTask.osexp,C:/Users/Owner/Documents,no,mono,no,18,no,white,no,yes,768,legacy,10,79,C:/Users/Owner/Documents/KJPsubject-0.csv,legacy,Lentiform Loewenfeld,3.3.3,0,s,NA,s,s,NA,s,452,NA,5171,8694,NA,452,2,legacy,1024,2,48000,-16,experiment,0,even,NA,147021,169195,170820,11499,153724,2800,NA,NA,170263,148552,2804,NA,170367,170261,170367,Flanker Test,90,45309,91,yes,1024
HHSHH,98.91304348,98.91304348,497.0108696,497.0108696,black,legacy,legacy,legacy,0,incongruent,uniform,1,undefined,1,s,0,91,91,91,0,0,0,91,0,91,0,0,0,91,91,91,Sun Sep 13 09:33:13 2020,600,The main experiment item,yes,FlankerTask.osexp,C:/Users/Owner/Documents,no,mono,no,18,no,white,no,yes,768,legacy,11,79,C:/Users/Owner/Documents/KJPsubject-0.csv,legacy,Lentiform Loewenfeld,3.3.3,0,s,NA,s,s,NA,s,416,NA,5171,8694,NA,416,2,legacy,1024,2,48000,-16,experiment,0,even,NA,147021,170823,172452,11499,153724,2800,NA,NA,171931,148552,2804,NA,172035,171929,172035,Flanker Test,91,45725,92,yes,1024
SSSSS,98.92473118,98.92473118,496.0752688,496.0752688,black,legacy,legacy,legacy,0,congruent,uniform,1,undefined,1,s,0,92,92,92,0,0,0,92,0,92,0,0,0,92,92,92,Sun Sep 13 09:33:13 2020,600,The main experiment item,yes,FlankerTask.osexp,C:/Users/Owner/Documents,no,mono,no,18,no,white,no,yes,768,legacy,12,79,C:/Users/Owner/Documents/KJPsubject-0.csv,legacy,Lentiform Loewenfeld,3.3.3,0,s,NA,s,s,NA,s,410,NA,5171,8694,NA,410,2,legacy,1024,2,48000,-16,experiment,0,even,NA,147021,172456,174071,11499,153724,2800,NA,NA,173557,148552,2804,NA,173660,173555,173660,Flanker Test,92,46135,93,yes,1024
HHHHH,98.93617021,98.93617021,494.8829787,494.8829787,black,legacy,legacy,legacy,0,congruent,uniform,1,undefined,1,h,0,93,93,93,0,0,0,93,0,93,0,0,0,93,93,93,Sun Sep 13 09:33:13 2020,600,The main experiment item,yes,FlankerTask.osexp,C:/Users/Owner/Documents,no,mono,no,18,no,white,no,yes,768,legacy,13,79,C:/Users/Owner/Documents/KJPsubject-0.csv,legacy,Lentiform Loewenfeld,3.3.3,0,h,NA,s,s,NA,h,384,NA,5171,8694,NA,384,2,legacy,1024,2,48000,-16,experiment,0,even,NA,147021,174075,175619,11499,153724,2800,NA,NA,175133,148552,2804,NA,175234,175131,175234,Flanker Test,93,46519,94,yes,1024
HHHHH,97.89473684,97.89473684,493.4631579,493.4631579,black,legacy,legacy,legacy,0,congruent,uniform,0,undefined,0,h,0,94,94,94,0,0,0,94,0,94,0,0,0,94,94,94,Sun Sep 13 09:33:13 2020,600,The main experiment item,yes,FlankerTask.osexp,C:/Users/Owner/Documents,no,mono,no,18,no,white,no,yes,768,legacy,14,79,C:/Users/Owner/Documents/KJPsubject-0.csv,legacy,Lentiform Loewenfeld,3.3.3,0,s,NA,s,s,NA,s,360,NA,5171,8694,NA,360,2,legacy,1024,2,48000,-16,experiment,0,even,NA,147021,175627,177191,11499,153724,2800,NA,NA,176725,148552,2804,NA,176829,176723,176829,Flanker Test,93,46879,95,yes,1024
SSSSS,97.91666667,97.91666667,492.5416667,492.5416667,black,legacy,legacy,legacy,0,congruent,uniform,1,undefined,1,s,0,95,95,95,0,0,0,95,0,95,0,0,0,95,95,95,Sun Sep 13 09:33:13 2020,600,The main experiment item,yes,FlankerTask.osexp,C:/Users/Owner/Documents,no,mono,no,18,no,white,no,yes,768,legacy,15,79,C:/Users/Owner/Documents/KJPsubject-0.csv,legacy,Lentiform Loewenfeld,3.3.3,0,s,NA,s,s,NA,s,405,NA,5171,8694,NA,405,2,legacy,1024,2,48000,-16,experiment,0,even,NA,177194,177698,179320,11499,153724,2800,NA,NA,178812,148552,2804,NA,178914,178811,178914,Flanker Test,94,47284,96,yes,1024
SSHSS,97.93814433,97.93814433,493.2061856,493.2061856,black,legacy,legacy,legacy,0,incongruent,uniform,1,undefined,1,h,0,96,96,96,0,0,0,96,0,96,0,0,0,96,96,96,Sun Sep 13 09:33:13 2020,600,The main experiment item,yes,FlankerTask.osexp,C:/Users/Owner/Documents,no,mono,no,18,no,white,no,yes,768,legacy,16,79,C:/Users/Owner/Documents/KJPsubject-0.csv,legacy,Lentiform Loewenfeld,3.3.3,0,h,NA,s,s,NA,h,557,NA,5171,8694,NA,557,2,legacy,1024,2,48000,-16,experiment,0,even,NA,177194,179323,181076,11499,153724,2800,NA,NA,180416,148552,2804,NA,180517,180414,180517,Flanker Test,95,47841,97,yes,1024
HHSHH,97.95918367,97.95918367,493.6122449,493.6122449,black,legacy,legacy,legacy,0,incongruent,uniform,1,undefined,1,s,0,97,97,97,0,0,0,97,0,97,0,0,0,97,97,97,Sun Sep 13 09:33:13 2020,600,The main experiment item,yes,FlankerTask.osexp,C:/Users/Owner/Documents,no,mono,no,18,no,white,no,yes,768,legacy,17,79,C:/Users/Owner/Documents/KJPsubject-0.csv,legacy,Lentiform Loewenfeld,3.3.3,0,s,NA,s,s,NA,s,533,NA,5171,8694,NA,533,2,legacy,1024,2,48000,-16,experiment,0,even,NA,177194,181079,182826,11499,153724,2800,NA,NA,182190,148552,2804,NA,182292,182189,182292,Flanker Test,96,48374,98,yes,1024
SSHSS,97.97979798,97.97979798,493.9191919,493.9191919,black,legacy,legacy,legacy,0,incongruent,uniform,1,undefined,1,h,0,98,98,98,0,0,0,98,0,98,0,0,0,98,98,98,Sun Sep 13 09:33:13 2020,600,The main experiment item,yes,FlankerTask.osexp,C:/Users/Owner/Documents,no,mono,no,18,no,white,no,yes,768,legacy,18,79,C:/Users/Owner/Documents/KJPsubject-0.csv,legacy,Lentiform Loewenfeld,3.3.3,0,h,NA,s,s,NA,h,524,NA,5171,8694,NA,524,2,legacy,1024,2,48000,-16,experiment,0,even,NA,177194,182829,184565,11499,153724,2800,NA,NA,183936,148552,2804,NA,184039,183934,184039,Flanker Test,97,48898,99,yes,1024
HHHHH,98,98,494.18,494.18,black,legacy,legacy,legacy,0,congruent,uniform,1,undefined,1,h,0,99,99,99,0,0,0,99,0,99,0,0,0,99,99,99,Sun Sep 13 09:33:13 2020,600,The main experiment item,yes,FlankerTask.osexp,C:/Users/Owner/Documents,no,mono,no,18,no,white,no,yes,768,legacy,19,79,C:/Users/Owner/Documents/KJPsubject-0.csv,legacy,Lentiform Loewenfeld,3.3.3,0,h,NA,s,s,NA,h,520,NA,5171,8694,NA,520,2,legacy,1024,2,48000,-16,experiment,0,even,NA,177194,184568,186304,11499,153724,2800,NA,NA,185678,148552,2804,NA,185782,185677,185782,Flanker Test,98,49418,100,yes,1024
SSHSS,98.01980198,98.01980198,496.6138614,496.6138614,black,legacy,legacy,legacy,0,incongruent,uniform,1,undefined,1,h,0,100,100,100,0,0,0,100,0,100,0,0,0,100,100,100,Sun Sep 13 09:33:13 2020,600,The main experiment item,yes,FlankerTask.osexp,C:/Users/Owner/Documents,no,mono,no,18,no,white,no,yes,768,legacy,20,79,C:/Users/Owner/Documents/KJPsubject-0.csv,legacy,Lentiform Loewenfeld,3.3.3,0,h,NA,s,s,NA,h,740,NA,5171,8694,NA,740,2,legacy,1024,2,48000,-16,experiment,0,even,NA,177194,186311,188225,11499,153724,2800,NA,NA,187382,148552,2804,NA,187484,187380,187484,Flanker Test,99,50158,101,yes,1024
HHHHH,98.03921569,98.03921569,495.7156863,495.7156863,black,legacy,legacy,legacy,0,congruent,uniform,1,undefined,1,h,0,101,101,101,0,0,0,101,0,101,0,0,0,101,101,101,Sun Sep 13 09:33:13 2020,600,The main experiment item,yes,FlankerTask.osexp,C:/Users/Owner/Documents,no,mono,no,18,no,white,no,yes,768,legacy,21,79,C:/Users/Owner/Documents/KJPsubject-0.csv,legacy,Lentiform Loewenfeld,3.3.3,0,h,NA,s,s,NA,h,405,NA,5171,8694,NA,405,2,legacy,1024,2,48000,-16,experiment,0,even,NA,177194,188733,190347,11499,153724,2800,188229,NA,189837,148552,2804,NA,189940,189836,189940,Flanker Test,100,50563,102,yes,1024
HHSHH,98.05825243,98.05825243,495.1359223,495.1359223,black,legacy,legacy,legacy,0,incongruent,uniform,1,undefined,1,s,0,102,102,102,0,0,0,102,0,102,0,0,0,102,102,102,Sun Sep 13 09:33:13 2020,600,The main experiment item,yes,FlankerTask.osexp,C:/Users/Owner/Documents,no,mono,no,18,no,white,no,yes,768,legacy,22,79,C:/Users/Owner/Documents/KJPsubject-0.csv,legacy,Lentiform Loewenfeld,3.3.3,0,s,NA,s,s,NA,s,436,NA,5171,8694,NA,436,2,legacy,1024,2,48000,-16,experiment,0,even,NA,177194,190350,191951,11499,153724,2800,188229,NA,191411,148552,2804,NA,191513,191409,191513,Flanker Test,101,50999,103,yes,1024
SSSSS,98.07692308,98.07692308,494.2884615,494.2884615,black,legacy,legacy,legacy,0,congruent,uniform,1,undefined,1,s,0,103,103,103,0,0,0,103,0,103,0,0,0,103,103,103,Sun Sep 13 09:33:13 2020,600,The main experiment item,yes,FlankerTask.osexp,C:/Users/Owner/Documents,no,mono,no,18,no,white,no,yes,768,legacy,23,79,C:/Users/Owner/Documents/KJPsubject-0.csv,legacy,Lentiform Loewenfeld,3.3.3,0,s,NA,s,s,NA,s,407,NA,5171,8694,NA,407,2,legacy,1024,2,48000,-16,experiment,0,even,NA,177194,191954,193557,11499,153724,2800,188229,NA,193046,148552,2804,NA,193148,193044,193148,Flanker Test,102,51406,104,yes,1024
HHSHH,98.0952381,98.0952381,493.7809524,493.7809524,black,legacy,legacy,legacy,0,incongruent,uniform,1,undefined,1,s,0,104,104,104,0,0,0,104,0,104,0,0,0,104,104,104,Sun Sep 13 09:33:13 2020,600,The main experiment item,yes,FlankerTask.osexp,C:/Users/Owner/Documents,no,mono,no,18,no,white,no,yes,768,legacy,24,79,C:/Users/Owner/Documents/KJPsubject-0.csv,legacy,Lentiform Loewenfeld,3.3.3,0,s,NA,s,s,NA,s,441,NA,5171,8694,NA,441,2,legacy,1024,2,48000,-16,experiment,0,even,NA,177194,193559,195207,11499,153724,2800,188229,NA,194663,148552,2804,NA,194765,194662,194765,Flanker Test,103,51847,105,yes,1024
HHHHH,98.11320755,98.11320755,493.1509434,493.1509434,black,legacy,legacy,legacy,0,congruent,uniform,1,undefined,1,h,0,105,105,105,0,0,0,105,0,105,0,0,0,105,105,105,Sun Sep 13 09:33:13 2020,600,The main experiment item,yes,FlankerTask.osexp,C:/Users/Owner/Documents,no,mono,no,18,no,white,no,yes,768,legacy,25,79,C:/Users/Owner/Documents/KJPsubject-0.csv,legacy,Lentiform Loewenfeld,3.3.3,0,h,NA,s,s,NA,h,427,NA,5171,8694,NA,427,2,legacy,1024,2,48000,-16,experiment,0,even,NA,177194,195210,196842,11499,153724,2800,188229,NA,196310,148552,2804,NA,196413,196308,196412,Flanker Test,104,52274,106,yes,1024
SSSSS,98.13084112,98.13084112,493.1495327,493.1495327,black,legacy,legacy,legacy,0,congruent,uniform,1,undefined,1,s,0,106,106,106,0,0,0,106,0,106,0,0,0,106,106,106,Sun Sep 13 09:33:13 2020,600,The main experiment item,yes,FlankerTask.osexp,C:/Users/Owner/Documents,no,mono,no,18,no,white,no,yes,768,legacy,26,79,C:/Users/Owner/Documents/KJPsubject-0.csv,legacy,Lentiform Loewenfeld,3.3.3,0,s,NA,s,s,NA,s,493,NA,5171,8694,NA,493,2,legacy,1024,2,48000,-16,experiment,0,even,NA,177194,196846,198552,11499,153724,2800,188229,NA,197954,148552,2804,NA,198058,197952,198058,Flanker Test,105,52767,107,yes,1024
HHHHH,98.14814815,98.14814815,492.5277778,492.5277778,black,legacy,legacy,legacy,0,congruent,uniform,1,undefined,1,h,0,107,107,107,0,0,0,107,0,107,0,0,0,107,107,107,Sun Sep 13 09:33:13 2020,600,The main experiment item,yes,FlankerTask.osexp,C:/Users/Owner/Documents,no,mono,no,18,no,white,no,yes,768,legacy,27,79,C:/Users/Owner/Documents/KJPsubject-0.csv,legacy,Lentiform Loewenfeld,3.3.3,0,h,NA,s,s,NA,h,426,NA,5171,8694,NA,426,2,legacy,1024,2,48000,-16,experiment,0,even,NA,177194,198554,200183,11499,153724,2800,188229,NA,199652,148552,2804,NA,199756,199651,199756,Flanker Test,106,53193,108,yes,1024
HHSHH,98.16513761,98.16513761,491.2110092,491.2110092,black,legacy,legacy,legacy,0,incongruent,uniform,1,undefined,1,s,0,108,108,108,0,0,0,108,0,108,0,0,0,108,108,108,Sun Sep 13 09:33:13 2020,600,The main experiment item,yes,FlankerTask.osexp,C:/Users/Owner/Documents,no,mono,no,18,no,white,no,yes,768,legacy,28,79,C:/Users/Owner/Documents/KJPsubject-0.csv,legacy,Lentiform Loewenfeld,3.3.3,0,s,NA,s,s,NA,s,349,NA,5171,8694,NA,349,2,legacy,1024,2,48000,-16,experiment,0,even,NA,177194,200186,201743,11499,153724,2800,188229,NA,201292,148552,2804,NA,201393,201291,201393,Flanker Test,107,53542,109,yes,1024
SSHSS,98.18181818,98.18181818,491.2454545,491.2454545,black,legacy,legacy,legacy,0,incongruent,uniform,1,undefined,1,h,0,109,109,109,0,0,0,109,0,109,0,0,0,109,109,109,Sun Sep 13 09:33:13 2020,600,The main experiment item,yes,FlankerTask.osexp,C:/Users/Owner/Documents,no,mono,no,18,no,white,no,yes,768,legacy,29,79,C:/Users/Owner/Documents/KJPsubject-0.csv,legacy,Lentiform Loewenfeld,3.3.3,0,h,NA,s,s,NA,h,495,NA,5171,8694,NA,495,2,legacy,1024,2,48000,-16,experiment,0,even,NA,177194,201745,203450,11499,153724,2800,188229,NA,202851,148552,2804,NA,202953,202849,202953,Flanker Test,108,54037,110,yes,1024
SSSSS,98.1981982,98.1981982,490.0630631,490.0630631,black,legacy,legacy,legacy,0,congruent,uniform,1,undefined,1,s,0,110,110,110,0,0,0,110,0,110,0,0,0,110,110,110,Sun Sep 13 09:33:13 2020,600,The main experiment item,yes,FlankerTask.osexp,C:/Users/Owner/Documents,no,mono,no,18,no,white,no,yes,768,legacy,30,79,C:/Users/Owner/Documents/KJPsubject-0.csv,legacy,Lentiform Loewenfeld,3.3.3,0,s,NA,s,s,NA,s,360,NA,5171,8694,NA,360,2,legacy,1024,2,48000,-16,experiment,0,even,NA,177194,203453,205025,11499,153724,2800,188229,NA,204562,148552,2804,NA,204664,204560,204664,Flanker Test,109,54397,111,yes,1024
SSSSS,98.21428571,98.21428571,489.3839286,489.3839286,black,legacy,legacy,legacy,0,congruent,uniform,1,undefined,1,s,0,111,111,111,0,0,0,111,0,111,0,0,0,111,111,111,Sun Sep 13 09:33:13 2020,600,The main experiment item,yes,FlankerTask.osexp,C:/Users/Owner/Documents,no,mono,no,18,no,white,no,yes,768,legacy,31,79,C:/Users/Owner/Documents/KJPsubject-0.csv,legacy,Lentiform Loewenfeld,3.3.3,0,s,NA,s,s,NA,s,414,NA,5171,8694,NA,414,2,legacy,1024,2,48000,-16,experiment,0,even,NA,177194,205028,206613,11499,153724,2800,188229,NA,206096,148552,2804,NA,206198,206095,206198,Flanker Test,110,54811,112,yes,1024
SSSSS,98.2300885,98.2300885,488.6106195,488.6106195,black,legacy,legacy,legacy,0,congruent,uniform,1,undefined,1,s,0,112,112,112,0,0,0,112,0,112,0,0,0,112,112,112,Sun Sep 13 09:33:13 2020,600,The main experiment item,yes,FlankerTask.osexp,C:/Users/Owner/Documents,no,mono,no,18,no,white,no,yes,768,legacy,32,79,C:/Users/Owner/Documents/KJPsubject-0.csv,legacy,Lentiform Loewenfeld,3.3.3,0,s,NA,s,s,NA,s,402,NA,5171,8694,NA,402,2,legacy,1024,2,48000,-16,experiment,0,even,NA,177194,206616,208226,11499,153724,2800,188229,NA,207722,148552,2804,NA,207823,207721,207823,Flanker Test,111,55213,113,yes,1024
SSHSS,97.36842105,97.36842105,487.4824561,487.4824561,black,legacy,legacy,legacy,0,incongruent,uniform,0,undefined,0,h,0,113,113,113,0,0,0,113,0,113,0,0,0,113,113,113,Sun Sep 13 09:33:13 2020,600,The main experiment item,yes,FlankerTask.osexp,C:/Users/Owner/Documents,no,mono,no,18,no,white,no,yes,768,legacy,33,79,C:/Users/Owner/Documents/KJPsubject-0.csv,legacy,Lentiform Loewenfeld,3.3.3,0,s,NA,s,s,NA,s,360,NA,5171,8694,NA,360,2,legacy,1024,2,48000,-16,experiment,0,even,NA,177194,208230,209788,11499,153724,2800,188229,NA,209325,148552,2804,NA,209426,209323,209426,Flanker Test,111,55573,114,yes,1024
SSSSS,97.39130435,97.39130435,486.8434783,486.8434783,black,legacy,legacy,legacy,0,congruent,uniform,1,undefined,1,s,0,114,114,114,0,0,0,114,0,114,0,0,0,114,114,114,Sun Sep 13 09:33:13 2020,600,The main experiment item,yes,FlankerTask.osexp,C:/Users/Owner/Documents,no,mono,no,18,no,white,no,yes,768,legacy,34,79,C:/Users/Owner/Documents/KJPsubject-0.csv,legacy,Lentiform Loewenfeld,3.3.3,0,s,NA,s,s,NA,s,414,NA,5171,8694,NA,414,2,legacy,1024,2,48000,-16,experiment,0,even,NA,209792,210293,211891,11499,153724,2800,188229,NA,211373,148552,2804,NA,211476,211372,211476,Flanker Test,112,55987,115,yes,1024
SSHSS,97.4137931,97.4137931,487.7672414,487.7672414,black,legacy,legacy,legacy,0,incongruent,uniform,1,undefined,1,h,0,115,115,115,0,0,0,115,0,115,0,0,0,115,115,115,Sun Sep 13 09:33:13 2020,600,The main experiment item,yes,FlankerTask.osexp,C:/Users/Owner/Documents,no,mono,no,18,no,white,no,yes,768,legacy,35,79,C:/Users/Owner/Documents/KJPsubject-0.csv,legacy,Lentiform Loewenfeld,3.3.3,0,h,NA,s,s,NA,h,594,NA,5171,8694,NA,594,2,legacy,1024,2,48000,-16,experiment,0,even,NA,209792,211895,213697,11499,153724,2800,188229,NA,212999,148552,2804,NA,213101,212998,213101,Flanker Test,113,56581,116,yes,1024
HHHHH,97.43589744,97.43589744,487.4444444,487.4444444,black,legacy,legacy,legacy,0,congruent,uniform,1,undefined,1,h,0,116,116,116,0,0,0,116,0,116,0,0,0,116,116,116,Sun Sep 13 09:33:13 2020,600,The main experiment item,yes,FlankerTask.osexp,C:/Users/Owner/Documents,no,mono,no,18,no,white,no,yes,768,legacy,36,79,C:/Users/Owner/Documents/KJPsubject-0.csv,legacy,Lentiform Loewenfeld,3.3.3,0,h,NA,s,s,NA,h,450,NA,5171,8694,NA,450,2,legacy,1024,2,48000,-16,experiment,0,even,NA,209792,213701,215365,11499,153724,2800,188229,NA,214810,148552,2804,NA,214914,214807,214914,Flanker Test,114,57031,117,yes,1024
SSHSS,96.61016949,96.61016949,486.6949153,486.6949153,black,legacy,legacy,legacy,0,incongruent,uniform,0,undefined,0,h,0,117,117,117,0,0,0,117,0,117,0,0,0,117,117,117,Sun Sep 13 09:33:13 2020,600,The main experiment item,yes,FlankerTask.osexp,C:/Users/Owner/Documents,no,mono,no,18,no,white,no,yes,768,legacy,37,79,C:/Users/Owner/Documents/KJPsubject-0.csv,legacy,Lentiform Loewenfeld,3.3.3,0,s,NA,s,s,NA,s,399,NA,5171,8694,NA,399,2,legacy,1024,2,48000,-16,experiment,0,even,NA,209792,215368,216952,11499,153724,2800,188229,NA,216449,148552,2804,NA,216552,216447,216552,Flanker Test,114,57430,118,yes,1024
HHHHH,96.63865546,96.63865546,486.9411765,486.9411765,black,legacy,legacy,legacy,0,congruent,uniform,1,undefined,1,h,0,118,118,118,0,0,0,118,0,118,0,0,0,118,118,118,Sun Sep 13 09:33:13 2020,600,The main experiment item,yes,FlankerTask.osexp,C:/Users/Owner/Documents,no,mono,no,18,no,white,no,yes,768,legacy,38,79,C:/Users/Owner/Documents/KJPsubject-0.csv,legacy,Lentiform Loewenfeld,3.3.3,0,h,NA,s,s,NA,h,516,NA,5171,8694,NA,516,2,legacy,1024,2,48000,-16,experiment,0,even,NA,216956,217459,219184,11499,153724,2800,188229,NA,218565,148552,2804,NA,218667,218563,218667,Flanker Test,115,57946,119,yes,1024
HHSHH,96.66666667,96.66666667,487.3,487.3,black,legacy,legacy,legacy,0,incongruent,uniform,1,undefined,1,s,0,119,119,119,0,0,0,119,0,119,0,0,0,119,119,119,Sun Sep 13 09:33:13 2020,600,The main experiment item,yes,FlankerTask.osexp,C:/Users/Owner/Documents,no,mono,no,18,no,white,no,yes,768,legacy,39,79,C:/Users/Owner/Documents/KJPsubject-0.csv,legacy,Lentiform Loewenfeld,3.3.3,0,s,NA,s,s,NA,s,530,NA,5171,8694,NA,530,2,legacy,1024,2,48000,-16,experiment,0,even,NA,216956,219188,220930,11499,153724,2800,188229,NA,220296,148552,2804,NA,220398,220294,220398,Flanker Test,116,58476,120,yes,1024
SSSSS,96.69421488,96.69421488,487.6694215,487.6694215,black,legacy,legacy,legacy,0,congruent,uniform,1,undefined,1,s,0,120,120,120,0,0,0,120,0,120,0,0,0,120,120,120,Sun Sep 13 09:33:13 2020,600,The main experiment item,yes,FlankerTask.osexp,C:/Users/Owner/Documents,no,mono,no,18,no,white,no,yes,768,legacy,40,79,C:/Users/Owner/Documents/KJPsubject-0.csv,legacy,Lentiform Loewenfeld,3.3.3,0,s,NA,s,s,NA,s,532,NA,5171,8694,NA,532,2,legacy,1024,2,48000,-16,experiment,0,even,NA,216956,220934,222677,11499,153724,2800,188229,NA,222042,148552,2804,NA,222143,222040,222143,Flanker Test,117,59008,121,yes,1024
SSHSS,96.72131148,96.72131148,487.1229508,487.1229508,black,legacy,legacy,legacy,0,incongruent,uniform,1,undefined,1,h,0,121,121,121,0,0,0,121,0,121,0,0,0,121,121,121,Sun Sep 13 09:33:13 2020,600,The main experiment item,yes,FlankerTask.osexp,C:/Users/Owner/Documents,no,mono,no,18,no,white,no,yes,768,legacy,41,79,C:/Users/Owner/Documents/KJPsubject-0.csv,legacy,Lentiform Loewenfeld,3.3.3,0,h,NA,s,s,NA,h,421,NA,5171,8694,NA,421,2,legacy,1024,2,48000,-16,experiment,0,even,NA,216956,222681,224310,11499,153724,2800,188229,NA,223786,148552,2804,NA,223887,223785,223887,Flanker Test,118,59429,122,yes,1024
HHHHH,96.74796748,96.74796748,487.0243902,487.0243902,black,legacy,legacy,legacy,0,congruent,uniform,1,undefined,1,h,0,122,122,122,0,0,0,122,0,122,0,0,0,122,122,122,Sun Sep 13 09:33:13 2020,600,The main experiment item,yes,FlankerTask.osexp,C:/Users/Owner/Documents,no,mono,no,18,no,white,no,yes,768,legacy,42,79,C:/Users/Owner/Documents/KJPsubject-0.csv,legacy,Lentiform Loewenfeld,3.3.3,0,h,NA,s,s,NA,h,475,NA,5171,8694,NA,475,2,legacy,1024,2,48000,-16,experiment,0,even,NA,216956,224314,225964,11499,153724,2800,188229,NA,225384,148552,2804,NA,225487,225383,225486,Flanker Test,119,59904,123,yes,1024
HHHHH,96.77419355,96.77419355,487.0967742,487.0967742,black,legacy,legacy,legacy,0,congruent,uniform,1,undefined,1,h,0,123,123,123,0,0,0,123,0,123,0,0,0,123,123,123,Sun Sep 13 09:33:13 2020,600,The main experiment item,yes,FlankerTask.osexp,C:/Users/Owner/Documents,no,mono,no,18,no,white,no,yes,768,legacy,43,79,C:/Users/Owner/Documents/KJPsubject-0.csv,legacy,Lentiform Loewenfeld,3.3.3,0,h,NA,s,s,NA,h,496,NA,5171,8694,NA,496,2,legacy,1024,2,48000,-16,experiment,0,even,NA,216956,225968,227676,11499,153724,2800,188229,NA,227075,148552,2804,NA,227179,227074,227179,Flanker Test,120,60400,124,yes,1024
HHSHH,96.8,96.8,487.576,487.576,black,legacy,legacy,legacy,0,incongruent,uniform,1,undefined,1,s,0,124,124,124,0,0,0,124,0,124,0,0,0,124,124,124,Sun Sep 13 09:33:13 2020,600,The main experiment item,yes,FlankerTask.osexp,C:/Users/Owner/Documents,no,mono,no,18,no,white,no,yes,768,legacy,44,79,C:/Users/Owner/Documents/KJPsubject-0.csv,legacy,Lentiform Loewenfeld,3.3.3,0,s,NA,s,s,NA,s,547,NA,5171,8694,NA,547,2,legacy,1024,2,48000,-16,experiment,0,even,NA,216956,227679,229397,11499,153724,2800,188229,NA,228748,148552,2804,NA,228849,228747,228849,Flanker Test,121,60947,125,yes,1024
HHHHH,96.82539683,96.82539683,487.1428571,487.1428571,black,legacy,legacy,legacy,0,congruent,uniform,1,undefined,1,h,0,125,125,125,0,0,0,125,0,125,0,0,0,125,125,125,Sun Sep 13 09:33:13 2020,600,The main experiment item,yes,FlankerTask.osexp,C:/Users/Owner/Documents,no,mono,no,18,no,white,no,yes,768,legacy,45,79,C:/Users/Owner/Documents/KJPsubject-0.csv,legacy,Lentiform Loewenfeld,3.3.3,0,h,NA,s,s,NA,h,433,NA,5171,8694,NA,433,2,legacy,1024,2,48000,-16,experiment,0,even,NA,216956,229401,231041,11499,153724,2800,188229,NA,230504,148552,2804,NA,230607,230502,230607,Flanker Test,122,61380,126,yes,1024
SSSSS,96.8503937,96.8503937,486.8740157,486.8740157,black,legacy,legacy,legacy,0,congruent,uniform,1,undefined,1,s,0,126,126,126,0,0,0,126,0,126,0,0,0,126,126,126,Sun Sep 13 09:33:13 2020,600,The main experiment item,yes,FlankerTask.osexp,C:/Users/Owner/Documents,no,mono,no,18,no,white,no,yes,768,legacy,46,79,C:/Users/Owner/Documents/KJPsubject-0.csv,legacy,Lentiform Loewenfeld,3.3.3,0,s,NA,s,s,NA,s,453,NA,5171,8694,NA,453,2,legacy,1024,2,48000,-16,experiment,0,even,NA,216956,231045,232699,11499,153724,2800,188229,NA,232143,148552,2804,NA,232246,232141,232246,Flanker Test,123,61833,127,yes,1024
SSSSS,96.875,96.875,486.9375,486.9375,black,legacy,legacy,legacy,0,congruent,uniform,1,undefined,1,s,0,127,127,127,0,0,0,127,0,127,0,0,0,127,127,127,Sun Sep 13 09:33:13 2020,600,The main experiment item,yes,FlankerTask.osexp,C:/Users/Owner/Documents,no,mono,no,18,no,white,no,yes,768,legacy,47,79,C:/Users/Owner/Documents/KJPsubject-0.csv,legacy,Lentiform Loewenfeld,3.3.3,0,s,NA,s,s,NA,s,495,NA,5171,8694,NA,495,2,legacy,1024,2,48000,-16,experiment,0,even,NA,216956,232703,234409,11499,153724,2800,188229,NA,233812,148552,2804,NA,233913,233810,233913,Flanker Test,124,62328,128,yes,1024
SSHSS,96.89922481,96.89922481,488.4573643,488.4573643,black,legacy,legacy,legacy,0,incongruent,uniform,1,undefined,1,h,0,128,128,128,0,0,0,128,0,128,0,0,0,128,128,128,Sun Sep 13 09:33:13 2020,600,The main experiment item,yes,FlankerTask.osexp,C:/Users/Owner/Documents,no,mono,no,18,no,white,no,yes,768,legacy,48,79,C:/Users/Owner/Documents/KJPsubject-0.csv,legacy,Lentiform Loewenfeld,3.3.3,0,h,NA,s,s,NA,h,683,NA,5171,8694,NA,683,2,legacy,1024,2,48000,-16,experiment,0,even,NA,216956,234413,236309,11499,153724,2800,188229,NA,235521,148552,2804,NA,235624,235519,235623,Flanker Test,125,63011,129,yes,1024
SSSSS,96.92307692,96.92307692,488.2923077,488.2923077,black,legacy,legacy,legacy,0,congruent,uniform,1,undefined,1,s,0,129,129,129,0,0,0,129,0,129,0,0,0,129,129,129,Sun Sep 13 09:33:13 2020,600,The main experiment item,yes,FlankerTask.osexp,C:/Users/Owner/Documents,no,mono,no,18,no,white,no,yes,768,legacy,49,79,C:/Users/Owner/Documents/KJPsubject-0.csv,legacy,Lentiform Loewenfeld,3.3.3,0,s,NA,s,s,NA,s,467,NA,5171,8694,NA,467,2,legacy,1024,2,48000,-16,experiment,0,even,NA,216956,236816,238494,11499,153724,2800,236312,NA,237921,148552,2804,NA,238025,237920,238025,Flanker Test,126,63478,130,yes,1024
SSHSS,96.94656489,96.94656489,487.3129771,487.3129771,black,legacy,legacy,legacy,0,incongruent,uniform,1,undefined,1,h,0,130,130,130,0,0,0,130,0,130,0,0,0,130,130,130,Sun Sep 13 09:33:13 2020,600,The main experiment item,yes,FlankerTask.osexp,C:/Users/Owner/Documents,no,mono,no,18,no,white,no,yes,768,legacy,50,79,C:/Users/Owner/Documents/KJPsubject-0.csv,legacy,Lentiform Loewenfeld,3.3.3,0,h,NA,s,s,NA,h,360,NA,5171,8694,NA,360,2,legacy,1024,2,48000,-16,experiment,0,even,NA,216956,238497,240040,11499,153724,2800,236312,NA,239574,148552,2804,NA,239678,239572,239678,Flanker Test,127,63838,131,yes,1024
HHSHH,96.96969697,96.96969697,486.7424242,486.7424242,black,legacy,legacy,legacy,0,incongruent,uniform,1,undefined,1,s,0,131,131,131,0,0,0,131,0,131,0,0,0,131,131,131,Sun Sep 13 09:33:13 2020,600,The main experiment item,yes,FlankerTask.osexp,C:/Users/Owner/Documents,no,mono,no,18,no,white,no,yes,768,legacy,51,79,C:/Users/Owner/Documents/KJPsubject-0.csv,legacy,Lentiform Loewenfeld,3.3.3,0,s,NA,s,s,NA,s,412,NA,5171,8694,NA,412,2,legacy,1024,2,48000,-16,experiment,0,even,NA,216956,240046,241675,11499,153724,2800,236312,NA,241157,148552,2804,NA,241261,241156,241261,Flanker Test,128,64250,132,yes,1024
SSSSS,96.9924812,96.9924812,486,486,black,legacy,legacy,legacy,0,congruent,uniform,1,undefined,1,s,0,132,132,132,0,0,0,132,0,132,0,0,0,132,132,132,Sun Sep 13 09:33:13 2020,600,The main experiment item,yes,FlankerTask.osexp,C:/Users/Owner/Documents,no,mono,no,18,no,white,no,yes,768,legacy,52,79,C:/Users/Owner/Documents/KJPsubject-0.csv,legacy,Lentiform Loewenfeld,3.3.3,0,s,NA,s,s,NA,s,388,NA,5171,8694,NA,388,2,legacy,1024,2,48000,-16,experiment,0,even,NA,216956,241679,243275,11499,153724,2800,236312,NA,242785,148552,2804,NA,242886,242783,242886,Flanker Test,129,64638,133,yes,1024
HHHHH,97.01492537,97.01492537,485.4253731,485.4253731,black,legacy,legacy,legacy,0,congruent,uniform,1,undefined,1,h,0,133,133,133,0,0,0,133,0,133,0,0,0,133,133,133,Sun Sep 13 09:33:13 2020,600,The main experiment item,yes,FlankerTask.osexp,C:/Users/Owner/Documents,no,mono,no,18,no,white,no,yes,768,legacy,53,79,C:/Users/Owner/Documents/KJPsubject-0.csv,legacy,Lentiform Loewenfeld,3.3.3,0,h,NA,s,s,NA,h,409,NA,5171,8694,NA,409,2,legacy,1024,2,48000,-16,experiment,0,even,NA,216956,243279,244898,11499,153724,2800,236312,NA,244383,148552,2804,NA,244487,244381,244487,Flanker Test,130,65047,134,yes,1024
SSHSS,96.2962963,96.2962963,484.4518519,484.4518519,black,legacy,legacy,legacy,0,incongruent,uniform,0,undefined,0,h,0,134,134,134,0,0,0,134,0,134,0,0,0,134,134,134,Sun Sep 13 09:33:13 2020,600,The main experiment item,yes,FlankerTask.osexp,C:/Users/Owner/Documents,no,mono,no,18,no,white,no,yes,768,legacy,54,79,C:/Users/Owner/Documents/KJPsubject-0.csv,legacy,Lentiform Loewenfeld,3.3.3,0,s,NA,s,s,NA,s,354,NA,5171,8694,NA,354,2,legacy,1024,2,48000,-16,experiment,0,even,NA,216956,244902,246467,11499,153724,2800,236312,NA,246009,148552,2804,NA,246111,246008,246111,Flanker Test,130,65401,135,yes,1024
HHHHH,96.32352941,96.32352941,483.9632353,483.9632353,black,legacy,legacy,legacy,0,congruent,uniform,1,undefined,1,h,0,135,135,135,0,0,0,135,0,135,0,0,0,135,135,135,Sun Sep 13 09:33:13 2020,600,The main experiment item,yes,FlankerTask.osexp,C:/Users/Owner/Documents,no,mono,no,18,no,white,no,yes,768,legacy,55,79,C:/Users/Owner/Documents/KJPsubject-0.csv,legacy,Lentiform Loewenfeld,3.3.3,0,h,NA,s,s,NA,h,418,NA,5171,8694,NA,418,2,legacy,1024,2,48000,-16,experiment,0,even,NA,246470,246974,248597,11499,153724,2800,236312,NA,248075,148552,2804,NA,248177,248073,248177,Flanker Test,131,65819,136,yes,1024
SSSSS,96.35036496,96.35036496,483.6350365,483.6350365,black,legacy,legacy,legacy,0,congruent,uniform,1,undefined,1,s,0,136,136,136,0,0,0,136,0,136,0,0,0,136,136,136,Sun Sep 13 09:33:13 2020,600,The main experiment item,yes,FlankerTask.osexp,C:/Users/Owner/Documents,no,mono,no,18,no,white,no,yes,768,legacy,56,79,C:/Users/Owner/Documents/KJPsubject-0.csv,legacy,Lentiform Loewenfeld,3.3.3,0,s,NA,s,s,NA,s,439,NA,5171,8694,NA,439,2,legacy,1024,2,48000,-16,experiment,0,even,NA,246470,248599,250208,11499,153724,2800,236312,NA,249664,148552,2804,NA,249768,249663,249768,Flanker Test,132,66258,137,yes,1024
SSSSS,96.37681159,96.37681159,484.7173913,484.7173913,black,legacy,legacy,legacy,0,congruent,uniform,1,undefined,1,s,0,137,137,137,0,0,0,137,0,137,0,0,0,137,137,137,Sun Sep 13 09:33:13 2020,600,The main experiment item,yes,FlankerTask.osexp,C:/Users/Owner/Documents,no,mono,no,18,no,white,no,yes,768,legacy,57,79,C:/Users/Owner/Documents/KJPsubject-0.csv,legacy,Lentiform Loewenfeld,3.3.3,0,s,NA,s,s,NA,s,633,NA,5171,8694,NA,633,2,legacy,1024,2,48000,-16,experiment,0,even,NA,246470,250210,252028,11499,153724,2800,236312,NA,251290,148552,2804,NA,251394,251288,251394,Flanker Test,133,66891,138,yes,1024
HHHHH,96.4028777,96.4028777,483.8920863,483.8920863,black,legacy,legacy,legacy,0,congruent,uniform,1,undefined,1,h,0,138,138,138,0,0,0,138,0,138,0,0,0,138,138,138,Sun Sep 13 09:33:13 2020,600,The main experiment item,yes,FlankerTask.osexp,C:/Users/Owner/Documents,no,mono,no,18,no,white,no,yes,768,legacy,58,79,C:/Users/Owner/Documents/KJPsubject-0.csv,legacy,Lentiform Loewenfeld,3.3.3,0,h,NA,s,s,NA,h,370,NA,5171,8694,NA,370,2,legacy,1024,2,48000,-16,experiment,0,even,NA,246470,252536,254115,11499,153724,2800,252032,NA,253641,148552,2804,NA,253744,253640,253744,Flanker Test,134,67261,139,yes,1024
HHSHH,96.42857143,96.42857143,483.2071429,483.2071429,black,legacy,legacy,legacy,0,incongruent,uniform,1,undefined,1,s,0,139,139,139,0,0,0,139,0,139,0,0,0,139,139,139,Sun Sep 13 09:33:13 2020,600,The main experiment item,yes,FlankerTask.osexp,C:/Users/Owner/Documents,no,mono,no,18,no,white,no,yes,768,legacy,59,79,C:/Users/Owner/Documents/KJPsubject-0.csv,legacy,Lentiform Loewenfeld,3.3.3,0,s,NA,s,s,NA,s,388,NA,5171,8694,NA,388,2,legacy,1024,2,48000,-16,experiment,0,even,NA,246470,254119,255713,11499,153724,2800,252032,NA,255222,148552,2804,NA,255323,255221,255323,Flanker Test,135,67649,140,yes,1024
HHHHH,96.45390071,96.45390071,482.3333333,482.3333333,black,legacy,legacy,legacy,0,congruent,uniform,1,undefined,1,h,0,140,140,140,0,0,0,140,0,140,0,0,0,140,140,140,Sun Sep 13 09:33:13 2020,600,The main experiment item,yes,FlankerTask.osexp,C:/Users/Owner/Documents,no,mono,no,18,no,white,no,yes,768,legacy,60,79,C:/Users/Owner/Documents/KJPsubject-0.csv,legacy,Lentiform Loewenfeld,3.3.3,0,h,NA,s,s,NA,h,360,NA,5171,8694,NA,360,2,legacy,1024,2,48000,-16,experiment,0,even,NA,246470,255717,257282,11499,153724,2800,252032,NA,256819,148552,2804,NA,256920,256818,256920,Flanker Test,136,68009,141,yes,1024
SSHSS,95.77464789,95.77464789,481.4295775,481.4295775,black,legacy,legacy,legacy,0,incongruent,uniform,0,undefined,0,h,0,141,141,141,0,0,0,141,0,141,0,0,0,141,141,141,Sun Sep 13 09:33:13 2020,600,The main experiment item,yes,FlankerTask.osexp,C:/Users/Owner/Documents,no,mono,no,18,no,white,no,yes,768,legacy,61,79,C:/Users/Owner/Documents/KJPsubject-0.csv,legacy,Lentiform Loewenfeld,3.3.3,0,s,NA,s,s,NA,s,354,NA,5171,8694,NA,354,2,legacy,1024,2,48000,-16,experiment,0,even,NA,246470,257285,258850,11499,153724,2800,252032,NA,258393,148552,2804,NA,258494,258391,258494,Flanker Test,136,68363,142,yes,1024
SSHSS,95.8041958,95.8041958,480.8391608,480.8391608,black,legacy,legacy,legacy,0,incongruent,uniform,1,undefined,1,h,0,142,142,142,0,0,0,142,0,142,0,0,0,142,142,142,Sun Sep 13 09:33:13 2020,600,The main experiment item,yes,FlankerTask.osexp,C:/Users/Owner/Documents,no,mono,no,18,no,white,no,yes,768,legacy,62,79,C:/Users/Owner/Documents/KJPsubject-0.csv,legacy,Lentiform Loewenfeld,3.3.3,0,h,NA,s,s,NA,h,397,NA,5171,8694,NA,397,2,legacy,1024,2,48000,-16,experiment,0,even,NA,258853,259354,260953,11499,153724,2800,252032,NA,260450,148552,2804,NA,260554,260448,260554,Flanker Test,137,68760,143,yes,1024
HHSHH,95.83333333,95.83333333,480.7083333,480.7083333,black,legacy,legacy,legacy,0,incongruent,uniform,1,undefined,1,s,0,143,143,143,0,0,0,143,0,143,0,0,0,143,143,143,Sun Sep 13 09:33:13 2020,600,The main experiment item,yes,FlankerTask.osexp,C:/Users/Owner/Documents,no,mono,no,18,no,white,no,yes,768,legacy,63,79,C:/Users/Owner/Documents/KJPsubject-0.csv,legacy,Lentiform Loewenfeld,3.3.3,0,s,NA,s,s,NA,s,462,NA,5171,8694,NA,462,2,legacy,1024,2,48000,-16,experiment,0,even,NA,258853,260957,262634,11499,153724,2800,252032,NA,262066,148552,2804,NA,262170,262065,262169,Flanker Test,138,69222,144,yes,1024
HHSHH,95.17241379,95.17241379,480.0137931,480.0137931,black,legacy,legacy,legacy,0,incongruent,uniform,0,undefined,0,s,0,144,144,144,0,0,0,144,0,144,0,0,0,144,144,144,Sun Sep 13 09:33:13 2020,600,The main experiment item,yes,FlankerTask.osexp,C:/Users/Owner/Documents,no,mono,no,18,no,white,no,yes,768,legacy,64,79,C:/Users/Owner/Documents/KJPsubject-0.csv,legacy,Lentiform Loewenfeld,3.3.3,0,h,NA,s,s,NA,h,380,NA,5171,8694,NA,380,2,legacy,1024,2,48000,-16,experiment,0,even,NA,258853,262637,264228,11499,153724,2800,252032,NA,263742,148552,2804,NA,263846,263740,263846,Flanker Test,138,69602,145,yes,1024
HHHHH,95.20547945,95.20547945,479.4589041,479.4589041,black,legacy,legacy,legacy,0,congruent,uniform,1,undefined,1,h,0,145,145,145,0,0,0,145,0,145,0,0,0,145,145,145,Sun Sep 13 09:33:13 2020,600,The main experiment item,yes,FlankerTask.osexp,C:/Users/Owner/Documents,no,mono,no,18,no,white,no,yes,768,legacy,65,79,C:/Users/Owner/Documents/KJPsubject-0.csv,legacy,Lentiform Loewenfeld,3.3.3,0,h,NA,s,s,NA,h,399,NA,5171,8694,NA,399,2,legacy,1024,2,48000,-16,experiment,0,even,NA,264231,264735,266345,11499,153724,2800,252032,NA,265844,148552,2804,NA,265945,265842,265945,Flanker Test,139,70001,146,yes,1024
SSHSS,94.55782313,94.55782313,478.7346939,478.7346939,black,legacy,legacy,legacy,0,incongruent,uniform,0,undefined,0,h,0,146,146,146,0,0,0,146,0,146,0,0,0,146,146,146,Sun Sep 13 09:33:13 2020,600,The main experiment item,yes,FlankerTask.osexp,C:/Users/Owner/Documents,no,mono,no,18,no,white,no,yes,768,legacy,66,79,C:/Users/Owner/Documents/KJPsubject-0.csv,legacy,Lentiform Loewenfeld,3.3.3,0,s,NA,s,s,NA,s,373,NA,5171,8694,NA,373,2,legacy,1024,2,48000,-16,experiment,0,even,NA,264231,266350,267894,11499,153724,2800,252032,NA,267416,148552,2804,NA,267520,267414,267520,Flanker Test,139,70374,147,yes,1024
HHHHH,94.59459459,94.59459459,478.1689189,478.1689189,black,legacy,legacy,legacy,0,congruent,uniform,1,undefined,1,h,0,147,147,147,0,0,0,147,0,147,0,0,0,147,147,147,Sun Sep 13 09:33:13 2020,600,The main experiment item,yes,FlankerTask.osexp,C:/Users/Owner/Documents,no,mono,no,18,no,white,no,yes,768,legacy,67,79,C:/Users/Owner/Documents/KJPsubject-0.csv,legacy,Lentiform Loewenfeld,3.3.3,0,h,NA,s,s,NA,h,395,NA,5171,8694,NA,395,2,legacy,1024,2,48000,-16,experiment,0,even,NA,267896,268399,269966,11499,153724,2800,252032,NA,269466,148552,2804,NA,269569,269465,269568,Flanker Test,140,70769,148,yes,1024
SSHSS,93.95973154,93.95973154,477.1744966,477.1744966,black,legacy,legacy,legacy,0,incongruent,uniform,0,undefined,0,h,0,148,148,148,0,0,0,148,0,148,0,0,0,148,148,148,Sun Sep 13 09:33:13 2020,600,The main experiment item,yes,FlankerTask.osexp,C:/Users/Owner/Documents,no,mono,no,18,no,white,no,yes,768,legacy,68,79,C:/Users/Owner/Documents/KJPsubject-0.csv,legacy,Lentiform Loewenfeld,3.3.3,0,s,NA,s,s,NA,s,330,NA,5171,8694,NA,330,2,legacy,1024,2,48000,-16,experiment,0,even,NA,267896,269969,271513,11499,153724,2800,252032,NA,271077,148552,2804,NA,271181,271076,271181,Flanker Test,140,71099,149,yes,1024
HHSHH,93.33333333,93.33333333,477.12,477.12,black,legacy,legacy,legacy,0,incongruent,uniform,0,undefined,0,s,0,149,149,149,0,0,0,149,0,149,0,0,0,149,149,149,Sun Sep 13 09:33:13 2020,600,The main experiment item,yes,FlankerTask.osexp,C:/Users/Owner/Documents,no,mono,no,18,no,white,no,yes,768,legacy,69,79,C:/Users/Owner/Documents/KJPsubject-0.csv,legacy,Lentiform Loewenfeld,3.3.3,0,h,NA,s,s,NA,h,469,NA,5171,8694,NA,469,2,legacy,1024,2,48000,-16,experiment,0,even,NA,271516,272020,273696,11499,153724,2800,252032,NA,273124,148552,2804,NA,273225,273122,273225,Flanker Test,140,71568,150,yes,1024
SSSSS,93.37748344,93.37748344,476.8807947,476.8807947,black,legacy,legacy,legacy,0,congruent,uniform,1,undefined,1,s,0,150,150,150,0,0,0,150,0,150,0,0,0,150,150,150,Sun Sep 13 09:33:13 2020,600,The main experiment item,yes,FlankerTask.osexp,C:/Users/Owner/Documents,no,mono,no,18,no,white,no,yes,768,legacy,70,79,C:/Users/Owner/Documents/KJPsubject-0.csv,legacy,Lentiform Loewenfeld,3.3.3,0,s,NA,s,s,NA,s,441,NA,5171,8694,NA,441,2,legacy,1024,2,48000,-16,experiment,0,even,NA,273699,274204,275829,11499,153724,2800,252032,NA,275286,148552,2804,NA,275387,275284,275387,Flanker Test,141,72009,151,yes,1024
SSSSS,93.42105263,93.42105263,476.8881579,476.8881579,black,legacy,legacy,legacy,0,congruent,uniform,1,undefined,1,s,0,151,151,151,0,0,0,151,0,151,0,0,0,151,151,151,Sun Sep 13 09:33:13 2020,600,The main experiment item,yes,FlankerTask.osexp,C:/Users/Owner/Documents,no,mono,no,18,no,white,no,yes,768,legacy,71,79,C:/Users/Owner/Documents/KJPsubject-0.csv,legacy,Lentiform Loewenfeld,3.3.3,0,s,NA,s,s,NA,s,478,NA,5171,8694,NA,478,2,legacy,1024,2,48000,-16,experiment,0,even,NA,273699,275833,277470,11499,153724,2800,252032,NA,276889,148552,2804,NA,276990,276887,276990,Flanker Test,142,72487,152,yes,1024
HHSHH,93.46405229,93.46405229,480.4183007,480.4183007,black,legacy,legacy,legacy,0,incongruent,uniform,1,undefined,1,s,0,152,152,152,0,0,0,152,0,152,0,0,0,152,152,152,Sun Sep 13 09:33:13 2020,600,The main experiment item,yes,FlankerTask.osexp,C:/Users/Owner/Documents,no,mono,no,18,no,white,no,yes,768,legacy,72,79,C:/Users/Owner/Documents/KJPsubject-0.csv,legacy,Lentiform Loewenfeld,3.3.3,0,s,NA,s,s,NA,s,1017,NA,5171,8694,NA,1017,2,legacy,1024,2,48000,-16,experiment,0,even,NA,273699,277474,279693,11499,153724,2800,252032,NA,278574,148552,2804,NA,278675,278572,278675,Flanker Test,143,73504,153,yes,1024
HHSHH,93.50649351,93.50649351,480.2272727,480.2272727,black,legacy,legacy,legacy,0,incongruent,uniform,1,undefined,1,s,0,153,153,153,0,0,0,153,0,153,0,0,0,153,153,153,Sun Sep 13 09:33:13 2020,600,The main experiment item,yes,FlankerTask.osexp,C:/Users/Owner/Documents,no,mono,no,18,no,white,no,yes,768,legacy,73,79,C:/Users/Owner/Documents/KJPsubject-0.csv,legacy,Lentiform Loewenfeld,3.3.3,0,s,NA,s,s,NA,s,451,NA,5171,8694,NA,451,2,legacy,1024,2,48000,-16,experiment,0,even,NA,273699,280201,281816,11499,153724,2800,279697,NA,281261,148552,2804,NA,281363,281260,281363,Flanker Test,144,73955,154,yes,1024
SSSSS,93.5483871,93.5483871,479.6580645,479.6580645,black,legacy,legacy,legacy,0,congruent,uniform,1,undefined,1,s,0,154,154,154,0,0,0,154,0,154,0,0,0,154,154,154,Sun Sep 13 09:33:13 2020,600,The main experiment item,yes,FlankerTask.osexp,C:/Users/Owner/Documents,no,mono,no,18,no,white,no,yes,768,legacy,74,79,C:/Users/Owner/Documents/KJPsubject-0.csv,legacy,Lentiform Loewenfeld,3.3.3,0,s,NA,s,s,NA,s,392,NA,5171,8694,NA,392,2,legacy,1024,2,48000,-16,experiment,0,even,NA,273699,281820,283419,11499,153724,2800,279697,NA,282923,148552,2804,NA,283025,282922,283025,Flanker Test,145,74347,155,yes,1024
HHSHH,93.58974359,93.58974359,479.25,479.25,black,legacy,legacy,legacy,0,incongruent,uniform,1,undefined,1,s,0,155,155,155,0,0,0,155,0,155,0,0,0,155,155,155,Sun Sep 13 09:33:13 2020,600,The main experiment item,yes,FlankerTask.osexp,C:/Users/Owner/Documents,no,mono,no,18,no,white,no,yes,768,legacy,75,79,C:/Users/Owner/Documents/KJPsubject-0.csv,legacy,Lentiform Loewenfeld,3.3.3,0,s,NA,s,s,NA,s,416,NA,5171,8694,NA,416,2,legacy,1024,2,48000,-16,experiment,0,even,NA,273699,283425,285007,11499,153724,2800,279697,NA,284486,148552,2804,NA,284589,284485,284589,Flanker Test,146,74763,156,yes,1024
SSHSS,92.99363057,92.99363057,478.6878981,478.6878981,black,legacy,legacy,legacy,0,incongruent,uniform,0,undefined,0,h,0,156,156,156,0,0,0,156,0,156,0,0,0,156,156,156,Sun Sep 13 09:33:13 2020,600,The main experiment item,yes,FlankerTask.osexp,C:/Users/Owner/Documents,no,mono,no,18,no,white,no,yes,768,legacy,76,79,C:/Users/Owner/Documents/KJPsubject-0.csv,legacy,Lentiform Loewenfeld,3.3.3,0,s,NA,s,s,NA,s,391,NA,5171,8694,NA,391,2,legacy,1024,2,48000,-16,experiment,0,even,NA,273699,285011,286612,11499,153724,2800,279697,NA,286118,148552,2804,NA,286220,286117,286220,Flanker Test,146,75154,157,yes,1024
HHSHH,93.03797468,93.03797468,479.1012658,479.1012658,black,legacy,legacy,legacy,0,incongruent,uniform,1,undefined,1,s,0,157,157,157,0,0,0,157,0,157,0,0,0,157,157,157,Sun Sep 13 09:33:13 2020,600,The main experiment item,yes,FlankerTask.osexp,C:/Users/Owner/Documents,no,mono,no,18,no,white,no,yes,768,legacy,77,79,C:/Users/Owner/Documents/KJPsubject-0.csv,legacy,Lentiform Loewenfeld,3.3.3,0,s,NA,s,s,NA,s,544,NA,5171,8694,NA,544,2,legacy,1024,2,48000,-16,experiment,0,even,NA,286616,287121,288826,11499,153724,2800,279697,NA,288180,148552,2804,NA,288281,288178,288281,Flanker Test,147,75698,158,yes,1024
HHSHH,93.08176101,93.08176101,478.7421384,478.7421384,black,legacy,legacy,legacy,0,incongruent,uniform,1,undefined,1,s,0,158,158,158,0,0,0,158,0,158,0,0,0,158,158,158,Sun Sep 13 09:33:13 2020,600,The main experiment item,yes,FlankerTask.osexp,C:/Users/Owner/Documents,no,mono,no,18,no,white,no,yes,768,legacy,78,79,C:/Users/Owner/Documents/KJPsubject-0.csv,legacy,Lentiform Loewenfeld,3.3.3,0,s,NA,s,s,NA,s,422,NA,5171,8694,NA,422,2,legacy,1024,2,48000,-16,experiment,0,even,NA,286616,288830,290410,11499,153724,2800,279697,NA,289885,148552,2804,NA,289986,289884,289986,Flanker Test,148,76120,159,yes,1024
SSHSS,92.5,92.5,478.1625,478.1625,black,legacy,legacy,legacy,0,incongruent,uniform,0,undefined,0,h,0,159,159,159,0,0,0,159,0,159,0,0,0,159,159,159,Sun Sep 13 09:33:13 2020,600,The main experiment item,yes,FlankerTask.osexp,C:/Users/Owner/Documents,no,mono,no,18,no,white,no,yes,768,legacy,79,79,C:/Users/Owner/Documents/KJPsubject-0.csv,legacy,Lentiform Loewenfeld,3.3.3,0,s,NA,s,s,NA,s,386,NA,5171,8694,NA,386,2,legacy,1024,2,48000,-16,experiment,0,even,NA,286616,290412,291969,11499,153724,2800,279697,NA,291479,148552,2804,NA,291582,291478,291582,Flanker Test,148,76506,160,yes,1024
HHHHH,92.54658385,92.54658385,478.0931677,478.0931677,black,legacy,legacy,legacy,0,congruent,uniform,1,undefined,1,h,0,160,160,160,0,0,0,160,0,160,0,0,0,160,160,160,Sun Sep 13 09:33:13 2020,300,The main experiment item,yes,FlankerTask.osexp,C:/Users/Owner/Documents,no,mono,no,18,no,white,no,yes,768,legacy,0,79,C:/Users/Owner/Documents/KJPsubject-0.csv,legacy,Lentiform Loewenfeld,3.3.3,0,h,NA,s,s,s,h,467,NA,5171,8694,4544,467,2,legacy,1024,2,48000,-16,experiment,0,even,298063,291973,292477,298679,11499,153724,2800,279697,NA,298107,148552,2804,293518,298211,298106,298210,Flanker Test,149,76973,161,yes,1024
HHHHH,92.59259259,92.59259259,477.6604938,477.6604938,black,legacy,legacy,legacy,0,congruent,uniform,1,undefined,1,h,0,161,161,161,0,0,0,161,0,161,0,0,0,161,161,161,Sun Sep 13 09:33:13 2020,300,The main experiment item,yes,FlankerTask.osexp,C:/Users/Owner/Documents,no,mono,no,18,no,white,no,yes,768,legacy,1,79,C:/Users/Owner/Documents/KJPsubject-0.csv,legacy,Lentiform Loewenfeld,3.3.3,0,h,NA,s,s,s,h,408,NA,5171,8694,4544,408,2,legacy,1024,2,48000,-16,experiment,0,even,298063,291973,299186,300800,11499,153724,2800,298682,NA,300289,148552,2804,293518,300390,300287,300390,Flanker Test,150,77381,162,yes,1024
HHHHH,92.63803681,92.63803681,477.5337423,477.5337423,black,legacy,legacy,legacy,0,congruent,uniform,1,undefined,1,h,0,162,162,162,0,0,0,162,0,162,0,0,0,162,162,162,Sun Sep 13 09:33:13 2020,300,The main experiment item,yes,FlankerTask.osexp,C:/Users/Owner/Documents,no,mono,no,18,no,white,no,yes,768,legacy,2,79,C:/Users/Owner/Documents/KJPsubject-0.csv,legacy,Lentiform Loewenfeld,3.3.3,0,h,NA,s,s,s,h,457,NA,5171,8694,4544,457,2,legacy,1024,2,48000,-16,experiment,0,even,298063,291973,301304,302963,11499,153724,2800,300803,NA,302403,148552,2804,293518,302505,302401,302504,Flanker Test,151,77838,163,yes,1024
SSSSS,92.68292683,92.68292683,477.195122,477.195122,black,legacy,legacy,legacy,0,congruent,uniform,1,undefined,1,s,0,163,163,163,0,0,0,163,0,163,0,0,0,163,163,163,Sun Sep 13 09:33:13 2020,300,The main experiment item,yes,FlankerTask.osexp,C:/Users/Owner/Documents,no,mono,no,18,no,white,no,yes,768,legacy,3,79,C:/Users/Owner/Documents/KJPsubject-0.csv,legacy,Lentiform Loewenfeld,3.3.3,0,s,NA,s,s,s,s,422,NA,5171,8694,4544,422,2,legacy,1024,2,48000,-16,experiment,0,even,298063,291973,303471,305097,11499,153724,2800,302966,NA,304571,148552,2804,293518,304673,304569,304673,Flanker Test,152,78260,164,yes,1024
HHHHH,92.72727273,92.72727273,476.969697,476.969697,black,legacy,legacy,legacy,0,congruent,uniform,1,undefined,1,h,0,164,164,164,0,0,0,164,0,164,0,0,0,164,164,164,Sun Sep 13 09:33:13 2020,300,The main experiment item,yes,FlankerTask.osexp,C:/Users/Owner/Documents,no,mono,no,18,no,white,no,yes,768,legacy,4,79,C:/Users/Owner/Documents/KJPsubject-0.csv,legacy,Lentiform Loewenfeld,3.3.3,0,h,NA,s,s,s,h,440,NA,5171,8694,4544,440,2,legacy,1024,2,48000,-16,experiment,0,even,298063,291973,305605,307255,11499,153724,2800,305101,NA,306711,148552,2804,293518,306814,306709,306814,Flanker Test,153,78700,165,yes,1024
HHHHH,92.1686747,92.1686747,475.3012048,475.3012048,black,legacy,legacy,legacy,0,congruent,uniform,0,undefined,0,h,0,165,165,165,0,0,0,165,0,165,0,0,0,165,165,165,Sun Sep 13 09:33:13 2020,300,The main experiment item,yes,FlankerTask.osexp,C:/Users/Owner/Documents,no,mono,no,18,no,white,no,yes,768,legacy,5,79,C:/Users/Owner/Documents/KJPsubject-0.csv,legacy,Lentiform Loewenfeld,3.3.3,0,s,NA,s,s,s,s,200,NA,5171,8694,4544,200,2,legacy,1024,2,48000,-16,experiment,0,even,298063,291973,307763,309156,11499,153724,2800,307259,NA,308853,148552,2804,293518,308954,308852,308954,Flanker Test,153,78900,166,yes,1024
SSSSS,91.61676647,91.61676647,474.1077844,474.1077844,black,legacy,legacy,legacy,0,congruent,uniform,0,undefined,0,s,0,166,166,166,0,0,0,166,0,166,0,0,0,166,166,166,Sun Sep 13 09:33:13 2020,300,The main experiment item,yes,FlankerTask.osexp,C:/Users/Owner/Documents,no,mono,no,18,no,white,no,yes,768,legacy,6,79,C:/Users/Owner/Documents/KJPsubject-0.csv,legacy,Lentiform Loewenfeld,3.3.3,0,h,NA,s,s,s,h,276,NA,5171,8694,4544,276,2,legacy,1024,2,48000,-16,experiment,0,even,298063,309159,309663,311144,11499,153724,2800,307259,NA,310764,148552,2804,293518,310866,310762,310866,Flanker Test,153,79176,167,yes,1024
SSHSS,91.07142857,91.07142857,472.7202381,472.7202381,black,legacy,legacy,legacy,0,incongruent,uniform,0,undefined,0,h,0,167,167,167,0,0,0,167,0,167,0,0,0,167,167,167,Sun Sep 13 09:33:13 2020,300,The main experiment item,yes,FlankerTask.osexp,C:/Users/Owner/Documents,no,mono,no,18,no,white,no,yes,768,legacy,7,79,C:/Users/Owner/Documents/KJPsubject-0.csv,legacy,Lentiform Loewenfeld,3.3.3,0,s,NA,s,s,s,s,241,NA,5171,8694,4544,241,2,legacy,1024,2,48000,-16,experiment,0,even,298063,311148,311652,313101,11499,153724,2800,307259,NA,312756,148552,2804,293518,312859,312755,312859,Flanker Test,153,79417,168,yes,1024
SSHSS,90.53254438,90.53254438,471.5325444,471.5325444,black,legacy,legacy,legacy,0,incongruent,uniform,0,undefined,0,h,0,168,168,168,0,0,0,168,0,168,0,0,0,168,168,168,Sun Sep 13 09:33:13 2020,300,The main experiment item,yes,FlankerTask.osexp,C:/Users/Owner/Documents,no,mono,no,18,no,white,no,yes,768,legacy,8,79,C:/Users/Owner/Documents/KJPsubject-0.csv,legacy,Lentiform Loewenfeld,3.3.3,0,s,NA,s,s,s,s,272,NA,5171,8694,4544,272,2,legacy,1024,2,48000,-16,experiment,0,even,298063,313105,313609,315085,11499,153724,2800,307259,NA,314709,148552,2804,293518,314811,314708,314811,Flanker Test,153,79689,169,yes,1024
