"acc","accuracy","average_response_time","avg_rt","background","canvas_backend","clock_backend","color_backend","compensation","condition","coordinates","correct","correct_instructions1","correct_keyboard_response","correct_response","count_Block1","count_Block2","count_Block3","count_Finish","count_ISI","count_Instructions2","count_errorFeedback","count_experiment","count_faster","count_fixation","count_instructions1","count_instructions3","count_keyboard_response","count_logger","count_sequence","count_stimulus","datetime","deadline","description","disable_garbage_collection","experiment_file","experiment_path","font_bold","font_family","font_italic","font_size","font_underline","foreground","form_clicks","fullscreen","height","keyboard_backend","live_row","live_row_Block1","logfile","mouse_backend","opensesame_codename","opensesame_version","repeat_cycle","response","response_Finish","response_Instructions2","response_errorFeedback","response_faster","response_instructions1","response_instructions3","response_keyboard_response","response_time","response_time_Finish","response_time_Instructions2","response_time_errorFeedback","response_time_faster","response_time_instructions1","response_time_instructions3","response_time_keyboard_response","round_decimals","sampler_backend","sound_buf_size","sound_channels","sound_freq","sound_sample_size","start","stimulus","subject_nr","subject_parity","time_Block1","time_Block2","time_Block3","time_Finish","time_ISI","time_Instructions2","time_errorFeedback","time_experiment","time_faster","time_fixation","time_instructions1","time_instructions3","time_keyboard_response","time_logger","time_sequence","time_stimulus","title","total_correct","total_response_time","total_responses","uniform_coordinates","width"
"100","100","1461","1461","black","legacy","legacy","legacy","0","incogruent","uniform","1","undefined","1","s","0","0","0","0","0","0","0","0","0","0","0","0","0","0","0","0","Sun Sep 20 18:42:08 2020","1500","The main experiment item","yes","FlankerTask.osexp","/Users/shelia/Desktop","no","mono","no","18","no","white","no","no","768","legacy","0","0","/Users/shelia/Desktop/ST-subject-1.csv","legacy","Lentiform Loewenfeld","3.3.3","0","s","NA","NA","NA","NA","h","NA","s","1461","NA","NA","NA","NA","13411","NA","1461","2","legacy","1024","2","48000","-16","experiment","HHSHH","0","even","15398","NA","NA","NA","NA","NA","NA","1819","NA","15586","1976","NA","15821","17283","15449","15821","Flanker Task","1","1461","1","yes","1024"
"100","100","1157","1157","black","legacy","legacy","legacy","0","incongruent","uniform","1","undefined","1","h","0","0","0","0","1","0","1","0","1","1","0","0","1","1","1","1","Sun Sep 20 18:42:08 2020","1500","The main experiment item","yes","FlankerTask.osexp","/Users/shelia/Desktop","no","mono","no","18","no","white","no","no","768","legacy","1","1","/Users/shelia/Desktop/ST-subject-1.csv","legacy","Lentiform Loewenfeld","3.3.3","0","h","NA","NA","NA","NA","h","NA","h","853","NA","NA","NA","NA","13411","NA","853","2","legacy","1024","2","48000","-16","experiment","SSHSS","0","even","15398","NA","NA","NA","17422","NA","NA","1819","NA","18625","1976","NA","18872","19726","18489","18872","Flanker Task","2","2314","2","yes","1024"
"100","100","1118.3333333333333","1118.3333333333333","black","legacy","legacy","legacy","0","incogruent","uniform","1","undefined","1","s","0","0","0","0","2","0","2","0","2","2","0","0","2","2","2","2","Sun Sep 20 18:42:08 2020","1500","The main experiment item","yes","FlankerTask.osexp","/Users/shelia/Desktop","no","mono","no","18","no","white","no","no","768","legacy","2","2","/Users/shelia/Desktop/ST-subject-1.csv","legacy","Lentiform Loewenfeld","3.3.3","0","s","NA","NA","NA","NA","h","NA","s","1041","NA","NA","NA","NA","13411","NA","1041","2","legacy","1024","2","48000","-16","experiment","HHSHH","0","even","15398","NA","NA","NA","19864","NA","NA","1819","NA","21055","1976","NA","21303","22345","20920","21303","Flanker Task","3","3355","3","yes","1024"
"100","100","1001.75","1001.75","black","legacy","legacy","legacy","0","incogruent","uniform","1","undefined","1","s","0","0","0","0","3","0","3","0","3","3","0","0","3","3","3","3","Sun Sep 20 18:42:08 2020","1500","The main experiment item","yes","FlankerTask.osexp","/Users/shelia/Desktop","no","mono","no","18","no","white","no","no","768","legacy","3","3","/Users/shelia/Desktop/ST-subject-1.csv","legacy","Lentiform Loewenfeld","3.3.3","0","s","NA","NA","NA","NA","h","NA","s","652","NA","NA","NA","NA","13411","NA","652","2","legacy","1024","2","48000","-16","experiment","HHSHH","0","even","15398","NA","NA","NA","22485","NA","NA","1819","NA","23673","1976","NA","23920","24573","23538","23920","Flanker Task","4","4007","4","yes","1024"
"100","100","970.8","970.8","black","legacy","legacy","legacy","0","incongruent","uniform","1","undefined","1","h","0","0","0","0","4","0","4","0","4","4","0","0","4","4","4","4","Sun Sep 20 18:42:08 2020","1500","The main experiment item","yes","FlankerTask.osexp","/Users/shelia/Desktop","no","mono","no","18","no","white","no","no","768","legacy","4","4","/Users/shelia/Desktop/ST-subject-1.csv","legacy","Lentiform Loewenfeld","3.3.3","0","h","NA","NA","NA","NA","h","NA","h","847","NA","NA","NA","NA","13411","NA","847","2","legacy","1024","2","48000","-16","experiment","SSHSS","0","even","15398","NA","NA","NA","24709","NA","NA","1819","NA","25901","1976","NA","26147","26995","25766","26147","Flanker Task","5","4854","5","yes","1024"
"100","100","961.6666666666666","961.6666666666666","black","legacy","legacy","legacy","0","incongruent","uniform","1","undefined","1","h","0","0","0","0","5","0","5","0","5","5","0","0","5","5","5","5","Sun Sep 20 18:42:08 2020","1500","The main experiment item","yes","FlankerTask.osexp","/Users/shelia/Desktop","no","mono","no","18","no","white","no","no","768","legacy","5","5","/Users/shelia/Desktop/ST-subject-1.csv","legacy","Lentiform Loewenfeld","3.3.3","0","h","NA","NA","NA","NA","h","NA","h","916","NA","NA","NA","NA","13411","NA","916","2","legacy","1024","2","48000","-16","experiment","SSHSS","0","even","15398","NA","NA","NA","27131","NA","NA","1819","NA","28323","1976","NA","28572","29489","28188","28572","Flanker Task","6","5770","6","yes","1024"
"100","100","938","938","black","legacy","legacy","legacy","0","incongruent","uniform","1","undefined","1","h","0","0","0","0","6","0","6","0","6","6","0","0","6","6","6","6","Sun Sep 20 18:42:08 2020","1500","The main experiment item","yes","FlankerTask.osexp","/Users/shelia/Desktop","no","mono","no","18","no","white","no","no","768","legacy","6","6","/Users/shelia/Desktop/ST-subject-1.csv","legacy","Lentiform Loewenfeld","3.3.3","0","h","NA","NA","NA","NA","h","NA","h","796","NA","NA","NA","NA","13411","NA","796","2","legacy","1024","2","48000","-16","experiment","SSHSS","0","even","15398","NA","NA","NA","29627","NA","NA","1819","NA","30816","1976","NA","31062","31859","30681","31062","Flanker Task","7","6566","7","yes","1024"
"100","100","907.875","907.875","black","legacy","legacy","legacy","0","congruent","uniform","1","undefined","1","s","0","0","0","0","7","0","7","0","7","7","0","0","7","7","7","7","Sun Sep 20 18:42:08 2020","1500","The main experiment item","yes","FlankerTask.osexp","/Users/shelia/Desktop","no","mono","no","18","no","white","no","no","768","legacy","7","7","/Users/shelia/Desktop/ST-subject-1.csv","legacy","Lentiform Loewenfeld","3.3.3","0","s","NA","NA","NA","NA","h","NA","s","697","NA","NA","NA","NA","13411","NA","697","2","legacy","1024","2","48000","-16","experiment","SSSSS","0","even","15398","NA","NA","NA","31998","NA","NA","1819","NA","33186","1976","NA","33432","34130","33048","33432","Flanker Task","8","7263","8","yes","1024"
"100","100","887.7777777777778","887.7777777777778","black","legacy","legacy","legacy","0","incongruent","uniform","1","undefined","1","h","0","0","0","0","8","0","8","0","8","8","0","0","8","8","8","8","Sun Sep 20 18:42:08 2020","1500","The main experiment item","yes","FlankerTask.osexp","/Users/shelia/Desktop","no","mono","no","18","no","white","no","no","768","legacy","8","8","/Users/shelia/Desktop/ST-subject-1.csv","legacy","Lentiform Loewenfeld","3.3.3","0","h","NA","NA","NA","NA","h","NA","h","727","NA","NA","NA","NA","13411","NA","727","2","legacy","1024","2","48000","-16","experiment","SSHSS","0","even","15398","NA","NA","NA","34269","NA","NA","1819","NA","35458","1976","NA","35704","36432","35324","35704","Flanker Task","9","7990","9","yes","1024"
"100","100","891","891","black","legacy","legacy","legacy","0","incongruent","uniform","1","undefined","1","h","0","0","0","0","9","0","9","0","9","9","0","0","9","9","9","9","Sun Sep 20 18:42:08 2020","1500","The main experiment item","yes","FlankerTask.osexp","/Users/shelia/Desktop","no","mono","no","18","no","white","no","no","768","legacy","9","9","/Users/shelia/Desktop/ST-subject-1.csv","legacy","Lentiform Loewenfeld","3.3.3","0","h","NA","NA","NA","NA","h","NA","h","920","NA","NA","NA","NA","13411","NA","920","2","legacy","1024","2","48000","-16","experiment","SSHSS","0","even","15398","NA","NA","NA","36569","NA","NA","1819","NA","37760","1976","NA","38006","38927","37625","38005","Flanker Task","10","8910","10","yes","1024"
"100","100","895.3636363636364","895.3636363636364","black","legacy","legacy","legacy","0","incogruent","uniform","1","undefined","1","s","0","0","0","0","10","0","10","0","10","10","0","0","10","10","10","10","Sun Sep 20 18:42:08 2020","1500","The main experiment item","yes","FlankerTask.osexp","/Users/shelia/Desktop","no","mono","no","18","no","white","no","no","768","legacy","10","10","/Users/shelia/Desktop/ST-subject-1.csv","legacy","Lentiform Loewenfeld","3.3.3","0","s","NA","NA","NA","NA","h","NA","s","939","NA","NA","NA","NA","13411","NA","939","2","legacy","1024","2","48000","-16","experiment","HHSHH","0","even","15398","NA","NA","NA","39063","NA","NA","1819","NA","40252","1976","NA","40497","41437","40117","40497","Flanker Task","11","9849","11","yes","1024"
"100","100","938.1666666666666","938.1666666666666","black","legacy","legacy","legacy","0","incogruent","uniform","1","undefined","1","s","0","0","0","0","11","0","11","0","11","11","0","0","11","11","11","11","Sun Sep 20 18:42:08 2020","1500","The main experiment item","yes","FlankerTask.osexp","/Users/shelia/Desktop","no","mono","no","18","no","white","no","no","768","legacy","11","11","/Users/shelia/Desktop/ST-subject-1.csv","legacy","Lentiform Loewenfeld","3.3.3","0","s","NA","NA","NA","NA","h","NA","s","1409","NA","NA","NA","NA","13411","NA","1409","2","legacy","1024","2","48000","-16","experiment","HHSHH","0","even","15398","NA","NA","NA","41572","NA","NA","1819","NA","42761","1976","NA","43003","44413","42627","43003","Flanker Task","12","11258","12","yes","1024"
"100","100","922.1538461538462","922.1538461538462","black","legacy","legacy","legacy","0","incongruent","uniform","1","undefined","1","h","0","0","0","0","12","0","12","0","12","12","0","0","12","12","12","12","Sun Sep 20 18:42:08 2020","1500","The main experiment item","yes","FlankerTask.osexp","/Users/shelia/Desktop","no","mono","no","18","no","white","no","no","768","legacy","12","12","/Users/shelia/Desktop/ST-subject-1.csv","legacy","Lentiform Loewenfeld","3.3.3","0","h","NA","NA","NA","NA","h","NA","h","730","NA","NA","NA","NA","13411","NA","730","2","legacy","1024","2","48000","-16","experiment","SSHSS","0","even","15398","NA","NA","NA","44548","NA","NA","1819","NA","45738","1976","NA","45984","46715","45604","45984","Flanker Task","13","11988","13","yes","1024"
"100","100","898.2142857142857","898.2142857142857","black","legacy","legacy","legacy","0","congruent","uniform","1","undefined","1","h","0","0","0","0","13","0","13","0","13","13","0","0","13","13","13","13","Sun Sep 20 18:42:08 2020","1500","The main experiment item","yes","FlankerTask.osexp","/Users/shelia/Desktop","no","mono","no","18","no","white","no","no","768","legacy","13","13","/Users/shelia/Desktop/ST-subject-1.csv","legacy","Lentiform Loewenfeld","3.3.3","0","h","NA","NA","NA","NA","h","NA","h","587","NA","NA","NA","NA","13411","NA","587","2","legacy","1024","2","48000","-16","experiment","HHHHH","0","even","15398","NA","NA","NA","46852","NA","NA","1819","NA","48051","1976","NA","48296","48884","47917","48296","Flanker Task","14","12575","14","yes","1024"
"100","100","868.6","868.6","black","legacy","legacy","legacy","0","congruent","uniform","1","undefined","1","s","0","0","0","0","14","0","14","0","14","14","0","0","14","14","14","14","Sun Sep 20 18:42:08 2020","1500","The main experiment item","yes","FlankerTask.osexp","/Users/shelia/Desktop","no","mono","no","18","no","white","no","no","768","legacy","14","14","/Users/shelia/Desktop/ST-subject-1.csv","legacy","Lentiform Loewenfeld","3.3.3","0","s","NA","NA","NA","NA","h","NA","s","454","NA","NA","NA","NA","13411","NA","454","2","legacy","1024","2","48000","-16","experiment","SSSSS","0","even","15398","NA","NA","NA","49022","NA","NA","1819","NA","50213","1976","NA","50459","50914","50079","50459","Flanker Task","15","13029","15","yes","1024"
"100","100","844.75","844.75","black","legacy","legacy","legacy","0","congruent","uniform","1","undefined","1","s","0","0","0","0","15","0","15","0","15","15","0","0","15","15","15","15","Sun Sep 20 18:42:08 2020","1500","The main experiment item","yes","FlankerTask.osexp","/Users/shelia/Desktop","no","mono","no","18","no","white","no","no","768","legacy","15","15","/Users/shelia/Desktop/ST-subject-1.csv","legacy","Lentiform Loewenfeld","3.3.3","0","s","NA","NA","NA","NA","h","NA","s","487","NA","NA","NA","NA","13411","NA","487","2","legacy","1024","2","48000","-16","experiment","SSSSS","0","even","15398","NA","NA","NA","51052","NA","NA","1819","NA","52243","1976","NA","52486","52974","52107","52486","Flanker Task","16","13516","16","yes","1024"
"100","100","822.5882352941177","822.5882352941177","black","legacy","legacy","legacy","0","congruent","uniform","1","undefined","1","s","0","0","0","0","16","0","16","0","16","16","0","0","16","16","16","16","Sun Sep 20 18:42:08 2020","1500","The main experiment item","yes","FlankerTask.osexp","/Users/shelia/Desktop","no","mono","no","18","no","white","no","no","768","legacy","16","16","/Users/shelia/Desktop/ST-subject-1.csv","legacy","Lentiform Loewenfeld","3.3.3","0","s","NA","NA","NA","NA","h","NA","s","468","NA","NA","NA","NA","13411","NA","468","2","legacy","1024","2","48000","-16","experiment","SSSSS","0","even","15398","NA","NA","NA","53111","NA","NA","1819","NA","54301","1976","NA","54546","55015","54166","54546","Flanker Task","17","13984","17","yes","1024"
"100","100","803.7777777777778","803.7777777777778","black","legacy","legacy","legacy","0","congruent","uniform","1","undefined","1","s","0","0","0","0","17","0","17","0","17","17","0","0","17","17","17","17","Sun Sep 20 18:42:08 2020","1500","The main experiment item","yes","FlankerTask.osexp","/Users/shelia/Desktop","no","mono","no","18","no","white","no","no","768","legacy","17","17","/Users/shelia/Desktop/ST-subject-1.csv","legacy","Lentiform Loewenfeld","3.3.3","0","s","NA","NA","NA","NA","h","NA","s","484","NA","NA","NA","NA","13411","NA","484","2","legacy","1024","2","48000","-16","experiment","SSSSS","0","even","15398","NA","NA","NA","55153","NA","NA","1819","NA","56345","1976","NA","56589","57074","56210","56589","Flanker Task","18","14468","18","yes","1024"
"100","100","789.1578947368421","789.1578947368421","black","legacy","legacy","legacy","0","congruent","uniform","1","undefined","1","s","0","0","0","0","18","0","18","0","18","18","0","0","18","18","18","18","Sun Sep 20 18:42:08 2020","1500","The main experiment item","yes","FlankerTask.osexp","/Users/shelia/Desktop","no","mono","no","18","no","white","no","no","768","legacy","18","18","/Users/shelia/Desktop/ST-subject-1.csv","legacy","Lentiform Loewenfeld","3.3.3","0","s","NA","NA","NA","NA","h","NA","s","526","NA","NA","NA","NA","13411","NA","526","2","legacy","1024","2","48000","-16","experiment","SSSSS","0","even","15398","NA","NA","NA","57211","NA","NA","1819","NA","58403","1976","NA","58648","59175","58268","58648","Flanker Task","19","14994","19","yes","1024"
"100","100","778.65","778.65","black","legacy","legacy","legacy","0","congruent","uniform","1","undefined","1","h","0","0","0","0","19","0","19","0","19","19","0","0","19","19","19","19","Sun Sep 20 18:42:08 2020","1500","The main experiment item","yes","FlankerTask.osexp","/Users/shelia/Desktop","no","mono","no","18","no","white","no","no","768","legacy","19","19","/Users/shelia/Desktop/ST-subject-1.csv","legacy","Lentiform Loewenfeld","3.3.3","0","h","NA","NA","NA","NA","h","NA","h","579","NA","NA","NA","NA","13411","NA","579","2","legacy","1024","2","48000","-16","experiment","HHHHH","0","even","15398","NA","NA","NA","59312","NA","NA","1819","NA","60503","1976","NA","60748","61328","60369","60747","Flanker Task","20","15573","20","yes","1024"
"100","100","784.9047619047619","784.9047619047619","black","legacy","legacy","legacy","0","incongruent","uniform","1","undefined","1","h","0","0","0","0","20","0","20","0","20","20","0","0","20","20","20","20","Sun Sep 20 18:42:08 2020","1500","The main experiment item","yes","FlankerTask.osexp","/Users/shelia/Desktop","no","mono","no","18","no","white","no","no","768","legacy","20","20","/Users/shelia/Desktop/ST-subject-1.csv","legacy","Lentiform Loewenfeld","3.3.3","0","h","NA","NA","NA","NA","h","NA","h","910","NA","NA","NA","NA","13411","NA","910","2","legacy","1024","2","48000","-16","experiment","SSHSS","0","even","15398","NA","NA","NA","61465","NA","NA","1819","NA","62653","1976","NA","62899","63810","62519","62899","Flanker Task","21","16483","21","yes","1024"
"100","100","775.5909090909091","775.5909090909091","black","legacy","legacy","legacy","0","incongruent","uniform","1","undefined","1","h","0","0","0","0","21","0","21","0","21","21","0","0","21","21","21","21","Sun Sep 20 18:42:08 2020","1500","The main experiment item","yes","FlankerTask.osexp","/Users/shelia/Desktop","no","mono","no","18","no","white","no","no","768","legacy","21","21","/Users/shelia/Desktop/ST-subject-1.csv","legacy","Lentiform Loewenfeld","3.3.3","0","h","NA","NA","NA","NA","h","NA","h","580","NA","NA","NA","NA","13411","NA","580","2","legacy","1024","2","48000","-16","experiment","SSHSS","0","even","15398","NA","NA","NA","63947","NA","NA","1819","NA","65135","1976","NA","65377","65958","65000","65377","Flanker Task","22","17063","22","yes","1024"
"100","100","766.7826086956521","766.7826086956521","black","legacy","legacy","legacy","0","congruent","uniform","1","undefined","1","s","0","0","0","0","22","0","22","0","22","22","0","0","22","22","22","22","Sun Sep 20 18:42:08 2020","1500","The main experiment item","yes","FlankerTask.osexp","/Users/shelia/Desktop","no","mono","no","18","no","white","no","no","768","legacy","22","22","/Users/shelia/Desktop/ST-subject-1.csv","legacy","Lentiform Loewenfeld","3.3.3","0","s","NA","NA","NA","NA","h","NA","s","573","NA","NA","NA","NA","13411","NA","573","2","legacy","1024","2","48000","-16","experiment","SSSSS","0","even","15398","NA","NA","NA","66094","NA","NA","1819","NA","67287","1976","NA","67532","68106","67151","67532","Flanker Task","23","17636","23","yes","1024"
"100","100","758.0416666666666","758.0416666666666","black","legacy","legacy","legacy","0","congruent","uniform","1","undefined","1","h","0","0","0","0","23","0","23","0","23","23","0","0","23","23","23","23","Sun Sep 20 18:42:08 2020","1500","The main experiment item","yes","FlankerTask.osexp","/Users/shelia/Desktop","no","mono","no","18","no","white","no","no","768","legacy","23","23","/Users/shelia/Desktop/ST-subject-1.csv","legacy","Lentiform Loewenfeld","3.3.3","0","h","NA","NA","NA","NA","h","NA","h","557","NA","NA","NA","NA","13411","NA","557","2","legacy","1024","2","48000","-16","experiment","HHHHH","0","even","15398","NA","NA","NA","68245","NA","NA","1819","NA","69432","1976","NA","69677","70235","69297","69677","Flanker Task","24","18193","24","yes","1024"
"100","100","756.68","756.68","black","legacy","legacy","legacy","0","incogruent","uniform","1","undefined","1","s","0","0","0","0","24","0","24","0","24","24","0","0","24","24","24","24","Sun Sep 20 18:42:08 2020","1500","The main experiment item","yes","FlankerTask.osexp","/Users/shelia/Desktop","no","mono","no","18","no","white","no","no","768","legacy","24","24","/Users/shelia/Desktop/ST-subject-1.csv","legacy","Lentiform Loewenfeld","3.3.3","0","s","NA","NA","NA","NA","h","NA","s","724","NA","NA","NA","NA","13411","NA","724","2","legacy","1024","2","48000","-16","experiment","HHSHH","0","even","15398","NA","NA","NA","70373","NA","NA","1819","NA","71563","1976","NA","71808","72533","71429","71808","Flanker Task","25","18917","25","yes","1024"
"100","100","757.5769230769231","757.5769230769231","black","legacy","legacy","legacy","0","congruent","uniform","1","undefined","1","s","0","0","0","0","25","0","25","0","25","25","0","0","25","25","25","25","Sun Sep 20 18:42:08 2020","1500","The main experiment item","yes","FlankerTask.osexp","/Users/shelia/Desktop","no","mono","no","18","no","white","no","no","768","legacy","25","25","/Users/shelia/Desktop/ST-subject-1.csv","legacy","Lentiform Loewenfeld","3.3.3","0","s","NA","NA","NA","NA","h","NA","s","780","NA","NA","NA","NA","13411","NA","780","2","legacy","1024","2","48000","-16","experiment","SSSSS","0","even","15398","NA","NA","NA","72670","NA","NA","1819","NA","73858","1976","NA","74103","74884","73724","74103","Flanker Task","26","19697","26","yes","1024"
"100","100","766.4074074074074","766.4074074074074","black","legacy","legacy","legacy","0","incogruent","uniform","1","undefined","1","s","0","0","0","0","26","0","26","0","26","26","0","0","26","26","26","26","Sun Sep 20 18:42:08 2020","1500","The main experiment item","yes","FlankerTask.osexp","/Users/shelia/Desktop","no","mono","no","18","no","white","no","no","768","legacy","26","26","/Users/shelia/Desktop/ST-subject-1.csv","legacy","Lentiform Loewenfeld","3.3.3","0","s","NA","NA","NA","NA","h","NA","s","996","NA","NA","NA","NA","13411","NA","996","2","legacy","1024","2","48000","-16","experiment","HHSHH","0","even","15398","NA","NA","NA","75019","NA","NA","1819","NA","76208","1976","NA","76455","77452","76074","76455","Flanker Task","27","20693","27","yes","1024"
"100","100","762.9642857142857","762.9642857142857","black","legacy","legacy","legacy","0","incongruent","uniform","1","undefined","1","h","0","0","0","0","27","0","27","0","27","27","0","0","27","27","27","27","Sun Sep 20 18:42:08 2020","1500","The main experiment item","yes","FlankerTask.osexp","/Users/shelia/Desktop","no","mono","no","18","no","white","no","no","768","legacy","27","27","/Users/shelia/Desktop/ST-subject-1.csv","legacy","Lentiform Loewenfeld","3.3.3","0","h","NA","NA","NA","NA","h","NA","h","670","NA","NA","NA","NA","13411","NA","670","2","legacy","1024","2","48000","-16","experiment","SSHSS","0","even","15398","NA","NA","NA","77591","NA","NA","1819","NA","78784","1976","NA","79029","79700","78648","79029","Flanker Task","28","21363","28","yes","1024"
"100","100","753.0689655172414","753.0689655172414","black","legacy","legacy","legacy","0","congruent","uniform","1","undefined","1","s","0","0","0","0","28","0","28","0","28","28","0","0","28","28","28","28","Sun Sep 20 18:42:08 2020","1500","The main experiment item","yes","FlankerTask.osexp","/Users/shelia/Desktop","no","mono","no","18","no","white","no","no","768","legacy","28","28","/Users/shelia/Desktop/ST-subject-1.csv","legacy","Lentiform Loewenfeld","3.3.3","0","s","NA","NA","NA","NA","h","NA","s","476","NA","NA","NA","NA","13411","NA","476","2","legacy","1024","2","48000","-16","experiment","SSSSS","0","even","15398","NA","NA","NA","79837","NA","NA","1819","NA","81031","1976","NA","81277","81754","80895","81277","Flanker Task","29","21839","29","yes","1024"
"100","100","749.1","749.1","black","legacy","legacy","legacy","0","incogruent","uniform","1","undefined","1","s","0","0","0","0","29","0","29","0","29","29","0","0","29","29","29","29","Sun Sep 20 18:42:08 2020","1500","The main experiment item","yes","FlankerTask.osexp","/Users/shelia/Desktop","no","mono","no","18","no","white","no","no","768","legacy","29","29","/Users/shelia/Desktop/ST-subject-1.csv","legacy","Lentiform Loewenfeld","3.3.3","0","s","NA","NA","NA","NA","h","NA","s","634","NA","NA","NA","NA","13411","NA","634","2","legacy","1024","2","48000","-16","experiment","HHSHH","0","even","15398","NA","NA","NA","81891","NA","NA","1819","NA","83080","1976","NA","83327","83962","82947","83326","Flanker Task","30","22473","30","yes","1024"
"100","100","742.741935483871","742.741935483871","black","legacy","legacy","legacy","0","congruent","uniform","1","undefined","1","h","0","0","0","0","30","0","30","0","30","30","0","0","30","30","30","30","Sun Sep 20 18:42:08 2020","1500","The main experiment item","yes","FlankerTask.osexp","/Users/shelia/Desktop","no","mono","no","18","no","white","no","no","768","legacy","30","30","/Users/shelia/Desktop/ST-subject-1.csv","legacy","Lentiform Loewenfeld","3.3.3","0","h","NA","NA","NA","NA","h","NA","h","552","NA","NA","NA","NA","13411","NA","552","2","legacy","1024","2","48000","-16","experiment","HHHHH","0","even","15398","NA","NA","NA","84098","NA","NA","1819","NA","85289","1976","NA","85535","86088","85155","85535","Flanker Task","31","23025","31","yes","1024"
"100","100","753.03125","753.03125","black","legacy","legacy","legacy","0","incogruent","uniform","1","undefined","1","s","0","0","0","0","31","0","31","0","31","31","0","0","31","31","31","31","Sun Sep 20 18:42:08 2020","1500","The main experiment item","yes","FlankerTask.osexp","/Users/shelia/Desktop","no","mono","no","18","no","white","no","no","768","legacy","31","31","/Users/shelia/Desktop/ST-subject-1.csv","legacy","Lentiform Loewenfeld","3.3.3","0","s","NA","NA","NA","NA","h","NA","s","1072","NA","NA","NA","NA","13411","NA","1072","2","legacy","1024","2","48000","-16","experiment","HHSHH","0","even","15398","NA","NA","NA","86224","NA","NA","1819","NA","87414","1976","NA","87660","88733","87279","87659","Flanker Task","32","24097","32","yes","1024"
"100","100","745.0909090909091","745.0909090909091","black","legacy","legacy","legacy","0","incogruent","uniform","1","undefined","1","s","0","0","0","0","32","0","32","0","32","32","0","0","32","32","32","32","Sun Sep 20 18:42:08 2020","1500","The main experiment item","yes","FlankerTask.osexp","/Users/shelia/Desktop","no","mono","no","18","no","white","no","no","768","legacy","32","32","/Users/shelia/Desktop/ST-subject-1.csv","legacy","Lentiform Loewenfeld","3.3.3","0","s","NA","NA","NA","NA","h","NA","s","491","NA","NA","NA","NA","13411","NA","491","2","legacy","1024","2","48000","-16","experiment","HHSHH","0","even","15398","NA","NA","NA","88871","NA","NA","1819","NA","90061","1976","NA","90306","90798","89927","90306","Flanker Task","33","24588","33","yes","1024"
"100","100","754.4117647058823","754.4117647058823","black","legacy","legacy","legacy","0","incongruent","uniform","1","undefined","1","h","0","0","0","0","33","0","33","0","33","33","0","0","33","33","33","33","Sun Sep 20 18:42:08 2020","1500","The main experiment item","yes","FlankerTask.osexp","/Users/shelia/Desktop","no","mono","no","18","no","white","no","no","768","legacy","33","33","/Users/shelia/Desktop/ST-subject-1.csv","legacy","Lentiform Loewenfeld","3.3.3","0","h","NA","NA","NA","NA","h","NA","h","1062","NA","NA","NA","NA","13411","NA","1062","2","legacy","1024","2","48000","-16","experiment","SSHSS","0","even","15398","NA","NA","NA","90935","NA","NA","1819","NA","92124","1976","NA","92370","93433","91990","92370","Flanker Task","34","25650","34","yes","1024"
"100","100","749.2","749.2","black","legacy","legacy","legacy","0","incogruent","uniform","1","undefined","1","s","0","0","0","0","34","0","34","0","34","34","0","0","34","34","34","34","Sun Sep 20 18:42:08 2020","1500","The main experiment item","yes","FlankerTask.osexp","/Users/shelia/Desktop","no","mono","no","18","no","white","no","no","768","legacy","34","34","/Users/shelia/Desktop/ST-subject-1.csv","legacy","Lentiform Loewenfeld","3.3.3","0","s","NA","NA","NA","NA","h","NA","s","572","NA","NA","NA","NA","13411","NA","572","2","legacy","1024","2","48000","-16","experiment","HHSHH","0","even","15398","NA","NA","NA","93570","NA","NA","1819","NA","94764","1976","NA","95010","95583","94628","95010","Flanker Task","35","26222","35","yes","1024"
"100","100","742.1388888888889","742.1388888888889","black","legacy","legacy","legacy","0","congruent","uniform","1","undefined","1","s","0","0","0","0","35","0","35","0","35","35","0","0","35","35","35","35","Sun Sep 20 18:42:08 2020","1500","The main experiment item","yes","FlankerTask.osexp","/Users/shelia/Desktop","no","mono","no","18","no","white","no","no","768","legacy","35","35","/Users/shelia/Desktop/ST-subject-1.csv","legacy","Lentiform Loewenfeld","3.3.3","0","s","NA","NA","NA","NA","h","NA","s","495","NA","NA","NA","NA","13411","NA","495","2","legacy","1024","2","48000","-16","experiment","SSSSS","0","even","15398","NA","NA","NA","95722","NA","NA","1819","NA","96911","1976","NA","97157","97653","96774","97156","Flanker Task","36","26717","36","yes","1024"
"100","100","744.918918918919","744.918918918919","black","legacy","legacy","legacy","0","congruent","uniform","1","undefined","1","h","0","0","0","0","36","0","36","0","36","36","0","0","36","36","36","36","Sun Sep 20 18:42:08 2020","1500","The main experiment item","yes","FlankerTask.osexp","/Users/shelia/Desktop","no","mono","no","18","no","white","no","no","768","legacy","36","36","/Users/shelia/Desktop/ST-subject-1.csv","legacy","Lentiform Loewenfeld","3.3.3","0","h","NA","NA","NA","NA","h","NA","h","845","NA","NA","NA","NA","13411","NA","845","2","legacy","1024","2","48000","-16","experiment","HHHHH","0","even","15398","NA","NA","NA","97791","NA","NA","1819","NA","98980","1976","NA","99225","100071","98844","99225","Flanker Task","37","27562","37","yes","1024"
"100","100","743.8947368421053","743.8947368421053","black","legacy","legacy","legacy","0","congruent","uniform","1","undefined","1","h","0","0","0","0","37","0","37","0","37","37","0","0","37","37","37","37","Sun Sep 20 18:42:08 2020","1500","The main experiment item","yes","FlankerTask.osexp","/Users/shelia/Desktop","no","mono","no","18","no","white","no","no","768","legacy","37","37","/Users/shelia/Desktop/ST-subject-1.csv","legacy","Lentiform Loewenfeld","3.3.3","0","h","NA","NA","NA","NA","h","NA","h","706","NA","NA","NA","NA","13411","NA","706","2","legacy","1024","2","48000","-16","experiment","HHHHH","0","even","15398","NA","NA","NA","100209","NA","NA","1819","NA","101402","1976","NA","101647","102354","101266","101647","Flanker Task","38","28268","38","yes","1024"
"100","100","738.8461538461538","738.8461538461538","black","legacy","legacy","legacy","0","congruent","uniform","1","undefined","1","s","0","0","0","0","38","0","38","0","38","38","0","0","38","38","38","38","Sun Sep 20 18:42:08 2020","1500","The main experiment item","yes","FlankerTask.osexp","/Users/shelia/Desktop","no","mono","no","18","no","white","no","no","768","legacy","38","38","/Users/shelia/Desktop/ST-subject-1.csv","legacy","Lentiform Loewenfeld","3.3.3","0","s","NA","NA","NA","NA","h","NA","s","547","NA","NA","NA","NA","13411","NA","547","2","legacy","1024","2","48000","-16","experiment","SSSSS","0","even","15398","NA","NA","NA","102491","NA","NA","1819","NA","103682","1976","NA","103928","104476","103548","103928","Flanker Task","39","28815","39","yes","1024"
"100","100","737.025","737.025","black","legacy","legacy","legacy","0","incongruent","uniform","1","undefined","1","h","0","0","0","0","39","0","39","0","39","39","0","0","39","39","39","39","Sun Sep 20 18:42:08 2020","1500","The main experiment item","yes","FlankerTask.osexp","/Users/shelia/Desktop","no","mono","no","18","no","white","no","no","768","legacy","39","39","/Users/shelia/Desktop/ST-subject-1.csv","legacy","Lentiform Loewenfeld","3.3.3","0","h","NA","NA","NA","NA","h","NA","h","666","NA","NA","NA","NA","13411","NA","666","2","legacy","1024","2","48000","-16","experiment","SSHSS","0","even","15398","NA","NA","NA","104614","NA","NA","1819","NA","105805","1976","NA","106047","106714","105671","106047","Flanker Task","40","29481","40","yes","1024"
"100","100","742.780487804878","742.780487804878","black","legacy","legacy","legacy","0","congruent","uniform","1","undefined","1","h","0","0","0","0","40","0","40","0","40","40","0","0","40","40","40","40","Sun Sep 20 18:42:08 2020","1500","The main experiment item","yes","FlankerTask.osexp","/Users/shelia/Desktop","no","mono","no","18","no","white","no","no","768","legacy","40","40","/Users/shelia/Desktop/ST-subject-1.csv","legacy","Lentiform Loewenfeld","3.3.3","0","h","NA","NA","NA","NA","h","NA","h","973","NA","NA","NA","NA","13411","NA","973","2","legacy","1024","2","48000","-16","experiment","HHHHH","0","even","15398","NA","NA","NA","106854","NA","NA","1819","NA","108053","1976","NA","108299","109273","107918","108299","Flanker Task","41","30454","41","yes","1024"
"100","100","744.8571428571429","744.8571428571429","black","legacy","legacy","legacy","0","incongruent","uniform","1","undefined","1","h","0","0","0","0","41","0","41","0","41","41","0","0","41","41","41","41","Sun Sep 20 18:42:08 2020","1500","The main experiment item","yes","FlankerTask.osexp","/Users/shelia/Desktop","no","mono","no","18","no","white","no","no","768","legacy","41","41","/Users/shelia/Desktop/ST-subject-1.csv","legacy","Lentiform Loewenfeld","3.3.3","0","h","NA","NA","NA","NA","h","NA","h","830","NA","NA","NA","NA","13411","NA","830","2","legacy","1024","2","48000","-16","experiment","SSHSS","0","even","15398","NA","NA","NA","109409","NA","NA","1819","NA","110600","1976","NA","110846","111677","110465","110846","Flanker Task","42","31284","42","yes","1024"
"100","100","758.5813953488372","758.5813953488372","black","legacy","legacy","legacy","0","congruent","uniform","1","undefined","1","s","0","0","0","0","42","0","42","0","42","42","0","0","42","42","42","42","Sun Sep 20 18:42:08 2020","1500","The main experiment item","yes","FlankerTask.osexp","/Users/shelia/Desktop","no","mono","no","18","no","white","no","no","768","legacy","42","42","/Users/shelia/Desktop/ST-subject-1.csv","legacy","Lentiform Loewenfeld","3.3.3","0","s","NA","NA","NA","NA","h","NA","s","1335","NA","NA","NA","NA","13411","NA","1335","2","legacy","1024","2","48000","-16","experiment","SSSSS","0","even","15398","NA","NA","NA","111815","NA","NA","1819","NA","113004","1976","NA","113249","114585","112869","113249","Flanker Task","43","32619","43","yes","1024"
"100","100","754.3636363636364","754.3636363636364","black","legacy","legacy","legacy","0","congruent","uniform","1","undefined","1","h","0","0","0","0","43","0","43","0","43","43","0","0","43","43","43","43","Sun Sep 20 18:42:08 2020","1500","The main experiment item","yes","FlankerTask.osexp","/Users/shelia/Desktop","no","mono","no","18","no","white","no","no","768","legacy","43","43","/Users/shelia/Desktop/ST-subject-1.csv","legacy","Lentiform Loewenfeld","3.3.3","0","h","NA","NA","NA","NA","h","NA","h","573","NA","NA","NA","NA","13411","NA","573","2","legacy","1024","2","48000","-16","experiment","HHHHH","0","even","15398","NA","NA","NA","114721","NA","NA","1819","NA","115911","1976","NA","116155","116729","115775","116155","Flanker Task","44","33192","44","yes","1024"
"100","100","750.3111111111111","750.3111111111111","black","legacy","legacy","legacy","0","incogruent","uniform","1","undefined","1","s","0","0","0","0","44","0","44","0","44","44","0","0","44","44","44","44","Sun Sep 20 18:42:08 2020","1500","The main experiment item","yes","FlankerTask.osexp","/Users/shelia/Desktop","no","mono","no","18","no","white","no","no","768","legacy","44","44","/Users/shelia/Desktop/ST-subject-1.csv","legacy","Lentiform Loewenfeld","3.3.3","0","s","NA","NA","NA","NA","h","NA","s","572","NA","NA","NA","NA","13411","NA","572","2","legacy","1024","2","48000","-16","experiment","HHSHH","0","even","15398","NA","NA","NA","116865","NA","NA","1819","NA","118054","1976","NA","118297","118870","117921","118297","Flanker Task","45","33764","45","yes","1024"
"100","100","747.8913043478261","747.8913043478261","black","legacy","legacy","legacy","0","congruent","uniform","1","undefined","1","s","0","0","0","0","45","0","45","0","45","45","0","0","45","45","45","45","Sun Sep 20 18:42:08 2020","1500","The main experiment item","yes","FlankerTask.osexp","/Users/shelia/Desktop","no","mono","no","18","no","white","no","no","768","legacy","45","45","/Users/shelia/Desktop/ST-subject-1.csv","legacy","Lentiform Loewenfeld","3.3.3","0","s","NA","NA","NA","NA","h","NA","s","639","NA","NA","NA","NA","13411","NA","639","2","legacy","1024","2","48000","-16","experiment","SSSSS","0","even","15398","NA","NA","NA","119007","NA","NA","1819","NA","120201","1976","NA","120446","121086","120065","120446","Flanker Task","46","34403","46","yes","1024"
"100","100","746.8085106382979","746.8085106382979","black","legacy","legacy","legacy","0","incogruent","uniform","1","undefined","1","s","0","0","0","0","46","0","46","0","46","46","0","0","46","46","46","46","Sun Sep 20 18:42:08 2020","1500","The main experiment item","yes","FlankerTask.osexp","/Users/shelia/Desktop","no","mono","no","18","no","white","no","no","768","legacy","46","46","/Users/shelia/Desktop/ST-subject-1.csv","legacy","Lentiform Loewenfeld","3.3.3","0","s","NA","NA","NA","NA","h","NA","s","697","NA","NA","NA","NA","13411","NA","697","2","legacy","1024","2","48000","-16","experiment","HHSHH","0","even","15398","NA","NA","NA","121230","NA","NA","1819","NA","122420","1976","NA","122664","123362","122286","122663","Flanker Task","47","35100","47","yes","1024"
"100","100","742.5","742.5","black","legacy","legacy","legacy","0","congruent","uniform","1","undefined","1","h","0","0","0","0","47","0","47","0","47","47","0","0","47","47","47","47","Sun Sep 20 18:42:08 2020","1500","The main experiment item","yes","FlankerTask.osexp","/Users/shelia/Desktop","no","mono","no","18","no","white","no","no","768","legacy","47","47","/Users/shelia/Desktop/ST-subject-1.csv","legacy","Lentiform Loewenfeld","3.3.3","0","h","NA","NA","NA","NA","h","NA","h","540","NA","NA","NA","NA","13411","NA","540","2","legacy","1024","2","48000","-16","experiment","HHHHH","0","even","15398","NA","NA","NA","123499","NA","NA","1819","NA","124690","1976","NA","124936","125477","124556","124936","Flanker Task","48","35640","48","yes","1024"
"100","100","757.734693877551","757.734693877551","black","legacy","legacy","legacy","0","incongruent","uniform","1","undefined","1","h","0","0","0","0","48","0","48","0","48","48","0","0","48","48","48","48","Sun Sep 20 18:42:08 2020","1500","The main experiment item","yes","FlankerTask.osexp","/Users/shelia/Desktop","no","mono","no","18","no","white","no","no","768","legacy","48","48","/Users/shelia/Desktop/ST-subject-1.csv","legacy","Lentiform Loewenfeld","3.3.3","0","h","NA","NA","NA","NA","h","NA","h","1489","NA","NA","NA","NA","13411","NA","1489","2","legacy","1024","2","48000","-16","experiment","SSHSS","0","even","15398","NA","NA","NA","125614","NA","NA","1819","NA","126805","1976","NA","127051","128541","126671","127051","Flanker Task","49","37129","49","yes","1024"
"100","100","764.22","764.22","black","legacy","legacy","legacy","0","incogruent","uniform","1","undefined","1","s","0","0","0","0","49","0","49","0","49","49","0","0","49","49","49","49","Sun Sep 20 18:42:08 2020","1500","The main experiment item","yes","FlankerTask.osexp","/Users/shelia/Desktop","no","mono","no","18","no","white","no","no","768","legacy","49","49","/Users/shelia/Desktop/ST-subject-1.csv","legacy","Lentiform Loewenfeld","3.3.3","0","s","NA","NA","NA","NA","h","NA","s","1082","NA","NA","NA","NA","13411","NA","1082","2","legacy","1024","2","48000","-16","experiment","HHSHH","0","even","15398","NA","NA","NA","128677","NA","NA","1819","NA","129866","1976","NA","130111","131194","129732","130111","Flanker Task","50","38211","50","yes","1024"
"100","100","764.8235294117648","764.8235294117648","black","legacy","legacy","legacy","0","congruent","uniform","1","undefined","1","h","0","0","0","0","50","0","50","0","50","50","0","0","50","50","50","50","Sun Sep 20 18:42:08 2020","1500","The main experiment item","yes","FlankerTask.osexp","/Users/shelia/Desktop","no","mono","no","18","no","white","no","no","768","legacy","50","50","/Users/shelia/Desktop/ST-subject-1.csv","legacy","Lentiform Loewenfeld","3.3.3","0","h","NA","NA","NA","NA","h","NA","h","795","NA","NA","NA","NA","13411","NA","795","2","legacy","1024","2","48000","-16","experiment","HHHHH","0","even","15398","NA","NA","NA","131331","NA","NA","1819","NA","132520","1976","NA","132765","133562","132385","132764","Flanker Task","51","39006","51","yes","1024"
"100","100","761.5384615384615","761.5384615384615","black","legacy","legacy","legacy","0","congruent","uniform","1","undefined","1","s","0","0","0","0","51","0","51","0","51","51","0","0","51","51","51","51","Sun Sep 20 18:42:08 2020","1500","The main experiment item","yes","FlankerTask.osexp","/Users/shelia/Desktop","no","mono","no","18","no","white","no","no","768","legacy","51","51","/Users/shelia/Desktop/ST-subject-1.csv","legacy","Lentiform Loewenfeld","3.3.3","0","s","NA","NA","NA","NA","h","NA","s","594","NA","NA","NA","NA","13411","NA","594","2","legacy","1024","2","48000","-16","experiment","SSSSS","0","even","15398","NA","NA","NA","133699","NA","NA","1819","NA","134891","1976","NA","135135","135730","134756","135135","Flanker Task","52","39600","52","yes","1024"
"100","100","773.3962264150944","773.3962264150944","black","legacy","legacy","legacy","0","incogruent","uniform","1","undefined","1","s","0","0","0","0","52","0","52","0","52","52","0","0","52","52","52","52","Sun Sep 20 18:42:08 2020","1500","The main experiment item","yes","FlankerTask.osexp","/Users/shelia/Desktop","no","mono","no","18","no","white","no","no","768","legacy","52","52","/Users/shelia/Desktop/ST-subject-1.csv","legacy","Lentiform Loewenfeld","3.3.3","0","s","NA","NA","NA","NA","h","NA","s","1390","NA","NA","NA","NA","13411","NA","1390","2","legacy","1024","2","48000","-16","experiment","HHSHH","0","even","15398","NA","NA","NA","135868","NA","NA","1819","NA","137059","1976","NA","137304","138695","136924","137304","Flanker Task","53","40990","53","yes","1024"
"100","100","778.8518518518518","778.8518518518518","black","legacy","legacy","legacy","0","congruent","uniform","1","undefined","1","h","0","0","0","0","53","0","53","0","53","53","0","0","53","53","53","53","Sun Sep 20 18:42:08 2020","1500","The main experiment item","yes","FlankerTask.osexp","/Users/shelia/Desktop","no","mono","no","18","no","white","no","no","768","legacy","53","53","/Users/shelia/Desktop/ST-subject-1.csv","legacy","Lentiform Loewenfeld","3.3.3","0","h","NA","NA","NA","NA","h","NA","h","1068","NA","NA","NA","NA","13411","NA","1068","2","legacy","1024","2","48000","-16","experiment","HHHHH","0","even","15398","NA","NA","NA","138833","NA","NA","1819","NA","140023","1976","NA","140268","141337","139889","140268","Flanker Task","54","42058","54","yes","1024"
"100","100","783.5818181818182","783.5818181818182","black","legacy","legacy","legacy","0","congruent","uniform","1","undefined","1","h","0","0","0","0","54","0","54","0","54","54","0","0","54","54","54","54","Sun Sep 20 18:42:08 2020","1500","The main experiment item","yes","FlankerTask.osexp","/Users/shelia/Desktop","no","mono","no","18","no","white","no","no","768","legacy","54","54","/Users/shelia/Desktop/ST-subject-1.csv","legacy","Lentiform Loewenfeld","3.3.3","0","h","NA","NA","NA","NA","h","NA","h","1039","NA","NA","NA","NA","13411","NA","1039","2","legacy","1024","2","48000","-16","experiment","HHHHH","0","even","15398","NA","NA","NA","141473","NA","NA","1819","NA","142657","1976","NA","142903","143943","142523","142903","Flanker Task","55","43097","55","yes","1024"
"100","100","785.2142857142857","785.2142857142857","black","legacy","legacy","legacy","0","incogruent","uniform","1","undefined","1","s","0","0","0","0","55","0","55","0","55","55","0","0","55","55","55","55","Sun Sep 20 18:42:08 2020","1500","The main experiment item","yes","FlankerTask.osexp","/Users/shelia/Desktop","no","mono","no","18","no","white","no","no","768","legacy","55","55","/Users/shelia/Desktop/ST-subject-1.csv","legacy","Lentiform Loewenfeld","3.3.3","0","s","NA","NA","NA","NA","h","NA","s","875","NA","NA","NA","NA","13411","NA","875","2","legacy","1024","2","48000","-16","experiment","HHSHH","0","even","15398","NA","NA","NA","144079","NA","NA","1819","NA","145269","1976","NA","145519","146395","145135","145519","Flanker Task","56","43972","56","yes","1024"
"100","100","788.4736842105264","788.4736842105264","black","legacy","legacy","legacy","0","incogruent","uniform","1","undefined","1","s","0","0","0","0","56","0","56","0","56","56","0","0","56","56","56","56","Sun Sep 20 18:42:08 2020","1500","The main experiment item","yes","FlankerTask.osexp","/Users/shelia/Desktop","no","mono","no","18","no","white","no","no","768","legacy","56","56","/Users/shelia/Desktop/ST-subject-1.csv","legacy","Lentiform Loewenfeld","3.3.3","0","s","NA","NA","NA","NA","h","NA","s","971","NA","NA","NA","NA","13411","NA","971","2","legacy","1024","2","48000","-16","experiment","HHSHH","0","even","15398","NA","NA","NA","146535","NA","NA","1819","NA","147735","1976","NA","147981","148953","147600","147981","Flanker Task","57","44943","57","yes","1024"
"100","100","784.9310344827586","784.9310344827586","black","legacy","legacy","legacy","0","congruent","uniform","1","undefined","1","h","0","0","0","0","57","0","57","0","57","57","0","0","57","57","57","57","Sun Sep 20 18:42:08 2020","1500","The main experiment item","yes","FlankerTask.osexp","/Users/shelia/Desktop","no","mono","no","18","no","white","no","no","768","legacy","57","57","/Users/shelia/Desktop/ST-subject-1.csv","legacy","Lentiform Loewenfeld","3.3.3","0","h","NA","NA","NA","NA","h","NA","h","583","NA","NA","NA","NA","13411","NA","583","2","legacy","1024","2","48000","-16","experiment","HHHHH","0","even","15398","NA","NA","NA","149088","NA","NA","1819","NA","150280","1976","NA","150523","151107","150145","150523","Flanker Task","58","45526","58","yes","1024"
"100","100","785.2881355932203","785.2881355932203","black","legacy","legacy","legacy","0","congruent","uniform","1","undefined","1","s","0","0","0","0","58","0","58","0","58","58","0","0","58","58","58","58","Sun Sep 20 18:42:08 2020","1500","The main experiment item","yes","FlankerTask.osexp","/Users/shelia/Desktop","no","mono","no","18","no","white","no","no","768","legacy","58","58","/Users/shelia/Desktop/ST-subject-1.csv","legacy","Lentiform Loewenfeld","3.3.3","0","s","NA","NA","NA","NA","h","NA","s","806","NA","NA","NA","NA","13411","NA","806","2","legacy","1024","2","48000","-16","experiment","SSSSS","0","even","15398","NA","NA","NA","151243","NA","NA","1819","NA","152433","1976","NA","152679","153486","152298","152679","Flanker Task","59","46332","59","yes","1024"
"100","100","786.7666666666667","786.7666666666667","black","legacy","legacy","legacy","0","congruent","uniform","1","undefined","1","h","0","0","0","0","59","0","59","0","59","59","0","0","59","59","59","59","Sun Sep 20 18:42:08 2020","1500","The main experiment item","yes","FlankerTask.osexp","/Users/shelia/Desktop","no","mono","no","18","no","white","no","no","768","legacy","59","59","/Users/shelia/Desktop/ST-subject-1.csv","legacy","Lentiform Loewenfeld","3.3.3","0","h","NA","NA","NA","NA","h","NA","h","874","NA","NA","NA","NA","13411","NA","874","2","legacy","1024","2","48000","-16","experiment","HHHHH","0","even","15398","NA","NA","NA","153624","NA","NA","1819","NA","154819","1976","NA","155064","155940","154682","155064","Flanker Task","60","47206","60","yes","1024"
"100","100","792.1475409836065","792.1475409836065","black","legacy","legacy","legacy","0","incongruent","uniform","1","undefined","1","h","0","0","0","0","60","0","60","0","60","60","0","0","60","60","60","60","Sun Sep 20 18:42:08 2020","1500","The main experiment item","yes","FlankerTask.osexp","/Users/shelia/Desktop","no","mono","no","18","no","white","no","no","768","legacy","60","60","/Users/shelia/Desktop/ST-subject-1.csv","legacy","Lentiform Loewenfeld","3.3.3","0","h","NA","NA","NA","NA","h","NA","h","1115","NA","NA","NA","NA","13411","NA","1115","2","legacy","1024","2","48000","-16","experiment","SSHSS","0","even","15398","NA","NA","NA","156076","NA","NA","1819","NA","157265","1976","NA","157510","158626","157131","157510","Flanker Task","61","48321","61","yes","1024"
"100","100","792.5","792.5","black","legacy","legacy","legacy","0","incongruent","uniform","1","undefined","1","h","0","0","0","0","61","0","61","0","61","61","0","0","61","61","61","61","Sun Sep 20 18:42:08 2020","1500","The main experiment item","yes","FlankerTask.osexp","/Users/shelia/Desktop","no","mono","no","18","no","white","no","no","768","legacy","61","61","/Users/shelia/Desktop/ST-subject-1.csv","legacy","Lentiform Loewenfeld","3.3.3","0","h","NA","NA","NA","NA","h","NA","h","814","NA","NA","NA","NA","13411","NA","814","2","legacy","1024","2","48000","-16","experiment","SSHSS","0","even","15398","NA","NA","NA","158770","NA","NA","1819","NA","159969","1976","NA","160214","161030","159834","160214","Flanker Task","62","49135","62","yes","1024"
"100","100","788.2698412698413","788.2698412698413","black","legacy","legacy","legacy","0","congruent","uniform","1","undefined","1","s","0","0","0","0","62","0","62","0","62","62","0","0","62","62","62","62","Sun Sep 20 18:42:08 2020","1500","The main experiment item","yes","FlankerTask.osexp","/Users/shelia/Desktop","no","mono","no","18","no","white","no","no","768","legacy","62","62","/Users/shelia/Desktop/ST-subject-1.csv","legacy","Lentiform Loewenfeld","3.3.3","0","s","NA","NA","NA","NA","h","NA","s","526","NA","NA","NA","NA","13411","NA","526","2","legacy","1024","2","48000","-16","experiment","SSSSS","0","even","15398","NA","NA","NA","161166","NA","NA","1819","NA","162357","1976","NA","162602","163129","162221","162602","Flanker Task","63","49661","63","yes","1024"
"100","100","789.875","789.875","black","legacy","legacy","legacy","0","incongruent","uniform","1","undefined","1","h","0","0","0","0","63","0","63","0","63","63","0","0","63","63","63","63","Sun Sep 20 18:42:08 2020","1500","The main experiment item","yes","FlankerTask.osexp","/Users/shelia/Desktop","no","mono","no","18","no","white","no","no","768","legacy","63","63","/Users/shelia/Desktop/ST-subject-1.csv","legacy","Lentiform Loewenfeld","3.3.3","0","h","NA","NA","NA","NA","h","NA","h","891","NA","NA","NA","NA","13411","NA","891","2","legacy","1024","2","48000","-16","experiment","SSHSS","0","even","15398","NA","NA","NA","163266","NA","NA","1819","NA","164454","1976","NA","164700","165592","164321","164700","Flanker Task","64","50552","64","yes","1024"
"100","100","787.2923076923076","787.2923076923076","black","legacy","legacy","legacy","0","congruent","uniform","1","undefined","1","s","0","0","0","0","64","0","64","0","64","64","0","0","64","64","64","64","Sun Sep 20 18:42:08 2020","1500","The main experiment item","yes","FlankerTask.osexp","/Users/shelia/Desktop","no","mono","no","18","no","white","no","no","768","legacy","64","64","/Users/shelia/Desktop/ST-subject-1.csv","legacy","Lentiform Loewenfeld","3.3.3","0","s","NA","NA","NA","NA","h","NA","s","622","NA","NA","NA","NA","13411","NA","622","2","legacy","1024","2","48000","-16","experiment","SSSSS","0","even","15398","NA","NA","NA","165730","NA","NA","1819","NA","166920","1976","NA","167164","167787","166785","167164","Flanker Task","65","51174","65","yes","1024"
"100","100","787.8181818181819","787.8181818181819","black","legacy","legacy","legacy","0","congruent","uniform","1","undefined","1","s","0","0","0","0","65","0","65","0","65","65","0","0","65","65","65","65","Sun Sep 20 18:42:08 2020","1500","The main experiment item","yes","FlankerTask.osexp","/Users/shelia/Desktop","no","mono","no","18","no","white","no","no","768","legacy","65","65","/Users/shelia/Desktop/ST-subject-1.csv","legacy","Lentiform Loewenfeld","3.3.3","0","s","NA","NA","NA","NA","h","NA","s","822","NA","NA","NA","NA","13411","NA","822","2","legacy","1024","2","48000","-16","experiment","SSSSS","0","even","15398","NA","NA","NA","167924","NA","NA","1819","NA","169124","1976","NA","169369","170192","168991","169369","Flanker Task","66","51996","66","yes","1024"
"100","100","786.8955223880597","786.8955223880597","black","legacy","legacy","legacy","0","congruent","uniform","1","undefined","1","h","0","0","0","0","66","0","66","0","66","66","0","0","66","66","66","66","Sun Sep 20 18:42:08 2020","1500","The main experiment item","yes","FlankerTask.osexp","/Users/shelia/Desktop","no","mono","no","18","no","white","no","no","768","legacy","66","66","/Users/shelia/Desktop/ST-subject-1.csv","legacy","Lentiform Loewenfeld","3.3.3","0","h","NA","NA","NA","NA","h","NA","h","726","NA","NA","NA","NA","13411","NA","726","2","legacy","1024","2","48000","-16","experiment","HHHHH","0","even","15398","NA","NA","NA","170329","NA","NA","1819","NA","171518","1976","NA","171762","172489","171384","171762","Flanker Task","67","52722","67","yes","1024"
"100","100","786.0441176470588","786.0441176470588","black","legacy","legacy","legacy","0","congruent","uniform","1","undefined","1","s","0","0","0","0","67","0","67","0","67","67","0","0","67","67","67","67","Sun Sep 20 18:42:08 2020","1500","The main experiment item","yes","FlankerTask.osexp","/Users/shelia/Desktop","no","mono","no","18","no","white","no","no","768","legacy","67","67","/Users/shelia/Desktop/ST-subject-1.csv","legacy","Lentiform Loewenfeld","3.3.3","0","s","NA","NA","NA","NA","h","NA","s","729","NA","NA","NA","NA","13411","NA","729","2","legacy","1024","2","48000","-16","experiment","SSSSS","0","even","15398","NA","NA","NA","172625","NA","NA","1819","NA","173815","1976","NA","174056","174787","173680","174056","Flanker Task","68","53451","68","yes","1024"
"100","100","786.463768115942","786.463768115942","black","legacy","legacy","legacy","0","incogruent","uniform","1","undefined","1","s","0","0","0","0","68","0","68","0","68","68","0","0","68","68","68","68","Sun Sep 20 18:42:08 2020","1500","The main experiment item","yes","FlankerTask.osexp","/Users/shelia/Desktop","no","mono","no","18","no","white","no","no","768","legacy","68","68","/Users/shelia/Desktop/ST-subject-1.csv","legacy","Lentiform Loewenfeld","3.3.3","0","s","NA","NA","NA","NA","h","NA","s","815","NA","NA","NA","NA","13411","NA","815","2","legacy","1024","2","48000","-16","experiment","HHSHH","0","even","15398","NA","NA","NA","174926","NA","NA","1819","NA","176118","1976","NA","176363","177179","175983","176363","Flanker Task","69","54266","69","yes","1024"
"98.57142857142857","98.57142857142857","783.0142857142857","783.0142857142857","black","legacy","legacy","legacy","0","incongruent","uniform","0","undefined","0","h","0","0","0","0","69","0","69","0","69","69","0","0","69","69","69","69","Sun Sep 20 18:42:08 2020","1500","The main experiment item","yes","FlankerTask.osexp","/Users/shelia/Desktop","no","mono","no","18","no","white","no","no","768","legacy","69","69","/Users/shelia/Desktop/ST-subject-1.csv","legacy","Lentiform Loewenfeld","3.3.3","0","s","NA","NA","NA","NA","h","NA","s","545","NA","NA","NA","NA","13411","NA","545","2","legacy","1024","2","48000","-16","experiment","SSHSS","0","even","15398","NA","NA","NA","177317","NA","NA","1819","NA","178507","1976","NA","178751","179298","178373","178751","Flanker Task","69","54811","70","yes","1024"
"98.59154929577464","98.59154929577464","785.4788732394367","785.4788732394367","black","legacy","legacy","legacy","0","incogruent","uniform","1","undefined","1","s","0","0","0","0","70","0","70","0","70","70","0","0","70","70","70","70","Sun Sep 20 18:42:08 2020","1500","The main experiment item","yes","FlankerTask.osexp","/Users/shelia/Desktop","no","mono","no","18","no","white","no","no","768","legacy","70","70","/Users/shelia/Desktop/ST-subject-1.csv","legacy","Lentiform Loewenfeld","3.3.3","0","s","NA","NA","s","h","h","NA","s","958","NA","NA","5104","3413","13411","NA","958","2","legacy","1024","2","48000","-16","experiment","HHSHH","0","even","15398","NA","NA","NA","188224","NA","179433","1819","184674","189414","1976","NA","189659","190618","189279","189658","Flanker Task","70","55769","71","yes","1024"
"98.61111111111111","98.61111111111111","784.4861111111111","784.4861111111111","black","legacy","legacy","legacy","0","congruent","uniform","1","undefined","1","s","0","0","0","0","71","0","71","0","71","71","0","0","71","71","71","71","Sun Sep 20 18:42:08 2020","1500","The main experiment item","yes","FlankerTask.osexp","/Users/shelia/Desktop","no","mono","no","18","no","white","no","no","768","legacy","71","71","/Users/shelia/Desktop/ST-subject-1.csv","legacy","Lentiform Loewenfeld","3.3.3","0","s","NA","NA","s","h","h","NA","s","714","NA","NA","5104","3413","13411","NA","714","2","legacy","1024","2","48000","-16","experiment","SSSSS","0","even","15398","NA","NA","NA","190755","NA","179433","1819","184674","191948","1976","NA","192194","192909","191812","192193","Flanker Task","71","56483","72","yes","1024"
"98.63013698630137","98.63013698630137","781.6301369863014","781.6301369863014","black","legacy","legacy","legacy","0","congruent","uniform","1","undefined","1","h","0","0","0","0","72","0","72","0","72","72","0","0","72","72","72","72","Sun Sep 20 18:42:08 2020","1500","The main experiment item","yes","FlankerTask.osexp","/Users/shelia/Desktop","no","mono","no","18","no","white","no","no","768","legacy","72","72","/Users/shelia/Desktop/ST-subject-1.csv","legacy","Lentiform Loewenfeld","3.3.3","0","h","NA","NA","s","h","h","NA","h","576","NA","NA","5104","3413","13411","NA","576","2","legacy","1024","2","48000","-16","experiment","HHHHH","0","even","15398","NA","NA","NA","193044","NA","179433","1819","184674","194235","1976","NA","194481","195058","194101","194481","Flanker Task","72","57059","73","yes","1024"
"98.64864864864865","98.64864864864865","782.1891891891892","782.1891891891892","black","legacy","legacy","legacy","0","congruent","uniform","1","undefined","1","h","0","0","0","0","73","0","73","0","73","73","0","0","73","73","73","73","Sun Sep 20 18:42:08 2020","1500","The main experiment item","yes","FlankerTask.osexp","/Users/shelia/Desktop","no","mono","no","18","no","white","no","no","768","legacy","73","73","/Users/shelia/Desktop/ST-subject-1.csv","legacy","Lentiform Loewenfeld","3.3.3","0","h","NA","NA","s","h","h","NA","h","823","NA","NA","5104","3413","13411","NA","823","2","legacy","1024","2","48000","-16","experiment","HHHHH","0","even","15398","NA","NA","NA","195195","NA","179433","1819","184674","196387","1976","NA","196627","197452","196252","196627","Flanker Task","73","57882","74","yes","1024"
"98.66666666666667","98.66666666666667","781","781","black","legacy","legacy","legacy","0","incongruent","uniform","1","undefined","1","h","0","0","0","0","74","0","74","0","74","74","0","0","74","74","74","74","Sun Sep 20 18:42:08 2020","1500","The main experiment item","yes","FlankerTask.osexp","/Users/shelia/Desktop","no","mono","no","18","no","white","no","no","768","legacy","74","74","/Users/shelia/Desktop/ST-subject-1.csv","legacy","Lentiform Loewenfeld","3.3.3","0","h","NA","NA","s","h","h","NA","h","693","NA","NA","5104","3413","13411","NA","693","2","legacy","1024","2","48000","-16","experiment","SSHSS","0","even","15398","NA","NA","NA","197591","NA","179433","1819","184674","198782","1976","NA","199027","199722","198647","199027","Flanker Task","74","58575","75","yes","1024"
"98.6842105263158","98.6842105263158","777.2368421052631","777.2368421052631","black","legacy","legacy","legacy","0","congruent","uniform","1","undefined","1","h","0","0","0","0","75","0","75","0","75","75","0","0","75","75","75","75","Sun Sep 20 18:42:08 2020","1500","The main experiment item","yes","FlankerTask.osexp","/Users/shelia/Desktop","no","mono","no","18","no","white","no","no","768","legacy","75","75","/Users/shelia/Desktop/ST-subject-1.csv","legacy","Lentiform Loewenfeld","3.3.3","0","h","NA","NA","s","h","h","NA","h","495","NA","NA","5104","3413","13411","NA","495","2","legacy","1024","2","48000","-16","experiment","HHHHH","0","even","15398","NA","NA","NA","199859","NA","179433","1819","184674","201049","1976","NA","201295","201791","200916","201294","Flanker Task","75","59070","76","yes","1024"
"98.7012987012987","98.7012987012987","773.1688311688312","773.1688311688312","black","legacy","legacy","legacy","0","incongruent","uniform","1","undefined","1","h","0","0","0","0","76","0","76","0","76","76","0","0","76","76","76","76","Sun Sep 20 18:42:08 2020","1500","The main experiment item","yes","FlankerTask.osexp","/Users/shelia/Desktop","no","mono","no","18","no","white","no","no","768","legacy","76","76","/Users/shelia/Desktop/ST-subject-1.csv","legacy","Lentiform Loewenfeld","3.3.3","0","h","NA","NA","s","h","h","NA","h","464","NA","NA","5104","3413","13411","NA","464","2","legacy","1024","2","48000","-16","experiment","SSHSS","0","even","15398","NA","NA","NA","201929","NA","179433","1819","184674","203118","1976","NA","203363","203828","202982","203363","Flanker Task","76","59534","77","yes","1024"
"98.71794871794872","98.71794871794872","769.1923076923077","769.1923076923077","black","legacy","legacy","legacy","0","congruent","uniform","1","undefined","1","h","0","0","0","0","77","0","77","0","77","77","0","0","77","77","77","77","Sun Sep 20 18:42:08 2020","1500","The main experiment item","yes","FlankerTask.osexp","/Users/shelia/Desktop","no","mono","no","18","no","white","no","no","768","legacy","77","77","/Users/shelia/Desktop/ST-subject-1.csv","legacy","Lentiform Loewenfeld","3.3.3","0","h","NA","NA","s","h","h","NA","h","463","NA","NA","5104","3413","13411","NA","463","2","legacy","1024","2","48000","-16","experiment","HHHHH","0","even","15398","NA","NA","NA","203965","NA","179433","1819","184674","205156","1976","NA","205401","205865","205022","205401","Flanker Task","77","59997","78","yes","1024"
"98.73417721518987","98.73417721518987","764.9113924050633","764.9113924050633","black","legacy","legacy","legacy","0","congruent","uniform","1","undefined","1","h","0","0","0","0","78","0","78","0","78","78","0","0","78","78","78","78","Sun Sep 20 18:42:08 2020","1500","The main experiment item","yes","FlankerTask.osexp","/Users/shelia/Desktop","no","mono","no","18","no","white","no","no","768","legacy","78","78","/Users/shelia/Desktop/ST-subject-1.csv","legacy","Lentiform Loewenfeld","3.3.3","0","h","NA","NA","s","h","h","NA","h","431","NA","NA","5104","3413","13411","NA","431","2","legacy","1024","2","48000","-16","experiment","HHHHH","0","even","15398","NA","NA","NA","206002","NA","179433","1819","184674","207193","1976","NA","207438","207870","207059","207438","Flanker Task","78","60428","79","yes","1024"
"98.75","98.75","762.075","762.075","black","legacy","legacy","legacy","0","incogruent","uniform","1","undefined","1","s","0","0","0","0","79","0","79","0","79","79","0","0","79","79","79","79","Sun Sep 20 18:42:08 2020","1500","The main experiment item","yes","FlankerTask.osexp","/Users/shelia/Desktop","no","mono","no","18","no","white","no","no","768","legacy","79","79","/Users/shelia/Desktop/ST-subject-1.csv","legacy","Lentiform Loewenfeld","3.3.3","0","s","NA","NA","s","h","h","NA","s","538","NA","NA","5104","3413","13411","NA","538","2","legacy","1024","2","48000","-16","experiment","HHSHH","0","even","15398","NA","NA","NA","208007","NA","179433","1819","184674","209197","1976","NA","209442","209981","209063","209442","Flanker Task","79","60966","80","yes","1024"
"98.76543209876543","98.76543209876543","759.4320987654321","759.4320987654321","black","legacy","legacy","legacy","0","congruent","uniform","1","undefined","1","s","0","0","0","0","80","0","80","0","80","80","0","0","80","80","80","80","Sun Sep 20 18:42:08 2020","600","The main experiment item","yes","FlankerTask.osexp","/Users/shelia/Desktop","no","mono","no","18","no","white","no","no","768","legacy","0","79","/Users/shelia/Desktop/ST-subject-1.csv","legacy","Lentiform Loewenfeld","3.3.3","0","s","NA","h","s","h","h","NA","s","548","NA","7205","5104","3413","13411","NA","548","2","legacy","1024","2","48000","-16","experiment","SSSSS","0","even","15398","218490","NA","NA","210116","211284","179433","1819","184674","218655","1976","NA","218902","219451","218519","218902","Flanker Task","80","61514","81","yes","1024"
"98.78048780487805","98.78048780487805","758.9512195121952","758.9512195121952","black","legacy","legacy","legacy","0","incogruent","uniform","1","undefined","1","s","0","0","0","0","81","0","81","0","81","81","0","0","81","81","81","81","Sun Sep 20 18:42:08 2020","600","The main experiment item","yes","FlankerTask.osexp","/Users/shelia/Desktop","no","mono","no","18","no","white","no","no","768","legacy","1","79","/Users/shelia/Desktop/ST-subject-1.csv","legacy","Lentiform Loewenfeld","3.3.3","0","s","NA","h","s","h","h","NA","s","720","NA","7205","5104","3413","13411","NA","720","2","legacy","1024","2","48000","-16","experiment","HHSHH","0","even","15398","218490","NA","NA","219587","211284","179433","1819","184674","220777","1976","NA","221024","221746","220643","221024","Flanker Task","81","62234","82","yes","1024"
"98.79518072289157","98.79518072289157","757.2168674698795","757.2168674698795","black","legacy","legacy","legacy","0","incongruent","uniform","1","undefined","1","h","0","0","0","0","82","0","82","0","82","82","0","0","82","82","82","82","Sun Sep 20 18:42:08 2020","600","The main experiment item","yes","FlankerTask.osexp","/Users/shelia/Desktop","no","mono","no","18","no","white","no","no","768","legacy","2","79","/Users/shelia/Desktop/ST-subject-1.csv","legacy","Lentiform Loewenfeld","3.3.3","0","h","NA","h","s","s","h","NA","h","615","NA","7205","5104","4304","13411","NA","615","2","legacy","1024","2","48000","-16","experiment","SSHSS","0","even","15398","218490","NA","NA","226325","211284","179433","1819","221884","227516","1976","NA","227761","228378","227382","227761","Flanker Task","82","62849","83","yes","1024"
"98.80952380952381","98.80952380952381","754.5119047619048","754.5119047619048","black","legacy","legacy","legacy","0","congruent","uniform","1","undefined","1","h","0","0","0","0","83","0","83","0","83","83","0","0","83","83","83","83","Sun Sep 20 18:42:08 2020","600","The main experiment item","yes","FlankerTask.osexp","/Users/shelia/Desktop","no","mono","no","18","no","white","no","no","768","legacy","3","79","/Users/shelia/Desktop/ST-subject-1.csv","legacy","Lentiform Loewenfeld","3.3.3","0","h","NA","h","s","h","h","NA","h","530","NA","7205","5104","3012","13411","NA","530","2","legacy","1024","2","48000","-16","experiment","HHHHH","0","even","15398","218490","NA","NA","231662","211284","179433","1819","228514","232855","1976","NA","233099","233630","232719","233099","Flanker Task","83","63379","84","yes","1024"
"98.82352941176471","98.82352941176471","751.9294117647058","751.9294117647058","black","legacy","legacy","legacy","0","incogruent","uniform","1","undefined","1","s","0","0","0","0","84","0","84","0","84","84","0","0","84","84","84","84","Sun Sep 20 18:42:08 2020","600","The main experiment item","yes","FlankerTask.osexp","/Users/shelia/Desktop","no","mono","no","18","no","white","no","no","768","legacy","4","79","/Users/shelia/Desktop/ST-subject-1.csv","legacy","Lentiform Loewenfeld","3.3.3","0","s","NA","h","s","h","h","NA","s","535","NA","7205","5104","3012","13411","NA","535","2","legacy","1024","2","48000","-16","experiment","HHSHH","0","even","15398","218490","NA","NA","233766","211284","179433","1819","228514","234957","1976","NA","235202","235738","234821","235202","Flanker Task","84","63914","85","yes","1024"
"97.67441860465117","97.67441860465117","749.046511627907","749.046511627907","black","legacy","legacy","legacy","0","incongruent","uniform","0","undefined","0","h","0","0","0","0","85","0","85","0","85","85","0","0","85","85","85","85","Sun Sep 20 18:42:08 2020","600","The main experiment item","yes","FlankerTask.osexp","/Users/shelia/Desktop","no","mono","no","18","no","white","no","no","768","legacy","5","79","/Users/shelia/Desktop/ST-subject-1.csv","legacy","Lentiform Loewenfeld","3.3.3","0","s","NA","h","s","h","h","NA","s","504","NA","7205","5104","3012","13411","NA","504","2","legacy","1024","2","48000","-16","experiment","SSHSS","0","even","15398","218490","NA","NA","235874","211284","179433","1819","228514","237065","1976","NA","237312","237817","236932","237312","Flanker Task","84","64418","86","yes","1024"
"97.70114942528735","97.70114942528735","746.5057471264367","746.5057471264367","black","legacy","legacy","legacy","0","congruent","uniform","1","undefined","1","h","0","0","0","0","86","0","86","0","86","86","0","0","86","86","86","86","Sun Sep 20 18:42:08 2020","600","The main experiment item","yes","FlankerTask.osexp","/Users/shelia/Desktop","no","mono","no","18","no","white","no","no","768","legacy","6","79","/Users/shelia/Desktop/ST-subject-1.csv","legacy","Lentiform Loewenfeld","3.3.3","0","h","NA","h","s","s","h","NA","h","528","NA","7205","1629","1032","13411","NA","528","2","legacy","1024","2","48000","-16","experiment","HHHHH","0","even","15398","218490","NA","NA","240890","211284","237954","1819","239720","242080","1976","NA","242324","242854","241947","242324","Flanker Task","85","64946","87","yes","1024"
"96.5909090909091","96.5909090909091","742.8068181818181","742.8068181818181","black","legacy","legacy","legacy","0","incongruent","uniform","0","undefined","0","h","0","0","0","0","87","0","87","0","87","87","0","0","87","87","87","87","Sun Sep 20 18:42:08 2020","600","The main experiment item","yes","FlankerTask.osexp","/Users/shelia/Desktop","no","mono","no","18","no","white","no","no","768","legacy","7","79","/Users/shelia/Desktop/ST-subject-1.csv","legacy","Lentiform Loewenfeld","3.3.3","0","s","NA","h","s","s","h","NA","s","421","NA","7205","1629","1032","13411","NA","421","2","legacy","1024","2","48000","-16","experiment","SSHSS","0","even","15398","218490","NA","NA","242991","211284","237954","1819","239720","244181","1976","NA","244432","244855","244046","244432","Flanker Task","85","65367","88","yes","1024"
"96.62921348314607","96.62921348314607","741.561797752809","741.561797752809","black","legacy","legacy","legacy","0","incogruent","uniform","1","undefined","1","s","0","0","0","0","88","0","88","0","88","88","0","0","88","88","88","88","Sun Sep 20 18:42:08 2020","600","The main experiment item","yes","FlankerTask.osexp","/Users/shelia/Desktop","no","mono","no","18","no","white","no","no","768","legacy","8","79","/Users/shelia/Desktop/ST-subject-1.csv","legacy","Lentiform Loewenfeld","3.3.3","0","s","NA","h","h","h","h","NA","s","632","NA","7205","696","670","13411","NA","632","2","legacy","1024","2","48000","-16","experiment","HHSHH","0","even","15398","218490","NA","NA","246631","211284","244992","1819","245824","247821","1976","NA","248067","248700","247687","248066","Flanker Task","86","65999","89","yes","1024"
"96.66666666666667","96.66666666666667","740.9111111111112","740.9111111111112","black","legacy","legacy","legacy","0","incogruent","uniform","1","undefined","1","s","0","0","0","0","89","0","89","0","89","89","0","0","89","89","89","89","Sun Sep 20 18:42:08 2020","600","The main experiment item","yes","FlankerTask.osexp","/Users/shelia/Desktop","no","mono","no","18","no","white","no","no","768","legacy","9","79","/Users/shelia/Desktop/ST-subject-1.csv","legacy","Lentiform Loewenfeld","3.3.3","0","s","NA","h","h","s","h","NA","s","683","NA","7205","696","3825","13411","NA","683","2","legacy","1024","2","48000","-16","experiment","HHSHH","0","even","15398","218490","NA","NA","252797","211284","244992","1819","248837","253989","1976","NA","254231","254916","253852","254231","Flanker Task","87","66682","90","yes","1024"
"96.7032967032967","96.7032967032967","740.4065934065934","740.4065934065934","black","legacy","legacy","legacy","0","incongruent","uniform","1","undefined","1","h","0","0","0","0","90","0","90","0","90","90","0","0","90","90","90","90","Sun Sep 20 18:42:08 2020","600","The main experiment item","yes","FlankerTask.osexp","/Users/shelia/Desktop","no","mono","no","18","no","white","no","no","768","legacy","10","79","/Users/shelia/Desktop/ST-subject-1.csv","legacy","Lentiform Loewenfeld","3.3.3","0","h","NA","h","h","s","h","NA","h","695","NA","7205","696","2476","13411","NA","695","2","legacy","1024","2","48000","-16","experiment","SSHSS","0","even","15398","218490","NA","NA","257662","211284","244992","1819","255051","258859","1976","NA","259104","259800","258722","259104","Flanker Task","88","67377","91","yes","1024"
"96.73913043478261","96.73913043478261","737.6739130434783","737.6739130434783","black","legacy","legacy","legacy","0","incongruent","uniform","1","undefined","1","h","0","0","0","0","91","0","91","0","91","91","0","0","91","91","91","91","Sun Sep 20 18:42:08 2020","600","The main experiment item","yes","FlankerTask.osexp","/Users/shelia/Desktop","no","mono","no","18","no","white","no","no","768","legacy","11","79","/Users/shelia/Desktop/ST-subject-1.csv","legacy","Lentiform Loewenfeld","3.3.3","0","h","NA","h","h","h","h","NA","h","489","NA","7205","696","865","13411","NA","489","2","legacy","1024","2","48000","-16","experiment","SSHSS","0","even","15398","218490","NA","NA","260944","211284","244992","1819","259938","262136","1976","NA","262382","262872","262000","262381","Flanker Task","89","67866","92","yes","1024"
"96.7741935483871","96.7741935483871","735","735","black","legacy","legacy","legacy","0","congruent","uniform","1","undefined","1","h","0","0","0","0","92","0","92","0","92","92","0","0","92","92","92","92","Sun Sep 20 18:42:08 2020","600","The main experiment item","yes","FlankerTask.osexp","/Users/shelia/Desktop","no","mono","no","18","no","white","no","no","768","legacy","12","79","/Users/shelia/Desktop/ST-subject-1.csv","legacy","Lentiform Loewenfeld","3.3.3","0","h","NA","h","h","h","h","NA","h","489","NA","7205","696","865","13411","NA","489","2","legacy","1024","2","48000","-16","experiment","HHHHH","0","even","15398","218490","NA","NA","263009","211284","244992","1819","259938","264201","1976","NA","264446","264936","264066","264446","Flanker Task","90","68355","93","yes","1024"
"96.80851063829788","96.80851063829788","732.6063829787234","732.6063829787234","black","legacy","legacy","legacy","0","congruent","uniform","1","undefined","1","s","0","0","0","0","93","0","93","0","93","93","0","0","93","93","93","93","Sun Sep 20 18:42:08 2020","600","The main experiment item","yes","FlankerTask.osexp","/Users/shelia/Desktop","no","mono","no","18","no","white","no","no","768","legacy","13","79","/Users/shelia/Desktop/ST-subject-1.csv","legacy","Lentiform Loewenfeld","3.3.3","0","s","NA","h","h","h","h","NA","s","510","NA","7205","696","865","13411","NA","510","2","legacy","1024","2","48000","-16","experiment","SSSSS","0","even","15398","218490","NA","NA","265071","211284","244992","1819","259938","266263","1976","NA","266508","267019","266129","266508","Flanker Task","91","68865","94","yes","1024"
"96.84210526315789","96.84210526315789","729.4631578947368","729.4631578947368","black","legacy","legacy","legacy","0","congruent","uniform","1","undefined","1","s","0","0","0","0","94","0","94","0","94","94","0","0","94","94","94","94","Sun Sep 20 18:42:08 2020","600","The main experiment item","yes","FlankerTask.osexp","/Users/shelia/Desktop","no","mono","no","18","no","white","no","no","768","legacy","14","79","/Users/shelia/Desktop/ST-subject-1.csv","legacy","Lentiform Loewenfeld","3.3.3","0","s","NA","h","h","h","h","NA","s","434","NA","7205","696","865","13411","NA","434","2","legacy","1024","2","48000","-16","experiment","SSSSS","0","even","15398","218490","NA","NA","267157","211284","244992","1819","259938","268348","1976","NA","268593","269028","268214","268593","Flanker Task","92","69299","95","yes","1024"
"96.875","96.875","726.15625","726.15625","black","legacy","legacy","legacy","0","congruent","uniform","1","undefined","1","h","0","0","0","0","95","0","95","0","95","95","0","0","95","95","95","95","Sun Sep 20 18:42:08 2020","600","The main experiment item","yes","FlankerTask.osexp","/Users/shelia/Desktop","no","mono","no","18","no","white","no","no","768","legacy","15","79","/Users/shelia/Desktop/ST-subject-1.csv","legacy","Lentiform Loewenfeld","3.3.3","0","h","NA","h","h","h","h","NA","h","412","NA","7205","696","865","13411","NA","412","2","legacy","1024","2","48000","-16","experiment","HHHHH","0","even","15398","218490","NA","NA","269166","211284","244992","1819","259938","270358","1976","NA","270603","271016","270223","270603","Flanker Task","93","69711","96","yes","1024"
"96.90721649484536","96.90721649484536","728.6288659793814","728.6288659793814","black","legacy","legacy","legacy","0","incogruent","uniform","1","undefined","1","s","0","0","0","0","96","0","96","0","96","96","0","0","96","96","96","96","Sun Sep 20 18:42:08 2020","600","The main experiment item","yes","FlankerTask.osexp","/Users/shelia/Desktop","no","mono","no","18","no","white","no","no","768","legacy","16","79","/Users/shelia/Desktop/ST-subject-1.csv","legacy","Lentiform Loewenfeld","3.3.3","0","s","NA","h","h","h","h","NA","s","966","NA","7205","696","865","13411","NA","966","2","legacy","1024","2","48000","-16","experiment","HHSHH","0","even","15398","218490","NA","NA","271153","211284","244992","1819","259938","272345","1976","NA","272591","273558","272208","272591","Flanker Task","94","70677","97","yes","1024"
"96.93877551020408","96.93877551020408","726.8265306122449","726.8265306122449","black","legacy","legacy","legacy","0","congruent","uniform","1","undefined","1","h","0","0","0","0","97","0","97","0","97","97","0","0","97","97","97","97","Sun Sep 20 18:42:08 2020","600","The main experiment item","yes","FlankerTask.osexp","/Users/shelia/Desktop","no","mono","no","18","no","white","no","no","768","legacy","17","79","/Users/shelia/Desktop/ST-subject-1.csv","legacy","Lentiform Loewenfeld","3.3.3","0","h","NA","h","h","h","h","NA","h","552","NA","7205","696","3605","13411","NA","552","2","legacy","1024","2","48000","-16","experiment","HHHHH","0","even","15398","218490","NA","NA","277436","211284","244992","1819","273695","278624","1976","NA","278869","279422","278490","278869","Flanker Task","95","71229","98","yes","1024"
"96.96969696969697","96.96969696969697","724.0909090909091","724.0909090909091","black","legacy","legacy","legacy","0","congruent","uniform","1","undefined","1","s","0","0","0","0","98","0","98","0","98","98","0","0","98","98","98","98","Sun Sep 20 18:42:08 2020","600","The main experiment item","yes","FlankerTask.osexp","/Users/shelia/Desktop","no","mono","no","18","no","white","no","no","768","legacy","18","79","/Users/shelia/Desktop/ST-subject-1.csv","legacy","Lentiform Loewenfeld","3.3.3","0","s","NA","h","h","h","h","NA","s","456","NA","7205","696","3605","13411","NA","456","2","legacy","1024","2","48000","-16","experiment","SSSSS","0","even","15398","218490","NA","NA","279558","211284","244992","1819","273695","280747","1976","NA","280993","281451","280613","280993","Flanker Task","96","71685","99","yes","1024"
"97","97","721.37","721.37","black","legacy","legacy","legacy","0","congruent","uniform","1","undefined","1","s","0","0","0","0","99","0","99","0","99","99","0","0","99","99","99","99","Sun Sep 20 18:42:08 2020","600","The main experiment item","yes","FlankerTask.osexp","/Users/shelia/Desktop","no","mono","no","18","no","white","no","no","768","legacy","19","79","/Users/shelia/Desktop/ST-subject-1.csv","legacy","Lentiform Loewenfeld","3.3.3","0","s","NA","h","h","h","h","NA","s","452","NA","7205","696","3605","13411","NA","452","2","legacy","1024","2","48000","-16","experiment","SSSSS","0","even","15398","218490","NA","NA","281587","211284","244992","1819","273695","282777","1976","NA","283021","283474","282643","283021","Flanker Task","97","72137","100","yes","1024"
"97.02970297029702","97.02970297029702","720","720","black","legacy","legacy","legacy","0","incongruent","uniform","1","undefined","1","h","0","0","0","0","100","0","100","0","100","100","0","0","100","100","100","100","Sun Sep 20 18:42:08 2020","600","The main experiment item","yes","FlankerTask.osexp","/Users/shelia/Desktop","no","mono","no","18","no","white","no","no","768","legacy","20","79","/Users/shelia/Desktop/ST-subject-1.csv","legacy","Lentiform Loewenfeld","3.3.3","0","h","NA","h","h","h","h","NA","h","583","NA","7205","696","3605","13411","NA","583","2","legacy","1024","2","48000","-16","experiment","SSHSS","0","even","15398","218490","NA","NA","283610","211284","244992","1819","273695","284802","1976","NA","285047","285631","284667","285047","Flanker Task","98","72720","101","yes","1024"
"97.05882352941177","97.05882352941177","717.7941176470588","717.7941176470588","black","legacy","legacy","legacy","0","congruent","uniform","1","undefined","1","h","0","0","0","0","101","0","101","0","101","101","0","0","101","101","101","101","Sun Sep 20 18:42:08 2020","600","The main experiment item","yes","FlankerTask.osexp","/Users/shelia/Desktop","no","mono","no","18","no","white","no","no","768","legacy","21","79","/Users/shelia/Desktop/ST-subject-1.csv","legacy","Lentiform Loewenfeld","3.3.3","0","h","NA","h","h","h","h","NA","h","495","NA","7205","696","3605","13411","NA","495","2","legacy","1024","2","48000","-16","experiment","HHHHH","0","even","15398","218490","NA","NA","285768","211284","244992","1819","273695","286960","1976","NA","287204","287700","286825","287204","Flanker Task","99","73215","102","yes","1024"
"97.0873786407767","97.0873786407767","715.1262135922331","715.1262135922331","black","legacy","legacy","legacy","0","congruent","uniform","1","undefined","1","h","0","0","0","0","102","0","102","0","102","102","0","0","102","102","102","102","Sun Sep 20 18:42:08 2020","600","The main experiment item","yes","FlankerTask.osexp","/Users/shelia/Desktop","no","mono","no","18","no","white","no","no","768","legacy","22","79","/Users/shelia/Desktop/ST-subject-1.csv","legacy","Lentiform Loewenfeld","3.3.3","0","h","NA","h","h","h","h","NA","h","443","NA","7205","696","3605","13411","NA","443","2","legacy","1024","2","48000","-16","experiment","HHHHH","0","even","15398","218490","NA","NA","287837","211284","244992","1819","273695","289026","1976","NA","289271","289715","288893","289271","Flanker Task","100","73658","103","yes","1024"
"97.11538461538461","97.11538461538461","712.2307692307693","712.2307692307693","black","legacy","legacy","legacy","0","congruent","uniform","1","undefined","1","s","0","0","0","0","103","0","103","0","103","103","0","0","103","103","103","103","Sun Sep 20 18:42:08 2020","600","The main experiment item","yes","FlankerTask.osexp","/Users/shelia/Desktop","no","mono","no","18","no","white","no","no","768","legacy","23","79","/Users/shelia/Desktop/ST-subject-1.csv","legacy","Lentiform Loewenfeld","3.3.3","0","s","NA","h","h","h","h","NA","s","414","NA","7205","696","3605","13411","NA","414","2","legacy","1024","2","48000","-16","experiment","SSSSS","0","even","15398","218490","NA","NA","289854","211284","244992","1819","273695","291045","1976","NA","291290","291705","290912","291290","Flanker Task","101","74072","104","yes","1024"
"97.14285714285714","97.14285714285714","709.8857142857142","709.8857142857142","black","legacy","legacy","legacy","0","congruent","uniform","1","undefined","1","h","0","0","0","0","104","0","104","0","104","104","0","0","104","104","104","104","Sun Sep 20 18:42:08 2020","600","The main experiment item","yes","FlankerTask.osexp","/Users/shelia/Desktop","no","mono","no","18","no","white","no","no","768","legacy","24","79","/Users/shelia/Desktop/ST-subject-1.csv","legacy","Lentiform Loewenfeld","3.3.3","0","h","NA","h","h","h","h","NA","h","466","NA","7205","696","3605","13411","NA","466","2","legacy","1024","2","48000","-16","experiment","HHHHH","0","even","15398","218490","NA","NA","291849","211284","244992","1819","273695","293041","1976","NA","293285","293753","292908","293285","Flanker Task","102","74538","105","yes","1024"
"97.16981132075472","97.16981132075472","707.9528301886793","707.9528301886793","black","legacy","legacy","legacy","0","incogruent","uniform","1","undefined","1","s","0","0","0","0","105","0","105","0","105","105","0","0","105","105","105","105","Sun Sep 20 18:42:08 2020","600","The main experiment item","yes","FlankerTask.osexp","/Users/shelia/Desktop","no","mono","no","18","no","white","no","no","768","legacy","25","79","/Users/shelia/Desktop/ST-subject-1.csv","legacy","Lentiform Loewenfeld","3.3.3","0","s","NA","h","h","h","h","NA","s","505","NA","7205","696","3605","13411","NA","505","2","legacy","1024","2","48000","-16","experiment","HHSHH","0","even","15398","218490","NA","NA","293891","211284","244992","1819","273695","295080","1976","NA","295325","295831","294946","295325","Flanker Task","103","75043","106","yes","1024"
"97.19626168224299","97.19626168224299","706.0280373831775","706.0280373831775","black","legacy","legacy","legacy","0","congruent","uniform","1","undefined","1","h","0","0","0","0","106","0","106","0","106","106","0","0","106","106","106","106","Sun Sep 20 18:42:08 2020","600","The main experiment item","yes","FlankerTask.osexp","/Users/shelia/Desktop","no","mono","no","18","no","white","no","no","768","legacy","26","79","/Users/shelia/Desktop/ST-subject-1.csv","legacy","Lentiform Loewenfeld","3.3.3","0","h","NA","h","h","h","h","NA","h","502","NA","7205","696","3605","13411","NA","502","2","legacy","1024","2","48000","-16","experiment","HHHHH","0","even","15398","218490","NA","NA","295969","211284","244992","1819","273695","297158","1976","NA","297403","297906","297024","297403","Flanker Task","104","75545","107","yes","1024"
"97.22222222222223","97.22222222222223","704.9351851851852","704.9351851851852","black","legacy","legacy","legacy","0","incogruent","uniform","1","undefined","1","s","0","0","0","0","107","0","107","0","107","107","0","0","107","107","107","107","Sun Sep 20 18:42:08 2020","600","The main experiment item","yes","FlankerTask.osexp","/Users/shelia/Desktop","no","mono","no","18","no","white","no","no","768","legacy","27","79","/Users/shelia/Desktop/ST-subject-1.csv","legacy","Lentiform Loewenfeld","3.3.3","0","s","NA","h","h","h","h","NA","s","588","NA","7205","696","3605","13411","NA","588","2","legacy","1024","2","48000","-16","experiment","HHSHH","0","even","15398","218490","NA","NA","298041","211284","244992","1819","273695","299231","1976","NA","299476","300065","299097","299476","Flanker Task","105","76133","108","yes","1024"
"96.3302752293578","96.3302752293578","702.2385321100918","702.2385321100918","black","legacy","legacy","legacy","0","incongruent","uniform","0","undefined","0","h","0","0","0","0","108","0","108","0","108","108","0","0","108","108","108","108","Sun Sep 20 18:42:08 2020","600","The main experiment item","yes","FlankerTask.osexp","/Users/shelia/Desktop","no","mono","no","18","no","white","no","no","768","legacy","28","79","/Users/shelia/Desktop/ST-subject-1.csv","legacy","Lentiform Loewenfeld","3.3.3","0","s","NA","h","h","h","h","NA","s","411","NA","7205","696","3605","13411","NA","411","2","legacy","1024","2","48000","-16","experiment","SSHSS","0","even","15398","218490","NA","NA","300202","211284","244992","1819","273695","301391","1976","NA","301637","302049","301257","301637","Flanker Task","105","76544","109","yes","1024"
"96.36363636363636","96.36363636363636","702.290909090909","702.290909090909","black","legacy","legacy","legacy","0","incongruent","uniform","1","undefined","1","h","0","0","0","0","109","0","109","0","109","109","0","0","109","109","109","109","Sun Sep 20 18:42:08 2020","600","The main experiment item","yes","FlankerTask.osexp","/Users/shelia/Desktop","no","mono","no","18","no","white","no","no","768","legacy","29","79","/Users/shelia/Desktop/ST-subject-1.csv","legacy","Lentiform Loewenfeld","3.3.3","0","h","NA","h","h","h","h","NA","h","708","NA","7205","917","551","13411","NA","708","2","legacy","1024","2","48000","-16","experiment","SSHSS","0","even","15398","218490","NA","NA","303930","211284","302188","1819","303241","305118","1976","NA","305363","306073","304984","305363","Flanker Task","106","77252","110","yes","1024"
"96.3963963963964","96.3963963963964","700.3333333333334","700.3333333333334","black","legacy","legacy","legacy","0","congruent","uniform","1","undefined","1","s","0","0","0","0","110","0","110","0","110","110","0","0","110","110","110","110","Sun Sep 20 18:42:08 2020","600","The main experiment item","yes","FlankerTask.osexp","/Users/shelia/Desktop","no","mono","no","18","no","white","no","no","768","legacy","30","79","/Users/shelia/Desktop/ST-subject-1.csv","legacy","Lentiform Loewenfeld","3.3.3","0","s","NA","h","h","h","h","NA","s","485","NA","7205","917","1375","13411","NA","485","2","legacy","1024","2","48000","-16","experiment","SSSSS","0","even","15398","218490","NA","NA","307721","211284","302188","1819","306209","308907","1976","NA","309151","309637","308771","309151","Flanker Task","107","77737","111","yes","1024"
"96.42857142857143","96.42857142857143","699.2678571428571","699.2678571428571","black","legacy","legacy","legacy","0","incongruent","uniform","1","undefined","1","h","0","0","0","0","111","0","111","0","111","111","0","0","111","111","111","111","Sun Sep 20 18:42:08 2020","600","The main experiment item","yes","FlankerTask.osexp","/Users/shelia/Desktop","no","mono","no","18","no","white","no","no","768","legacy","31","79","/Users/shelia/Desktop/ST-subject-1.csv","legacy","Lentiform Loewenfeld","3.3.3","0","h","NA","h","h","h","h","NA","h","581","NA","7205","917","1375","13411","NA","581","2","legacy","1024","2","48000","-16","experiment","SSHSS","0","even","15398","218490","NA","NA","309775","211284","302188","1819","306209","310965","1976","NA","311209","311791","310829","311209","Flanker Task","108","78318","112","yes","1024"
"95.57522123893806","95.57522123893806","697.0353982300885","697.0353982300885","black","legacy","legacy","legacy","0","incogruent","uniform","0","undefined","0","s","0","0","0","0","112","0","112","0","112","112","0","0","112","112","112","112","Sun Sep 20 18:42:08 2020","600","The main experiment item","yes","FlankerTask.osexp","/Users/shelia/Desktop","no","mono","no","18","no","white","no","no","768","legacy","32","79","/Users/shelia/Desktop/ST-subject-1.csv","legacy","Lentiform Loewenfeld","3.3.3","0","h","NA","h","h","h","h","NA","h","447","NA","7205","917","1375","13411","NA","447","2","legacy","1024","2","48000","-16","experiment","HHSHH","0","even","15398","218490","NA","NA","311929","211284","302188","1819","306209","313120","1976","NA","313365","313814","312987","313365","Flanker Task","108","78765","113","yes","1024"
"95.6140350877193","95.6140350877193","696.5438596491229","696.5438596491229","black","legacy","legacy","legacy","0","incongruent","uniform","1","undefined","1","h","0","0","0","0","113","0","113","0","113","113","0","0","113","113","113","113","Sun Sep 20 18:42:08 2020","600","The main experiment item","yes","FlankerTask.osexp","/Users/shelia/Desktop","no","mono","no","18","no","white","no","no","768","legacy","33","79","/Users/shelia/Desktop/ST-subject-1.csv","legacy","Lentiform Loewenfeld","3.3.3","0","h","NA","h","h","h","h","NA","h","641","NA","7205","568","1375","13411","NA","641","2","legacy","1024","2","48000","-16","experiment","SSHSS","0","even","15398","218490","NA","NA","314655","211284","313951","1819","306209","315846","1976","NA","316091","316733","315711","316091","Flanker Task","109","79406","114","yes","1024"
"95.65217391304348","95.65217391304348","695.3826086956522","695.3826086956522","black","legacy","legacy","legacy","0","congruent","uniform","1","undefined","1","s","0","0","0","0","114","0","114","0","114","114","0","0","114","114","114","114","Sun Sep 20 18:42:08 2020","600","The main experiment item","yes","FlankerTask.osexp","/Users/shelia/Desktop","no","mono","no","18","no","white","no","no","768","legacy","34","79","/Users/shelia/Desktop/ST-subject-1.csv","legacy","Lentiform Loewenfeld","3.3.3","0","s","NA","h","h","h","h","NA","s","563","NA","7205","568","983","13411","NA","563","2","legacy","1024","2","48000","-16","experiment","SSSSS","0","even","15398","218490","NA","NA","317994","211284","313951","1819","316871","319184","1976","NA","319429","319993","319048","319429","Flanker Task","110","79969","115","yes","1024"
"95.6896551724138","95.6896551724138","694.75","694.75","black","legacy","legacy","legacy","0","incongruent","uniform","1","undefined","1","h","0","0","0","0","115","0","115","0","115","115","0","0","115","115","115","115","Sun Sep 20 18:42:08 2020","600","The main experiment item","yes","FlankerTask.osexp","/Users/shelia/Desktop","no","mono","no","18","no","white","no","no","768","legacy","35","79","/Users/shelia/Desktop/ST-subject-1.csv","legacy","Lentiform Loewenfeld","3.3.3","0","h","NA","h","h","h","h","NA","h","622","NA","7205","568","983","13411","NA","622","2","legacy","1024","2","48000","-16","experiment","SSHSS","0","even","15398","218490","NA","NA","320128","211284","313951","1819","316871","321319","1976","NA","321563","322187","321185","321563","Flanker Task","111","80591","116","yes","1024"
"95.72649572649573","95.72649572649573","694.2393162393163","694.2393162393163","black","legacy","legacy","legacy","0","incongruent","uniform","1","undefined","1","h","0","0","0","0","116","0","116","0","116","116","0","0","116","116","116","116","Sun Sep 20 18:42:08 2020","600","The main experiment item","yes","FlankerTask.osexp","/Users/shelia/Desktop","no","mono","no","18","no","white","no","no","768","legacy","36","79","/Users/shelia/Desktop/ST-subject-1.csv","legacy","Lentiform Loewenfeld","3.3.3","0","h","NA","h","h","h","h","NA","h","635","NA","7205","568","677","13411","NA","635","2","legacy","1024","2","48000","-16","experiment","SSHSS","0","even","15398","218490","NA","NA","323137","211284","313951","1819","322324","324329","1976","NA","324573","325210","324194","324573","Flanker Task","112","81226","117","yes","1024"
"95.76271186440678","95.76271186440678","693.4830508474577","693.4830508474577","black","legacy","legacy","legacy","0","incongruent","uniform","1","undefined","1","h","0","0","0","0","117","0","117","0","117","117","0","0","117","117","117","117","Sun Sep 20 18:42:08 2020","600","The main experiment item","yes","FlankerTask.osexp","/Users/shelia/Desktop","no","mono","no","18","no","white","no","no","768","legacy","37","79","/Users/shelia/Desktop/ST-subject-1.csv","legacy","Lentiform Loewenfeld","3.3.3","0","h","NA","h","h","h","h","NA","h","605","NA","7205","568","656","13411","NA","605","2","legacy","1024","2","48000","-16","experiment","SSHSS","0","even","15398","218490","NA","NA","326143","211284","313951","1819","325348","327333","1976","NA","327578","328185","327198","327578","Flanker Task","113","81831","118","yes","1024"
"95.7983193277311","95.7983193277311","692.0420168067227","692.0420168067227","black","legacy","legacy","legacy","0","incongruent","uniform","1","undefined","1","h","0","0","0","0","118","0","118","0","118","118","0","0","118","118","118","118","Sun Sep 20 18:42:08 2020","600","The main experiment item","yes","FlankerTask.osexp","/Users/shelia/Desktop","no","mono","no","18","no","white","no","no","768","legacy","38","79","/Users/shelia/Desktop/ST-subject-1.csv","legacy","Lentiform Loewenfeld","3.3.3","0","h","NA","h","h","h","h","NA","h","522","NA","7205","568","549","13411","NA","522","2","legacy","1024","2","48000","-16","experiment","SSHSS","0","even","15398","218490","NA","NA","329008","211284","313951","1819","328323","330199","1976","NA","330445","330968","330063","330445","Flanker Task","114","82353","119","yes","1024"
"95.83333333333333","95.83333333333333","690.725","690.725","black","legacy","legacy","legacy","0","congruent","uniform","1","undefined","1","h","0","0","0","0","119","0","119","0","119","119","0","0","119","119","119","119","Sun Sep 20 18:42:08 2020","600","The main experiment item","yes","FlankerTask.osexp","/Users/shelia/Desktop","no","mono","no","18","no","white","no","no","768","legacy","39","79","/Users/shelia/Desktop/ST-subject-1.csv","legacy","Lentiform Loewenfeld","3.3.3","0","h","NA","h","h","h","h","NA","h","534","NA","7205","568","549","13411","NA","534","2","legacy","1024","2","48000","-16","experiment","HHHHH","0","even","15398","218490","NA","NA","331107","211284","313951","1819","328323","332308","1976","NA","332553","333088","332172","332553","Flanker Task","115","82887","120","yes","1024"
"95.86776859504133","95.86776859504133","689.9173553719008","689.9173553719008","black","legacy","legacy","legacy","0","incogruent","uniform","1","undefined","1","s","0","0","0","0","120","0","120","0","120","120","0","0","120","120","120","120","Sun Sep 20 18:42:08 2020","600","The main experiment item","yes","FlankerTask.osexp","/Users/shelia/Desktop","no","mono","no","18","no","white","no","no","768","legacy","40","79","/Users/shelia/Desktop/ST-subject-1.csv","legacy","Lentiform Loewenfeld","3.3.3","0","s","NA","h","h","h","h","NA","s","593","NA","7205","568","549","13411","NA","593","2","legacy","1024","2","48000","-16","experiment","HHSHH","0","even","15398","218490","NA","NA","333228","211284","313951","1819","328323","334417","1976","NA","334662","335256","334283","334662","Flanker Task","116","83480","121","yes","1024"
"95.90163934426229","95.90163934426229","688.0901639344262","688.0901639344262","black","legacy","legacy","legacy","0","congruent","uniform","1","undefined","1","h","0","0","0","0","121","0","121","0","121","121","0","0","121","121","121","121","Sun Sep 20 18:42:08 2020","600","The main experiment item","yes","FlankerTask.osexp","/Users/shelia/Desktop","no","mono","no","18","no","white","no","no","768","legacy","41","79","/Users/shelia/Desktop/ST-subject-1.csv","legacy","Lentiform Loewenfeld","3.3.3","0","h","NA","h","h","h","h","NA","h","467","NA","7205","568","549","13411","NA","467","2","legacy","1024","2","48000","-16","experiment","HHHHH","0","even","15398","218490","NA","NA","335393","211284","313951","1819","328323","336585","1976","NA","336830","337299","336450","336830","Flanker Task","117","83947","122","yes","1024"
"95.9349593495935","95.9349593495935","686.569105691057","686.569105691057","black","legacy","legacy","legacy","0","congruent","uniform","1","undefined","1","s","0","0","0","0","122","0","122","0","122","122","0","0","122","122","122","122","Sun Sep 20 18:42:08 2020","600","The main experiment item","yes","FlankerTask.osexp","/Users/shelia/Desktop","no","mono","no","18","no","white","no","no","768","legacy","42","79","/Users/shelia/Desktop/ST-subject-1.csv","legacy","Lentiform Loewenfeld","3.3.3","0","s","NA","h","h","h","h","NA","s","501","NA","7205","568","549","13411","NA","501","2","legacy","1024","2","48000","-16","experiment","SSSSS","0","even","15398","218490","NA","NA","337436","211284","313951","1819","328323","338624","1976","NA","338869","339371","338491","338869","Flanker Task","118","84448","123","yes","1024"
