"acc","accuracy","average_response_time","avg_rt","background","canvas_backend","clock_backend","color_backend","compensation","condition","coordinates","correct","correct_instructions1","correct_keyboard_response","correct_response","count_ISI","count_block1","count_block2","count_block3","count_errorFeedback","count_experiment","count_faster","count_finish","count_fixation","count_instructions1","count_instructions2","count_instructions3","count_keyboard_response","count_logger","count_sequence","count_stimulus","datetime","deadline","description","disable_garbage_collection","experiment_file","experiment_path","font_bold","font_family","font_italic","font_size","font_underline","foreground","form_clicks","fullscreen","height","keyboard_backend","live_row","live_row_block1","logfile","mouse_backend","opensesame_codename","opensesame_version","repeat_cycle","response","response_finish","response_instructions1","response_instructions2","response_instructions3","response_keyboard_response","response_time","response_time_finish","response_time_instructions1","response_time_instructions2","response_time_instructions3","response_time_keyboard_response","round_decimals","sampler_backend","sound_buf_size","sound_channels","sound_freq","sound_sample_size","start","stimulus","subject_nr","subject_parity","time_ISI","time_block1","time_block2","time_block3","time_errorFeedback","time_experiment","time_faster","time_finish","time_fixation","time_instructions1","time_instructions2","time_instructions3","time_keyboard_response","time_logger","time_sequence","time_stimulus","title","total_correct","total_response_time","total_responses","uniform_coordinates","width"
"100","100","747.4862999997567","747.4862999997567","black","psycho","psycho","psycho","0","incongruent","uniform","1","undefined","1","s","0","0","0","0","0","0","0","0","0","0","0","0","0","0","0","0","Sat Sep 26 13:17:03 2020","1500","The main experiment item","yes","CS-FlankerTask2.1.osexp","C:/Users/Colton/OneDrive/Desktop","no","mono","no","18","no","white","no","yes","768","psycho","0","0","C:/Users/Colton/OneDrive/Desktop/CS-subject-2.csv","psycho","Lentiform Loewenfeld","3.3.3","0","s","NA","s","NA","NA","s","747.4862999997567","NA","140451.63619999948","NA","NA","747.4862999997567","2","psycho","1024","2","48000","-16","experiment","HHSHH","2","even","NA","174145.05469999948","NA","NA","NA","33493.66050000026","NA","NA","174567.13310000033","33687.77440000031","NA","NA","174676.74439999973","175426.75340000005","174552.14799999975","174676.32929999946","Flanker Task 2.1","1","747.4862999997567","1","yes","1024"
"100","100","597.593850000063","597.593850000063","black","psycho","psycho","psycho","0","congruent","uniform","1","undefined","1","s","1","0","0","0","1","0","1","0","1","0","0","0","1","1","1","1","Sat Sep 26 13:17:03 2020","1500","The main experiment item","yes","CS-FlankerTask2.1.osexp","C:/Users/Colton/OneDrive/Desktop","no","mono","no","18","no","white","no","yes","768","psycho","1","1","C:/Users/Colton/OneDrive/Desktop/CS-subject-2.csv","psycho","Lentiform Loewenfeld","3.3.3","0","s","NA","s","NA","NA","s","447.7014000003692","NA","140451.63619999948","NA","NA","447.7014000003692","2","psycho","1024","2","48000","-16","experiment","SSSSS","2","even","175540.03009999997","174145.05469999948","NA","NA","NA","33493.66050000026","NA","NA","176847.70130000016","33687.77440000031","NA","NA","176956.91949999947","177407.19979999994","176838.1271999997","176956.41859999977","Flanker Task 2.1","2","1195.187700000126","2","yes","1024"
"100","100","518.802933333364","518.802933333364","black","psycho","psycho","psycho","0","congruent","uniform","1","undefined","1","h","2","0","0","0","2","0","2","0","2","0","0","0","2","2","2","2","Sat Sep 26 13:17:03 2020","1500","The main experiment item","yes","CS-FlankerTask2.1.osexp","C:/Users/Colton/OneDrive/Desktop","no","mono","no","18","no","white","no","yes","768","psycho","2","2","C:/Users/Colton/OneDrive/Desktop/CS-subject-2.csv","psycho","Lentiform Loewenfeld","3.3.3","0","h","NA","s","NA","NA","h","361.2210999999661","NA","140451.63619999948","NA","NA","361.2210999999661","2","psycho","1024","2","48000","-16","experiment","HHHHH","2","even","177478.49580000003","174145.05469999948","NA","NA","NA","33493.66050000026","NA","NA","178828.41699999972","33687.77440000031","NA","NA","178938.94949999958","179302.26529999982","178815.9674999997","178938.4758999995","Flanker Task 2.1","3","1556.408800000092","3","yes","1024"
"100","100","467.83907500002533","467.83907500002533","black","psycho","psycho","psycho","0","congruent","uniform","1","undefined","1","h","3","0","0","0","3","0","3","0","3","0","0","0","3","3","3","3","Sat Sep 26 13:17:03 2020","1500","The main experiment item","yes","CS-FlankerTask2.1.osexp","C:/Users/Colton/OneDrive/Desktop","no","mono","no","18","no","white","no","yes","768","psycho","3","3","C:/Users/Colton/OneDrive/Desktop/CS-subject-2.csv","psycho","Lentiform Loewenfeld","3.3.3","0","h","NA","s","NA","NA","h","314.9475000000093","NA","140451.63619999948","NA","NA","314.9475000000093","2","psycho","1024","2","48000","-16","experiment","HHHHH","2","even","179371.5747999995","174145.05469999948","NA","NA","NA","33493.66050000026","NA","NA","180659.6400999997","33687.77440000031","NA","NA","180767.80469999995","181084.93550000002","180650.56809999986","180767.0374999998","Flanker Task 2.1","4","1871.3563000001013","4","yes","1024"
"80","80","453.47190000010886","453.47190000010886","black","psycho","psycho","psycho","0","incongruent","uniform","0","undefined","0","h","4","0","0","0","4","0","4","0","4","0","0","0","4","4","4","4","Sat Sep 26 13:17:03 2020","1500","The main experiment item","yes","CS-FlankerTask2.1.osexp","C:/Users/Colton/OneDrive/Desktop","no","mono","no","18","no","white","no","yes","768","psycho","4","4","C:/Users/Colton/OneDrive/Desktop/CS-subject-2.csv","psycho","Lentiform Loewenfeld","3.3.3","0","s","NA","s","NA","NA","s","396.00320000044303","NA","140451.63619999948","NA","NA","396.00320000044303","2","psycho","1024","2","48000","-16","experiment","SSHSS","2","even","181148.5485000003","174145.05469999948","NA","NA","NA","33493.66050000026","NA","NA","182456.23739999975","33687.77440000031","NA","NA","182564.6670999995","182963.63289999953","182446.8111999995","182563.74270000015","Flanker Task 2.1","4","2267.3595000005444","5","yes","1024"
"83.33333333333333","83.33333333333333","453.2288000000311","453.2288000000311","black","psycho","psycho","psycho","0","incongruent","uniform","1","undefined","1","h","5","0","0","0","5","0","5","0","5","0","0","0","5","5","5","5","Sat Sep 26 13:17:03 2020","1500","The main experiment item","yes","CS-FlankerTask2.1.osexp","C:/Users/Colton/OneDrive/Desktop","no","mono","no","18","no","white","no","yes","768","psycho","5","5","C:/Users/Colton/OneDrive/Desktop/CS-subject-2.csv","psycho","Lentiform Loewenfeld","3.3.3","0","h","NA","s","NA","NA","h","452.0132999996422","NA","140451.63619999948","NA","NA","452.0132999996422","2","psycho","1024","2","48000","-16","experiment","SSHSS","2","even","183524.6866999996","174145.05469999948","NA","NA","183008.31370000014","33493.66050000026","NA","NA","184885.30639999954","33687.77440000031","NA","NA","184995.16070000027","185449.79950000014","184873.37519999983","184994.64230000012","Flanker Task 2.1","5","2719.3728000001865","6","yes","1024"
"71.42857142857143","71.42857142857143","422.5567285715702","422.5567285715702","black","psycho","psycho","psycho","0","incongruent","uniform","0","undefined","0","s","6","0","0","0","6","0","6","0","6","0","0","0","6","6","6","6","Sat Sep 26 13:17:03 2020","1500","The main experiment item","yes","CS-FlankerTask2.1.osexp","C:/Users/Colton/OneDrive/Desktop","no","mono","no","18","no","white","no","yes","768","psycho","6","6","C:/Users/Colton/OneDrive/Desktop/CS-subject-2.csv","psycho","Lentiform Loewenfeld","3.3.3","0","h","NA","s","NA","NA","h","238.52430000080494","NA","140451.63619999948","NA","NA","238.52430000080494","2","psycho","1024","2","48000","-16","experiment","HHSHH","2","even","185529.26620000016","174145.05469999948","NA","NA","183008.31370000014","33493.66050000026","NA","NA","186837.08819999994","33687.77440000031","NA","NA","186947.69649999944","187188.6814999998","186825.56779999958","186947.19939999958","Flanker Task 2.1","5","2957.8971000009915","7","yes","1024"
"75","75","427.50085000011677","427.50085000011677","black","psycho","psycho","psycho","0","incongruent","uniform","1","undefined","1","s","7","0","0","0","7","0","7","0","7","0","0","0","7","7","7","7","Sat Sep 26 13:17:03 2020","1500","The main experiment item","yes","CS-FlankerTask2.1.osexp","C:/Users/Colton/OneDrive/Desktop","no","mono","no","18","no","white","no","yes","768","psycho","7","7","C:/Users/Colton/OneDrive/Desktop/CS-subject-2.csv","psycho","Lentiform Loewenfeld","3.3.3","0","s","NA","s","NA","NA","s","462.1096999999427","NA","140451.63619999948","NA","NA","462.1096999999427","2","psycho","1024","2","48000","-16","experiment","HHSHH","2","even","187782.9523999999","174145.05469999948","NA","NA","187273.75070000015","33493.66050000026","NA","NA","189091.72219999981","33687.77440000031","NA","NA","189201.317","189665.8422999999","189081.82579999993","189200.8321000003","Flanker Task 2.1","6","3420.006800000934","8","yes","1024"
"77.77777777777777","77.77777777777777","425.185977777906","425.185977777906","black","psycho","psycho","psycho","0","incongruent","uniform","1","undefined","1","h","8","0","0","0","8","0","8","0","8","0","0","0","8","8","8","8","Sat Sep 26 13:17:03 2020","1500","The main experiment item","yes","CS-FlankerTask2.1.osexp","C:/Users/Colton/OneDrive/Desktop","no","mono","no","18","no","white","no","yes","768","psycho","8","8","C:/Users/Colton/OneDrive/Desktop/CS-subject-2.csv","psycho","Lentiform Loewenfeld","3.3.3","0","h","NA","s","NA","NA","h","406.66700000021956","NA","140451.63619999948","NA","NA","406.66700000021956","2","psycho","1024","2","48000","-16","experiment","SSHSS","2","even","189695.11559999955","174145.05469999948","NA","NA","187273.75070000015","33493.66050000026","NA","NA","191006.24779999998","33687.77440000031","NA","NA","191115.10799999995","191524.59999999974","190996.41659999997","191114.6147999998","Flanker Task 2.1","7","3826.6738000011537","9","yes","1024"
"80","80","414.0191700001218","414.0191700001218","black","psycho","psycho","psycho","0","congruent","uniform","1","undefined","1","h","9","0","0","0","9","0","9","0","9","0","0","0","9","9","9","9","Sat Sep 26 13:17:03 2020","1500","The main experiment item","yes","CS-FlankerTask2.1.osexp","C:/Users/Colton/OneDrive/Desktop","no","mono","no","18","no","white","no","yes","768","psycho","9","9","C:/Users/Colton/OneDrive/Desktop/CS-subject-2.csv","psycho","Lentiform Loewenfeld","3.3.3","0","h","NA","s","NA","NA","h","313.5179000000644","NA","140451.63619999948","NA","NA","313.5179000000644","2","psycho","1024","2","48000","-16","experiment","HHHHH","2","even","191584.9508000001","174145.05469999948","NA","NA","187273.75070000015","33493.66050000026","NA","NA","192893.16830000008","33687.77440000031","NA","NA","193001.15159999952","193317.8109999999","192884.3009000002","193000.66659999994","Flanker Task 2.1","8","4140.191700001218","10","yes","1024"
"81.81818181818181","81.81818181818181","402.97897272739846","402.97897272739846","black","psycho","psycho","psycho","0","congruent","uniform","1","undefined","1","h","10","0","0","0","10","0","10","0","10","0","0","0","10","10","10","10","Sat Sep 26 13:17:03 2020","1500","The main experiment item","yes","CS-FlankerTask2.1.osexp","C:/Users/Colton/OneDrive/Desktop","no","mono","no","18","no","white","no","yes","768","psycho","10","10","C:/Users/Colton/OneDrive/Desktop/CS-subject-2.csv","psycho","Lentiform Loewenfeld","3.3.3","0","h","NA","s","NA","NA","h","292.57700000016484","NA","140451.63619999948","NA","NA","292.57700000016484","2","psycho","1024","2","48000","-16","experiment","HHHHH","2","even","193372.73170000027","174145.05469999948","NA","NA","187273.75070000015","33493.66050000026","NA","NA","194664.88239999945","33687.77440000031","NA","NA","194773.50419999947","195068.70199999958","194654.60520000034","194773.0077999995","Flanker Task 2.1","9","4432.768700001383","11","yes","1024"
"83.33333333333333","83.33333333333333","411.1135750000976","411.1135750000976","black","psycho","psycho","psycho","0","congruent","uniform","1","undefined","1","h","11","0","0","0","11","0","11","0","11","0","0","0","11","11","11","11","Sat Sep 26 13:17:03 2020","1500","The main experiment item","yes","CS-FlankerTask2.1.osexp","C:/Users/Colton/OneDrive/Desktop","no","mono","no","18","no","white","no","yes","768","psycho","11","11","C:/Users/Colton/OneDrive/Desktop/CS-subject-2.csv","psycho","Lentiform Loewenfeld","3.3.3","0","h","NA","s","NA","NA","h","500.59419999978854","NA","140451.63619999948","NA","NA","500.59419999978854","2","psycho","1024","2","48000","-16","experiment","HHHHH","2","even","195119.2368000002","174145.05469999948","NA","NA","187273.75070000015","33493.66050000026","NA","NA","196419.2727999998","33687.77440000031","NA","NA","196528.01120000004","197030.8288999995","196409.64639999947","196527.5068000001","Flanker Task 2.1","10","4933.3629000011715","12","yes","1024"
"84.61538461538461","84.61538461538461","410.9204846154876","410.9204846154876","black","psycho","psycho","psycho","0","incongruent","uniform","1","undefined","1","h","12","0","0","0","12","0","12","0","12","0","0","0","12","12","12","12","Sat Sep 26 13:17:03 2020","1500","The main experiment item","yes","CS-FlankerTask2.1.osexp","C:/Users/Colton/OneDrive/Desktop","no","mono","no","18","no","white","no","yes","768","psycho","12","12","C:/Users/Colton/OneDrive/Desktop/CS-subject-2.csv","psycho","Lentiform Loewenfeld","3.3.3","0","h","NA","s","NA","NA","h","408.6034000001673","NA","140451.63619999948","NA","NA","408.6034000001673","2","psycho","1024","2","48000","-16","experiment","SSHSS","2","even","197085.1133999995","174145.05469999948","NA","NA","187273.75070000015","33493.66050000026","NA","NA","198405.14429999984","33687.77440000031","NA","NA","198514.3109999999","198926.0244999996","198394.65300000028","198513.77020000017","Flanker Task 2.1","11","5341.966300001339","13","yes","1024"
"85.71428571428571","85.71428571428571","403.645814285809","403.645814285809","black","psycho","psycho","psycho","0","congruent","uniform","1","undefined","1","h","13","0","0","0","13","0","13","0","13","0","0","0","13","13","13","13","Sat Sep 26 13:17:03 2020","1500","The main experiment item","yes","CS-FlankerTask2.1.osexp","C:/Users/Colton/OneDrive/Desktop","no","mono","no","18","no","white","no","yes","768","psycho","13","13","C:/Users/Colton/OneDrive/Desktop/CS-subject-2.csv","psycho","Lentiform Loewenfeld","3.3.3","0","h","NA","s","NA","NA","h","309.0750999999873","NA","140451.63619999948","NA","NA","309.0750999999873","2","psycho","1024","2","48000","-16","experiment","HHHHH","2","even","198982.8705","174145.05469999948","NA","NA","187273.75070000015","33493.66050000026","NA","NA","200305.61839999974","33687.77440000031","NA","NA","200414.23719999965","200725.83719999966","200296.566","200413.83309999947","Flanker Task 2.1","12","5651.041400001326","14","yes","1024"
"86.66666666666667","86.66666666666667","399.05875333339986","399.05875333339986","black","psycho","psycho","psycho","0","incongruent","uniform","1","undefined","1","h","14","0","0","0","14","0","14","0","14","0","0","0","14","14","14","14","Sat Sep 26 13:17:03 2020","1500","The main experiment item","yes","CS-FlankerTask2.1.osexp","C:/Users/Colton/OneDrive/Desktop","no","mono","no","18","no","white","no","yes","768","psycho","14","14","C:/Users/Colton/OneDrive/Desktop/CS-subject-2.csv","psycho","Lentiform Loewenfeld","3.3.3","0","h","NA","s","NA","NA","h","334.8398999996716","NA","140451.63619999948","NA","NA","334.8398999996716","2","psycho","1024","2","48000","-16","experiment","SSHSS","2","even","200760.13020000028","174145.05469999948","NA","NA","187273.75070000015","33493.66050000026","NA","NA","202056.20209999962","33687.77440000031","NA","NA","202164.68100000022","202502.3443","202047.38720000023","202164.19330000007","Flanker Task 2.1","13","5985.881300000998","15","yes","1024"
"87.5","87.5","393.6545250000472","393.6545250000472","black","psycho","psycho","psycho","0","incongruent","uniform","1","undefined","1","h","15","0","0","0","15","0","15","0","15","0","0","0","15","15","15","15","Sat Sep 26 13:17:03 2020","1500","The main experiment item","yes","CS-FlankerTask2.1.osexp","C:/Users/Colton/OneDrive/Desktop","no","mono","no","18","no","white","no","yes","768","psycho","15","15","C:/Users/Colton/OneDrive/Desktop/CS-subject-2.csv","psycho","Lentiform Loewenfeld","3.3.3","0","h","NA","s","NA","NA","h","312.5910999997577","NA","140451.63619999948","NA","NA","312.5910999997577","2","psycho","1024","2","48000","-16","experiment","SSHSS","2","even","202561.2314","174145.05469999948","NA","NA","187273.75070000015","33493.66050000026","NA","NA","203848.2736999995","33687.77440000031","NA","NA","203956.64589999977","204271.9169000002","203839.68899999946","203956.1570999995","Flanker Task 2.1","14","6298.472400000755","16","yes","1024"
"88.23529411764706","88.23529411764706","397.2238647058822","397.2238647058822","black","psycho","psycho","psycho","0","incongruent","uniform","1","undefined","1","h","16","0","0","0","16","0","16","0","16","0","0","0","16","16","16","16","Sat Sep 26 13:17:03 2020","1500","The main experiment item","yes","CS-FlankerTask2.1.osexp","C:/Users/Colton/OneDrive/Desktop","no","mono","no","18","no","white","no","yes","768","psycho","16","16","C:/Users/Colton/OneDrive/Desktop/CS-subject-2.csv","psycho","Lentiform Loewenfeld","3.3.3","0","h","NA","s","NA","NA","h","454.3332999992417","NA","140451.63619999948","NA","NA","454.3332999992417","2","psycho","1024","2","48000","-16","experiment","SSHSS","2","even","204327.11130000008","174145.05469999948","NA","NA","187273.75070000015","33493.66050000026","NA","NA","205664.14689999964","33687.77440000031","NA","NA","205772.41380000033","206230.55920000025","205653.54359999945","205771.9674","Flanker Task 2.1","15","6752.805699999997","17","yes","1024"
"88.88888888888889","88.88888888888889","391.71767222226157","391.71767222226157","black","psycho","psycho","psycho","0","incongruent","uniform","1","undefined","1","h","17","0","0","0","17","0","17","0","17","0","0","0","17","17","17","17","Sat Sep 26 13:17:03 2020","1500","The main experiment item","yes","CS-FlankerTask2.1.osexp","C:/Users/Colton/OneDrive/Desktop","no","mono","no","18","no","white","no","yes","768","psycho","17","17","C:/Users/Colton/OneDrive/Desktop/CS-subject-2.csv","psycho","Lentiform Loewenfeld","3.3.3","0","h","NA","s","NA","NA","h","298.1124000007112","NA","140451.63619999948","NA","NA","298.1124000007112","2","psycho","1024","2","48000","-16","experiment","SSHSS","2","even","206295.88129999957","174145.05469999948","NA","NA","187273.75070000015","33493.66050000026","NA","NA","207599.81509999943","33687.77440000031","NA","NA","207707.71689999948","208009.8514000001","207590.6433","207707.29519999988","Flanker Task 2.1","16","7050.918100000708","18","yes","1024"
"89.47368421052632","89.47368421052632","389.25475263161167","389.25475263161167","black","psycho","psycho","psycho","0","congruent","uniform","1","undefined","1","h","18","0","0","0","18","0","18","0","18","0","0","0","18","18","18","18","Sat Sep 26 13:17:03 2020","1500","The main experiment item","yes","CS-FlankerTask2.1.osexp","C:/Users/Colton/OneDrive/Desktop","no","mono","no","18","no","white","no","yes","768","psycho","18","18","C:/Users/Colton/OneDrive/Desktop/CS-subject-2.csv","psycho","Lentiform Loewenfeld","3.3.3","0","h","NA","s","NA","NA","h","344.9221999999136","NA","140451.63619999948","NA","NA","344.9221999999136","2","psycho","1024","2","48000","-16","experiment","HHHHH","2","even","208038.36799999955","174145.05469999948","NA","NA","187273.75070000015","33493.66050000026","NA","NA","209351.1048999999","33687.77440000031","NA","NA","209460.3304000002","209808.98230000003","209341.39119999963","209459.88609999948","Flanker Task 2.1","17","7395.840300000622","19","yes","1024"
"90","90","388.82247500000665","388.82247500000665","black","psycho","psycho","psycho","0","incongruent","uniform","1","undefined","1","h","19","0","0","0","19","0","19","0","19","0","0","0","19","19","19","19","Sat Sep 26 13:17:03 2020","1500","The main experiment item","yes","CS-FlankerTask2.1.osexp","C:/Users/Colton/OneDrive/Desktop","no","mono","no","18","no","white","no","yes","768","psycho","19","19","C:/Users/Colton/OneDrive/Desktop/CS-subject-2.csv","psycho","Lentiform Loewenfeld","3.3.3","0","h","NA","s","NA","NA","h","380.6091999995115","NA","140451.63619999948","NA","NA","380.6091999995115","2","psycho","1024","2","48000","-16","experiment","SSHSS","2","even","209873.90630000026","174145.05469999948","NA","NA","187273.75070000015","33493.66050000026","NA","NA","211206.17369999946","33687.77440000031","NA","NA","211314.33800000013","211697.88580000022","211196.71169999946","211313.9142","Flanker Task 2.1","18","7776.449500000133","20","yes","1024"
"90.47619047619048","90.47619047619048","381.37113809525977","381.37113809525977","black","psycho","psycho","psycho","0","congruent","uniform","1","undefined","1","h","20","0","0","0","20","0","20","0","20","0","0","0","20","20","20","20","Sat Sep 26 13:17:03 2020","1500","The main experiment item","yes","CS-FlankerTask2.1.osexp","C:/Users/Colton/OneDrive/Desktop","no","mono","no","18","no","white","no","yes","768","psycho","20","20","C:/Users/Colton/OneDrive/Desktop/CS-subject-2.csv","psycho","Lentiform Loewenfeld","3.3.3","0","h","NA","s","NA","NA","h","232.3444000003219","NA","140451.63619999948","NA","NA","232.3444000003219","2","psycho","1024","2","48000","-16","experiment","HHHHH","2","even","211762.7268999995","174145.05469999948","NA","NA","187273.75070000015","33493.66050000026","NA","NA","213049.5157999994","33687.77440000031","NA","NA","213157.92989999955","213392.9135999997","213040.6882999996","213157.47610000017","Flanker Task 2.1","19","8008.793900000455","21","yes","1024"
"86.36363636363636","86.36363636363636","373.15653636369495","373.15653636369495","black","psycho","psycho","psycho","0","congruent","uniform","0","undefined","0","s","21","0","0","0","21","0","21","0","21","0","0","0","21","21","21","21","Sat Sep 26 13:17:03 2020","1500","The main experiment item","yes","CS-FlankerTask2.1.osexp","C:/Users/Colton/OneDrive/Desktop","no","mono","no","18","no","white","no","yes","768","psycho","21","21","C:/Users/Colton/OneDrive/Desktop/CS-subject-2.csv","psycho","Lentiform Loewenfeld","3.3.3","0","h","NA","s","NA","NA","h","200.64990000083344","NA","140451.63619999948","NA","NA","200.64990000083344","2","psycho","1024","2","48000","-16","experiment","SSSSS","2","even","213472.18629999954","174145.05469999948","NA","NA","187273.75070000015","33493.66050000026","NA","NA","214775.73140000005","33687.77440000031","NA","NA","214884.66939999943","215088.06409999944","214766.3854000002","214884.23650000006","Flanker Task 2.1","19","8209.443800001289","22","yes","1024"
"86.95652173913044","86.95652173913044","373.8933739131152","373.8933739131152","black","psycho","psycho","psycho","0","congruent","uniform","1","undefined","1","s","22","0","0","0","22","0","22","0","22","0","0","0","22","22","22","22","Sat Sep 26 13:17:03 2020","1500","The main experiment item","yes","CS-FlankerTask2.1.osexp","C:/Users/Colton/OneDrive/Desktop","no","mono","no","18","no","white","no","yes","768","psycho","22","22","C:/Users/Colton/OneDrive/Desktop/CS-subject-2.csv","psycho","Lentiform Loewenfeld","3.3.3","0","s","NA","s","NA","NA","s","390.10380000036093","NA","140451.63619999948","NA","NA","390.10380000036093","2","psycho","1024","2","48000","-16","experiment","SSSSS","2","even","215666.0780000002","174145.05469999948","NA","NA","215150.09269999975","33493.66050000026","NA","NA","216981.94030000013","33687.77440000031","NA","NA","217090.85119999963","217484.32239999966","216972.1819999995","217090.37160000025","Flanker Task 2.1","20","8599.54760000165","23","yes","1024"
"87.5","87.5","372.42822083339826","372.42822083339826","black","psycho","psycho","psycho","0","congruent","uniform","1","undefined","1","s","23","0","0","0","23","0","23","0","23","0","0","0","23","23","23","23","Sat Sep 26 13:17:03 2020","1500","The main experiment item","yes","CS-FlankerTask2.1.osexp","C:/Users/Colton/OneDrive/Desktop","no","mono","no","18","no","white","no","yes","768","psycho","23","23","C:/Users/Colton/OneDrive/Desktop/CS-subject-2.csv","psycho","Lentiform Loewenfeld","3.3.3","0","s","NA","s","NA","NA","s","338.7296999999089","NA","140451.63619999948","NA","NA","338.7296999999089","2","psycho","1024","2","48000","-16","experiment","SSSSS","2","even","217538.9140999996","174145.05469999948","NA","NA","215150.09269999975","33493.66050000026","NA","NA","218809.2273000002","33687.77440000031","NA","NA","218917.3080999999","219259.40919999994","218800.11250000008","218916.85679999954","Flanker Task 2.1","21","8938.277300001559","24","yes","1024"
"88","88","369.66588400005946","369.66588400005946","black","psycho","psycho","psycho","0","congruent","uniform","1","undefined","1","s","24","0","0","0","24","0","24","0","24","0","0","0","24","24","24","24","Sat Sep 26 13:17:03 2020","1500","The main experiment item","yes","CS-FlankerTask2.1.osexp","C:/Users/Colton/OneDrive/Desktop","no","mono","no","18","no","white","no","yes","768","psycho","24","24","C:/Users/Colton/OneDrive/Desktop/CS-subject-2.csv","psycho","Lentiform Loewenfeld","3.3.3","0","s","NA","s","NA","NA","s","303.36979999992764","NA","140451.63619999948","NA","NA","303.36979999992764","2","psycho","1024","2","48000","-16","experiment","SSSSS","2","even","219319.2823999998","174145.05469999948","NA","NA","215150.09269999975","33493.66050000026","NA","NA","220626.37929999983","33687.77440000031","NA","NA","220735.71309999988","221042.74019999956","220616.2691999998","220735.1994999999","Flanker Task 2.1","22","9241.647100001486","25","yes","1024"
"88.46153846153847","88.46153846153847","364.3011192308365","364.3011192308365","black","psycho","psycho","psycho","0","incongruent","uniform","1","undefined","1","s","25","0","0","0","25","0","25","0","25","0","0","0","25","25","25","25","Sat Sep 26 13:17:03 2020","1500","The main experiment item","yes","CS-FlankerTask2.1.osexp","C:/Users/Colton/OneDrive/Desktop","no","mono","no","18","no","white","no","yes","768","psycho","25","25","C:/Users/Colton/OneDrive/Desktop/CS-subject-2.csv","psycho","Lentiform Loewenfeld","3.3.3","0","s","NA","s","NA","NA","s","230.18200000026263","NA","140451.63619999948","NA","NA","230.18200000026263","2","psycho","1024","2","48000","-16","experiment","HHSHH","2","even","221072.10279999982","174145.05469999948","NA","NA","215150.09269999975","33493.66050000026","NA","NA","222384.89180000033","33687.77440000031","NA","NA","222493.0624999997","222726.37380000015","222375.78140000004","222492.63939999946","Flanker Task 2.1","23","9471.829100001749","26","yes","1024"
"85.18518518518519","85.18518518518519","363.9325148148637","363.9325148148637","black","psycho","psycho","psycho","0","incongruent","uniform","0","undefined","0","h","26","0","0","0","26","0","26","0","26","0","0","0","26","26","26","26","Sat Sep 26 13:17:03 2020","1500","The main experiment item","yes","CS-FlankerTask2.1.osexp","C:/Users/Colton/OneDrive/Desktop","no","mono","no","18","no","white","no","yes","768","psycho","26","26","C:/Users/Colton/OneDrive/Desktop/CS-subject-2.csv","psycho","Lentiform Loewenfeld","3.3.3","0","s","NA","s","NA","NA","s","354.3487999995705","NA","140451.63619999948","NA","NA","354.3487999995705","2","psycho","1024","2","48000","-16","experiment","SSHSS","2","even","222783.8065999995","174145.05469999948","NA","NA","215150.09269999975","33493.66050000026","NA","NA","224103.42330000002","33687.77440000031","NA","NA","224211.9640000001","224569.06939999954","224093.5411999999","224211.4369000001","Flanker Task 2.1","23","9826.17790000132","27","yes","1024"
"85.71428571428571","85.71428571428571","365.286878571461","365.286878571461","black","psycho","psycho","psycho","0","incongruent","uniform","1","undefined","1","s","27","0","0","0","27","0","27","0","27","0","0","0","27","27","27","27","Sat Sep 26 13:17:03 2020","1500","The main experiment item","yes","CS-FlankerTask2.1.osexp","C:/Users/Colton/OneDrive/Desktop","no","mono","no","18","no","white","no","yes","768","psycho","27","27","C:/Users/Colton/OneDrive/Desktop/CS-subject-2.csv","psycho","Lentiform Loewenfeld","3.3.3","0","s","NA","s","NA","NA","s","401.8546999995888","NA","140451.63619999948","NA","NA","401.8546999995888","2","psycho","1024","2","48000","-16","experiment","HHSHH","2","even","225146.2646","174145.05469999948","NA","NA","224631.74220000018","33493.66050000026","NA","NA","226470.14959999977","33687.77440000031","NA","NA","226578.57270000022","226983.63479999988","226460.18339999954","226578.08529999966","Flanker Task 2.1","24","10228.032600000908","28","yes","1024"
"86.20689655172414","86.20689655172414","365.6026896551956","365.6026896551956","black","psycho","psycho","psycho","0","incongruent","uniform","1","undefined","1","h","28","0","0","0","28","0","28","0","28","0","0","0","28","28","28","28","Sat Sep 26 13:17:03 2020","1500","The main experiment item","yes","CS-FlankerTask2.1.osexp","C:/Users/Colton/OneDrive/Desktop","no","mono","no","18","no","white","no","yes","768","psycho","28","28","C:/Users/Colton/OneDrive/Desktop/CS-subject-2.csv","psycho","Lentiform Loewenfeld","3.3.3","0","h","NA","s","NA","NA","h","374.44539999976405","NA","140451.63619999948","NA","NA","374.44539999976405","2","psycho","1024","2","48000","-16","experiment","SSHSS","2","even","227039.22609999974","174145.05469999948","NA","NA","224631.74220000018","33493.66050000026","NA","NA","228354.95790000004","33687.77440000031","NA","NA","228463.2988000003","228841.62790000028","228344.54559999995","228462.85809999972","Flanker Task 2.1","25","10602.478000000672","29","yes","1024"
"86.66666666666667","86.66666666666667","363.15432666666845","363.15432666666845","black","psycho","psycho","psycho","0","congruent","uniform","1","undefined","1","h","29","0","0","0","29","0","29","0","29","0","0","0","29","29","29","29","Sat Sep 26 13:17:03 2020","1500","The main experiment item","yes","CS-FlankerTask2.1.osexp","C:/Users/Colton/OneDrive/Desktop","no","mono","no","18","no","white","no","yes","768","psycho","29","29","C:/Users/Colton/OneDrive/Desktop/CS-subject-2.csv","psycho","Lentiform Loewenfeld","3.3.3","0","h","NA","s","NA","NA","h","292.1517999993812","NA","140451.63619999948","NA","NA","292.1517999993812","2","psycho","1024","2","48000","-16","experiment","HHHHH","2","even","228910.74769999977","174145.05469999948","NA","NA","224631.74220000018","33493.66050000026","NA","NA","230221.82019999946","33687.77440000031","NA","NA","230330.37140000032","230625.58569999965","230212.39049999986","230329.90270000027","Flanker Task 2.1","26","10894.629800000053","30","yes","1024"
"87.09677419354838","87.09677419354838","364.63532258063225","364.63532258063225","black","psycho","psycho","psycho","0","congruent","uniform","1","undefined","1","s","30","0","0","0","30","0","30","0","30","0","0","0","30","30","30","30","Sat Sep 26 13:17:03 2020","1500","The main experiment item","yes","CS-FlankerTask2.1.osexp","C:/Users/Colton/OneDrive/Desktop","no","mono","no","18","no","white","no","yes","768","psycho","30","30","C:/Users/Colton/OneDrive/Desktop/CS-subject-2.csv","psycho","Lentiform Loewenfeld","3.3.3","0","s","NA","s","NA","NA","s","409.06519999954617","NA","140451.63619999948","NA","NA","409.06519999954617","2","psycho","1024","2","48000","-16","experiment","SSSSS","2","even","230650.17139999964","174145.05469999948","NA","NA","224631.74220000018","33493.66050000026","NA","NA","231966.93940000024","33687.77440000031","NA","NA","232076.53980000032","232490.6995000001","231956.87110000016","232075.62030000007","Flanker Task 2.1","27","11303.6949999996","31","yes","1024"
"87.5","87.5","362.4348843749767","362.4348843749767","black","psycho","psycho","psycho","0","congruent","uniform","1","undefined","1","s","31","0","0","0","31","0","31","0","31","0","0","0","31","31","31","31","Sat Sep 26 13:17:03 2020","1500","The main experiment item","yes","CS-FlankerTask2.1.osexp","C:/Users/Colton/OneDrive/Desktop","no","mono","no","18","no","white","no","yes","768","psycho","31","31","C:/Users/Colton/OneDrive/Desktop/CS-subject-2.csv","psycho","Lentiform Loewenfeld","3.3.3","0","s","NA","s","NA","NA","s","294.22129999965546","NA","140451.63619999948","NA","NA","294.22129999965546","2","psycho","1024","2","48000","-16","experiment","SSSSS","2","even","232527.92380000028","174145.05469999948","NA","NA","224631.74220000018","33493.66050000026","NA","NA","233859.26589999962","33687.77440000031","NA","NA","233967.64350000012","234264.6641000001","233850.18130000026","233967.22059999956","Flanker Task 2.1","28","11597.916299999255","32","yes","1024"
"87.87878787878788","87.87878787878788","363.254366666628","363.254366666628","black","psycho","psycho","psycho","0","incongruent","uniform","1","undefined","1","h","32","0","0","0","32","0","32","0","32","0","0","0","32","32","32","32","Sat Sep 26 13:17:03 2020","1500","The main experiment item","yes","CS-FlankerTask2.1.osexp","C:/Users/Colton/OneDrive/Desktop","no","mono","no","18","no","white","no","yes","768","psycho","32","32","C:/Users/Colton/OneDrive/Desktop/CS-subject-2.csv","psycho","Lentiform Loewenfeld","3.3.3","0","h","NA","s","NA","NA","h","389.4777999994694","NA","140451.63619999948","NA","NA","389.4777999994694","2","psycho","1024","2","48000","-16","experiment","SSHSS","2","even","234329.2862999997","174145.05469999948","NA","NA","224631.74220000018","33493.66050000026","NA","NA","235644.5120999997","33687.77440000031","NA","NA","235753.18270000024","236146.62070000032","235635.45259999955","235752.6971999996","Flanker Task 2.1","29","11987.394099998724","33","yes","1024"
"88.23529411764706","88.23529411764706","359.98140588232235","359.98140588232235","black","psycho","psycho","psycho","0","incongruent","uniform","1","undefined","1","h","33","0","0","0","33","0","33","0","33","0","0","0","33","33","33","33","Sat Sep 26 13:17:03 2020","1500","The main experiment item","yes","CS-FlankerTask2.1.osexp","C:/Users/Colton/OneDrive/Desktop","no","mono","no","18","no","white","no","yes","768","psycho","33","33","C:/Users/Colton/OneDrive/Desktop/CS-subject-2.csv","psycho","Lentiform Loewenfeld","3.3.3","0","h","NA","s","NA","NA","h","251.9737000002351","NA","140451.63619999948","NA","NA","251.9737000002351","2","psycho","1024","2","48000","-16","experiment","SSHSS","2","even","236188.44970000008","174145.05469999948","NA","NA","224631.74220000018","33493.66050000026","NA","NA","237486.93209999966","33687.77440000031","NA","NA","237595.8740999995","237851.13410000032","237478.08239999996","237595.45139999955","Flanker Task 2.1","30","12239.36779999896","34","yes","1024"
"88.57142857142857","88.57142857142857","358.2062342856919","358.2062342856919","black","psycho","psycho","psycho","0","congruent","uniform","1","undefined","1","h","34","0","0","0","34","0","34","0","34","0","0","0","34","34","34","34","Sat Sep 26 13:17:03 2020","1500","The main experiment item","yes","CS-FlankerTask2.1.osexp","C:/Users/Colton/OneDrive/Desktop","no","mono","no","18","no","white","no","yes","768","psycho","34","34","C:/Users/Colton/OneDrive/Desktop/CS-subject-2.csv","psycho","Lentiform Loewenfeld","3.3.3","0","h","NA","s","NA","NA","h","297.85040000025765","NA","140451.63619999948","NA","NA","297.85040000025765","2","psycho","1024","2","48000","-16","experiment","HHHHH","2","even","237906.20510000008","174145.05469999948","NA","NA","224631.74220000018","33493.66050000026","NA","NA","239237.12220000016","33687.77440000031","NA","NA","239345.40539999944","239646.60749999984","239227.34799999945","239344.96630000012","Flanker Task 2.1","31","12537.218199999217","35","yes","1024"
"88.88888888888889","88.88888888888889","358.465436111096","358.465436111096","black","psycho","psycho","psycho","0","incongruent","uniform","1","undefined","1","h","35","0","0","0","35","0","35","0","35","0","0","0","35","35","35","35","Sat Sep 26 13:17:03 2020","1500","The main experiment item","yes","CS-FlankerTask2.1.osexp","C:/Users/Colton/OneDrive/Desktop","no","mono","no","18","no","white","no","yes","768","psycho","35","35","C:/Users/Colton/OneDrive/Desktop/CS-subject-2.csv","psycho","Lentiform Loewenfeld","3.3.3","0","h","NA","s","NA","NA","h","367.53750000023865","NA","140451.63619999948","NA","NA","367.53750000023865","2","psycho","1024","2","48000","-16","experiment","SSHSS","2","even","239706.9464999995","174145.05469999948","NA","NA","224631.74220000018","33493.66050000026","NA","NA","240991.36170000018","33687.77440000031","NA","NA","241100.0882999997","241471.68809999948","240982.13579999993","241099.6316999999","Flanker Task 2.1","32","12904.755699999456","36","yes","1024"
"89.1891891891892","89.1891891891892","361.34098918918863","361.34098918918863","black","psycho","psycho","psycho","0","incongruent","uniform","1","undefined","1","s","36","0","0","0","36","0","36","0","36","0","0","0","36","36","36","36","Sat Sep 26 13:17:03 2020","1500","The main experiment item","yes","CS-FlankerTask2.1.osexp","C:/Users/Colton/OneDrive/Desktop","no","mono","no","18","no","white","no","yes","768","psycho","36","36","C:/Users/Colton/OneDrive/Desktop/CS-subject-2.csv","psycho","Lentiform Loewenfeld","3.3.3","0","s","NA","s","NA","NA","s","464.86090000052354","NA","140451.63619999948","NA","NA","464.86090000052354","2","psycho","1024","2","48000","-16","experiment","HHSHH","2","even","241521.35910000015","174145.05469999948","NA","NA","224631.74220000018","33493.66050000026","NA","NA","242823.80889999968","33687.77440000031","NA","NA","242933.15629999962","243401.90369999982","242814.2802000002","242932.63359999948","Flanker Task 2.1","33","13369.61659999998","37","yes","1024"
"89.47368421052632","89.47368421052632","363.00121578949006","363.00121578949006","black","psycho","psycho","psycho","0","congruent","uniform","1","undefined","1","s","37","0","0","0","37","0","37","0","37","0","0","0","37","37","37","37","Sat Sep 26 13:17:03 2020","1500","The main experiment item","yes","CS-FlankerTask2.1.osexp","C:/Users/Colton/OneDrive/Desktop","no","mono","no","18","no","white","no","yes","768","psycho","37","37","C:/Users/Colton/OneDrive/Desktop/CS-subject-2.csv","psycho","Lentiform Loewenfeld","3.3.3","0","s","NA","s","NA","NA","s","424.4296000006434","NA","140451.63619999948","NA","NA","424.4296000006434","2","psycho","1024","2","48000","-16","experiment","SSSSS","2","even","243461.63979999983","174145.05469999948","NA","NA","224631.74220000018","33493.66050000026","NA","NA","244769.7959999996","33687.77440000031","NA","NA","244878.13769999956","245305.78419999982","244759.34039999993","244877.2441000001","Flanker Task 2.1","34","13794.046200000623","38","yes","1024"
"87.17948717948718","87.17948717948718","361.22810000000453","361.22810000000453","black","psycho","psycho","psycho","0","congruent","uniform","0","undefined","0","h","38","0","0","0","38","0","38","0","38","0","0","0","38","38","38","38","Sat Sep 26 13:17:03 2020","1500","The main experiment item","yes","CS-FlankerTask2.1.osexp","C:/Users/Colton/OneDrive/Desktop","no","mono","no","18","no","white","no","yes","768","psycho","38","38","C:/Users/Colton/OneDrive/Desktop/CS-subject-2.csv","psycho","Lentiform Loewenfeld","3.3.3","0","s","NA","s","NA","NA","s","293.849699999555","NA","140451.63619999948","NA","NA","293.849699999555","2","psycho","1024","2","48000","-16","experiment","HHHHH","2","even","245363.41009999978","174145.05469999948","NA","NA","224631.74220000018","33493.66050000026","NA","NA","246690.6411","33687.77440000031","NA","NA","246802.9679000001","247100.14729999966","246679.23429999972","246802.0048999997","Flanker Task 2.1","34","14087.895900000178","39","yes","1024"
"85","85","360.8092925000172","360.8092925000172","black","psycho","psycho","psycho","0","incongruent","uniform","0","undefined","0","s","39","0","0","0","39","0","39","0","39","0","0","0","39","39","39","39","Sat Sep 26 13:17:03 2020","1500","The main experiment item","yes","CS-FlankerTask2.1.osexp","C:/Users/Colton/OneDrive/Desktop","no","mono","no","18","no","white","no","yes","768","psycho","39","39","C:/Users/Colton/OneDrive/Desktop/CS-subject-2.csv","psycho","Lentiform Loewenfeld","3.3.3","0","h","NA","s","NA","NA","h","344.4758000005095","NA","140451.63619999948","NA","NA","344.4758000005095","2","psycho","1024","2","48000","-16","experiment","HHSHH","2","even","247641.1369999996","174145.05469999948","NA","NA","247130.5272999998","33493.66050000026","NA","NA","248953.06319999963","33687.77440000031","NA","NA","249062.1511999998","249410.12880000018","248943.0014999998","249061.63449999987","Flanker Task 2.1","34","14432.371700000687","40","yes","1024"
"85.36585365853658","85.36585365853658","359.60794390245303","359.60794390245303","black","psycho","psycho","psycho","0","congruent","uniform","1","undefined","1","h","40","0","0","0","40","0","40","0","40","0","0","0","40","40","40","40","Sat Sep 26 13:17:03 2020","1500","The main experiment item","yes","CS-FlankerTask2.1.osexp","C:/Users/Colton/OneDrive/Desktop","no","mono","no","18","no","white","no","yes","768","psycho","40","40","C:/Users/Colton/OneDrive/Desktop/CS-subject-2.csv","psycho","Lentiform Loewenfeld","3.3.3","0","h","NA","s","NA","NA","h","311.5539999998873","NA","140451.63619999948","NA","NA","311.5539999998873","2","psycho","1024","2","48000","-16","experiment","HHHHH","2","even","249996.27119999967","174145.05469999948","NA","NA","249474.91869999975","33493.66050000026","NA","NA","251324.2941999997","33687.77440000031","NA","NA","251433.03639999975","251748.4231999997","251314.70770000032","251432.57119999998","Flanker Task 2.1","35","14743.925700000575","41","yes","1024"
"85.71428571428571","85.71428571428571","361.0576190476214","361.0576190476214","black","psycho","psycho","psycho","0","incongruent","uniform","1","undefined","1","s","41","0","0","0","41","0","41","0","41","0","0","0","41","41","41","41","Sat Sep 26 13:17:03 2020","1500","The main experiment item","yes","CS-FlankerTask2.1.osexp","C:/Users/Colton/OneDrive/Desktop","no","mono","no","18","no","white","no","yes","768","psycho","41","41","C:/Users/Colton/OneDrive/Desktop/CS-subject-2.csv","psycho","Lentiform Loewenfeld","3.3.3","0","s","NA","s","NA","NA","s","420.49429999952554","NA","140451.63619999948","NA","NA","420.49429999952554","2","psycho","1024","2","48000","-16","experiment","HHSHH","2","even","251805.7858000002","174145.05469999948","NA","NA","249474.91869999975","33493.66050000026","NA","NA","253120.51969999995","33687.77440000031","NA","NA","253229.2967000003","253654.21940000032","253111.0337","253228.7801000002","Flanker Task 2.1","36","15164.4200000001","42","yes","1024"
"83.72093023255815","83.72093023255815","361.38588604651903","361.38588604651903","black","psycho","psycho","psycho","0","incongruent","uniform","0","undefined","0","s","42","0","0","0","42","0","42","0","42","0","0","0","42","42","42","42","Sat Sep 26 13:17:03 2020","1500","The main experiment item","yes","CS-FlankerTask2.1.osexp","C:/Users/Colton/OneDrive/Desktop","no","mono","no","18","no","white","no","yes","768","psycho","42","42","C:/Users/Colton/OneDrive/Desktop/CS-subject-2.csv","psycho","Lentiform Loewenfeld","3.3.3","0","h","NA","s","NA","NA","h","375.17310000021826","NA","140451.63619999948","NA","NA","375.17310000021826","2","psycho","1024","2","48000","-16","experiment","HHSHH","2","even","253696.8641000003","174145.05469999948","NA","NA","249474.91869999975","33493.66050000026","NA","NA","255001.69899999947","33687.77440000031","NA","NA","255110.09139999986","255489.2050999997","254991.45510000017","255109.63879999964","Flanker Task 2.1","36","15539.593100000318","43","yes","1024"
"84.0909090909091","84.0909090909091","366.4859386363711","366.4859386363711","black","psycho","psycho","psycho","0","congruent","uniform","1","undefined","1","s","43","0","0","0","43","0","43","0","43","0","0","0","43","43","43","43","Sat Sep 26 13:17:03 2020","1500","The main experiment item","yes","CS-FlankerTask2.1.osexp","C:/Users/Colton/OneDrive/Desktop","no","mono","no","18","no","white","no","yes","768","psycho","43","43","C:/Users/Colton/OneDrive/Desktop/CS-subject-2.csv","psycho","Lentiform Loewenfeld","3.3.3","0","s","NA","s","NA","NA","s","585.78820000001","NA","140451.63619999948","NA","NA","585.78820000001","2","psycho","1024","2","48000","-16","experiment","SSSSS","2","even","256075.63459999982","174145.05469999948","NA","NA","255565.9595999996","33493.66050000026","NA","NA","257391.42029999947","33687.77440000031","NA","NA","257499.5798","258089.4146999999","257381.69769999967","257499.13689999992","Flanker Task 2.1","37","16125.381300000328","44","yes","1024"
"82.22222222222223","82.22222222222223","364.8157244444521","364.8157244444521","black","psycho","psycho","psycho","0","incongruent","uniform","0","undefined","0","h","44","0","0","0","44","0","44","0","44","0","0","0","44","44","44","44","Sat Sep 26 13:17:03 2020","1500","The main experiment item","yes","CS-FlankerTask2.1.osexp","C:/Users/Colton/OneDrive/Desktop","no","mono","no","18","no","white","no","yes","768","psycho","44","44","C:/Users/Colton/OneDrive/Desktop/CS-subject-2.csv","psycho","Lentiform Loewenfeld","3.3.3","0","s","NA","s","NA","NA","s","291.3263000000152","NA","140451.63619999948","NA","NA","291.3263000000152","2","psycho","1024","2","48000","-16","experiment","SSHSS","2","even","258164.75470000022","174145.05469999948","NA","NA","255565.9595999996","33493.66050000026","NA","NA","259474.7631","33687.77440000031","NA","NA","259584.37099999993","259879.8393999996","259465.9279999996","259583.9135999995","Flanker Task 2.1","37","16416.707600000344","45","yes","1024"
"82.6086956521739","82.6086956521739","370.6990847826211","370.6990847826211","black","psycho","psycho","psycho","0","incongruent","uniform","1","undefined","1","s","45","0","0","0","45","0","45","0","45","0","0","0","45","45","45","45","Sat Sep 26 13:17:03 2020","1500","The main experiment item","yes","CS-FlankerTask2.1.osexp","C:/Users/Colton/OneDrive/Desktop","no","mono","no","18","no","white","no","yes","768","psycho","45","45","C:/Users/Colton/OneDrive/Desktop/CS-subject-2.csv","psycho","Lentiform Loewenfeld","3.3.3","0","s","NA","s","NA","NA","s","635.4503000002296","NA","140451.63619999948","NA","NA","635.4503000002296","2","psycho","1024","2","48000","-16","experiment","HHSHH","2","even","260448.56919999985","174145.05469999948","NA","NA","259941.90100000013","33493.66050000026","NA","NA","261751.4728999995","33687.77440000031","NA","NA","261862.58259999976","262502.25950000004","261742.04719999945","261862.00600000028","Flanker Task 2.1","38","17052.157900000573","46","yes","1024"
"82.97872340425532","82.97872340425532","372.1038765957507","372.1038765957507","black","psycho","psycho","psycho","0","incongruent","uniform","1","undefined","1","s","46","0","0","0","46","0","46","0","46","0","0","0","46","46","46","46","Sat Sep 26 13:17:03 2020","1500","The main experiment item","yes","CS-FlankerTask2.1.osexp","C:/Users/Colton/OneDrive/Desktop","no","mono","no","18","no","white","no","yes","768","psycho","46","46","C:/Users/Colton/OneDrive/Desktop/CS-subject-2.csv","psycho","Lentiform Loewenfeld","3.3.3","0","s","NA","s","NA","NA","s","436.72429999971064","NA","140451.63619999948","NA","NA","436.72429999971064","2","psycho","1024","2","48000","-16","experiment","HHSHH","2","even","262562.8550000001","174145.05469999948","NA","NA","259941.90100000013","33493.66050000026","NA","NA","263859.332","33687.77440000031","NA","NA","263967.39720000006","264407.8657","263850.2298000003","263966.9263999995","Flanker Task 2.1","39","17488.882200000284","47","yes","1024"
"83.33333333333333","83.33333333333333","373.0968250000042","373.0968250000042","black","psycho","psycho","psycho","0","incongruent","uniform","1","undefined","1","s","47","0","0","0","47","0","47","0","47","0","0","0","47","47","47","47","Sat Sep 26 13:17:03 2020","1500","The main experiment item","yes","CS-FlankerTask2.1.osexp","C:/Users/Colton/OneDrive/Desktop","no","mono","no","18","no","white","no","yes","768","psycho","47","47","C:/Users/Colton/OneDrive/Desktop/CS-subject-2.csv","psycho","Lentiform Loewenfeld","3.3.3","0","s","NA","s","NA","NA","s","419.76539999991655","NA","140451.63619999948","NA","NA","419.76539999991655","2","psycho","1024","2","48000","-16","experiment","HHSHH","2","even","264462.48259999993","174145.05469999948","NA","NA","259941.90100000013","33493.66050000026","NA","NA","265789.02579999977","33687.77440000031","NA","NA","265898.17459999997","266321.77349999984","265779.7149999997","265897.72600000014","Flanker Task 2.1","40","17908.6476000002","48","yes","1024"
"83.6734693877551","83.6734693877551","372.18518367348054","372.18518367348054","black","psycho","psycho","psycho","0","congruent","uniform","1","undefined","1","h","48","0","0","0","48","0","48","0","48","0","0","0","48","48","48","48","Sat Sep 26 13:17:03 2020","1500","The main experiment item","yes","CS-FlankerTask2.1.osexp","C:/Users/Colton/OneDrive/Desktop","no","mono","no","18","no","white","no","yes","768","psycho","48","48","C:/Users/Colton/OneDrive/Desktop/CS-subject-2.csv","psycho","Lentiform Loewenfeld","3.3.3","0","h","NA","s","NA","NA","h","328.4264000003459","NA","140451.63619999948","NA","NA","328.4264000003459","2","psycho","1024","2","48000","-16","experiment","HHHHH","2","even","266383.8015000001","174145.05469999948","NA","NA","259941.90100000013","33493.66050000026","NA","NA","267651.2930999998","33687.77440000031","NA","NA","267759.8718999998","268091.8300000003","267642.0558","267759.4235999995","Flanker Task 2.1","41","18237.074000000546","49","yes","1024"
"84","84","371.80644200001495","371.80644200001495","black","psycho","psycho","psycho","0","congruent","uniform","1","undefined","1","s","49","0","0","0","49","0","49","0","49","0","0","0","49","49","49","49","Sat Sep 26 13:17:03 2020","1500","The main experiment item","yes","CS-FlankerTask2.1.osexp","C:/Users/Colton/OneDrive/Desktop","no","mono","no","18","no","white","no","yes","768","psycho","49","49","C:/Users/Colton/OneDrive/Desktop/CS-subject-2.csv","psycho","Lentiform Loewenfeld","3.3.3","0","s","NA","s","NA","NA","s","353.2481000002008","NA","140451.63619999948","NA","NA","353.2481000002008","2","psycho","1024","2","48000","-16","experiment","SSSSS","2","even","268162.8198999997","174145.05469999948","NA","NA","259941.90100000013","33493.66050000026","NA","NA","269508.87319999945","33687.77440000031","NA","NA","269617.2164999998","269974.5900999997","269497.51930000004","269616.7583999995","Flanker Task 2.1","42","18590.322100000747","50","yes","1024"
"84.31372549019608","84.31372549019608","371.51885686277336","371.51885686277336","black","psycho","psycho","psycho","0","congruent","uniform","1","undefined","1","h","50","0","0","0","50","0","50","0","50","0","0","0","50","50","50","50","Sat Sep 26 13:17:03 2020","1500","The main experiment item","yes","CS-FlankerTask2.1.osexp","C:/Users/Colton/OneDrive/Desktop","no","mono","no","18","no","white","no","yes","768","psycho","50","50","C:/Users/Colton/OneDrive/Desktop/CS-subject-2.csv","psycho","Lentiform Loewenfeld","3.3.3","0","h","NA","s","NA","NA","h","357.13960000069346","NA","140451.63619999948","NA","NA","357.13960000069346","2","psycho","1024","2","48000","-16","experiment","HHHHH","2","even","270030.94390000025","174145.05469999948","NA","NA","259941.90100000013","33493.66050000026","NA","NA","271335.34059999965","33687.77440000031","NA","NA","271443.9421999996","271805.34889999946","271325.7441999995","271443.4554","Flanker Task 2.1","43","18947.46170000144","51","yes","1024"
"84.61538461538461","84.61538461538461","371.8719961538781","371.8719961538781","black","psycho","psycho","psycho","0","congruent","uniform","1","undefined","1","h","51","0","0","0","51","0","51","0","51","0","0","0","51","51","51","51","Sat Sep 26 13:17:03 2020","1500","The main experiment item","yes","CS-FlankerTask2.1.osexp","C:/Users/Colton/OneDrive/Desktop","no","mono","no","18","no","white","no","yes","768","psycho","51","51","C:/Users/Colton/OneDrive/Desktop/CS-subject-2.csv","psycho","Lentiform Loewenfeld","3.3.3","0","h","NA","s","NA","NA","h","389.8821000002208","NA","140451.63619999948","NA","NA","389.8821000002208","2","psycho","1024","2","48000","-16","experiment","HHHHH","2","even","271863.3942999995","174145.05469999948","NA","NA","259941.90100000013","33493.66050000026","NA","NA","273164.7369000002","33687.77440000031","NA","NA","273273.9849999998","273668.9311","273155.34149999986","273273.50000000023","Flanker Task 2.1","44","19337.34380000166","52","yes","1024"
"84.90566037735849","84.90566037735849","371.45000566042","371.45000566042","black","psycho","psycho","psycho","0","congruent","uniform","1","undefined","1","s","52","0","0","0","52","0","52","0","52","0","0","0","52","52","52","52","Sat Sep 26 13:17:03 2020","1500","The main experiment item","yes","CS-FlankerTask2.1.osexp","C:/Users/Colton/OneDrive/Desktop","no","mono","no","18","no","white","no","yes","768","psycho","52","52","C:/Users/Colton/OneDrive/Desktop/CS-subject-2.csv","psycho","Lentiform Loewenfeld","3.3.3","0","s","NA","s","NA","NA","s","349.5065000005998","NA","140451.63619999948","NA","NA","349.5065000005998","2","psycho","1024","2","48000","-16","experiment","SSSSS","2","even","273729.02389999945","174145.05469999948","NA","NA","259941.90100000013","33493.66050000026","NA","NA","275032.0461000001","33687.77440000031","NA","NA","275140.9458999997","275494.1888000003","275022.9308999997","275140.5241000002","Flanker Task 2.1","45","19686.85030000226","53","yes","1024"
"85.18518518518519","85.18518518518519","371.54644629634544","371.54644629634544","black","psycho","psycho","psycho","0","congruent","uniform","1","undefined","1","h","53","0","0","0","53","0","53","0","53","0","0","0","53","53","53","53","Sat Sep 26 13:17:03 2020","1500","The main experiment item","yes","CS-FlankerTask2.1.osexp","C:/Users/Colton/OneDrive/Desktop","no","mono","no","18","no","white","no","yes","768","psycho","53","53","C:/Users/Colton/OneDrive/Desktop/CS-subject-2.csv","psycho","Lentiform Loewenfeld","3.3.3","0","h","NA","s","NA","NA","h","376.65780000039376","NA","140451.63619999948","NA","NA","376.65780000039376","2","psycho","1024","2","48000","-16","experiment","HHHHH","2","even","275518.09520000004","174145.05469999948","NA","NA","259941.90100000013","33493.66050000026","NA","NA","276819.29039999977","33687.77440000031","NA","NA","276927.0337999997","277307.2771999996","276809.98610000004","276926.5242000001","Flanker Task 2.1","46","20063.508100002655","54","yes","1024"
"83.63636363636364","83.63636363636364","370.06584363640394","370.06584363640394","black","psycho","psycho","psycho","0","incongruent","uniform","0","undefined","0","s","54","0","0","0","54","0","54","0","54","0","0","0","54","54","54","54","Sat Sep 26 13:17:03 2020","1500","The main experiment item","yes","CS-FlankerTask2.1.osexp","C:/Users/Colton/OneDrive/Desktop","no","mono","no","18","no","white","no","yes","768","psycho","54","54","C:/Users/Colton/OneDrive/Desktop/CS-subject-2.csv","psycho","Lentiform Loewenfeld","3.3.3","0","h","NA","s","NA","NA","h","290.1132999995607","NA","140451.63619999948","NA","NA","290.1132999995607","2","psycho","1024","2","48000","-16","experiment","HHSHH","2","even","277362.62290000013","174145.05469999948","NA","NA","259941.90100000013","33493.66050000026","NA","NA","278669.1055000001","33687.77440000031","NA","NA","278778.0049000003","279071.8361999998","278659.1450999995","278777.5421999995","Flanker Task 2.1","46","20353.621400002216","55","yes","1024"
"83.92857142857143","83.92857142857143","370.0202750000317","370.0202750000317","black","psycho","psycho","psycho","0","congruent","uniform","1","undefined","1","s","55","0","0","0","55","0","55","0","55","0","0","0","55","55","55","55","Sat Sep 26 13:17:03 2020","1500","The main experiment item","yes","CS-FlankerTask2.1.osexp","C:/Users/Colton/OneDrive/Desktop","no","mono","no","18","no","white","no","yes","768","psycho","55","55","C:/Users/Colton/OneDrive/Desktop/CS-subject-2.csv","psycho","Lentiform Loewenfeld","3.3.3","0","s","NA","s","NA","NA","s","367.513999999559","NA","140451.63619999948","NA","NA","367.513999999559","2","psycho","1024","2","48000","-16","experiment","SSSSS","2","even","279630.25240000023","174145.05469999948","NA","NA","279118.41209999967","33493.66050000026","NA","NA","280952.9137999998","33687.77440000031","NA","NA","281061.79410000006","281433.55259999953","280942.3045000003","281061.2366999994","Flanker Task 2.1","47","20721.135400001775","56","yes","1024"
"84.21052631578948","84.21052631578948","369.42654561406624","369.42654561406624","black","psycho","psycho","psycho","0","congruent","uniform","1","undefined","1","s","56","0","0","0","56","0","56","0","56","0","0","0","56","56","56","56","Sat Sep 26 13:17:03 2020","1500","The main experiment item","yes","CS-FlankerTask2.1.osexp","C:/Users/Colton/OneDrive/Desktop","no","mono","no","18","no","white","no","yes","768","psycho","56","56","C:/Users/Colton/OneDrive/Desktop/CS-subject-2.csv","psycho","Lentiform Loewenfeld","3.3.3","0","s","NA","s","NA","NA","s","336.1777000000002","NA","140451.63619999948","NA","NA","336.1777000000002","2","psycho","1024","2","48000","-16","experiment","SSSSS","2","even","281497.04689999996","174145.05469999948","NA","NA","279118.41209999967","33493.66050000026","NA","NA","282808.9620999999","33687.77440000031","NA","NA","282917.63170000014","283258.24490000017","282798.86929999973","282917.05790000013","Flanker Task 2.1","48","21057.313100001775","57","yes","1024"
"84.48275862068965","84.48275862068965","369.2611603448499","369.2611603448499","black","psycho","psycho","psycho","0","incongruent","uniform","1","undefined","1","s","57","0","0","0","57","0","57","0","57","0","0","0","57","57","57","57","Sat Sep 26 13:17:03 2020","1500","The main experiment item","yes","CS-FlankerTask2.1.osexp","C:/Users/Colton/OneDrive/Desktop","no","mono","no","18","no","white","no","yes","768","psycho","57","57","C:/Users/Colton/OneDrive/Desktop/CS-subject-2.csv","psycho","Lentiform Loewenfeld","3.3.3","0","s","NA","s","NA","NA","s","359.8341999995173","NA","140451.63619999948","NA","NA","359.8341999995173","2","psycho","1024","2","48000","-16","experiment","HHSHH","2","even","283318.6195999997","174145.05469999948","NA","NA","279118.41209999967","33493.66050000026","NA","NA","284630.9292999995","33687.77440000031","NA","NA","284739.02550000005","285103.1604999998","284621.11129999993","284738.56139999954","Flanker Task 2.1","49","21417.147300001292","58","yes","1024"
"83.05084745762711","83.05084745762711","367.48830000002044","367.48830000002044","black","psycho","psycho","psycho","0","incongruent","uniform","0","undefined","0","h","58","0","0","0","58","0","58","0","58","0","0","0","58","58","58","58","Sat Sep 26 13:17:03 2020","1500","The main experiment item","yes","CS-FlankerTask2.1.osexp","C:/Users/Colton/OneDrive/Desktop","no","mono","no","18","no","white","no","yes","768","psycho","58","58","C:/Users/Colton/OneDrive/Desktop/CS-subject-2.csv","psycho","Lentiform Loewenfeld","3.3.3","0","s","NA","s","NA","NA","s","264.66239999991376","NA","140451.63619999948","NA","NA","264.66239999991376","2","psycho","1024","2","48000","-16","experiment","SSHSS","2","even","285129.73379999946","174145.05469999948","NA","NA","279118.41209999967","33493.66050000026","NA","NA","286454.64209999953","33687.77440000031","NA","NA","286563.8124999996","286832.89160000003","286444.80159999966","286562.79939999967","Flanker Task 2.1","49","21681.809700001206","59","yes","1024"
"83.33333333333333","83.33333333333333","369.27103166668775","369.27103166668775","black","psycho","psycho","psycho","0","congruent","uniform","1","undefined","1","h","59","0","0","0","59","0","59","0","59","0","0","0","59","59","59","59","Sat Sep 26 13:17:03 2020","1500","The main experiment item","yes","CS-FlankerTask2.1.osexp","C:/Users/Colton/OneDrive/Desktop","no","mono","no","18","no","white","no","yes","768","psycho","59","59","C:/Users/Colton/OneDrive/Desktop/CS-subject-2.csv","psycho","Lentiform Loewenfeld","3.3.3","0","h","NA","s","NA","NA","h","474.4522000000579","NA","140451.63619999948","NA","NA","474.4522000000579","2","psycho","1024","2","48000","-16","experiment","HHHHH","2","even","287417.6951999998","174145.05469999948","NA","NA","286903.35539999977","33493.66050000026","NA","NA","288720.4049000002","33687.77440000031","NA","NA","288828.8050000001","289308.02159999986","288711.53479999973","288828.33389999997","Flanker Task 2.1","50","22156.261900001264","60","yes","1024"
"83.60655737704919","83.60655737704919","370.13640491805063","370.13640491805063","black","psycho","psycho","psycho","0","congruent","uniform","1","undefined","1","s","60","0","0","0","60","0","60","0","60","0","0","0","60","60","60","60","Sat Sep 26 13:17:03 2020","1500","The main experiment item","yes","CS-FlankerTask2.1.osexp","C:/Users/Colton/OneDrive/Desktop","no","mono","no","18","no","white","no","yes","768","psycho","60","60","C:/Users/Colton/OneDrive/Desktop/CS-subject-2.csv","psycho","Lentiform Loewenfeld","3.3.3","0","s","NA","s","NA","NA","s","422.05879999982426","NA","140451.63619999948","NA","NA","422.05879999982426","2","psycho","1024","2","48000","-16","experiment","SSSSS","2","even","289341.6799999995","174145.05469999948","NA","NA","286903.35539999977","33493.66050000026","NA","NA","290659.2289999999","33687.77440000031","NA","NA","290768.34940000024","291194.5944999998","290649.53719999996","290767.914","Flanker Task 2.1","51","22578.320700001088","61","yes","1024"
"83.87096774193549","83.87096774193549","370.7095177419542","370.7095177419542","black","psycho","psycho","psycho","0","congruent","uniform","1","undefined","1","h","61","0","0","0","61","0","61","0","61","0","0","0","61","61","61","61","Sat Sep 26 13:17:03 2020","1500","The main experiment item","yes","CS-FlankerTask2.1.osexp","C:/Users/Colton/OneDrive/Desktop","no","mono","no","18","no","white","no","yes","768","psycho","61","61","C:/Users/Colton/OneDrive/Desktop/CS-subject-2.csv","psycho","Lentiform Loewenfeld","3.3.3","0","h","NA","s","NA","NA","h","405.6694000000716","NA","140451.63619999948","NA","NA","405.6694000000716","2","psycho","1024","2","48000","-16","experiment","HHHHH","2","even","291251.7748","174145.05469999948","NA","NA","286903.35539999977","33493.66050000026","NA","NA","292533.7468999996","33687.77440000031","NA","NA","292641.67629999976","293051.4678999998","292523.9608000002","292641.2705000002","Flanker Task 2.1","52","22983.99010000116","62","yes","1024"
"84.12698412698413","84.12698412698413","370.63514444446156","370.63514444446156","black","psycho","psycho","psycho","0","incongruent","uniform","1","undefined","1","h","62","0","0","0","62","0","62","0","62","0","0","0","62","62","62","62","Sat Sep 26 13:17:03 2020","1500","The main experiment item","yes","CS-FlankerTask2.1.osexp","C:/Users/Colton/OneDrive/Desktop","no","mono","no","18","no","white","no","yes","768","psycho","62","62","C:/Users/Colton/OneDrive/Desktop/CS-subject-2.csv","psycho","Lentiform Loewenfeld","3.3.3","0","h","NA","s","NA","NA","h","366.0239999999176","NA","140451.63619999948","NA","NA","366.0239999999176","2","psycho","1024","2","48000","-16","experiment","SSHSS","2","even","293109.6458000002","174145.05469999948","NA","NA","286903.35539999977","33493.66050000026","NA","NA","294415.29939999967","33687.77440000031","NA","NA","294523.67890000006","294893.599","294406.2911000001","294523.1772999996","Flanker Task 2.1","53","23350.014100001077","63","yes","1024"
"82.8125","82.8125","369.71164843751194","369.71164843751194","black","psycho","psycho","psycho","0","incongruent","uniform","0","undefined","0","s","63","0","0","0","63","0","63","0","63","0","0","0","63","63","63","63","Sat Sep 26 13:17:03 2020","1500","The main experiment item","yes","CS-FlankerTask2.1.osexp","C:/Users/Colton/OneDrive/Desktop","no","mono","no","18","no","white","no","yes","768","psycho","63","63","C:/Users/Colton/OneDrive/Desktop/CS-subject-2.csv","psycho","Lentiform Loewenfeld","3.3.3","0","h","NA","s","NA","NA","h","311.531399999687","NA","140451.63619999948","NA","NA","311.531399999687","2","psycho","1024","2","48000","-16","experiment","HHSHH","2","even","294967.64090000035","174145.05469999948","NA","NA","286903.35539999977","33493.66050000026","NA","NA","296264.50680000015","33687.77440000031","NA","NA","296372.72649999976","296688.17190000025","296255.18980000017","296372.2376999995","Flanker Task 2.1","53","23661.545500000764","64","yes","1024"
"83.07692307692308","83.07692307692308","371.1733107692338","371.1733107692338","black","psycho","psycho","psycho","0","congruent","uniform","1","undefined","1","s","64","0","0","0","64","0","64","0","64","0","0","0","64","64","64","64","Sat Sep 26 13:17:03 2020","1500","The main experiment item","yes","CS-FlankerTask2.1.osexp","C:/Users/Colton/OneDrive/Desktop","no","mono","no","18","no","white","no","yes","768","psycho","64","64","C:/Users/Colton/OneDrive/Desktop/CS-subject-2.csv","psycho","Lentiform Loewenfeld","3.3.3","0","s","NA","s","NA","NA","s","464.71969999943394","NA","140451.63619999948","NA","NA","464.71969999943394","2","psycho","1024","2","48000","-16","experiment","SSSSS","2","even","297257.11020000017","174145.05469999948","NA","NA","296740.8422999997","33493.66050000026","NA","NA","298560.4533999995","33687.77440000031","NA","NA","298668.6140000002","299137.9691000002","298550.78869999945","298668.04339999997","Flanker Task 2.1","54","24126.265200000198","65","yes","1024"
"83.33333333333333","83.33333333333333","371.45908636364214","371.45908636364214","black","psycho","psycho","psycho","0","incongruent","uniform","1","undefined","1","h","65","0","0","0","65","0","65","0","65","0","0","0","65","65","65","65","Sat Sep 26 13:17:03 2020","1500","The main experiment item","yes","CS-FlankerTask2.1.osexp","C:/Users/Colton/OneDrive/Desktop","no","mono","no","18","no","white","no","yes","768","psycho","65","65","C:/Users/Colton/OneDrive/Desktop/CS-subject-2.csv","psycho","Lentiform Loewenfeld","3.3.3","0","h","NA","s","NA","NA","h","390.03450000018347","NA","140451.63619999948","NA","NA","390.03450000018347","2","psycho","1024","2","48000","-16","experiment","SSHSS","2","even","299195.9353000002","174145.05469999948","NA","NA","296740.8422999997","33493.66050000026","NA","NA","300502.84180000017","33687.77440000031","NA","NA","300612.23040000006","301007.34980000014","300493.73279999965","300611.7469999999","Flanker Task 2.1","55","24516.29970000038","66","yes","1024"
"83.58208955223881","83.58208955223881","371.34013731343197","371.34013731343197","black","psycho","psycho","psycho","0","incongruent","uniform","1","undefined","1","s","66","0","0","0","66","0","66","0","66","0","0","0","66","66","66","66","Sat Sep 26 13:17:03 2020","1500","The main experiment item","yes","CS-FlankerTask2.1.osexp","C:/Users/Colton/OneDrive/Desktop","no","mono","no","18","no","white","no","yes","768","psycho","66","66","C:/Users/Colton/OneDrive/Desktop/CS-subject-2.csv","psycho","Lentiform Loewenfeld","3.3.3","0","s","NA","s","NA","NA","s","363.4894999995595","NA","140451.63619999948","NA","NA","363.4894999995595","2","psycho","1024","2","48000","-16","experiment","HHSHH","2","even","301065.85399999947","174145.05469999948","NA","NA","296740.8422999997","33493.66050000026","NA","NA","302404.14429999964","33687.77440000031","NA","NA","302512.5681","302881.28549999965","302394.2139999999","302512.09689999995","Flanker Task 2.1","56","24879.78919999994","67","yes","1024"
"82.3529411764706","82.3529411764706","371.3547764705881","371.3547764705881","black","psycho","psycho","psycho","0","incongruent","uniform","0","undefined","0","s","67","0","0","0","67","0","67","0","67","0","0","0","67","67","67","67","Sat Sep 26 13:17:03 2020","1500","The main experiment item","yes","CS-FlankerTask2.1.osexp","C:/Users/Colton/OneDrive/Desktop","no","mono","no","18","no","white","no","yes","768","psycho","67","67","C:/Users/Colton/OneDrive/Desktop/CS-subject-2.csv","psycho","Lentiform Loewenfeld","3.3.3","0","h","NA","s","NA","NA","h","372.33560000004945","NA","140451.63619999948","NA","NA","372.33560000004945","2","psycho","1024","2","48000","-16","experiment","HHSHH","2","even","302907.53949999996","174145.05469999948","NA","NA","296740.8422999997","33493.66050000026","NA","NA","304208.83719999983","33687.77440000031","NA","NA","304317.8097","304694.74220000027","304199.3651000002","304317.36249999993","Flanker Task 2.1","56","25252.12479999999","68","yes","1024"
"82.6086956521739","82.6086956521739","372.6266956521743","372.6266956521743","black","psycho","psycho","psycho","0","incongruent","uniform","1","undefined","1","s","68","0","0","0","68","0","68","0","68","0","0","0","68","68","68","68","Sat Sep 26 13:17:03 2020","1500","The main experiment item","yes","CS-FlankerTask2.1.osexp","C:/Users/Colton/OneDrive/Desktop","no","mono","no","18","no","white","no","yes","768","psycho","68","68","C:/Users/Colton/OneDrive/Desktop/CS-subject-2.csv","psycho","Lentiform Loewenfeld","3.3.3","0","s","NA","s","NA","NA","s","459.117200000037","NA","140451.63619999948","NA","NA","459.117200000037","2","psycho","1024","2","48000","-16","experiment","HHSHH","2","even","305285.9921999998","174145.05469999948","NA","NA","304764.1824000002","33493.66050000026","NA","NA","306597.1185999997","33687.77440000031","NA","NA","306705.8484999998","307169.28899999947","306587.7832999995","306705.41909999977","Flanker Task 2.1","57","25711.242000000027","69","yes","1024"
"82.85714285714286","82.85714285714286","374.584307142851","374.584307142851","black","psycho","psycho","psycho","0","incongruent","uniform","1","undefined","1","s","69","0","0","0","69","0","69","0","69","0","0","0","69","69","69","69","Sat Sep 26 13:17:03 2020","1500","The main experiment item","yes","CS-FlankerTask2.1.osexp","C:/Users/Colton/OneDrive/Desktop","no","mono","no","18","no","white","no","yes","768","psycho","69","69","C:/Users/Colton/OneDrive/Desktop/CS-subject-2.csv","psycho","Lentiform Loewenfeld","3.3.3","0","s","NA","s","NA","NA","s","509.6594999995432","NA","140451.63619999948","NA","NA","509.6594999995432","2","psycho","1024","2","48000","-16","experiment","HHSHH","2","even","307230.0206","174145.05469999948","NA","NA","304764.1824000002","33493.66050000026","NA","NA","308547.27899999946","33687.77440000031","NA","NA","308656.4785","309170.31229999976","308538.2909","308655.98249999946","Flanker Task 2.1","58","26220.90149999957","70","yes","1024"
"83.09859154929578","83.09859154929578","375.7811901408435","375.7811901408435","black","psycho","psycho","psycho","0","congruent","uniform","1","undefined","1","h","70","0","0","0","70","0","70","0","70","0","0","0","70","70","70","70","Sat Sep 26 13:17:03 2020","1500","The main experiment item","yes","CS-FlankerTask2.1.osexp","C:/Users/Colton/OneDrive/Desktop","no","mono","no","18","no","white","no","yes","768","psycho","70","70","C:/Users/Colton/OneDrive/Desktop/CS-subject-2.csv","psycho","Lentiform Loewenfeld","3.3.3","0","h","NA","s","NA","NA","h","459.5630000003148","NA","140451.63619999948","NA","NA","459.5630000003148","2","psycho","1024","2","48000","-16","experiment","HHHHH","2","even","309231.9375999996","174145.05469999948","NA","NA","304764.1824000002","33493.66050000026","NA","NA","310529.83570000017","33687.77440000031","NA","NA","310638.6083999996","311102.21519999957","310520.6005","310637.77740000025","Flanker Task 2.1","59","26680.464499999885","71","yes","1024"
"83.33333333333333","83.33333333333333","376.35369583332954","376.35369583332954","black","psycho","psycho","psycho","0","congruent","uniform","1","undefined","1","s","71","0","0","0","71","0","71","0","71","0","0","0","71","71","71","71","Sat Sep 26 13:17:03 2020","1500","The main experiment item","yes","CS-FlankerTask2.1.osexp","C:/Users/Colton/OneDrive/Desktop","no","mono","no","18","no","white","no","yes","768","psycho","71","71","C:/Users/Colton/OneDrive/Desktop/CS-subject-2.csv","psycho","Lentiform Loewenfeld","3.3.3","0","s","NA","s","NA","NA","s","417.00159999984317","NA","140451.63619999948","NA","NA","417.00159999984317","2","psycho","1024","2","48000","-16","experiment","SSSSS","2","even","311129.3915999995","174145.05469999948","NA","NA","304764.1824000002","33493.66050000026","NA","NA","312435.76899999974","33687.77440000031","NA","NA","312544.5903999998","312966.0008999999","312426.7431999997","312544.04950000026","Flanker Task 2.1","60","27097.46609999973","72","yes","1024"
"83.56164383561644","83.56164383561644","376.0143383561549","376.0143383561549","black","psycho","psycho","psycho","0","congruent","uniform","1","undefined","1","s","72","0","0","0","72","0","72","0","72","0","0","0","72","72","72","72","Sat Sep 26 13:17:03 2020","1500","The main experiment item","yes","CS-FlankerTask2.1.osexp","C:/Users/Colton/OneDrive/Desktop","no","mono","no","18","no","white","no","yes","768","psycho","72","72","C:/Users/Colton/OneDrive/Desktop/CS-subject-2.csv","psycho","Lentiform Loewenfeld","3.3.3","0","s","NA","s","NA","NA","s","351.58059999957914","NA","140451.63619999948","NA","NA","351.58059999957914","2","psycho","1024","2","48000","-16","experiment","SSSSS","2","even","313030.7066999994","174145.05469999948","NA","NA","304764.1824000002","33493.66050000026","NA","NA","314350.9944999996","33687.77440000031","NA","NA","314460.1141000003","314816.66119999957","314341.5030999995","314459.6276000002","Flanker Task 2.1","61","27449.046699999308","73","yes","1024"
"83.78378378378379","83.78378378378379","379.74689324323884","379.74689324323884","black","psycho","psycho","psycho","0","congruent","uniform","1","undefined","1","h","73","0","0","0","73","0","73","0","73","0","0","0","73","73","73","73","Sat Sep 26 13:17:03 2020","1500","The main experiment item","yes","CS-FlankerTask2.1.osexp","C:/Users/Colton/OneDrive/Desktop","no","mono","no","18","no","white","no","yes","768","psycho","73","73","C:/Users/Colton/OneDrive/Desktop/CS-subject-2.csv","psycho","Lentiform Loewenfeld","3.3.3","0","h","NA","s","NA","NA","h","652.2234000003664","NA","140451.63619999948","NA","NA","652.2234000003664","2","psycho","1024","2","48000","-16","experiment","HHHHH","2","even","314875.1019000001","174145.05469999948","NA","NA","304764.1824000002","33493.66050000026","NA","NA","316171.59619999985","33687.77440000031","NA","NA","316281.2312999995","316938.12999999954","316162.71239999967","316280.76309999963","Flanker Task 2.1","62","28101.270099999674","74","yes","1024"
"84","84","379.6038079999884","379.6038079999884","black","psycho","psycho","psycho","0","congruent","uniform","1","undefined","1","s","74","0","0","0","74","0","74","0","74","0","0","0","74","74","74","74","Sat Sep 26 13:17:03 2020","1500","The main experiment item","yes","CS-FlankerTask2.1.osexp","C:/Users/Colton/OneDrive/Desktop","no","mono","no","18","no","white","no","yes","768","psycho","74","74","C:/Users/Colton/OneDrive/Desktop/CS-subject-2.csv","psycho","Lentiform Loewenfeld","3.3.3","0","s","NA","s","NA","NA","s","369.01549999945564","NA","140451.63619999948","NA","NA","369.01549999945564","2","psycho","1024","2","48000","-16","experiment","SSSSS","2","even","316996.7129999995","174145.05469999948","NA","NA","304764.1824000002","33493.66050000026","NA","NA","318296.0187999997","33687.77440000031","NA","NA","318404.55010000005","318777.9290999997","318287.3031999998","318404.0939999995","Flanker Task 2.1","63","28470.28559999913","75","yes","1024"
"84.21052631578948","84.21052631578948","378.9214328947296","378.9214328947296","black","psycho","psycho","psycho","0","congruent","uniform","1","undefined","1","s","75","0","0","0","75","0","75","0","75","0","0","0","75","75","75","75","Sat Sep 26 13:17:03 2020","1500","The main experiment item","yes","CS-FlankerTask2.1.osexp","C:/Users/Colton/OneDrive/Desktop","no","mono","no","18","no","white","no","yes","768","psycho","75","75","C:/Users/Colton/OneDrive/Desktop/CS-subject-2.csv","psycho","Lentiform Loewenfeld","3.3.3","0","s","NA","s","NA","NA","s","327.74330000032205","NA","140451.63619999948","NA","NA","327.74330000032205","2","psycho","1024","2","48000","-16","experiment","SSSSS","2","even","318807.8366999998","174145.05469999948","NA","NA","304764.1824000002","33493.66050000026","NA","NA","320110.2174999996","33687.77440000031","NA","NA","320218.1553999999","320550.20179999975","320100.41159999947","320217.6565","Flanker Task 2.1","64","28798.028899999452","76","yes","1024"
"83.11688311688312","83.11688311688312","378.52691558440966","378.52691558440966","black","psycho","psycho","psycho","0","incongruent","uniform","0","undefined","0","h","76","0","0","0","76","0","76","0","76","0","0","0","76","76","76","76","Sat Sep 26 13:17:03 2020","1500","The main experiment item","yes","CS-FlankerTask2.1.osexp","C:/Users/Colton/OneDrive/Desktop","no","mono","no","18","no","white","no","yes","768","psycho","76","76","C:/Users/Colton/OneDrive/Desktop/CS-subject-2.csv","psycho","Lentiform Loewenfeld","3.3.3","0","s","NA","s","NA","NA","s","348.5436000000918","NA","140451.63619999948","NA","NA","348.5436000000918","2","psycho","1024","2","48000","-16","experiment","SSHSS","2","even","320600.82129999954","174145.05469999948","NA","NA","304764.1824000002","33493.66050000026","NA","NA","321933.08139999956","33687.77440000031","NA","NA","322041.3988","322394.6329999999","321923.1626999999","322040.9946","Flanker Task 2.1","64","29146.572499999544","77","yes","1024"
"83.33333333333333","83.33333333333333","379.86400512820376","379.86400512820376","black","psycho","psycho","psycho","0","incongruent","uniform","1","undefined","1","h","77","0","0","0","77","0","77","0","77","0","0","0","77","77","77","77","Sat Sep 26 13:17:03 2020","1500","The main experiment item","yes","CS-FlankerTask2.1.osexp","C:/Users/Colton/OneDrive/Desktop","no","mono","no","18","no","white","no","yes","768","psycho","77","77","C:/Users/Colton/OneDrive/Desktop/CS-subject-2.csv","psycho","Lentiform Loewenfeld","3.3.3","0","h","NA","s","NA","NA","h","482.8199000003515","NA","140451.63619999948","NA","NA","482.8199000003515","2","psycho","1024","2","48000","-16","experiment","SSHSS","2","even","322965.3003000003","174145.05469999948","NA","NA","322456.96619999944","33493.66050000026","NA","NA","324269.9179000001","33687.77440000031","NA","NA","324378.32819999947","324866.1216000001","324260.5962999996","324377.8374000003","Flanker Task 2.1","65","29629.392399999895","78","yes","1024"
"83.54430379746836","83.54430379746836","379.83949240505814","379.83949240505814","black","psycho","psycho","psycho","0","congruent","uniform","1","undefined","1","s","78","0","0","0","78","0","78","0","78","0","0","0","78","78","78","78","Sat Sep 26 13:17:03 2020","1500","The main experiment item","yes","CS-FlankerTask2.1.osexp","C:/Users/Colton/OneDrive/Desktop","no","mono","no","18","no","white","no","yes","768","psycho","78","78","C:/Users/Colton/OneDrive/Desktop/CS-subject-2.csv","psycho","Lentiform Loewenfeld","3.3.3","0","s","NA","s","NA","NA","s","377.92749999969965","NA","140451.63619999948","NA","NA","377.92749999969965","2","psycho","1024","2","48000","-16","experiment","SSSSS","2","even","324919.4668","174145.05469999948","NA","NA","322456.96619999944","33493.66050000026","NA","NA","326239.65839999984","33687.77440000031","NA","NA","326348.06070000015","326731.2042000003","326229.6410999998","326347.61400000023","Flanker Task 2.1","66","30007.319899999595","79","yes","1024"
"83.75","83.75","378.9674549999945","378.9674549999945","black","psycho","psycho","psycho","0","incongruent","uniform","1","undefined","1","s","79","0","0","0","79","0","79","0","79","0","0","0","79","79","79","79","Sat Sep 26 13:17:03 2020","1500","The main experiment item","yes","CS-FlankerTask2.1.osexp","C:/Users/Colton/OneDrive/Desktop","no","mono","no","18","no","white","no","yes","768","psycho","79","79","C:/Users/Colton/OneDrive/Desktop/CS-subject-2.csv","psycho","Lentiform Loewenfeld","3.3.3","0","s","NA","s","NA","NA","s","310.0764999999665","NA","140451.63619999948","NA","NA","310.0764999999665","2","psycho","1024","2","48000","-16","experiment","HHSHH","2","even","326787.73509999976","174145.05469999948","NA","NA","322456.96619999944","33493.66050000026","NA","NA","328090.8885999997","33687.77440000031","NA","NA","328199.65839999984","328515.26560000004","328082.0531999998","328199.16310000006","Flanker Task 2.1","67","30317.39639999956","80","yes","1024"
"83.95061728395062","83.95061728395062","383.7222814814728","383.7222814814728","black","psycho","psycho","psycho","0","incongruent","uniform","1","undefined","1","s","80","0","0","0","80","0","80","0","80","0","0","0","80","80","80","80","Sat Sep 26 13:17:03 2020","600","The main experiment item","yes","CS-FlankerTask2.1.osexp","C:/Users/Colton/OneDrive/Desktop","no","mono","no","18","no","white","no","yes","768","psycho","0","79","C:/Users/Colton/OneDrive/Desktop/CS-subject-2.csv","psycho","Lentiform Loewenfeld","3.3.3","0","s","NA","s","rctrl","NA","s","764.1083999997354","NA","140451.63619999948","19691.785600000003","NA","764.1083999997354","2","psycho","1024","2","48000","-16","experiment","HHSHH","2","even","328576.05409999995","174145.05469999948","349460.7792999996","NA","322456.96619999944","33493.66050000026","NA","NA","349662.9387000003","33687.77440000031","329763.7761999995","NA","349772.99700000003","350542.3468999998","349651.75219999946","349772.5097000002","Flanker Task 2.1","68","31081.504799999297","81","yes","1024"
"84.14634146341463","84.14634146341463","384.1790341463305","384.1790341463305","black","psycho","psycho","psycho","0","incongruent","uniform","1","undefined","1","s","81","0","0","0","81","0","81","0","81","0","0","0","81","81","81","81","Sat Sep 26 13:17:03 2020","600","The main experiment item","yes","CS-FlankerTask2.1.osexp","C:/Users/Colton/OneDrive/Desktop","no","mono","no","18","no","white","no","yes","768","psycho","1","79","C:/Users/Colton/OneDrive/Desktop/CS-subject-2.csv","psycho","Lentiform Loewenfeld","3.3.3","0","s","NA","s","rctrl","NA","s","421.175999999803","NA","140451.63619999948","19691.785600000003","NA","421.175999999803","2","psycho","1024","2","48000","-16","experiment","HHSHH","2","even","351113.1058000001","174145.05469999948","349460.7792999996","NA","322456.96619999944","33493.66050000026","350600.08209999977","NA","352426.11339999986","33687.77440000031","329763.7761999995","NA","352534.09490000014","352960.0615999998","352416.29579999973","352533.60189999966","Flanker Task 2.1","69","31502.6807999991","82","yes","1024"
"84.33734939759036","84.33734939759036","384.23608554215366","384.23608554215366","black","psycho","psycho","psycho","0","incongruent","uniform","1","undefined","1","h","82","0","0","0","82","0","82","0","82","0","0","0","82","82","82","82","Sat Sep 26 13:17:03 2020","600","The main experiment item","yes","CS-FlankerTask2.1.osexp","C:/Users/Colton/OneDrive/Desktop","no","mono","no","18","no","white","no","yes","768","psycho","2","79","C:/Users/Colton/OneDrive/Desktop/CS-subject-2.csv","psycho","Lentiform Loewenfeld","3.3.3","0","h","NA","s","rctrl","NA","h","388.91429999965476","NA","140451.63619999948","19691.785600000003","NA","388.91429999965476","2","psycho","1024","2","48000","-16","experiment","SSHSS","2","even","353021.15270000015","174145.05469999948","349460.7792999996","NA","322456.96619999944","33493.66050000026","350600.08209999977","NA","354311.81389999983","33687.77440000031","329763.7761999995","NA","354419.52630000014","354813.10119999945","354303.1504999999","354419.0954999995","Flanker Task 2.1","70","31891.595099998754","83","yes","1024"
"84.52380952380952","84.52380952380952","384.1619690476031","384.1619690476031","black","psycho","psycho","psycho","0","congruent","uniform","1","undefined","1","h","83","0","0","0","83","0","83","0","83","0","0","0","83","83","83","83","Sat Sep 26 13:17:03 2020","600","The main experiment item","yes","CS-FlankerTask2.1.osexp","C:/Users/Colton/OneDrive/Desktop","no","mono","no","18","no","white","no","yes","768","psycho","3","79","C:/Users/Colton/OneDrive/Desktop/CS-subject-2.csv","psycho","Lentiform Loewenfeld","3.3.3","0","h","NA","s","rctrl","NA","h","378.01029999990715","NA","140451.63619999948","19691.785600000003","NA","378.01029999990715","2","psycho","1024","2","48000","-16","experiment","HHHHH","2","even","354879.2493000001","174145.05469999948","349460.7792999996","NA","322456.96619999944","33493.66050000026","350600.08209999977","NA","356191.83840000007","33687.77440000031","329763.7761999995","NA","356300.56869999954","356683.35860000027","356183.2292999998","356300.11990000005","Flanker Task 2.1","71","32269.60539999866","84","yes","1024"
"84.70588235294117","84.70588235294117","384.56623999998453","384.56623999998453","black","psycho","psycho","psycho","0","congruent","uniform","1","undefined","1","h","84","0","0","0","84","0","84","0","84","0","0","0","84","84","84","84","Sat Sep 26 13:17:03 2020","600","The main experiment item","yes","CS-FlankerTask2.1.osexp","C:/Users/Colton/OneDrive/Desktop","no","mono","no","18","no","white","no","yes","768","psycho","4","79","C:/Users/Colton/OneDrive/Desktop/CS-subject-2.csv","psycho","Lentiform Loewenfeld","3.3.3","0","h","NA","s","rctrl","NA","h","418.5250000000233","NA","140451.63619999948","19691.785600000003","NA","418.5250000000233","2","psycho","1024","2","48000","-16","experiment","HHHHH","2","even","356765.8703999996","174145.05469999948","349460.7792999996","NA","322456.96619999944","33493.66050000026","350600.08209999977","NA","358072.9450999997","33687.77440000031","329763.7761999995","NA","358180.99079999956","358605.84870000003","358063.7399999996","358180.5643999996","Flanker Task 2.1","72","32688.130399998685","85","yes","1024"
"84.88372093023256","84.88372093023256","384.4708418604494","384.4708418604494","black","psycho","psycho","psycho","0","congruent","uniform","1","undefined","1","h","85","0","0","0","85","0","85","0","85","0","0","0","85","85","85","85","Sat Sep 26 13:17:03 2020","600","The main experiment item","yes","CS-FlankerTask2.1.osexp","C:/Users/Colton/OneDrive/Desktop","no","mono","no","18","no","white","no","yes","768","psycho","5","79","C:/Users/Colton/OneDrive/Desktop/CS-subject-2.csv","psycho","Lentiform Loewenfeld","3.3.3","0","h","NA","s","rctrl","NA","h","376.3619999999646","NA","140451.63619999948","19691.785600000003","NA","376.3619999999646","2","psycho","1024","2","48000","-16","experiment","HHHHH","2","even","358665.89779999957","174145.05469999948","349460.7792999996","NA","322456.96619999944","33493.66050000026","350600.08209999977","NA","359983.5949999997","33687.77440000031","329763.7761999995","NA","360091.54690000013","360472.2462999998","359973.9147","360091.10559999954","Flanker Task 2.1","73","33064.49239999865","86","yes","1024"
"85.05747126436782","85.05747126436782","384.91577356320204","384.91577356320204","black","psycho","psycho","psycho","0","congruent","uniform","1","undefined","1","s","86","0","0","0","86","0","86","0","86","0","0","0","86","86","86","86","Sat Sep 26 13:17:03 2020","600","The main experiment item","yes","CS-FlankerTask2.1.osexp","C:/Users/Colton/OneDrive/Desktop","no","mono","no","18","no","white","no","yes","768","psycho","6","79","C:/Users/Colton/OneDrive/Desktop/CS-subject-2.csv","psycho","Lentiform Loewenfeld","3.3.3","0","s","NA","s","rctrl","NA","s","423.17989999993006","NA","140451.63619999948","19691.785600000003","NA","423.17989999993006","2","psycho","1024","2","48000","-16","experiment","SSSSS","2","even","360498.3460000003","174145.05469999948","349460.7792999996","NA","322456.96619999944","33493.66050000026","350600.08209999977","NA","361778.2275999998","33687.77440000031","329763.7761999995","NA","361886.2767999999","362314.4535000001","361769.64119999955","361885.8197999998","Flanker Task 2.1","74","33487.67229999858","87","yes","1024"
"84.0909090909091","84.0909090909091","383.5005284090757","383.5005284090757","black","psycho","psycho","psycho","0","incongruent","uniform","0","undefined","0","h","87","0","0","0","87","0","87","0","87","0","0","0","87","87","87","87","Sat Sep 26 13:17:03 2020","600","The main experiment item","yes","CS-FlankerTask2.1.osexp","C:/Users/Colton/OneDrive/Desktop","no","mono","no","18","no","white","no","yes","768","psycho","7","79","C:/Users/Colton/OneDrive/Desktop/CS-subject-2.csv","psycho","Lentiform Loewenfeld","3.3.3","0","s","NA","s","rctrl","NA","s","260.3742000000784","NA","140451.63619999948","19691.785600000003","NA","260.3742000000784","2","psycho","1024","2","48000","-16","experiment","SSHSS","2","even","362389.9437","174145.05469999948","349460.7792999996","NA","322456.96619999944","33493.66050000026","350600.08209999977","NA","363699.6383999995","33687.77440000031","329763.7761999995","NA","363807.9299000001","364074.4787000003","363690.3560000001","363807.3843000002","Flanker Task 2.1","74","33748.04649999866","88","yes","1024"
"84.26966292134831","84.26966292134831","382.5486685393098","382.5486685393098","black","psycho","psycho","psycho","0","congruent","uniform","1","undefined","1","h","88","0","0","0","88","0","88","0","88","0","0","0","88","88","88","88","Sat Sep 26 13:17:03 2020","600","The main experiment item","yes","CS-FlankerTask2.1.osexp","C:/Users/Colton/OneDrive/Desktop","no","mono","no","18","no","white","no","yes","768","psycho","8","79","C:/Users/Colton/OneDrive/Desktop/CS-subject-2.csv","psycho","Lentiform Loewenfeld","3.3.3","0","h","NA","s","rctrl","NA","h","298.7849999999162","NA","140451.63619999948","19691.785600000003","NA","298.7849999999162","2","psycho","1024","2","48000","-16","experiment","HHHHH","2","even","364646.18449999945","174145.05469999948","349460.7792999996","NA","364137.1067","33493.66050000026","350600.08209999977","NA","365945.7685999996","33687.77440000031","329763.7761999995","NA","366054.6748999996","366358.8154999998","365936.8168000001","366054.20830000006","Flanker Task 2.1","75","34046.831499998574","89","yes","1024"
"84.44444444444444","84.44444444444444","381.91801888887807","381.91801888887807","black","psycho","psycho","psycho","0","congruent","uniform","1","undefined","1","s","89","0","0","0","89","0","89","0","89","0","0","0","89","89","89","89","Sat Sep 26 13:17:03 2020","600","The main experiment item","yes","CS-FlankerTask2.1.osexp","C:/Users/Colton/OneDrive/Desktop","no","mono","no","18","no","white","no","yes","768","psycho","9","79","C:/Users/Colton/OneDrive/Desktop/CS-subject-2.csv","psycho","Lentiform Loewenfeld","3.3.3","0","s","NA","s","rctrl","NA","s","325.7902000004542","NA","140451.63619999948","19691.785600000003","NA","325.7902000004542","2","psycho","1024","2","48000","-16","experiment","SSSSS","2","even","366387.7567999998","174145.05469999948","349460.7792999996","NA","364137.1067","33493.66050000026","350600.08209999977","NA","367709.1553999999","33687.77440000031","329763.7761999995","NA","367818.6085999996","368149.6539","367699.7762000001","367818.12439999974","Flanker Task 2.1","76","34372.62169999903","90","yes","1024"
"83.51648351648352","83.51648351648352","381.35454725273337","381.35454725273337","black","psycho","psycho","psycho","0","incongruent","uniform","0","undefined","0","h","90","0","0","0","90","0","90","0","90","0","0","0","90","90","90","90","Sat Sep 26 13:17:03 2020","600","The main experiment item","yes","CS-FlankerTask2.1.osexp","C:/Users/Colton/OneDrive/Desktop","no","mono","no","18","no","white","no","yes","768","psycho","10","79","C:/Users/Colton/OneDrive/Desktop/CS-subject-2.csv","psycho","Lentiform Loewenfeld","3.3.3","0","s","NA","s","rctrl","NA","s","330.64209999970626","NA","140451.63619999948","19691.785600000003","NA","330.64209999970626","2","psycho","1024","2","48000","-16","experiment","SSHSS","2","even","368198.1839","174145.05469999948","349460.7792999996","NA","364137.1067","33493.66050000026","350600.08209999977","NA","369500.99460000003","33687.77440000031","329763.7761999995","NA","369608.6512000002","369944.7646999997","369490.81299999944","369608.22800000006","Flanker Task 2.1","76","34703.263799998735","91","yes","1024"
"83.69565217391305","83.69565217391305","381.48015978259576","381.48015978259576","black","psycho","psycho","psycho","0","incongruent","uniform","1","undefined","1","h","91","0","0","0","91","0","91","0","91","0","0","0","91","91","91","91","Sat Sep 26 13:17:03 2020","600","The main experiment item","yes","CS-FlankerTask2.1.osexp","C:/Users/Colton/OneDrive/Desktop","no","mono","no","18","no","white","no","yes","768","psycho","11","79","C:/Users/Colton/OneDrive/Desktop/CS-subject-2.csv","psycho","Lentiform Loewenfeld","3.3.3","0","h","NA","s","rctrl","NA","h","392.91090000007534","NA","140451.63619999948","19691.785600000003","NA","392.91090000007534","2","psycho","1024","2","48000","-16","experiment","SSHSS","2","even","370489.5458999999","174145.05469999948","349460.7792999996","NA","369977.3495999998","33493.66050000026","350600.08209999977","NA","371787.9906999997","33687.77440000031","329763.7761999995","NA","371896.6061999999","372295.2795000001","371778.9348999995","371896.1575000003","Flanker Task 2.1","77","35096.17469999881","92","yes","1024"
"83.87096774193549","83.87096774193549","381.4766709677279","381.4766709677279","black","psycho","psycho","psycho","0","congruent","uniform","1","undefined","1","s","92","0","0","0","92","0","92","0","92","0","0","0","92","92","92","92","Sat Sep 26 13:17:03 2020","600","The main experiment item","yes","CS-FlankerTask2.1.osexp","C:/Users/Colton/OneDrive/Desktop","no","mono","no","18","no","white","no","yes","768","psycho","12","79","C:/Users/Colton/OneDrive/Desktop/CS-subject-2.csv","psycho","Lentiform Loewenfeld","3.3.3","0","s","NA","s","rctrl","NA","s","381.15569999988656","NA","140451.63619999948","19691.785600000003","NA","381.15569999988656","2","psycho","1024","2","48000","-16","experiment","SSSSS","2","even","372332.9231999996","174145.05469999948","349460.7792999996","NA","369977.3495999998","33493.66050000026","350600.08209999977","NA","373648.9749000002","33687.77440000031","329763.7761999995","NA","373757.47849999974","374143.5995000002","373639.35750000016","373756.98579999973","Flanker Task 2.1","78","35477.3303999987","93","yes","1024"
"84.04255319148936","84.04255319148936","381.34313191488343","381.34313191488343","black","psycho","psycho","psycho","0","congruent","uniform","1","undefined","1","h","93","0","0","0","93","0","93","0","93","0","0","0","93","93","93","93","Sat Sep 26 13:17:03 2020","600","The main experiment item","yes","CS-FlankerTask2.1.osexp","C:/Users/Colton/OneDrive/Desktop","no","mono","no","18","no","white","no","yes","768","psycho","13","79","C:/Users/Colton/OneDrive/Desktop/CS-subject-2.csv","psycho","Lentiform Loewenfeld","3.3.3","0","h","NA","s","rctrl","NA","h","368.9240000003483","NA","140451.63619999948","19691.785600000003","NA","368.9240000003483","2","psycho","1024","2","48000","-16","experiment","HHHHH","2","even","374201.37160000013","174145.05469999948","349460.7792999996","NA","369977.3495999998","33493.66050000026","350600.08209999977","NA","375527.22399999946","33687.77440000031","329763.7761999995","NA","375635.7640999995","376009.5333999998","375518.49479999964","375635.3024999999","Flanker Task 2.1","79","35846.254399999045","94","yes","1024"
"84.21052631578948","84.21052631578948","382.0433642105144","382.0433642105144","black","psycho","psycho","psycho","0","incongruent","uniform","1","undefined","1","h","94","0","0","0","94","0","94","0","94","0","0","0","94","94","94","94","Sat Sep 26 13:17:03 2020","600","The main experiment item","yes","CS-FlankerTask2.1.osexp","C:/Users/Colton/OneDrive/Desktop","no","mono","no","18","no","white","no","yes","768","psycho","14","79","C:/Users/Colton/OneDrive/Desktop/CS-subject-2.csv","psycho","Lentiform Loewenfeld","3.3.3","0","h","NA","s","rctrl","NA","h","447.86519999982556","NA","140451.63619999948","19691.785600000003","NA","447.86519999982556","2","psycho","1024","2","48000","-16","experiment","SSHSS","2","even","376067.03990000003","174145.05469999948","349460.7792999996","NA","369977.3495999998","33493.66050000026","350600.08209999977","NA","377396.0222999995","33687.77440000031","329763.7761999995","NA","377505.3292000002","377958.1361999999","377385.9937999996","377504.87340000016","Flanker Task 2.1","80","36294.11959999887","95","yes","1024"
"83.33333333333333","83.33333333333333","381.95927604165627","381.95927604165627","black","psycho","psycho","psycho","0","incongruent","uniform","0","undefined","0","s","95","0","0","0","95","0","95","0","95","0","0","0","95","95","95","95","Sat Sep 26 13:17:03 2020","600","The main experiment item","yes","CS-FlankerTask2.1.osexp","C:/Users/Colton/OneDrive/Desktop","no","mono","no","18","no","white","no","yes","768","psycho","15","79","C:/Users/Colton/OneDrive/Desktop/CS-subject-2.csv","psycho","Lentiform Loewenfeld","3.3.3","0","h","NA","s","rctrl","NA","h","373.9709000001312","NA","140451.63619999948","19691.785600000003","NA","373.9709000001312","2","psycho","1024","2","48000","-16","experiment","HHSHH","2","even","377987.94029999955","174145.05469999948","349460.7792999996","NA","369977.3495999998","33493.66050000026","350600.08209999977","NA","379296.4026","33687.77440000031","329763.7761999995","NA","379404.66639999975","379784.13399999955","379287.4654999996","379404.2043999998","Flanker Task 2.1","80","36668.090499999","96","yes","1024"
"83.50515463917526","83.50515463917526","381.8777876288598","381.8777876288598","black","psycho","psycho","psycho","0","congruent","uniform","1","undefined","1","h","96","0","0","0","96","0","96","0","96","0","0","0","96","96","96","96","Sat Sep 26 13:17:03 2020","600","The main experiment item","yes","CS-FlankerTask2.1.osexp","C:/Users/Colton/OneDrive/Desktop","no","mono","no","18","no","white","no","yes","768","psycho","16","79","C:/Users/Colton/OneDrive/Desktop/CS-subject-2.csv","psycho","Lentiform Loewenfeld","3.3.3","0","h","NA","s","rctrl","NA","h","374.0549000003957","NA","140451.63619999948","19691.785600000003","NA","374.0549000003957","2","psycho","1024","2","48000","-16","experiment","HHHHH","2","even","380382.2198999997","174145.05469999948","349460.7792999996","NA","379868.29190000024","33493.66050000026","350600.08209999977","NA","381693.61440000014","33687.77440000031","329763.7761999995","NA","381802.6480999997","382182.24069999997","381684.76310000004","381802.03830000025","Flanker Task 2.1","81","37042.1453999994","97","yes","1024"
