condition,acc,accuracy,average_response_time,avg_rt,background,canvas_backend,clock_backend,color_backend,compensation,coordinates,correct,correct_instructions1,correct_keyboard_response,correct_response,count_Instructions2,count_block1,count_block2,count_block3,count_errorfeedback,count_experiment,count_faster,count_finish,count_fixation,count_instructions1,count_instructions3,count_isi,count_keyboard_response,count_logger,count_sequence,count_stimulus,datetime,deadline,description,disable_garbage_collection,experiment_file,experiment_path,font_bold,font_family,font_italic,font_size,font_underline,foreground,form_clicks,fullscreen,height,keyboard_backend,live_row,live_row_block1,logfile,mouse_backend,opensesame_codename,opensesame_version,repeat_cycle,response,response_Instructions2,response_finish,response_instructions1,response_instructions3,response_keyboard_response,response_time,response_time_Instructions2,response_time_finish,response_time_instructions1,response_time_instructions3,response_time_keyboard_response,round_decimals,sampler_backend,sound_buf_size,sound_channels,sound_freq,sound_sample_size,start,stimulus,subject_nr,subject_parity,time_Instructions2,time_block1,time_block2,time_block3,time_errorfeedback,time_experiment,time_faster,time_finish,time_fixation,time_instructions1,time_instructions3,time_isi,time_keyboard_response,time_logger,time_sequence,time_stimulus,title,total_correct,total_response_time,total_responses,uniform_coordinates,width
incongruent,100,100,904.906101,904.906101,black,psycho,psycho,psycho,0,uniform,1,undefined,1,h,0,0,0,0,0,0,0,0,0,0,0,0,0,0,0,0,Sun Sep 27 17:16:21 2020,1500,The main experiment item,yes,FlankerTask.osexp,/Users/tforestmoore/Desktop,no,mono,no,18,no,white,no,yes,768,psycho,0,0,/Users/tforestmoore/Desktop/Tarleton/Fall 2020/Math/Lab 2/ALM-subject-3.csv,psycho,Lentiform Loewenfeld,3.3.3,0,h,NA,NA,s,NA,h,904.906101,NA,NA,38139.92674,NA,904.906101,2,psycho,1024,2,48000,-16,experiment,SSHSS,3,odd,NA,43416.27675,NA,NA,NA,5146.075571,NA,NA,43604.63162,5213.521131,NA,NA,43718.72381,44625.6198,43529.38738,43718.30692,Flanker Task,1,904.906101,1,yes,1024
congruent,100,100,864.754232,864.754232,black,psycho,psycho,psycho,0,uniform,1,undefined,1,s,0,0,0,0,1,0,1,0,1,0,0,1,1,1,1,1,Sun Sep 27 17:16:21 2020,1500,The main experiment item,yes,FlankerTask.osexp,/Users/tforestmoore/Desktop,no,mono,no,18,no,white,no,yes,768,psycho,1,1,/Users/tforestmoore/Desktop/Tarleton/Fall 2020/Math/Lab 2/ALM-subject-3.csv,psycho,Lentiform Loewenfeld,3.3.3,0,s,NA,NA,s,NA,s,824.602363,NA,NA,38139.92674,NA,824.602363,2,psycho,1024,2,48000,-16,experiment,SSSSS,3,odd,NA,43416.27675,NA,NA,NA,5146.075571,NA,NA,45784.37964,5213.521131,NA,44650.93102,45902.19551,46729.4289,45762.47645,45901.09123,Flanker Task,2,1729.508464,2,yes,1024
incongruent,100,100,828.7707937,828.7707937,black,psycho,psycho,psycho,0,uniform,1,undefined,1,s,0,0,0,0,2,0,2,0,2,0,0,2,2,2,2,2,Sun Sep 27 17:16:21 2020,1500,The main experiment item,yes,FlankerTask.osexp,/Users/tforestmoore/Desktop,no,mono,no,18,no,white,no,yes,768,psycho,2,2,/Users/tforestmoore/Desktop/Tarleton/Fall 2020/Math/Lab 2/ALM-subject-3.csv,psycho,Lentiform Loewenfeld,3.3.3,0,s,NA,NA,s,NA,s,756.803917,NA,NA,38139.92674,NA,756.803917,2,psycho,1024,2,48000,-16,experiment,HHSHH,3,odd,NA,43416.27675,NA,NA,NA,5146.075571,NA,NA,47884.31204,5213.521131,NA,46753.85058,48001.40656,48763.86648,47863.35732,48000.82023,Flanker Task,3,2486.312381,3,yes,1024
congruent,100,100,767.1355815,767.1355815,black,psycho,psycho,psycho,0,uniform,1,undefined,1,h,0,0,0,0,3,0,3,0,3,0,0,3,3,3,3,3,Sun Sep 27 17:16:21 2020,1500,The main experiment item,yes,FlankerTask.osexp,/Users/tforestmoore/Desktop,no,mono,no,18,no,white,no,yes,768,psycho,3,3,/Users/tforestmoore/Desktop/Tarleton/Fall 2020/Math/Lab 2/ALM-subject-3.csv,psycho,Lentiform Loewenfeld,3.3.3,0,h,NA,NA,s,NA,h,582.229945,NA,NA,38139.92674,NA,582.229945,2,psycho,1024,2,48000,-16,experiment,HHHHH,3,odd,NA,43416.27675,NA,NA,NA,5146.075571,NA,NA,49901.20464,5213.521131,NA,48784.32373,50018.63465,50602.96252,49891.77736,50017.54183,Flanker Task,4,3068.542326,4,yes,1024
congruent,100,100,711.4670402,711.4670402,black,psycho,psycho,psycho,0,uniform,1,undefined,1,s,0,0,0,0,4,0,4,0,4,0,0,4,4,4,4,4,Sun Sep 27 17:16:21 2020,1500,The main experiment item,yes,FlankerTask.osexp,/Users/tforestmoore/Desktop,no,mono,no,18,no,white,no,yes,768,psycho,4,4,/Users/tforestmoore/Desktop/Tarleton/Fall 2020/Math/Lab 2/ALM-subject-3.csv,psycho,Lentiform Loewenfeld,3.3.3,0,s,NA,NA,s,NA,s,488.792875,NA,NA,38139.92674,NA,488.792875,2,psycho,1024,2,48000,-16,experiment,SSSSS,3,odd,NA,43416.27675,NA,NA,NA,5146.075571,NA,NA,51734.49618,5213.521131,NA,50617.3185,51851.05279,52341.75784,51725.71135,51850.68664,Flanker Task,5,3557.335201,5,yes,1024
incongruent,100,100,717.7020527,717.7020527,black,psycho,psycho,psycho,0,uniform,1,undefined,1,h,0,0,0,0,5,0,5,0,5,0,0,5,5,5,5,5,Sun Sep 27 17:16:21 2020,1500,The main experiment item,yes,FlankerTask.osexp,/Users/tforestmoore/Desktop,no,mono,no,18,no,white,no,yes,768,psycho,5,5,/Users/tforestmoore/Desktop/Tarleton/Fall 2020/Math/Lab 2/ALM-subject-3.csv,psycho,Lentiform Loewenfeld,3.3.3,0,h,NA,NA,s,NA,h,748.877115,NA,NA,38139.92674,NA,748.877115,2,psycho,1024,2,48000,-16,experiment,SSHSS,3,odd,NA,43416.27675,NA,NA,NA,5146.075571,NA,NA,53484.94769,5213.521131,NA,52351.05788,53601.56646,54352.44701,53459.06955,53600.98716,Flanker Task,6,4306.212316,6,yes,1024
incongruent,100,100,708.397116,708.397116,black,psycho,psycho,psycho,0,uniform,1,undefined,1,s,0,0,0,0,6,0,6,0,6,0,0,6,6,6,6,6,Sun Sep 27 17:16:21 2020,1500,The main experiment item,yes,FlankerTask.osexp,/Users/tforestmoore/Desktop,no,mono,no,18,no,white,no,yes,768,psycho,6,6,/Users/tforestmoore/Desktop/Tarleton/Fall 2020/Math/Lab 2/ALM-subject-3.csv,psycho,Lentiform Loewenfeld,3.3.3,0,s,NA,NA,s,NA,s,652.567496,NA,NA,38139.92674,NA,652.567496,2,psycho,1024,2,48000,-16,experiment,HHSHH,3,odd,NA,43416.27675,NA,NA,NA,5146.075571,NA,NA,55484.12022,5213.521131,NA,54367.59386,55602.998,56257.67259,55475.57601,55601.91041,Flanker Task,7,4958.779812,7,yes,1024
incongruent,100,100,704.9362781,704.9362781,black,psycho,psycho,psycho,0,uniform,1,undefined,1,s,0,0,0,0,7,0,7,0,7,0,0,7,7,7,7,7,Sun Sep 27 17:16:21 2020,1500,The main experiment item,yes,FlankerTask.osexp,/Users/tforestmoore/Desktop,no,mono,no,18,no,white,no,yes,768,psycho,7,7,/Users/tforestmoore/Desktop/Tarleton/Fall 2020/Math/Lab 2/ALM-subject-3.csv,psycho,Lentiform Loewenfeld,3.3.3,0,s,NA,NA,s,NA,s,680.710413,NA,NA,38139.92674,NA,680.710413,2,psycho,1024,2,48000,-16,experiment,HHSHH,3,odd,NA,43416.27675,NA,NA,NA,5146.075571,NA,NA,57384.37104,5213.521131,NA,56267.43324,57501.62136,58184.3171,57374.36864,57500.76973,Flanker Task,8,5639.490225,8,yes,1024
congruent,100,100,681.7224038,681.7224038,black,psycho,psycho,psycho,0,uniform,1,undefined,1,s,0,0,0,0,8,0,8,0,8,0,0,8,8,8,8,8,Sun Sep 27 17:16:21 2020,1500,The main experiment item,yes,FlankerTask.osexp,/Users/tforestmoore/Desktop,no,mono,no,18,no,white,no,yes,768,psycho,8,8,/Users/tforestmoore/Desktop/Tarleton/Fall 2020/Math/Lab 2/ALM-subject-3.csv,psycho,Lentiform Loewenfeld,3.3.3,0,s,NA,NA,s,NA,s,496.011409,NA,NA,38139.92674,NA,496.011409,2,psycho,1024,2,48000,-16,experiment,SSSSS,3,odd,NA,43416.27675,NA,NA,NA,5146.075571,NA,NA,59317.81743,5213.521131,NA,58200.88082,59435.31035,59933.2703,59308.01657,59434.19995,Flanker Task,9,6135.501634,9,yes,1024
incongruent,100,100,671.5205329,671.5205329,black,psycho,psycho,psycho,0,uniform,1,undefined,1,h,0,0,0,0,9,0,9,0,9,0,0,9,9,9,9,9,Sun Sep 27 17:16:21 2020,1500,The main experiment item,yes,FlankerTask.osexp,/Users/tforestmoore/Desktop,no,mono,no,18,no,white,no,yes,768,psycho,9,9,/Users/tforestmoore/Desktop/Tarleton/Fall 2020/Math/Lab 2/ALM-subject-3.csv,psycho,Lentiform Loewenfeld,3.3.3,0,h,NA,NA,s,NA,h,579.703695,NA,NA,38139.92674,NA,579.703695,2,psycho,1024,2,48000,-16,experiment,SSHSS,3,odd,NA,43416.27675,NA,NA,NA,5146.075571,NA,NA,61067.70062,5213.521131,NA,59950.76405,61185.47416,61767.11581,61059.04172,61184.25329,Flanker Task,10,6715.205329,10,yes,1024
incongruent,100,100,678.4790596,678.4790596,black,psycho,psycho,psycho,0,uniform,1,undefined,1,s,0,0,0,0,10,0,10,0,10,0,0,10,10,10,10,10,Sun Sep 27 17:16:21 2020,1500,The main experiment item,yes,FlankerTask.osexp,/Users/tforestmoore/Desktop,no,mono,no,18,no,white,no,yes,768,psycho,10,10,/Users/tforestmoore/Desktop/Tarleton/Fall 2020/Math/Lab 2/ALM-subject-3.csv,psycho,Lentiform Loewenfeld,3.3.3,0,s,NA,NA,s,NA,s,748.064327,NA,NA,38139.92674,NA,748.064327,2,psycho,1024,2,48000,-16,experiment,HHSHH,3,odd,NA,43416.27675,NA,NA,NA,5146.075571,NA,NA,62900.92705,5213.521131,NA,61784.19108,63019.39527,63769.91588,62891.68371,63018.10403,Flanker Task,11,7463.269656,11,yes,1024
congruent,100,100,680.7452177,680.7452177,black,psycho,psycho,psycho,0,uniform,1,undefined,1,h,0,0,0,0,11,0,11,0,11,0,0,11,11,11,11,11,Sun Sep 27 17:16:21 2020,1500,The main experiment item,yes,FlankerTask.osexp,/Users/tforestmoore/Desktop,no,mono,no,18,no,white,no,yes,768,psycho,11,11,/Users/tforestmoore/Desktop/Tarleton/Fall 2020/Math/Lab 2/ALM-subject-3.csv,psycho,Lentiform Loewenfeld,3.3.3,0,h,NA,NA,s,NA,h,705.672956,NA,NA,38139.92674,NA,705.672956,2,psycho,1024,2,48000,-16,experiment,HHHHH,3,odd,NA,43416.27675,NA,NA,NA,5146.075571,NA,NA,64900.60891,5213.521131,NA,63783.98184,65018.57732,65726.26841,64891.54179,65017.75493,Flanker Task,12,8168.942612,12,yes,1024
congruent,100,100,666.0007421,666.0007421,black,psycho,psycho,psycho,0,uniform,1,undefined,1,s,0,0,0,0,12,0,12,0,12,0,0,12,12,12,12,12,Sun Sep 27 17:16:21 2020,1500,The main experiment item,yes,FlankerTask.osexp,/Users/tforestmoore/Desktop,no,mono,no,18,no,white,no,yes,768,psycho,12,12,/Users/tforestmoore/Desktop/Tarleton/Fall 2020/Math/Lab 2/ALM-subject-3.csv,psycho,Lentiform Loewenfeld,3.3.3,0,s,NA,NA,s,NA,s,489.067035,NA,NA,38139.92674,NA,489.067035,2,psycho,1024,2,48000,-16,experiment,SSSSS,3,odd,NA,43416.27675,NA,NA,NA,5146.075571,NA,NA,66851.33949,5213.521131,NA,65733.78728,66968.28222,67459.28552,66841.32968,66967.44616,Flanker Task,13,8658.009647,13,yes,1024
incongruent,100,100,676.3831311,676.3831311,black,psycho,psycho,psycho,0,uniform,1,undefined,1,h,0,0,0,0,13,0,13,0,13,0,0,13,13,13,13,13,Sun Sep 27 17:16:21 2020,1500,The main experiment item,yes,FlankerTask.osexp,/Users/tforestmoore/Desktop,no,mono,no,18,no,white,no,yes,768,psycho,13,13,/Users/tforestmoore/Desktop/Tarleton/Fall 2020/Math/Lab 2/ALM-subject-3.csv,psycho,Lentiform Loewenfeld,3.3.3,0,h,NA,NA,s,NA,h,811.354188,NA,NA,38139.92674,NA,811.354188,2,psycho,1024,2,48000,-16,experiment,SSHSS,3,odd,NA,43416.27675,NA,NA,NA,5146.075571,NA,NA,68584.32062,5213.521131,NA,67467.07637,68701.76386,69514.9988,68575.23747,68700.84366,Flanker Task,14,9469.363835,14,yes,1024
congruent,100,100,670.0819703,670.0819703,black,psycho,psycho,psycho,0,uniform,1,undefined,1,s,0,0,0,0,14,0,14,0,14,0,0,14,14,14,14,14,Sun Sep 27 17:16:21 2020,1500,The main experiment item,yes,FlankerTask.osexp,/Users/tforestmoore/Desktop,no,mono,no,18,no,white,no,yes,768,psycho,14,14,/Users/tforestmoore/Desktop/Tarleton/Fall 2020/Math/Lab 2/ALM-subject-3.csv,psycho,Lentiform Loewenfeld,3.3.3,0,s,NA,NA,s,NA,s,581.865719,NA,NA,38139.92674,NA,581.865719,2,psycho,1024,2,48000,-16,experiment,SSSSS,3,odd,NA,43416.27675,NA,NA,NA,5146.075571,NA,NA,70650.45594,5213.521131,NA,69533.9971,70768.43459,71352.2244,70641.44415,70767.39052,Flanker Task,15,10051.22955,15,yes,1024
incongruent,100,100,679.8243701,679.8243701,black,psycho,psycho,psycho,0,uniform,1,undefined,1,s,0,0,0,0,15,0,15,0,15,0,0,15,15,15,15,15,Sun Sep 27 17:16:21 2020,1500,The main experiment item,yes,FlankerTask.osexp,/Users/tforestmoore/Desktop,no,mono,no,18,no,white,no,yes,768,psycho,15,15,/Users/tforestmoore/Desktop/Tarleton/Fall 2020/Math/Lab 2/ALM-subject-3.csv,psycho,Lentiform Loewenfeld,3.3.3,0,s,NA,NA,s,NA,s,825.960367,NA,NA,38139.92674,NA,825.960367,2,psycho,1024,2,48000,-16,experiment,HHSHH,3,odd,NA,43416.27675,NA,NA,NA,5146.075571,NA,NA,72484.37621,5213.521131,NA,71367.3825,72602.11829,73430.03031,72476.42725,72600.79957,Flanker Task,16,10877.18992,16,yes,1024
incongruent,100,100,670.5875432,670.5875432,black,psycho,psycho,psycho,0,uniform,1,undefined,1,s,0,0,0,0,16,0,16,0,16,0,0,16,16,16,16,16,Sun Sep 27 17:16:21 2020,1500,The main experiment item,yes,FlankerTask.osexp,/Users/tforestmoore/Desktop,no,mono,no,18,no,white,no,yes,768,psycho,16,16,/Users/tforestmoore/Desktop/Tarleton/Fall 2020/Math/Lab 2/ALM-subject-3.csv,psycho,Lentiform Loewenfeld,3.3.3,0,s,NA,NA,s,NA,s,522.798314,NA,NA,38139.92674,NA,522.798314,2,psycho,1024,2,48000,-16,experiment,HHSHH,3,odd,NA,43416.27675,NA,NA,NA,5146.075571,NA,NA,74567.72568,5213.521131,NA,73451.23006,74685.26348,75210.40871,74558.407,74684.0873,Flanker Task,17,11399.98823,17,yes,1024
incongruent,100,100,659.8098852,659.8098852,black,psycho,psycho,psycho,0,uniform,1,undefined,1,s,0,0,0,0,17,0,17,0,17,0,0,17,17,17,17,17,Sun Sep 27 17:16:21 2020,1500,The main experiment item,yes,FlankerTask.osexp,/Users/tforestmoore/Desktop,no,mono,no,18,no,white,no,yes,768,psycho,17,17,/Users/tforestmoore/Desktop/Tarleton/Fall 2020/Math/Lab 2/ALM-subject-3.csv,psycho,Lentiform Loewenfeld,3.3.3,0,s,NA,NA,s,NA,s,476.589698,NA,NA,38139.92674,NA,476.589698,2,psycho,1024,2,48000,-16,experiment,HHSHH,3,odd,NA,43416.27675,NA,NA,NA,5146.075571,NA,NA,76367.10069,5213.521131,NA,75234.00195,76484.60877,76963.50803,76351.75803,76483.8356,Flanker Task,18,11876.57793,18,yes,1024
incongruent,100,100,657.4757751,657.4757751,black,psycho,psycho,psycho,0,uniform,1,undefined,1,h,0,0,0,0,18,0,18,0,18,0,0,18,18,18,18,18,Sun Sep 27 17:16:21 2020,1500,The main experiment item,yes,FlankerTask.osexp,/Users/tforestmoore/Desktop,no,mono,no,18,no,white,no,yes,768,psycho,18,18,/Users/tforestmoore/Desktop/Tarleton/Fall 2020/Math/Lab 2/ALM-subject-3.csv,psycho,Lentiform Loewenfeld,3.3.3,0,h,NA,NA,s,NA,h,615.461794,NA,NA,38139.92674,NA,615.461794,2,psycho,1024,2,48000,-16,experiment,SSHSS,3,odd,NA,43416.27675,NA,NA,NA,5146.075571,NA,NA,78100.89134,5213.521131,NA,76984.09529,78218.49152,78835.96431,78092.23563,78217.3421,Flanker Task,19,12492.03973,19,yes,1024
incongruent,100,100,652.7005888,652.7005888,black,psycho,psycho,psycho,0,uniform,1,undefined,1,s,0,0,0,0,19,0,19,0,19,0,0,19,19,19,19,19,Sun Sep 27 17:16:21 2020,1500,The main experiment item,yes,FlankerTask.osexp,/Users/tforestmoore/Desktop,no,mono,no,18,no,white,no,yes,768,psycho,19,19,/Users/tforestmoore/Desktop/Tarleton/Fall 2020/Math/Lab 2/ALM-subject-3.csv,psycho,Lentiform Loewenfeld,3.3.3,0,s,NA,NA,s,NA,s,561.972048,NA,NA,38139.92674,NA,561.972048,2,psycho,1024,2,48000,-16,experiment,HHSHH,3,odd,NA,43416.27675,NA,NA,NA,5146.075571,NA,NA,80000.67289,5213.521131,NA,78850.84973,80117.99704,80682.19332,79975.37383,80117.2475,Flanker Task,20,13054.01178,20,yes,1024
incongruent,100,100,648.6518646,648.6518646,black,psycho,psycho,psycho,0,uniform,1,undefined,1,s,0,0,0,0,20,0,20,0,20,0,0,20,20,20,20,20,Sun Sep 27 17:16:21 2020,1500,The main experiment item,yes,FlankerTask.osexp,/Users/tforestmoore/Desktop,no,mono,no,18,no,white,no,yes,768,psycho,20,20,/Users/tforestmoore/Desktop/Tarleton/Fall 2020/Math/Lab 2/ALM-subject-3.csv,psycho,Lentiform Loewenfeld,3.3.3,0,s,NA,NA,s,NA,s,567.677381,NA,NA,38139.92674,NA,567.677381,2,psycho,1024,2,48000,-16,experiment,HHSHH,3,odd,NA,43416.27675,NA,NA,NA,5146.075571,NA,NA,81817.29656,5213.521131,NA,80700.64029,81935.10335,82504.98898,81794.62069,81933.98185,Flanker Task,21,13621.68916,21,yes,1024
congruent,100,100,640.7418099,640.7418099,black,psycho,psycho,psycho,0,uniform,1,undefined,1,s,0,0,0,0,21,0,21,0,21,0,0,21,21,21,21,21,Sun Sep 27 17:16:21 2020,1500,The main experiment item,yes,FlankerTask.osexp,/Users/tforestmoore/Desktop,no,mono,no,18,no,white,no,yes,768,psycho,21,21,/Users/tforestmoore/Desktop/Tarleton/Fall 2020/Math/Lab 2/ALM-subject-3.csv,psycho,Lentiform Loewenfeld,3.3.3,0,s,NA,NA,s,NA,s,474.630661,NA,NA,38139.92674,NA,474.630661,2,psycho,1024,2,48000,-16,experiment,SSSSS,3,odd,NA,43416.27675,NA,NA,NA,5146.075571,NA,NA,83634.77334,5213.521131,NA,82517.05556,83751.20659,84228.12932,83624.60294,83750.62274,Flanker Task,22,14096.31982,22,yes,1024
congruent,100,100,630.3966367,630.3966367,black,psycho,psycho,psycho,0,uniform,1,undefined,1,s,0,0,0,0,22,0,22,0,22,0,0,22,22,22,22,22,Sun Sep 27 17:16:21 2020,1500,The main experiment item,yes,FlankerTask.osexp,/Users/tforestmoore/Desktop,no,mono,no,18,no,white,no,yes,768,psycho,22,22,/Users/tforestmoore/Desktop/Tarleton/Fall 2020/Math/Lab 2/ALM-subject-3.csv,psycho,Lentiform Loewenfeld,3.3.3,0,s,NA,NA,s,NA,s,402.802826,NA,NA,38139.92674,NA,402.802826,2,psycho,1024,2,48000,-16,experiment,SSSSS,3,odd,NA,43416.27675,NA,NA,NA,5146.075571,NA,NA,85384.96403,5213.521131,NA,84250.35962,85501.04754,85906.53339,85358.92263,85500.63079,Flanker Task,23,14499.12264,23,yes,1024
congruent,100,100,620.3139858,620.3139858,black,psycho,psycho,psycho,0,uniform,1,undefined,1,s,0,0,0,0,23,0,23,0,23,0,0,23,23,23,23,23,Sun Sep 27 17:16:21 2020,1500,The main experiment item,yes,FlankerTask.osexp,/Users/tforestmoore/Desktop,no,mono,no,18,no,white,no,yes,768,psycho,23,23,/Users/tforestmoore/Desktop/Tarleton/Fall 2020/Math/Lab 2/ALM-subject-3.csv,psycho,Lentiform Loewenfeld,3.3.3,0,s,NA,NA,s,NA,s,388.413016,NA,NA,38139.92674,NA,388.413016,2,psycho,1024,2,48000,-16,experiment,SSSSS,3,odd,NA,43416.27675,NA,NA,NA,5146.075571,NA,NA,87034.17924,5213.521131,NA,85916.96593,87152.24158,87542.90132,87024.40082,87151.18191,Flanker Task,24,14887.53566,24,yes,1024
congruent,100,100,615.005841,615.005841,black,psycho,psycho,psycho,0,uniform,1,undefined,1,h,0,0,0,0,24,0,24,0,24,0,0,24,24,24,24,24,Sun Sep 27 17:16:21 2020,1500,The main experiment item,yes,FlankerTask.osexp,/Users/tforestmoore/Desktop,no,mono,no,18,no,white,no,yes,768,psycho,24,24,/Users/tforestmoore/Desktop/Tarleton/Fall 2020/Math/Lab 2/ALM-subject-3.csv,psycho,Lentiform Loewenfeld,3.3.3,0,h,NA,NA,s,NA,h,487.610366,NA,NA,38139.92674,NA,487.610366,2,psycho,1024,2,48000,-16,experiment,HHHHH,3,odd,NA,43416.27675,NA,NA,NA,5146.075571,NA,NA,88700.10278,5213.521131,NA,87550.11,88818.21367,89307.89158,88679.56759,88817.16415,Flanker Task,25,15375.14602,25,yes,1024
incongruent,100,100,610.9178697,610.9178697,black,psycho,psycho,psycho,0,uniform,1,undefined,1,s,0,0,0,0,25,0,25,0,25,0,0,25,25,25,25,25,Sun Sep 27 17:16:21 2020,1500,The main experiment item,yes,FlankerTask.osexp,/Users/tforestmoore/Desktop,no,mono,no,18,no,white,no,yes,768,psycho,25,25,/Users/tforestmoore/Desktop/Tarleton/Fall 2020/Math/Lab 2/ALM-subject-3.csv,psycho,Lentiform Loewenfeld,3.3.3,0,s,NA,NA,s,NA,s,508.718586,NA,NA,38139.92674,NA,508.718586,2,psycho,1024,2,48000,-16,experiment,HHSHH,3,odd,NA,43416.27675,NA,NA,NA,5146.075571,NA,NA,90451.90424,5213.521131,NA,89319.18992,90567.82452,91078.57921,90430.58628,90567.16498,Flanker Task,26,15883.86461,26,yes,1024
congruent,100,100,605.6947159,605.6947159,black,psycho,psycho,psycho,0,uniform,1,undefined,1,h,0,0,0,0,26,0,26,0,26,0,0,26,26,26,26,26,Sun Sep 27 17:16:21 2020,1500,The main experiment item,yes,FlankerTask.osexp,/Users/tforestmoore/Desktop,no,mono,no,18,no,white,no,yes,768,psycho,26,26,/Users/tforestmoore/Desktop/Tarleton/Fall 2020/Math/Lab 2/ALM-subject-3.csv,psycho,Lentiform Loewenfeld,3.3.3,0,h,NA,NA,s,NA,h,469.892718,NA,NA,38139.92674,NA,469.892718,2,psycho,1024,2,48000,-16,experiment,HHHHH,3,odd,NA,43416.27675,NA,NA,NA,5146.075571,NA,NA,92234.215,5213.521131,NA,91100.41415,92351.08288,92823.51059,92224.89329,92350.3879,Flanker Task,27,16353.75733,27,yes,1024
incongruent,100,100,607.8340532,607.8340532,black,psycho,psycho,psycho,0,uniform,1,undefined,1,h,0,0,0,0,27,0,27,0,27,0,0,27,27,27,27,27,Sun Sep 27 17:16:21 2020,1500,The main experiment item,yes,FlankerTask.osexp,/Users/tforestmoore/Desktop,no,mono,no,18,no,white,no,yes,768,psycho,27,27,/Users/tforestmoore/Desktop/Tarleton/Fall 2020/Math/Lab 2/ALM-subject-3.csv,psycho,Lentiform Loewenfeld,3.3.3,0,h,NA,NA,s,NA,h,665.596162,NA,NA,38139.92674,NA,665.596162,2,psycho,1024,2,48000,-16,experiment,SSHSS,3,odd,NA,43416.27675,NA,NA,NA,5146.075571,NA,NA,93969.41579,5213.521131,NA,92834.5055,94084.30344,94752.15471,93944.23558,94083.71055,Flanker Task,28,17019.35349,28,yes,1024
congruent,96.55172414,96.55172414,601.2128444,601.2128444,black,psycho,psycho,psycho,0,uniform,0,undefined,0,h,0,0,0,0,28,0,28,0,28,0,0,28,28,28,28,28,Sun Sep 27 17:16:21 2020,1500,The main experiment item,yes,FlankerTask.osexp,/Users/tforestmoore/Desktop,no,mono,no,18,no,white,no,yes,768,psycho,28,28,/Users/tforestmoore/Desktop/Tarleton/Fall 2020/Math/Lab 2/ALM-subject-3.csv,psycho,Lentiform Loewenfeld,3.3.3,0,s,NA,NA,s,NA,s,415.818998,NA,NA,38139.92674,NA,415.818998,2,psycho,1024,2,48000,-16,experiment,HHHHH,3,odd,NA,43416.27675,NA,NA,NA,5146.075571,NA,NA,95900.39676,5213.521131,NA,94767.00793,96018.04904,96436.57268,95875.60897,96017.0212,Flanker Task,28,17435.17249,29,yes,1024
congruent,96.66666667,96.66666667,598.4984944,598.4984944,black,psycho,psycho,psycho,0,uniform,1,undefined,1,h,0,0,0,0,29,0,29,0,29,0,0,29,29,29,29,29,Sun Sep 27 17:16:21 2020,1500,The main experiment item,yes,FlankerTask.osexp,/Users/tforestmoore/Desktop,no,mono,no,18,no,white,no,yes,768,psycho,29,29,/Users/tforestmoore/Desktop/Tarleton/Fall 2020/Math/Lab 2/ALM-subject-3.csv,psycho,Lentiform Loewenfeld,3.3.3,0,h,NA,NA,s,NA,h,519.782342,NA,NA,38139.92674,NA,519.782342,2,psycho,1024,2,48000,-16,experiment,HHHHH,3,odd,NA,43416.27675,NA,NA,96450.11876,5146.075571,NA,NA,98100.41732,5213.521131,NA,96967.15761,98218.32194,98740.45876,98075.48261,98217.23343,Flanker Task,29,17954.95483,30,yes,1024
congruent,96.77419355,96.77419355,591.4496765,591.4496765,black,psycho,psycho,psycho,0,uniform,1,undefined,1,h,0,0,0,0,30,0,30,0,30,0,0,30,30,30,30,30,Sun Sep 27 17:16:21 2020,1500,The main experiment item,yes,FlankerTask.osexp,/Users/tforestmoore/Desktop,no,mono,no,18,no,white,no,yes,768,psycho,30,30,/Users/tforestmoore/Desktop/Tarleton/Fall 2020/Math/Lab 2/ALM-subject-3.csv,psycho,Lentiform Loewenfeld,3.3.3,0,h,NA,NA,s,NA,h,379.985139,NA,NA,38139.92674,NA,379.985139,2,psycho,1024,2,48000,-16,experiment,HHHHH,3,odd,NA,43416.27675,NA,NA,96450.11876,5146.075571,NA,NA,99899.94017,5213.521131,NA,98750.15892,100017.6096,100399.8463,99879.16318,100016.8603,Flanker Task,30,18334.93997,31,yes,1024
incongruent,96.875,96.875,587.7934959,587.7934959,black,psycho,psycho,psycho,0,uniform,1,undefined,1,s,0,0,0,0,31,0,31,0,31,0,0,31,31,31,31,31,Sun Sep 27 17:16:21 2020,1500,The main experiment item,yes,FlankerTask.osexp,/Users/tforestmoore/Desktop,no,mono,no,18,no,white,no,yes,768,psycho,31,31,/Users/tforestmoore/Desktop/Tarleton/Fall 2020/Math/Lab 2/ALM-subject-3.csv,psycho,Lentiform Loewenfeld,3.3.3,0,s,NA,NA,s,NA,s,474.451898,NA,NA,38139.92674,NA,474.451898,2,psycho,1024,2,48000,-16,experiment,HHSHH,3,odd,NA,43416.27675,NA,NA,96450.11876,5146.075571,NA,NA,101550.3956,5213.521131,NA,100416.9156,101668.3367,102145.3687,101525.5287,101667.2457,Flanker Task,31,18809.39187,32,yes,1024
congruent,96.96969697,96.96969697,582.8381756,582.8381756,black,psycho,psycho,psycho,0,uniform,1,undefined,1,h,0,0,0,0,32,0,32,0,32,0,0,32,32,32,32,32,Sun Sep 27 17:16:21 2020,1500,The main experiment item,yes,FlankerTask.osexp,/Users/tforestmoore/Desktop,no,mono,no,18,no,white,no,yes,768,psycho,32,32,/Users/tforestmoore/Desktop/Tarleton/Fall 2020/Math/Lab 2/ALM-subject-3.csv,psycho,Lentiform Loewenfeld,3.3.3,0,h,NA,NA,s,NA,h,424.267928,NA,NA,38139.92674,NA,424.267928,2,psycho,1024,2,48000,-16,experiment,HHHHH,3,odd,NA,43416.27675,NA,NA,96450.11876,5146.075571,NA,NA,103300.3577,5213.521131,NA,102166.8964,103418.1698,103844.8236,103275.5998,103417.0427,Flanker Task,32,19233.6598,33,yes,1024
congruent,97.05882353,97.05882353,580.8986146,580.8986146,black,psycho,psycho,psycho,0,uniform,1,undefined,1,h,0,0,0,0,33,0,33,0,33,0,0,33,33,33,33,33,Sun Sep 27 17:16:21 2020,1500,The main experiment item,yes,FlankerTask.osexp,/Users/tforestmoore/Desktop,no,mono,no,18,no,white,no,yes,768,psycho,33,33,/Users/tforestmoore/Desktop/Tarleton/Fall 2020/Math/Lab 2/ALM-subject-3.csv,psycho,Lentiform Loewenfeld,3.3.3,0,h,NA,NA,s,NA,h,516.893101,NA,NA,38139.92674,NA,516.893101,2,psycho,1024,2,48000,-16,experiment,HHHHH,3,odd,NA,43416.27675,NA,NA,96450.11876,5146.075571,NA,NA,105000.8367,5213.521131,NA,103867.1527,105117.7106,105636.8366,104986.5495,105117.1195,Flanker Task,33,19750.5529,34,yes,1024
congruent,97.14285714,97.14285714,578.1915857,578.1915857,black,psycho,psycho,psycho,0,uniform,1,undefined,1,s,0,0,0,0,34,0,34,0,34,0,0,34,34,34,34,34,Sun Sep 27 17:16:21 2020,1500,The main experiment item,yes,FlankerTask.osexp,/Users/tforestmoore/Desktop,no,mono,no,18,no,white,no,yes,768,psycho,34,34,/Users/tforestmoore/Desktop/Tarleton/Fall 2020/Math/Lab 2/ALM-subject-3.csv,psycho,Lentiform Loewenfeld,3.3.3,0,s,NA,NA,s,NA,s,486.152601,NA,NA,38139.92674,NA,486.152601,2,psycho,1024,2,48000,-16,experiment,SSSSS,3,odd,NA,43416.27675,NA,NA,96450.11876,5146.075571,NA,NA,106783.7367,5213.521131,NA,105649.957,106901.3045,107389.3871,106758.9508,106900.2703,Flanker Task,34,20236.7055,35,yes,1024
incongruent,97.22222222,97.22222222,575.4355032,575.4355032,black,psycho,psycho,psycho,0,uniform,1,undefined,1,h,0,0,0,0,35,0,35,0,35,0,0,35,35,35,35,35,Sun Sep 27 17:16:21 2020,1500,The main experiment item,yes,FlankerTask.osexp,/Users/tforestmoore/Desktop,no,mono,no,18,no,white,no,yes,768,psycho,35,35,/Users/tforestmoore/Desktop/Tarleton/Fall 2020/Math/Lab 2/ALM-subject-3.csv,psycho,Lentiform Loewenfeld,3.3.3,0,h,NA,NA,s,NA,h,478.972618,NA,NA,38139.92674,NA,478.972618,2,psycho,1024,2,48000,-16,experiment,SSHSS,3,odd,NA,43416.27675,NA,NA,96450.11876,5146.075571,NA,NA,108550.0405,5213.521131,NA,107400.3165,108668.0206,109149.0851,108538.2452,108667.004,Flanker Task,35,20715.67812,36,yes,1024
congruent,97.2972973,97.2972973,573.6557153,573.6557153,black,psycho,psycho,psycho,0,uniform,1,undefined,1,s,0,0,0,0,36,0,36,0,36,0,0,36,36,36,36,36,Sun Sep 27 17:16:21 2020,1500,The main experiment item,yes,FlankerTask.osexp,/Users/tforestmoore/Desktop,no,mono,no,18,no,white,no,yes,768,psycho,36,36,/Users/tforestmoore/Desktop/Tarleton/Fall 2020/Math/Lab 2/ALM-subject-3.csv,psycho,Lentiform Loewenfeld,3.3.3,0,s,NA,NA,s,NA,s,509.583349,NA,NA,38139.92674,NA,509.583349,2,psycho,1024,2,48000,-16,experiment,SSSSS,3,odd,NA,43416.27675,NA,NA,96450.11876,5146.075571,NA,NA,110300.2343,5213.521131,NA,109166.9753,110418.7824,110930.5339,110275.8006,110417.0221,Flanker Task,36,21225.26146,37,yes,1024
incongruent,97.36842105,97.36842105,571.5167875,571.5167875,black,psycho,psycho,psycho,0,uniform,1,undefined,1,h,0,0,0,0,37,0,37,0,37,0,0,37,37,37,37,37,Sun Sep 27 17:16:21 2020,1500,The main experiment item,yes,FlankerTask.osexp,/Users/tforestmoore/Desktop,no,mono,no,18,no,white,no,yes,768,psycho,37,37,/Users/tforestmoore/Desktop/Tarleton/Fall 2020/Math/Lab 2/ALM-subject-3.csv,psycho,Lentiform Loewenfeld,3.3.3,0,h,NA,NA,s,NA,h,492.37646,NA,NA,38139.92674,NA,492.37646,2,psycho,1024,2,48000,-16,experiment,SSHSS,3,odd,NA,43416.27675,NA,NA,96450.11876,5146.075571,NA,NA,112099.9229,5213.521131,NA,110950.2303,112217.8775,112712.4596,112086.3249,112216.7746,Flanker Task,37,21717.63792,38,yes,1024
incongruent,97.43589744,97.43589744,572.5951735,572.5951735,black,psycho,psycho,psycho,0,uniform,1,undefined,1,h,0,0,0,0,38,0,38,0,38,0,0,38,38,38,38,38,Sun Sep 27 17:16:21 2020,1500,The main experiment item,yes,FlankerTask.osexp,/Users/tforestmoore/Desktop,no,mono,no,18,no,white,no,yes,768,psycho,38,38,/Users/tforestmoore/Desktop/Tarleton/Fall 2020/Math/Lab 2/ALM-subject-3.csv,psycho,Lentiform Loewenfeld,3.3.3,0,h,NA,NA,s,NA,h,613.573843,NA,NA,38139.92674,NA,613.573843,2,psycho,1024,2,48000,-16,experiment,SSHSS,3,odd,NA,43416.27675,NA,NA,96450.11876,5146.075571,NA,NA,113866.9335,5213.521131,NA,112733.6678,113984.674,114600.2284,113842.5,113983.5779,Flanker Task,38,22331.21177,39,yes,1024
incongruent,97.5,97.5,569.8450459,569.8450459,black,psycho,psycho,psycho,0,uniform,1,undefined,1,h,0,0,0,0,39,0,39,0,39,0,0,39,39,39,39,39,Sun Sep 27 17:16:21 2020,1500,The main experiment item,yes,FlankerTask.osexp,/Users/tforestmoore/Desktop,no,mono,no,18,no,white,no,yes,768,psycho,39,39,/Users/tforestmoore/Desktop/Tarleton/Fall 2020/Math/Lab 2/ALM-subject-3.csv,psycho,Lentiform Loewenfeld,3.3.3,0,h,NA,NA,s,NA,h,462.59007,NA,NA,38139.92674,NA,462.59007,2,psycho,1024,2,48000,-16,experiment,SSHSS,3,odd,NA,43416.27675,NA,NA,96450.11876,5146.075571,NA,NA,115750.788,5213.521131,NA,114616.8784,115867.4814,116332.575,115726.6439,115866.8878,Flanker Task,39,22793.80184,40,yes,1024
congruent,97.56097561,97.56097561,568.8584827,568.8584827,black,psycho,psycho,psycho,0,uniform,1,undefined,1,h,0,0,0,0,40,0,40,0,40,0,0,40,40,40,40,40,Sun Sep 27 17:16:21 2020,1500,The main experiment item,yes,FlankerTask.osexp,/Users/tforestmoore/Desktop,no,mono,no,18,no,white,no,yes,768,psycho,40,40,/Users/tforestmoore/Desktop/Tarleton/Fall 2020/Math/Lab 2/ALM-subject-3.csv,psycho,Lentiform Loewenfeld,3.3.3,0,h,NA,NA,s,NA,h,529.395952,NA,NA,38139.92674,NA,529.395952,2,psycho,1024,2,48000,-16,experiment,HHHHH,3,odd,NA,43416.27675,NA,NA,96450.11876,5146.075571,NA,NA,117467.0938,5213.521131,NA,116349.8527,117584.56,118115.9836,117458.6989,117583.4611,Flanker Task,40,23323.19779,41,yes,1024
incongruent,97.61904762,97.61904762,571.2258247,571.2258247,black,psycho,psycho,psycho,0,uniform,1,undefined,1,h,0,0,0,0,41,0,41,0,41,0,0,41,41,41,41,41,Sun Sep 27 17:16:21 2020,1500,The main experiment item,yes,FlankerTask.osexp,/Users/tforestmoore/Desktop,no,mono,no,18,no,white,no,yes,768,psycho,41,41,/Users/tforestmoore/Desktop/Tarleton/Fall 2020/Math/Lab 2/ALM-subject-3.csv,psycho,Lentiform Loewenfeld,3.3.3,0,h,NA,NA,s,NA,h,668.286846,NA,NA,38139.92674,NA,668.286846,2,psycho,1024,2,48000,-16,experiment,SSHSS,3,odd,NA,43416.27675,NA,NA,96450.11876,5146.075571,NA,NA,119266.9803,5213.521131,NA,118133.4136,119384.7124,120055.0154,119242.1773,119383.6052,Flanker Task,41,23991.48464,42,yes,1024
incongruent,97.6744186,97.6744186,569.4492458,569.4492458,black,psycho,psycho,psycho,0,uniform,1,undefined,1,s,0,0,0,0,42,0,42,0,42,0,0,42,42,42,42,42,Sun Sep 27 17:16:21 2020,1500,The main experiment item,yes,FlankerTask.osexp,/Users/tforestmoore/Desktop,no,mono,no,18,no,white,no,yes,768,psycho,42,42,/Users/tforestmoore/Desktop/Tarleton/Fall 2020/Math/Lab 2/ALM-subject-3.csv,psycho,Lentiform Loewenfeld,3.3.3,0,s,NA,NA,s,NA,s,494.832934,NA,NA,38139.92674,NA,494.832934,2,psycho,1024,2,48000,-16,experiment,HHSHH,3,odd,NA,43416.27675,NA,NA,96450.11876,5146.075571,NA,NA,121183.6691,5213.521131,NA,120066.8175,121301.1524,121798.5223,121174.1787,121300.011,Flanker Task,42,24486.31757,43,yes,1024
incongruent,97.72727273,97.72727273,570.6601158,570.6601158,black,psycho,psycho,psycho,0,uniform,1,undefined,1,s,0,0,0,0,43,0,43,0,43,0,0,43,43,43,43,43,Sun Sep 27 17:16:21 2020,1500,The main experiment item,yes,FlankerTask.osexp,/Users/tforestmoore/Desktop,no,mono,no,18,no,white,no,yes,768,psycho,43,43,/Users/tforestmoore/Desktop/Tarleton/Fall 2020/Math/Lab 2/ALM-subject-3.csv,psycho,Lentiform Loewenfeld,3.3.3,0,s,NA,NA,s,NA,s,622.727526,NA,NA,38139.92674,NA,622.727526,2,psycho,1024,2,48000,-16,experiment,HHSHH,3,odd,NA,43416.27675,NA,NA,96450.11876,5146.075571,NA,NA,122933.5729,5213.521131,NA,121816.3207,123051.1152,123675.8929,122924.9363,123050.0312,Flanker Task,43,25109.0451,44,yes,1024
incongruent,97.77777778,97.77777778,569.9675446,569.9675446,black,psycho,psycho,psycho,0,uniform,1,undefined,1,h,0,0,0,0,44,0,44,0,44,0,0,44,44,44,44,44,Sun Sep 27 17:16:21 2020,1500,The main experiment item,yes,FlankerTask.osexp,/Users/tforestmoore/Desktop,no,mono,no,18,no,white,no,yes,768,psycho,44,44,/Users/tforestmoore/Desktop/Tarleton/Fall 2020/Math/Lab 2/ALM-subject-3.csv,psycho,Lentiform Loewenfeld,3.3.3,0,h,NA,NA,s,NA,h,539.49441,NA,NA,38139.92674,NA,539.49441,2,psycho,1024,2,48000,-16,experiment,SSHSS,3,odd,NA,43416.27675,NA,NA,96450.11876,5146.075571,NA,NA,124799.6377,5213.521131,NA,123683.5472,124918.2759,125459.9814,124790.6332,124917.1367,Flanker Task,44,25648.53951,45,yes,1024
incongruent,97.82608696,97.82608696,569.4880823,569.4880823,black,psycho,psycho,psycho,0,uniform,1,undefined,1,h,0,0,0,0,45,0,45,0,45,0,0,45,45,45,45,45,Sun Sep 27 17:16:21 2020,1500,The main experiment item,yes,FlankerTask.osexp,/Users/tforestmoore/Desktop,no,mono,no,18,no,white,no,yes,768,psycho,45,45,/Users/tforestmoore/Desktop/Tarleton/Fall 2020/Math/Lab 2/ALM-subject-3.csv,psycho,Lentiform Loewenfeld,3.3.3,0,h,NA,NA,s,NA,h,547.91228,NA,NA,38139.92674,NA,547.91228,2,psycho,1024,2,48000,-16,experiment,SSHSS,3,odd,NA,43416.27675,NA,NA,96450.11876,5146.075571,NA,NA,126600.3571,5213.521131,NA,125483.2911,126717.8599,127267.9709,126582.6926,126716.8372,Flanker Task,45,26196.45179,46,yes,1024
congruent,97.87234043,97.87234043,568.3014561,568.3014561,black,psycho,psycho,psycho,0,uniform,1,undefined,1,s,0,0,0,0,46,0,46,0,46,0,0,46,46,46,46,46,Sun Sep 27 17:16:21 2020,1500,The main experiment item,yes,FlankerTask.osexp,/Users/tforestmoore/Desktop,no,mono,no,18,no,white,no,yes,768,psycho,46,46,/Users/tforestmoore/Desktop/Tarleton/Fall 2020/Math/Lab 2/ALM-subject-3.csv,psycho,Lentiform Loewenfeld,3.3.3,0,s,NA,NA,s,NA,s,513.716651,NA,NA,38139.92674,NA,513.716651,2,psycho,1024,2,48000,-16,experiment,SSSSS,3,odd,NA,43416.27675,NA,NA,96450.11876,5146.075571,NA,NA,128383.4308,5213.521131,NA,127283.2619,128500.9726,129016.7669,128374.6847,128499.918,Flanker Task,46,26710.16844,47,yes,1024
congruent,97.91666667,97.91666667,565.1537257,565.1537257,black,psycho,psycho,psycho,0,uniform,1,undefined,1,h,0,0,0,0,47,0,47,0,47,0,0,47,47,47,47,47,Sun Sep 27 17:16:21 2020,1500,The main experiment item,yes,FlankerTask.osexp,/Users/tforestmoore/Desktop,no,mono,no,18,no,white,no,yes,768,psycho,47,47,/Users/tforestmoore/Desktop/Tarleton/Fall 2020/Math/Lab 2/ALM-subject-3.csv,psycho,Lentiform Loewenfeld,3.3.3,0,h,NA,NA,s,NA,h,417.210395,NA,NA,38139.92674,NA,417.210395,2,psycho,1024,2,48000,-16,experiment,HHHHH,3,odd,NA,43416.27675,NA,NA,96450.11876,5146.075571,NA,NA,130133.2425,5213.521131,NA,129033.2273,130250.3926,130669.7239,130125.8528,130249.7831,Flanker Task,47,27127.37883,48,yes,1024
congruent,97.95918367,97.95918367,563.1509818,563.1509818,black,psycho,psycho,psycho,0,uniform,1,undefined,1,s,0,0,0,0,48,0,48,0,48,0,0,48,48,48,48,48,Sun Sep 27 17:16:21 2020,1500,The main experiment item,yes,FlankerTask.osexp,/Users/tforestmoore/Desktop,no,mono,no,18,no,white,no,yes,768,psycho,48,48,/Users/tforestmoore/Desktop/Tarleton/Fall 2020/Math/Lab 2/ALM-subject-3.csv,psycho,Lentiform Loewenfeld,3.3.3,0,s,NA,NA,s,NA,s,467.019275,NA,NA,38139.92674,NA,467.019275,2,psycho,1024,2,48000,-16,experiment,SSSSS,3,odd,NA,43416.27675,NA,NA,96450.11876,5146.075571,NA,NA,131783.1592,5213.521131,NA,130683.4307,131901.1256,132370.6255,131775.1714,131900.075,Flanker Task,48,27594.39811,49,yes,1024
congruent,98,98,560.4762229,560.4762229,black,psycho,psycho,psycho,0,uniform,1,undefined,1,h,0,0,0,0,49,0,49,0,49,0,0,49,49,49,49,49,Sun Sep 27 17:16:21 2020,1500,The main experiment item,yes,FlankerTask.osexp,/Users/tforestmoore/Desktop,no,mono,no,18,no,white,no,yes,768,psycho,49,49,/Users/tforestmoore/Desktop/Tarleton/Fall 2020/Math/Lab 2/ALM-subject-3.csv,psycho,Lentiform Loewenfeld,3.3.3,0,h,NA,NA,s,NA,h,429.41304,NA,NA,38139.92674,NA,429.41304,2,psycho,1024,2,48000,-16,experiment,HHHHH,3,odd,NA,43416.27675,NA,NA,96450.11876,5146.075571,NA,NA,133483.5811,5213.521131,NA,132383.1201,133601.1551,134032.8007,133473.9336,133600.091,Flanker Task,49,28023.81115,50,yes,1024
congruent,98.03921569,98.03921569,559.3524241,559.3524241,black,psycho,psycho,psycho,0,uniform,1,undefined,1,h,0,0,0,0,50,0,50,0,50,0,0,50,50,50,50,50,Sun Sep 27 17:16:21 2020,1500,The main experiment item,yes,FlankerTask.osexp,/Users/tforestmoore/Desktop,no,mono,no,18,no,white,no,yes,768,psycho,50,50,/Users/tforestmoore/Desktop/Tarleton/Fall 2020/Math/Lab 2/ALM-subject-3.csv,psycho,Lentiform Loewenfeld,3.3.3,0,h,NA,NA,s,NA,h,503.162484,NA,NA,38139.92674,NA,503.162484,2,psycho,1024,2,48000,-16,experiment,HHHHH,3,odd,NA,43416.27675,NA,NA,96450.11876,5146.075571,NA,NA,135150.1658,5213.521131,NA,134049.7608,135267.696,135773.8684,135142.0315,135266.6424,Flanker Task,50,28526.97363,51,yes,1024
congruent,98.07692308,98.07692308,558.5125333,558.5125333,black,psycho,psycho,psycho,0,uniform,1,undefined,1,s,0,0,0,0,51,0,51,0,51,0,0,51,51,51,51,51,Sun Sep 27 17:16:21 2020,1500,The main experiment item,yes,FlankerTask.osexp,/Users/tforestmoore/Desktop,no,mono,no,18,no,white,no,yes,768,psycho,51,51,/Users/tforestmoore/Desktop/Tarleton/Fall 2020/Math/Lab 2/ALM-subject-3.csv,psycho,Lentiform Loewenfeld,3.3.3,0,s,NA,NA,s,NA,s,515.678101,NA,NA,38139.92674,NA,515.678101,2,psycho,1024,2,48000,-16,experiment,SSSSS,3,odd,NA,43416.27675,NA,NA,96450.11876,5146.075571,NA,NA,136899.9387,5213.521131,NA,135783.1005,137017.8024,137535.6236,136889.0679,137016.7001,Flanker Task,51,29042.65173,52,yes,1024
congruent,98.11320755,98.11320755,555.7120293,555.7120293,black,psycho,psycho,psycho,0,uniform,1,undefined,1,s,0,0,0,0,52,0,52,0,52,0,0,52,52,52,52,52,Sun Sep 27 17:16:21 2020,1500,The main experiment item,yes,FlankerTask.osexp,/Users/tforestmoore/Desktop,no,mono,no,18,no,white,no,yes,768,psycho,52,52,/Users/tforestmoore/Desktop/Tarleton/Fall 2020/Math/Lab 2/ALM-subject-3.csv,psycho,Lentiform Loewenfeld,3.3.3,0,s,NA,NA,s,NA,s,410.085821,NA,NA,38139.92674,NA,410.085821,2,psycho,1024,2,48000,-16,experiment,SSSSS,3,odd,NA,43416.27675,NA,NA,96450.11876,5146.075571,NA,NA,138666.4713,5213.521131,NA,137549.8598,138784.3467,139196.4731,138657.1797,138783.2553,Flanker Task,52,29452.73755,53,yes,1024
incongruent,98.14814815,98.14814815,555.1315476,555.1315476,black,psycho,psycho,psycho,0,uniform,1,undefined,1,h,0,0,0,0,53,0,53,0,53,0,0,53,53,53,53,53,Sun Sep 27 17:16:21 2020,1500,The main experiment item,yes,FlankerTask.osexp,/Users/tforestmoore/Desktop,no,mono,no,18,no,white,no,yes,768,psycho,53,53,/Users/tforestmoore/Desktop/Tarleton/Fall 2020/Math/Lab 2/ALM-subject-3.csv,psycho,Lentiform Loewenfeld,3.3.3,0,h,NA,NA,s,NA,h,524.366019,NA,NA,38139.92674,NA,524.366019,2,psycho,1024,2,48000,-16,experiment,SSHSS,3,odd,NA,43416.27675,NA,NA,96450.11876,5146.075571,NA,NA,140332.9473,5213.521131,NA,139216.5488,140451.014,140977.5719,140324.6492,140449.8558,Flanker Task,53,29977.10357,54,yes,1024
incongruent,98.18181818,98.18181818,554.5063087,554.5063087,black,psycho,psycho,psycho,0,uniform,1,undefined,1,h,0,0,0,0,54,0,54,0,54,0,0,54,54,54,54,54,Sun Sep 27 17:16:21 2020,1500,The main experiment item,yes,FlankerTask.osexp,/Users/tforestmoore/Desktop,no,mono,no,18,no,white,no,yes,768,psycho,54,54,/Users/tforestmoore/Desktop/Tarleton/Fall 2020/Math/Lab 2/ALM-subject-3.csv,psycho,Lentiform Loewenfeld,3.3.3,0,h,NA,NA,s,NA,h,520.743407,NA,NA,38139.92674,NA,520.743407,2,psycho,1024,2,48000,-16,experiment,SSHSS,3,odd,NA,43416.27675,NA,NA,96450.11876,5146.075571,NA,NA,142133.6365,5213.521131,NA,140999.9746,142249.8887,142772.7544,142114.5592,142249.4304,Flanker Task,54,30497.84698,55,yes,1024
incongruent,98.21428571,98.21428571,553.8320447,553.8320447,black,psycho,psycho,psycho,0,uniform,1,undefined,1,s,0,0,0,0,55,0,55,0,55,0,0,55,55,55,55,55,Sun Sep 27 17:16:21 2020,1500,The main experiment item,yes,FlankerTask.osexp,/Users/tforestmoore/Desktop,no,mono,no,18,no,white,no,yes,768,psycho,55,55,/Users/tforestmoore/Desktop/Tarleton/Fall 2020/Math/Lab 2/ALM-subject-3.csv,psycho,Lentiform Loewenfeld,3.3.3,0,s,NA,NA,s,NA,s,516.747527,NA,NA,38139.92674,NA,516.747527,2,psycho,1024,2,48000,-16,experiment,HHSHH,3,odd,NA,43416.27675,NA,NA,96450.11876,5146.075571,NA,NA,143900.0863,5213.521131,NA,142784.3725,144017.7149,144536.5813,143892.3691,144016.5278,Flanker Task,55,31014.59451,56,yes,1024
congruent,98.24561404,98.24561404,551.7118967,551.7118967,black,psycho,psycho,psycho,0,uniform,1,undefined,1,s,0,0,0,0,56,0,56,0,56,0,0,56,56,56,56,56,Sun Sep 27 17:16:21 2020,1500,The main experiment item,yes,FlankerTask.osexp,/Users/tforestmoore/Desktop,no,mono,no,18,no,white,no,yes,768,psycho,56,56,/Users/tforestmoore/Desktop/Tarleton/Fall 2020/Math/Lab 2/ALM-subject-3.csv,psycho,Lentiform Loewenfeld,3.3.3,0,s,NA,NA,s,NA,s,432.983608,NA,NA,38139.92674,NA,432.983608,2,psycho,1024,2,48000,-16,experiment,SSSSS,3,odd,NA,43416.27675,NA,NA,96450.11876,5146.075571,NA,NA,145666.8045,5213.521131,NA,144549.7859,145783.5698,146218.633,145659.2999,145782.9795,Flanker Task,56,31447.57811,57,yes,1024
congruent,98.27586207,98.27586207,548.5771479,548.5771479,black,psycho,psycho,psycho,0,uniform,1,undefined,1,s,0,0,0,0,57,0,57,0,57,0,0,57,57,57,57,57,Sun Sep 27 17:16:21 2020,1500,The main experiment item,yes,FlankerTask.osexp,/Users/tforestmoore/Desktop,no,mono,no,18,no,white,no,yes,768,psycho,57,57,/Users/tforestmoore/Desktop/Tarleton/Fall 2020/Math/Lab 2/ALM-subject-3.csv,psycho,Lentiform Loewenfeld,3.3.3,0,s,NA,NA,s,NA,s,369.896462,NA,NA,38139.92674,NA,369.896462,2,psycho,1024,2,48000,-16,experiment,SSSSS,3,odd,NA,43416.27675,NA,NA,96450.11876,5146.075571,NA,NA,147350.0503,5213.521131,NA,146233.0852,147467.5328,147840.1689,147341.6064,147466.4295,Flanker Task,57,31817.47458,58,yes,1024
congruent,98.30508475,98.30508475,546.2688827,546.2688827,black,psycho,psycho,psycho,0,uniform,1,undefined,1,h,0,0,0,0,58,0,58,0,58,0,0,58,58,58,58,58,Sun Sep 27 17:16:21 2020,1500,The main experiment item,yes,FlankerTask.osexp,/Users/tforestmoore/Desktop,no,mono,no,18,no,white,no,yes,768,psycho,58,58,/Users/tforestmoore/Desktop/Tarleton/Fall 2020/Math/Lab 2/ALM-subject-3.csv,psycho,Lentiform Loewenfeld,3.3.3,0,h,NA,NA,s,NA,h,412.389501,NA,NA,38139.92674,NA,412.389501,2,psycho,1024,2,48000,-16,experiment,HHHHH,3,odd,NA,43416.27675,NA,NA,96450.11876,5146.075571,NA,NA,148966.3192,5213.521131,NA,147849.4648,149084.0466,149498.5729,148957.3867,149083.0047,Flanker Task,58,32229.86408,59,yes,1024
incongruent,98.33333333,98.33333333,544.8532586,544.8532586,black,psycho,psycho,psycho,0,uniform,1,undefined,1,s,0,0,0,0,59,0,59,0,59,0,0,59,59,59,59,59,Sun Sep 27 17:16:21 2020,1500,The main experiment item,yes,FlankerTask.osexp,/Users/tforestmoore/Desktop,no,mono,no,18,no,white,no,yes,768,psycho,59,59,/Users/tforestmoore/Desktop/Tarleton/Fall 2020/Math/Lab 2/ALM-subject-3.csv,psycho,Lentiform Loewenfeld,3.3.3,0,s,NA,NA,s,NA,s,461.331438,NA,NA,38139.92674,NA,461.331438,2,psycho,1024,2,48000,-16,experiment,HHSHH,3,odd,NA,43416.27675,NA,NA,96450.11876,5146.075571,NA,NA,150633.5382,5213.521131,NA,149516.2915,150752.6613,151216.1605,150625.1644,150751.3322,Flanker Task,59,32691.19551,60,yes,1024
congruent,98.36065574,98.36065574,543.4251832,543.4251832,black,psycho,psycho,psycho,0,uniform,1,undefined,1,s,0,0,0,0,60,0,60,0,60,0,0,60,60,60,60,60,Sun Sep 27 17:16:21 2020,1500,The main experiment item,yes,FlankerTask.osexp,/Users/tforestmoore/Desktop,no,mono,no,18,no,white,no,yes,768,psycho,60,60,/Users/tforestmoore/Desktop/Tarleton/Fall 2020/Math/Lab 2/ALM-subject-3.csv,psycho,Lentiform Loewenfeld,3.3.3,0,s,NA,NA,s,NA,s,457.740662,NA,NA,38139.92674,NA,457.740662,2,psycho,1024,2,48000,-16,experiment,SSSSS,3,odd,NA,43416.27675,NA,NA,96450.11876,5146.075571,NA,NA,152349.4351,5213.521131,NA,151232.9895,152467.3882,152927.551,152343.0309,152466.3184,Flanker Task,60,33148.93618,61,yes,1024
incongruent,98.38709677,98.38709677,543.9389902,543.9389902,black,psycho,psycho,psycho,0,uniform,1,undefined,1,s,0,0,0,0,61,0,61,0,61,0,0,61,61,61,61,61,Sun Sep 27 17:16:21 2020,1500,The main experiment item,yes,FlankerTask.osexp,/Users/tforestmoore/Desktop,no,mono,no,18,no,white,no,yes,768,psycho,61,61,/Users/tforestmoore/Desktop/Tarleton/Fall 2020/Math/Lab 2/ALM-subject-3.csv,psycho,Lentiform Loewenfeld,3.3.3,0,s,NA,NA,s,NA,s,575.281218,NA,NA,38139.92674,NA,575.281218,2,psycho,1024,2,48000,-16,experiment,HHSHH,3,odd,NA,43416.27675,NA,NA,96450.11876,5146.075571,NA,NA,154066.8083,5213.521131,NA,152949.6072,154183.0493,154760.4067,154056.9886,154182.6525,Flanker Task,61,33724.21739,62,yes,1024
congruent,98.41269841,98.41269841,542.0358886,542.0358886,black,psycho,psycho,psycho,0,uniform,1,undefined,1,h,0,0,0,0,62,0,62,0,62,0,0,62,62,62,62,62,Sun Sep 27 17:16:21 2020,1500,The main experiment item,yes,FlankerTask.osexp,/Users/tforestmoore/Desktop,no,mono,no,18,no,white,no,yes,768,psycho,62,62,/Users/tforestmoore/Desktop/Tarleton/Fall 2020/Math/Lab 2/ALM-subject-3.csv,psycho,Lentiform Loewenfeld,3.3.3,0,h,NA,NA,s,NA,h,424.043586,NA,NA,38139.92674,NA,424.043586,2,psycho,1024,2,48000,-16,experiment,HHHHH,3,odd,NA,43416.27675,NA,NA,96450.11876,5146.075571,NA,NA,155917.0582,5213.521131,NA,154784.4002,156033.5012,156460.7338,155895.2794,156032.9104,Flanker Task,62,34148.26098,63,yes,1024
incongruent,98.4375,98.4375,542.2201254,542.2201254,black,psycho,psycho,psycho,0,uniform,1,undefined,1,h,0,0,0,0,63,0,63,0,63,0,0,63,63,63,63,63,Sun Sep 27 17:16:21 2020,1500,The main experiment item,yes,FlankerTask.osexp,/Users/tforestmoore/Desktop,no,mono,no,18,no,white,no,yes,768,psycho,63,63,/Users/tforestmoore/Desktop/Tarleton/Fall 2020/Math/Lab 2/ALM-subject-3.csv,psycho,Lentiform Loewenfeld,3.3.3,0,h,NA,NA,s,NA,h,553.827045,NA,NA,38139.92674,NA,553.827045,2,psycho,1024,2,48000,-16,experiment,SSHSS,3,odd,NA,43416.27675,NA,NA,96450.11876,5146.075571,NA,NA,157599.3384,5213.521131,NA,156482.5472,157717.3162,158273.4302,157591.1894,157716.2175,Flanker Task,63,34702.08803,64,yes,1024
incongruent,98.46153846,98.46153846,541.849448,541.849448,black,psycho,psycho,psycho,0,uniform,1,undefined,1,s,0,0,0,0,64,0,64,0,64,0,0,64,64,64,64,64,Sun Sep 27 17:16:21 2020,1500,The main experiment item,yes,FlankerTask.osexp,/Users/tforestmoore/Desktop,no,mono,no,18,no,white,no,yes,768,psycho,64,64,/Users/tforestmoore/Desktop/Tarleton/Fall 2020/Math/Lab 2/ALM-subject-3.csv,psycho,Lentiform Loewenfeld,3.3.3,0,s,NA,NA,s,NA,s,518.126095,NA,NA,38139.92674,NA,518.126095,2,psycho,1024,2,48000,-16,experiment,HHSHH,3,odd,NA,43416.27675,NA,NA,96450.11876,5146.075571,NA,NA,159399.9851,5213.521131,NA,158283.1981,159516.758,160037.1087,159393.2137,159516.1652,Flanker Task,64,35220.21412,65,yes,1024
incongruent,98.48484848,98.48484848,540.9968348,540.9968348,black,psycho,psycho,psycho,0,uniform,1,undefined,1,h,0,0,0,0,65,0,65,0,65,0,0,65,65,65,65,65,Sun Sep 27 17:16:21 2020,1500,The main experiment item,yes,FlankerTask.osexp,/Users/tforestmoore/Desktop,no,mono,no,18,no,white,no,yes,768,psycho,65,65,/Users/tforestmoore/Desktop/Tarleton/Fall 2020/Math/Lab 2/ALM-subject-3.csv,psycho,Lentiform Loewenfeld,3.3.3,0,h,NA,NA,s,NA,h,485.576973,NA,NA,38139.92674,NA,485.576973,2,psycho,1024,2,48000,-16,experiment,SSHSS,3,odd,NA,43416.27675,NA,NA,96450.11876,5146.075571,NA,NA,161166.6562,5213.521131,NA,160049.4958,161283.4018,161771.2469,161157.6625,161282.8161,Flanker Task,65,35705.79109,66,yes,1024
incongruent,98.50746269,98.50746269,541.3648718,541.3648718,black,psycho,psycho,psycho,0,uniform,1,undefined,1,s,0,0,0,0,66,0,66,0,66,0,0,66,66,66,66,66,Sun Sep 27 17:16:21 2020,1500,The main experiment item,yes,FlankerTask.osexp,/Users/tforestmoore/Desktop,no,mono,no,18,no,white,no,yes,768,psycho,66,66,/Users/tforestmoore/Desktop/Tarleton/Fall 2020/Math/Lab 2/ALM-subject-3.csv,psycho,Lentiform Loewenfeld,3.3.3,0,s,NA,NA,s,NA,s,565.655318,NA,NA,38139.92674,NA,565.655318,2,psycho,1024,2,48000,-16,experiment,HHSHH,3,odd,NA,43416.27675,NA,NA,96450.11876,5146.075571,NA,NA,162899.7166,5213.521131,NA,161782.8669,163017.2362,163584.978,162891.1243,163016.4564,Flanker Task,66,36271.44641,67,yes,1024
congruent,98.52941176,98.52941176,539.5798112,539.5798112,black,psycho,psycho,psycho,0,uniform,1,undefined,1,s,0,0,0,0,67,0,67,0,67,0,0,67,67,67,67,67,Sun Sep 27 17:16:21 2020,1500,The main experiment item,yes,FlankerTask.osexp,/Users/tforestmoore/Desktop,no,mono,no,18,no,white,no,yes,768,psycho,67,67,/Users/tforestmoore/Desktop/Tarleton/Fall 2020/Math/Lab 2/ALM-subject-3.csv,psycho,Lentiform Loewenfeld,3.3.3,0,s,NA,NA,s,NA,s,419.980753,NA,NA,38139.92674,NA,419.980753,2,psycho,1024,2,48000,-16,experiment,SSSSS,3,odd,NA,43416.27675,NA,NA,96450.11876,5146.075571,NA,NA,164716.2913,5213.521131,NA,163599.5075,164833.988,165256.2965,164708.0972,164832.8712,Flanker Task,67,36691.42716,68,yes,1024
incongruent,98.55072464,98.55072464,538.6345803,538.6345803,black,psycho,psycho,psycho,0,uniform,1,undefined,1,h,0,0,0,0,68,0,68,0,68,0,0,68,68,68,68,68,Sun Sep 27 17:16:21 2020,1500,The main experiment item,yes,FlankerTask.osexp,/Users/tforestmoore/Desktop,no,mono,no,18,no,white,no,yes,768,psycho,68,68,/Users/tforestmoore/Desktop/Tarleton/Fall 2020/Math/Lab 2/ALM-subject-3.csv,psycho,Lentiform Loewenfeld,3.3.3,0,h,NA,NA,s,NA,h,474.358875,NA,NA,38139.92674,NA,474.358875,2,psycho,1024,2,48000,-16,experiment,SSHSS,3,odd,NA,43416.27675,NA,NA,96450.11876,5146.075571,NA,NA,166416.3088,5213.521131,NA,165266.3319,166533.5017,167010.1668,166409.1652,166532.6478,Flanker Task,68,37165.78604,69,yes,1024
incongruent,98.57142857,98.57142857,538.2492249,538.2492249,black,psycho,psycho,psycho,0,uniform,1,undefined,1,h,0,0,0,0,69,0,69,0,69,0,0,69,69,69,69,69,Sun Sep 27 17:16:21 2020,1500,The main experiment item,yes,FlankerTask.osexp,/Users/tforestmoore/Desktop,no,mono,no,18,no,white,no,yes,768,psycho,69,69,/Users/tforestmoore/Desktop/Tarleton/Fall 2020/Math/Lab 2/ALM-subject-3.csv,psycho,Lentiform Loewenfeld,3.3.3,0,h,NA,NA,s,NA,h,511.659701,NA,NA,38139.92674,NA,511.659701,2,psycho,1024,2,48000,-16,experiment,SSHSS,3,odd,NA,43416.27675,NA,NA,96450.11876,5146.075571,NA,NA,168149.7372,5213.521131,NA,167032.6231,168267.1567,168781.2345,168140.4585,168266.0641,Flanker Task,69,37677.44574,70,yes,1024
congruent,98.5915493,98.5915493,539.9691421,539.9691421,black,psycho,psycho,psycho,0,uniform,1,undefined,1,h,0,0,0,0,70,0,70,0,70,0,0,70,70,70,70,70,Sun Sep 27 17:16:21 2020,1500,The main experiment item,yes,FlankerTask.osexp,/Users/tforestmoore/Desktop,no,mono,no,18,no,white,no,yes,768,psycho,70,70,/Users/tforestmoore/Desktop/Tarleton/Fall 2020/Math/Lab 2/ALM-subject-3.csv,psycho,Lentiform Loewenfeld,3.3.3,0,h,NA,NA,s,NA,h,660.36335,NA,NA,38139.92674,NA,660.36335,2,psycho,1024,2,48000,-16,experiment,HHHHH,3,odd,NA,43416.27675,NA,NA,96450.11876,5146.075571,NA,NA,169932.5768,5213.521131,NA,168799.328,170050.56,170713.3573,169918.5315,170049.3545,Flanker Task,70,38337.80909,71,yes,1024
incongruent,98.61111111,98.61111111,540.0020983,540.0020983,black,psycho,psycho,psycho,0,uniform,1,undefined,1,h,0,0,0,0,71,0,71,0,71,0,0,71,71,71,71,71,Sun Sep 27 17:16:21 2020,1500,The main experiment item,yes,FlankerTask.osexp,/Users/tforestmoore/Desktop,no,mono,no,18,no,white,no,yes,768,psycho,71,71,/Users/tforestmoore/Desktop/Tarleton/Fall 2020/Math/Lab 2/ALM-subject-3.csv,psycho,Lentiform Loewenfeld,3.3.3,0,h,NA,NA,s,NA,h,542.341985,NA,NA,38139.92674,NA,542.341985,2,psycho,1024,2,48000,-16,experiment,SSHSS,3,odd,NA,43416.27675,NA,NA,96450.11876,5146.075571,NA,NA,171849.4829,5213.521131,NA,170732.7417,171966.6793,172511.3448,171841.249,171965.83,Flanker Task,71,38880.15108,72,yes,1024
congruent,98.63013699,98.63013699,541.6702425,541.6702425,black,psycho,psycho,psycho,0,uniform,1,undefined,1,h,0,0,0,0,72,0,72,0,72,0,0,72,72,72,72,72,Sun Sep 27 17:16:21 2020,1500,The main experiment item,yes,FlankerTask.osexp,/Users/tforestmoore/Desktop,no,mono,no,18,no,white,no,yes,768,psycho,72,72,/Users/tforestmoore/Desktop/Tarleton/Fall 2020/Math/Lab 2/ALM-subject-3.csv,psycho,Lentiform Loewenfeld,3.3.3,0,h,NA,NA,s,NA,h,661.776626,NA,NA,38139.92674,NA,661.776626,2,psycho,1024,2,48000,-16,experiment,HHHHH,3,odd,NA,43416.27675,NA,NA,96450.11876,5146.075571,NA,NA,173649.6715,5213.521131,NA,172532.7076,173767.194,174431.372,173640.9826,173766.2104,Flanker Task,72,39541.9277,73,yes,1024
congruent,98.64864865,98.64864865,541.4054797,541.4054797,black,psycho,psycho,psycho,0,uniform,1,undefined,1,s,0,0,0,0,73,0,73,0,73,0,0,73,73,73,73,73,Sun Sep 27 17:16:21 2020,1500,The main experiment item,yes,FlankerTask.osexp,/Users/tforestmoore/Desktop,no,mono,no,18,no,white,no,yes,768,psycho,73,73,/Users/tforestmoore/Desktop/Tarleton/Fall 2020/Math/Lab 2/ALM-subject-3.csv,psycho,Lentiform Loewenfeld,3.3.3,0,s,NA,NA,s,NA,s,522.077793,NA,NA,38139.92674,NA,522.077793,2,psycho,1024,2,48000,-16,experiment,SSSSS,3,odd,NA,43416.27675,NA,NA,96450.11876,5146.075571,NA,NA,175565.8891,5213.521131,NA,174449.3702,175683.7597,176207.9814,175558.4509,175682.7114,Flanker Task,73,40064.00549,74,yes,1024
congruent,98.66666667,98.66666667,542.0972671,542.0972671,black,psycho,psycho,psycho,0,uniform,1,undefined,1,s,0,0,0,0,74,0,74,0,74,0,0,74,74,74,74,74,Sun Sep 27 17:16:21 2020,1500,The main experiment item,yes,FlankerTask.osexp,/Users/tforestmoore/Desktop,no,mono,no,18,no,white,no,yes,768,psycho,74,74,/Users/tforestmoore/Desktop/Tarleton/Fall 2020/Math/Lab 2/ALM-subject-3.csv,psycho,Lentiform Loewenfeld,3.3.3,0,s,NA,NA,s,NA,s,593.289536,NA,NA,38139.92674,NA,593.289536,2,psycho,1024,2,48000,-16,experiment,SSSSS,3,odd,NA,43416.27675,NA,NA,96450.11876,5146.075571,NA,NA,177333.0356,5213.521131,NA,176216.4569,177450.3162,178045.752,177326.3642,177449.2388,Flanker Task,74,40657.29503,75,yes,1024
congruent,98.68421053,98.68421053,540.4126512,540.4126512,black,psycho,psycho,psycho,0,uniform,1,undefined,1,h,0,0,0,0,75,0,75,0,75,0,0,75,75,75,75,75,Sun Sep 27 17:16:21 2020,1500,The main experiment item,yes,FlankerTask.osexp,/Users/tforestmoore/Desktop,no,mono,no,18,no,white,no,yes,768,psycho,75,75,/Users/tforestmoore/Desktop/Tarleton/Fall 2020/Math/Lab 2/ALM-subject-3.csv,psycho,Lentiform Loewenfeld,3.3.3,0,h,NA,NA,s,NA,h,414.066463,NA,NA,38139.92674,NA,414.066463,2,psycho,1024,2,48000,-16,experiment,HHHHH,3,odd,NA,43416.27675,NA,NA,96450.11876,5146.075571,NA,NA,179182.6296,5213.521131,NA,178065.9578,179300.3031,179716.6379,179173.1009,179299.2655,Flanker Task,75,41071.36149,76,yes,1024
congruent,98.7012987,98.7012987,538.5427621,538.5427621,black,psycho,psycho,psycho,0,uniform,1,undefined,1,h,0,0,0,0,76,0,76,0,76,0,0,76,76,76,76,76,Sun Sep 27 17:16:21 2020,1500,The main experiment item,yes,FlankerTask.osexp,/Users/tforestmoore/Desktop,no,mono,no,18,no,white,no,yes,768,psycho,76,76,/Users/tforestmoore/Desktop/Tarleton/Fall 2020/Math/Lab 2/ALM-subject-3.csv,psycho,Lentiform Loewenfeld,3.3.3,0,h,NA,NA,s,NA,h,396.431191,NA,NA,38139.92674,NA,396.431191,2,psycho,1024,2,48000,-16,experiment,HHHHH,3,odd,NA,43416.27675,NA,NA,96450.11876,5146.075571,NA,NA,180849.2488,5213.521131,NA,179732.5643,180967.0928,181365.818,180840.5149,180965.9646,Flanker Task,76,41467.79268,77,yes,1024
incongruent,98.71794872,98.71794872,537.8718246,537.8718246,black,psycho,psycho,psycho,0,uniform,1,undefined,1,s,0,0,0,0,77,0,77,0,77,0,0,77,77,77,77,77,Sun Sep 27 17:16:21 2020,1500,The main experiment item,yes,FlankerTask.osexp,/Users/tforestmoore/Desktop,no,mono,no,18,no,white,no,yes,768,psycho,77,77,/Users/tforestmoore/Desktop/Tarleton/Fall 2020/Math/Lab 2/ALM-subject-3.csv,psycho,Lentiform Loewenfeld,3.3.3,0,s,NA,NA,s,NA,s,486.209634,NA,NA,38139.92674,NA,486.209634,2,psycho,1024,2,48000,-16,experiment,HHSHH,3,odd,NA,43416.27675,NA,NA,96450.11876,5146.075571,NA,NA,182499.2149,5213.521131,NA,181382.5998,182617.4037,183106.0021,182490.8992,182616.0366,Flanker Task,77,41954.00232,78,yes,1024
congruent,98.73417722,98.73417722,537.9339537,537.9339537,black,psycho,psycho,psycho,0,uniform,1,undefined,1,h,0,0,0,0,78,0,78,0,78,0,0,78,78,78,78,78,Sun Sep 27 17:16:21 2020,1500,The main experiment item,yes,FlankerTask.osexp,/Users/tforestmoore/Desktop,no,mono,no,18,no,white,no,yes,768,psycho,78,78,/Users/tforestmoore/Desktop/Tarleton/Fall 2020/Math/Lab 2/ALM-subject-3.csv,psycho,Lentiform Loewenfeld,3.3.3,0,h,NA,NA,s,NA,h,542.780023,NA,NA,38139.92674,NA,542.780023,2,psycho,1024,2,48000,-16,experiment,HHHHH,3,odd,NA,43416.27675,NA,NA,96450.11876,5146.075571,NA,NA,184249.2219,5213.521131,NA,183115.798,184367.5848,184912.5058,184231.6694,184366.0805,Flanker Task,78,42496.78234,79,yes,1024
incongruent,98.75,98.75,537.6415961,537.6415961,black,psycho,psycho,psycho,0,uniform,1,undefined,1,s,0,0,0,0,79,0,79,0,79,0,0,79,79,79,79,79,Sun Sep 27 17:16:21 2020,1500,The main experiment item,yes,FlankerTask.osexp,/Users/tforestmoore/Desktop,no,mono,no,18,no,white,no,yes,768,psycho,79,79,/Users/tforestmoore/Desktop/Tarleton/Fall 2020/Math/Lab 2/ALM-subject-3.csv,psycho,Lentiform Loewenfeld,3.3.3,0,s,NA,NA,s,NA,s,514.545347,NA,NA,38139.92674,NA,514.545347,2,psycho,1024,2,48000,-16,experiment,HHSHH,3,odd,NA,43416.27675,NA,NA,96450.11876,5146.075571,NA,NA,186049.2524,5213.521131,NA,184932.3667,186165.8352,186682.603,186041.4959,186165.4401,Flanker Task,79,43011.32769,80,yes,1024
congruent,98.7654321,98.7654321,538.5504132,538.5504132,black,psycho,psycho,psycho,0,uniform,1,undefined,1,s,0,0,0,0,80,0,80,0,80,0,0,80,80,80,80,80,Sun Sep 27 17:16:21 2020,600,The main experiment item,yes,FlankerTask.osexp,/Users/tforestmoore/Desktop,no,mono,no,18,no,white,no,yes,768,psycho,0,79,/Users/tforestmoore/Desktop/Tarleton/Fall 2020/Math/Lab 2/ALM-subject-3.csv,psycho,Lentiform Loewenfeld,3.3.3,0,s,s,NA,s,NA,s,611.255778,16237.06817,NA,38139.92674,NA,611.255778,2,psycho,1024,2,48000,-16,experiment,SSSSS,3,odd,187765.6777,43416.27675,204006.0433,NA,96450.11876,5146.075571,NA,NA,204117.1976,5213.521131,NA,186699.1355,204236.0021,204849.3895,204090.7545,204235.185,Flanker Task,80,43622.58347,81,yes,1024
congruent,98.7804878,98.7804878,536.0795427,536.0795427,black,psycho,psycho,psycho,0,uniform,1,undefined,1,s,0,0,0,0,81,0,81,0,81,0,0,81,81,81,81,81,Sun Sep 27 17:16:21 2020,600,The main experiment item,yes,FlankerTask.osexp,/Users/tforestmoore/Desktop,no,mono,no,18,no,white,no,yes,768,psycho,1,79,/Users/tforestmoore/Desktop/Tarleton/Fall 2020/Math/Lab 2/ALM-subject-3.csv,psycho,Lentiform Loewenfeld,3.3.3,0,s,s,NA,s,NA,s,335.939038,16237.06817,NA,38139.92674,NA,335.939038,2,psycho,1024,2,48000,-16,experiment,SSSSS,3,odd,187765.6777,43416.27675,204006.0433,NA,96450.11876,5146.075571,204865.6123,NA,206498.8119,5213.521131,NA,205383.2349,206616.4325,206954.5759,206489.3165,206615.3795,Flanker Task,81,43958.5225,82,yes,1024
congruent,98.79518072,98.79518072,533.6300893,533.6300893,black,psycho,psycho,psycho,0,uniform,1,undefined,1,h,0,0,0,0,82,0,82,0,82,0,0,82,82,82,82,82,Sun Sep 27 17:16:21 2020,600,The main experiment item,yes,FlankerTask.osexp,/Users/tforestmoore/Desktop,no,mono,no,18,no,white,no,yes,768,psycho,2,79,/Users/tforestmoore/Desktop/Tarleton/Fall 2020/Math/Lab 2/ALM-subject-3.csv,psycho,Lentiform Loewenfeld,3.3.3,0,h,s,NA,s,NA,h,332.774906,16237.06817,NA,38139.92674,NA,332.774906,2,psycho,1024,2,48000,-16,experiment,HHHHH,3,odd,187765.6777,43416.27675,204006.0433,NA,96450.11876,5146.075571,204865.6123,NA,208082.1168,5213.521131,NA,206965.6162,208199.7646,208534.9107,208072.8701,208198.7189,Flanker Task,82,44291.29741,83,yes,1024
incongruent,98.80952381,98.80952381,531.2047603,531.2047603,black,psycho,psycho,psycho,0,uniform,1,undefined,1,h,0,0,0,0,83,0,83,0,83,0,0,83,83,83,83,83,Sun Sep 27 17:16:21 2020,600,The main experiment item,yes,FlankerTask.osexp,/Users/tforestmoore/Desktop,no,mono,no,18,no,white,no,yes,768,psycho,3,79,/Users/tforestmoore/Desktop/Tarleton/Fall 2020/Math/Lab 2/ALM-subject-3.csv,psycho,Lentiform Loewenfeld,3.3.3,0,h,s,NA,s,NA,h,329.902452,16237.06817,NA,38139.92674,NA,329.902452,2,psycho,1024,2,48000,-16,experiment,SSHSS,3,odd,187765.6777,43416.27675,204006.0433,NA,96450.11876,5146.075571,204865.6123,NA,209665.8633,5213.521131,NA,208548.9824,209783.3792,210115.4867,209658.8291,209782.2999,Flanker Task,83,44621.19986,84,yes,1024
congruent,98.82352941,98.82352941,529.5411837,529.5411837,black,psycho,psycho,psycho,0,uniform,1,undefined,1,h,0,0,0,0,84,0,84,0,84,0,0,84,84,84,84,84,Sun Sep 27 17:16:21 2020,600,The main experiment item,yes,FlankerTask.osexp,/Users/tforestmoore/Desktop,no,mono,no,18,no,white,no,yes,768,psycho,4,79,/Users/tforestmoore/Desktop/Tarleton/Fall 2020/Math/Lab 2/ALM-subject-3.csv,psycho,Lentiform Loewenfeld,3.3.3,0,h,s,NA,s,NA,h,389.800751,16237.06817,NA,38139.92674,NA,389.800751,2,psycho,1024,2,48000,-16,experiment,HHHHH,3,odd,187765.6777,43416.27675,204006.0433,NA,96450.11876,5146.075571,204865.6123,NA,211248.9268,5213.521131,NA,210132.153,211366.8332,211759.5031,211240.7204,211365.5012,Flanker Task,84,45011.00061,85,yes,1024
congruent,98.8372093,98.8372093,526.9964431,526.9964431,black,psycho,psycho,psycho,0,uniform,1,undefined,1,h,0,0,0,0,85,0,85,0,85,0,0,85,85,85,85,85,Sun Sep 27 17:16:21 2020,600,The main experiment item,yes,FlankerTask.osexp,/Users/tforestmoore/Desktop,no,mono,no,18,no,white,no,yes,768,psycho,5,79,/Users/tforestmoore/Desktop/Tarleton/Fall 2020/Math/Lab 2/ALM-subject-3.csv,psycho,Lentiform Loewenfeld,3.3.3,0,h,s,NA,s,NA,h,310.693493,16237.06817,NA,38139.92674,NA,310.693493,2,psycho,1024,2,48000,-16,experiment,HHHHH,3,odd,187765.6777,43416.27675,204006.0433,NA,96450.11876,5146.075571,204865.6123,NA,212898.6003,5213.521131,NA,211781.8786,213016.55,213329.6045,212890.7822,213015.455,Flanker Task,85,45321.69411,86,yes,1024
congruent,98.85057471,98.85057471,525.6767225,525.6767225,black,psycho,psycho,psycho,0,uniform,1,undefined,1,s,0,0,0,0,86,0,86,0,86,0,0,86,86,86,86,86,Sun Sep 27 17:16:21 2020,600,The main experiment item,yes,FlankerTask.osexp,/Users/tforestmoore/Desktop,no,mono,no,18,no,white,no,yes,768,psycho,6,79,/Users/tforestmoore/Desktop/Tarleton/Fall 2020/Math/Lab 2/ALM-subject-3.csv,psycho,Lentiform Loewenfeld,3.3.3,0,s,s,NA,s,NA,s,412.180747,16237.06817,NA,38139.92674,NA,412.180747,2,psycho,1024,2,48000,-16,experiment,SSSSS,3,odd,187765.6777,43416.27675,204006.0433,NA,96450.11876,5146.075571,204865.6123,NA,214466.0132,5213.521131,NA,213348.9999,214582.6494,214996.9334,214459.2171,214582.0675,Flanker Task,86,45733.87485,87,yes,1024
congruent,98.86363636,98.86363636,522.959377,522.959377,black,psycho,psycho,psycho,0,uniform,1,undefined,1,h,0,0,0,0,87,0,87,0,87,0,0,87,87,87,87,87,Sun Sep 27 17:16:21 2020,600,The main experiment item,yes,FlankerTask.osexp,/Users/tforestmoore/Desktop,no,mono,no,18,no,white,no,yes,768,psycho,7,79,/Users/tforestmoore/Desktop/Tarleton/Fall 2020/Math/Lab 2/ALM-subject-3.csv,psycho,Lentiform Loewenfeld,3.3.3,0,h,s,NA,s,NA,h,286.550323,16237.06817,NA,38139.92674,NA,286.550323,2,psycho,1024,2,48000,-16,experiment,HHHHH,3,odd,187765.6777,43416.27675,204006.0433,NA,96450.11876,5146.075571,204865.6123,NA,216165.1572,5213.521131,NA,215015.4811,216283.2691,216572.4179,216154.6576,216282.1239,Flanker Task,87,46020.42518,88,yes,1024
congruent,98.87640449,98.87640449,521.3897017,521.3897017,black,psycho,psycho,psycho,0,uniform,1,undefined,1,h,0,0,0,0,88,0,88,0,88,0,0,88,88,88,88,88,Sun Sep 27 17:16:21 2020,600,The main experiment item,yes,FlankerTask.osexp,/Users/tforestmoore/Desktop,no,mono,no,18,no,white,no,yes,768,psycho,8,79,/Users/tforestmoore/Desktop/Tarleton/Fall 2020/Math/Lab 2/ALM-subject-3.csv,psycho,Lentiform Loewenfeld,3.3.3,0,h,s,NA,s,NA,h,383.258272,16237.06817,NA,38139.92674,NA,383.258272,2,psycho,1024,2,48000,-16,experiment,HHHHH,3,odd,187765.6777,43416.27675,204006.0433,NA,96450.11876,5146.075571,204865.6123,NA,217698.4142,5213.521131,NA,216582.2134,217816.5356,218202.5761,217692.0657,217815.3909,Flanker Task,88,46403.68345,89,yes,1024
congruent,98.88888889,98.88888889,518.7487888,518.7487888,black,psycho,psycho,psycho,0,uniform,1,undefined,1,h,0,0,0,0,89,0,89,0,89,0,0,89,89,89,89,89,Sun Sep 27 17:16:21 2020,600,The main experiment item,yes,FlankerTask.osexp,/Users/tforestmoore/Desktop,no,mono,no,18,no,white,no,yes,768,psycho,9,79,/Users/tforestmoore/Desktop/Tarleton/Fall 2020/Math/Lab 2/ALM-subject-3.csv,psycho,Lentiform Loewenfeld,3.3.3,0,h,s,NA,s,NA,h,283.707546,16237.06817,NA,38139.92674,NA,283.707546,2,psycho,1024,2,48000,-16,experiment,HHHHH,3,odd,187765.6777,43416.27675,204006.0433,NA,96450.11876,5146.075571,204865.6123,NA,219332.1202,5213.521131,NA,218215.0496,219452.2743,219738.2401,219323.8917,219451.1498,Flanker Task,89,46687.39099,90,yes,1024
incongruent,97.8021978,97.8021978,517.4980767,517.4980767,black,psycho,psycho,psycho,0,uniform,0,undefined,0,s,0,0,0,0,90,0,90,0,90,0,0,90,90,90,90,90,Sun Sep 27 17:16:21 2020,600,The main experiment item,yes,FlankerTask.osexp,/Users/tforestmoore/Desktop,no,mono,no,18,no,white,no,yes,768,psycho,10,79,/Users/tforestmoore/Desktop/Tarleton/Fall 2020/Math/Lab 2/ALM-subject-3.csv,psycho,Lentiform Loewenfeld,3.3.3,0,h,s,NA,s,NA,h,404.933982,16237.06817,NA,38139.92674,NA,404.933982,2,psycho,1024,2,48000,-16,experiment,HHSHH,3,odd,187765.6777,43416.27675,204006.0433,NA,96450.11876,5146.075571,204865.6123,NA,220865.0736,5213.521131,NA,219748.5774,220983.1769,221390.4584,220858.554,220982.0796,Flanker Task,89,47092.32498,91,yes,1024
congruent,97.82608696,97.82608696,516.6887406,516.6887406,black,psycho,psycho,psycho,0,uniform,1,undefined,1,s,0,0,0,0,91,0,91,0,91,0,0,91,91,91,91,91,Sun Sep 27 17:16:21 2020,600,The main experiment item,yes,FlankerTask.osexp,/Users/tforestmoore/Desktop,no,mono,no,18,no,white,no,yes,768,psycho,11,79,/Users/tforestmoore/Desktop/Tarleton/Fall 2020/Math/Lab 2/ALM-subject-3.csv,psycho,Lentiform Loewenfeld,3.3.3,0,s,s,NA,s,NA,s,443.039156,16237.06817,NA,38139.92674,NA,443.039156,2,psycho,1024,2,48000,-16,experiment,SSSSS,3,odd,187765.6777,43416.27675,204006.0433,NA,221398.6073,5146.075571,204865.6123,NA,223031.6129,5213.521131,NA,221915.3891,223149.8374,223595.354,223025.1594,223148.7475,Flanker Task,90,47535.36413,92,yes,1024
incongruent,97.84946237,97.84946237,517.2887662,517.2887662,black,psycho,psycho,psycho,0,uniform,1,undefined,1,s,0,0,0,0,92,0,92,0,92,0,0,92,92,92,92,92,Sun Sep 27 17:16:21 2020,600,The main experiment item,yes,FlankerTask.osexp,/Users/tforestmoore/Desktop,no,mono,no,18,no,white,no,yes,768,psycho,12,79,/Users/tforestmoore/Desktop/Tarleton/Fall 2020/Math/Lab 2/ALM-subject-3.csv,psycho,Lentiform Loewenfeld,3.3.3,0,s,s,NA,s,NA,s,572.491124,16237.06817,NA,38139.92674,NA,572.491124,2,psycho,1024,2,48000,-16,experiment,HHSHH,3,odd,187765.6777,43416.27675,204006.0433,NA,221398.6073,5146.075571,204865.6123,NA,224765.8895,5213.521131,NA,223615.3092,224882.344,225457.0316,224748.2543,224881.8103,Flanker Task,91,48107.85526,93,yes,1024
incongruent,96.80851064,96.80851064,514.83587,514.83587,black,psycho,psycho,psycho,0,uniform,0,undefined,0,s,0,0,0,0,93,0,93,0,93,0,0,93,93,93,93,93,Sun Sep 27 17:16:21 2020,600,The main experiment item,yes,FlankerTask.osexp,/Users/tforestmoore/Desktop,no,mono,no,18,no,white,no,yes,768,psycho,13,79,/Users/tforestmoore/Desktop/Tarleton/Fall 2020/Math/Lab 2/ALM-subject-3.csv,psycho,Lentiform Loewenfeld,3.3.3,0,h,s,NA,s,NA,h,286.716525,16237.06817,NA,38139.92674,NA,286.716525,2,psycho,1024,2,48000,-16,experiment,HHSHH,3,odd,187765.6777,43416.27675,204006.0433,NA,221398.6073,5146.075571,204865.6123,NA,226583.6836,5213.521131,NA,225465.1951,226699.1934,226988.0937,226566.4122,226698.6009,Flanker Task,91,48394.57178,94,yes,1024
incongruent,96.84210526,96.84210526,514.5229562,514.5229562,black,psycho,psycho,psycho,0,uniform,1,undefined,1,s,0,0,0,0,94,0,94,0,94,0,0,94,94,94,94,94,Sun Sep 27 17:16:21 2020,600,The main experiment item,yes,FlankerTask.osexp,/Users/tforestmoore/Desktop,no,mono,no,18,no,white,no,yes,768,psycho,14,79,/Users/tforestmoore/Desktop/Tarleton/Fall 2020/Math/Lab 2/ALM-subject-3.csv,psycho,Lentiform Loewenfeld,3.3.3,0,s,s,NA,s,NA,s,485.109057,16237.06817,NA,38139.92674,NA,485.109057,2,psycho,1024,2,48000,-16,experiment,HHSHH,3,odd,187765.6777,43416.27675,204006.0433,NA,227000.9785,5146.075571,204865.6123,NA,228631.9078,5213.521131,NA,227516.652,228749.7252,229237.1874,228610.1696,228748.6721,Flanker Task,92,48879.68084,95,yes,1024
congruent,96.875,96.875,513.0810848,513.0810848,black,psycho,psycho,psycho,0,uniform,1,undefined,1,s,0,0,0,0,95,0,95,0,95,0,0,95,95,95,95,95,Sun Sep 27 17:16:21 2020,600,The main experiment item,yes,FlankerTask.osexp,/Users/tforestmoore/Desktop,no,mono,no,18,no,white,no,yes,768,psycho,15,79,/Users/tforestmoore/Desktop/Tarleton/Fall 2020/Math/Lab 2/ALM-subject-3.csv,psycho,Lentiform Loewenfeld,3.3.3,0,s,s,NA,s,NA,s,376.103305,16237.06817,NA,38139.92674,NA,376.103305,2,psycho,1024,2,48000,-16,experiment,SSSSS,3,odd,187765.6777,43416.27675,204006.0433,NA,227000.9785,5146.075571,204865.6123,NA,230364.6654,5213.521131,NA,229248.5531,230482.9326,230861.3388,230357.7934,230481.8841,Flanker Task,93,49255.78414,96,yes,1024
incongruent,96.90721649,96.90721649,513.6554652,513.6554652,black,psycho,psycho,psycho,0,uniform,1,undefined,1,s,0,0,0,0,96,0,96,0,96,0,0,96,96,96,96,96,Sun Sep 27 17:16:21 2020,600,The main experiment item,yes,FlankerTask.osexp,/Users/tforestmoore/Desktop,no,mono,no,18,no,white,no,yes,768,psycho,16,79,/Users/tforestmoore/Desktop/Tarleton/Fall 2020/Math/Lab 2/ALM-subject-3.csv,psycho,Lentiform Loewenfeld,3.3.3,0,s,s,NA,s,NA,s,568.795977,16237.06817,NA,38139.92674,NA,568.795977,2,psycho,1024,2,48000,-16,experiment,HHSHH,3,odd,187765.6777,43416.27675,204006.0433,NA,227000.9785,5146.075571,204865.6123,NA,231998.9988,5213.521131,NA,230881.8427,232116.316,232687.321,231991.0052,232115.4308,Flanker Task,94,49824.58012,97,yes,1024
incongruent,95.91836735,95.91836735,511.882777,511.882777,black,psycho,psycho,psycho,0,uniform,0,undefined,0,h,0,0,0,0,97,0,97,0,97,0,0,97,97,97,97,97,Sun Sep 27 17:16:21 2020,600,The main experiment item,yes,FlankerTask.osexp,/Users/tforestmoore/Desktop,no,mono,no,18,no,white,no,yes,768,psycho,17,79,/Users/tforestmoore/Desktop/Tarleton/Fall 2020/Math/Lab 2/ALM-subject-3.csv,psycho,Lentiform Loewenfeld,3.3.3,0,s,s,NA,s,NA,s,339.932028,16237.06817,NA,38139.92674,NA,339.932028,2,psycho,1024,2,48000,-16,experiment,SSHSS,3,odd,187765.6777,43416.27675,204006.0433,NA,227000.9785,5146.075571,204865.6123,NA,233815.2191,5213.521131,NA,232698.7108,233933.7578,234275.9579,233807.036,233932.4663,Flanker Task,94,50164.51215,98,yes,1024
incongruent,95.95959596,95.95959596,511.1458255,511.1458255,black,psycho,psycho,psycho,0,uniform,1,undefined,1,h,0,0,0,0,98,0,98,0,98,0,0,98,98,98,98,98,Sun Sep 27 17:16:21 2020,600,The main experiment item,yes,FlankerTask.osexp,/Users/tforestmoore/Desktop,no,mono,no,18,no,white,no,yes,768,psycho,18,79,/Users/tforestmoore/Desktop/Tarleton/Fall 2020/Math/Lab 2/ALM-subject-3.csv,psycho,Lentiform Loewenfeld,3.3.3,0,h,s,NA,s,NA,h,438.924577,16237.06817,NA,38139.92674,NA,438.924577,2,psycho,1024,2,48000,-16,experiment,SSHSS,3,odd,187765.6777,43416.27675,204006.0433,NA,234298.4598,5146.075571,204865.6123,NA,235965.1109,5213.521131,NA,234815.2831,236082.9303,236524.1605,235952.8941,236081.8731,Flanker Task,95,50603.43673,99,yes,1024
congruent,96,96,509.5211176,509.5211176,black,psycho,psycho,psycho,0,uniform,1,undefined,1,s,0,0,0,0,99,0,99,0,99,0,0,99,99,99,99,99,Sun Sep 27 17:16:21 2020,600,The main experiment item,yes,FlankerTask.osexp,/Users/tforestmoore/Desktop,no,mono,no,18,no,white,no,yes,768,psycho,19,79,/Users/tforestmoore/Desktop/Tarleton/Fall 2020/Math/Lab 2/ALM-subject-3.csv,psycho,Lentiform Loewenfeld,3.3.3,0,s,s,NA,s,NA,s,348.675036,16237.06817,NA,38139.92674,NA,348.675036,2,psycho,1024,2,48000,-16,experiment,SSSSS,3,odd,187765.6777,43416.27675,204006.0433,NA,234298.4598,5146.075571,204865.6123,NA,237648.637,5213.521131,NA,236532.0233,237766.1143,238117.9414,237639.3629,237765.0677,Flanker Task,96,50952.11176,100,yes,1024
congruent,96.03960396,96.03960396,507.7591767,507.7591767,black,psycho,psycho,psycho,0,uniform,1,undefined,1,s,0,0,0,0,100,0,100,0,100,0,0,100,100,100,100,100,Sun Sep 27 17:16:21 2020,600,The main experiment item,yes,FlankerTask.osexp,/Users/tforestmoore/Desktop,no,mono,no,18,no,white,no,yes,768,psycho,20,79,/Users/tforestmoore/Desktop/Tarleton/Fall 2020/Math/Lab 2/ALM-subject-3.csv,psycho,Lentiform Loewenfeld,3.3.3,0,s,s,NA,s,NA,s,331.565088,16237.06817,NA,38139.92674,NA,331.565088,2,psycho,1024,2,48000,-16,experiment,SSSSS,3,odd,187765.6777,43416.27675,204006.0433,NA,234298.4598,5146.075571,204865.6123,NA,239248.355,5213.521131,NA,238131.562,239366.1721,239700.043,239240.5307,239365.1157,Flanker Task,97,51283.67685,101,yes,1024
congruent,96.07843137,96.07843137,506.1520415,506.1520415,black,psycho,psycho,psycho,0,uniform,1,undefined,1,s,0,0,0,0,101,0,101,0,101,0,0,101,101,101,101,101,Sun Sep 27 17:16:21 2020,600,The main experiment item,yes,FlankerTask.osexp,/Users/tforestmoore/Desktop,no,mono,no,18,no,white,no,yes,768,psycho,21,79,/Users/tforestmoore/Desktop/Tarleton/Fall 2020/Math/Lab 2/ALM-subject-3.csv,psycho,Lentiform Loewenfeld,3.3.3,0,s,s,NA,s,NA,s,343.831388,16237.06817,NA,38139.92674,NA,343.831388,2,psycho,1024,2,48000,-16,experiment,SSSSS,3,odd,187765.6777,43416.27675,204006.0433,NA,234298.4598,5146.075571,204865.6123,NA,240832.1745,5213.521131,NA,239714.7239,240949.8481,241296.1379,240823.7995,240948.5906,Flanker Task,98,51627.50824,102,yes,1024
congruent,96.11650485,96.11650485,504.6568595,504.6568595,black,psycho,psycho,psycho,0,uniform,1,undefined,1,s,0,0,0,0,102,0,102,0,102,0,0,102,102,102,102,102,Sun Sep 27 17:16:21 2020,600,The main experiment item,yes,FlankerTask.osexp,/Users/tforestmoore/Desktop,no,mono,no,18,no,white,no,yes,768,psycho,22,79,/Users/tforestmoore/Desktop/Tarleton/Fall 2020/Math/Lab 2/ALM-subject-3.csv,psycho,Lentiform Loewenfeld,3.3.3,0,s,s,NA,s,NA,s,352.148286,16237.06817,NA,38139.92674,NA,352.148286,2,psycho,1024,2,48000,-16,experiment,SSSSS,3,odd,187765.6777,43416.27675,204006.0433,NA,234298.4598,5146.075571,204865.6123,NA,242465.1555,5213.521131,NA,241315.0726,242582.9177,242937.7631,242444.7678,242581.8934,Flanker Task,99,51979.65652,103,yes,1024
incongruent,96.15384615,96.15384615,504.6327297,504.6327297,black,psycho,psycho,psycho,0,uniform,1,undefined,1,h,0,0,0,0,103,0,103,0,103,0,0,103,103,103,103,103,Sun Sep 27 17:16:21 2020,600,The main experiment item,yes,FlankerTask.osexp,/Users/tforestmoore/Desktop,no,mono,no,18,no,white,no,yes,768,psycho,23,79,/Users/tforestmoore/Desktop/Tarleton/Fall 2020/Math/Lab 2/ALM-subject-3.csv,psycho,Lentiform Loewenfeld,3.3.3,0,h,s,NA,s,NA,h,502.14736,16237.06817,NA,38139.92674,NA,502.14736,2,psycho,1024,2,48000,-16,experiment,SSHSS,3,odd,187765.6777,43416.27675,204006.0433,NA,234298.4598,5146.075571,204865.6123,NA,244065.6561,5213.521131,NA,242948.4564,244182.4019,244686.952,244056.8132,244181.8161,Flanker Task,100,52481.80388,104,yes,1024
congruent,96.19047619,96.19047619,504.6408289,504.6408289,black,psycho,psycho,psycho,0,uniform,1,undefined,1,s,0,0,0,0,104,0,104,0,104,0,0,104,104,104,104,104,Sun Sep 27 17:16:21 2020,600,The main experiment item,yes,FlankerTask.osexp,/Users/tforestmoore/Desktop,no,mono,no,18,no,white,no,yes,768,psycho,24,79,/Users/tforestmoore/Desktop/Tarleton/Fall 2020/Math/Lab 2/ALM-subject-3.csv,psycho,Lentiform Loewenfeld,3.3.3,0,s,s,NA,s,NA,s,505.48315,16237.06817,NA,38139.92674,NA,505.48315,2,psycho,1024,2,48000,-16,experiment,SSSSS,3,odd,187765.6777,43416.27675,204006.0433,NA,234298.4598,5146.075571,204865.6123,NA,245848.0213,5213.521131,NA,244698.2155,245965.7819,246473.6294,245828.483,245964.8696,Flanker Task,101,52987.28703,105,yes,1024
congruent,96.22641509,96.22641509,504.2044042,504.2044042,black,psycho,psycho,psycho,0,uniform,1,undefined,1,s,0,0,0,0,105,0,105,0,105,0,0,105,105,105,105,105,Sun Sep 27 17:16:21 2020,600,The main experiment item,yes,FlankerTask.osexp,/Users/tforestmoore/Desktop,no,mono,no,18,no,white,no,yes,768,psycho,25,79,/Users/tforestmoore/Desktop/Tarleton/Fall 2020/Math/Lab 2/ALM-subject-3.csv,psycho,Lentiform Loewenfeld,3.3.3,0,s,s,NA,s,NA,s,458.379815,16237.06817,NA,38139.92674,NA,458.379815,2,psycho,1024,2,48000,-16,experiment,SSSSS,3,odd,187765.6777,43416.27675,204006.0433,NA,234298.4598,5146.075571,204865.6123,NA,247598.4115,5213.521131,NA,246481.6849,247716.203,248177.8611,247589.2816,247714.9799,Flanker Task,102,53445.66685,106,yes,1024
incongruent,96.26168224,96.26168224,503.8990376,503.8990376,black,psycho,psycho,psycho,0,uniform,1,undefined,1,h,0,0,0,0,106,0,106,0,106,0,0,106,106,106,106,106,Sun Sep 27 17:16:21 2020,600,The main experiment item,yes,FlankerTask.osexp,/Users/tforestmoore/Desktop,no,mono,no,18,no,white,no,yes,768,psycho,26,79,/Users/tforestmoore/Desktop/Tarleton/Fall 2020/Math/Lab 2/ALM-subject-3.csv,psycho,Lentiform Loewenfeld,3.3.3,0,h,s,NA,s,NA,h,471.530174,16237.06817,NA,38139.92674,NA,471.530174,2,psycho,1024,2,48000,-16,experiment,SSHSS,3,odd,187765.6777,43416.27675,204006.0433,NA,234298.4598,5146.075571,204865.6123,NA,249330.8349,5213.521131,NA,248197.9763,249447.9674,249921.8873,249316.2077,249447.3935,Flanker Task,103,53917.19702,107,yes,1024
congruent,96.2962963,96.2962963,502.8578644,502.8578644,black,psycho,psycho,psycho,0,uniform,1,undefined,1,s,0,0,0,0,107,0,107,0,107,0,0,107,107,107,107,107,Sun Sep 27 17:16:21 2020,600,The main experiment item,yes,FlankerTask.osexp,/Users/tforestmoore/Desktop,no,mono,no,18,no,white,no,yes,768,psycho,27,79,/Users/tforestmoore/Desktop/Tarleton/Fall 2020/Math/Lab 2/ALM-subject-3.csv,psycho,Lentiform Loewenfeld,3.3.3,0,s,s,NA,s,NA,s,391.452333,16237.06817,NA,38139.92674,NA,391.452333,2,psycho,1024,2,48000,-16,experiment,SSSSS,3,odd,187765.6777,43416.27675,204006.0433,NA,234298.4598,5146.075571,204865.6123,NA,251048.2028,5213.521131,NA,249931.7796,251165.9429,251559.6875,251039.3871,251164.822,Flanker Task,104,54308.64936,108,yes,1024
congruent,96.33027523,96.33027523,502.1939886,502.1939886,black,psycho,psycho,psycho,0,uniform,1,undefined,1,s,0,0,0,0,108,0,108,0,108,0,0,108,108,108,108,108,Sun Sep 27 17:16:21 2020,600,The main experiment item,yes,FlankerTask.osexp,/Users/tforestmoore/Desktop,no,mono,no,18,no,white,no,yes,768,psycho,28,79,/Users/tforestmoore/Desktop/Tarleton/Fall 2020/Math/Lab 2/ALM-subject-3.csv,psycho,Lentiform Loewenfeld,3.3.3,0,s,s,NA,s,NA,s,430.4954,16237.06817,NA,38139.92674,NA,430.4954,2,psycho,1024,2,48000,-16,experiment,SSSSS,3,odd,187765.6777,43416.27675,204006.0433,NA,234298.4598,5146.075571,204865.6123,NA,252698.2107,5213.521131,NA,251581.6439,252815.8649,253248.8805,252689.7404,252814.7597,Flanker Task,105,54739.14476,109,yes,1024
congruent,96.36363636,96.36363636,500.7099994,500.7099994,black,psycho,psycho,psycho,0,uniform,1,undefined,1,s,0,0,0,0,109,0,109,0,109,0,0,109,109,109,109,109,Sun Sep 27 17:16:21 2020,600,The main experiment item,yes,FlankerTask.osexp,/Users/tforestmoore/Desktop,no,mono,no,18,no,white,no,yes,768,psycho,29,79,/Users/tforestmoore/Desktop/Tarleton/Fall 2020/Math/Lab 2/ALM-subject-3.csv,psycho,Lentiform Loewenfeld,3.3.3,0,s,s,NA,s,NA,s,338.955182,16237.06817,NA,38139.92674,NA,338.955182,2,psycho,1024,2,48000,-16,experiment,SSSSS,3,odd,187765.6777,43416.27675,204006.0433,NA,234298.4598,5146.075571,204865.6123,NA,254416.1095,5213.521131,NA,253265.148,254532.1978,254873.8534,254397.6636,254531.8398,Flanker Task,106,55078.09994,110,yes,1024
congruent,96.3963964,96.3963964,500.5125426,500.5125426,black,psycho,psycho,psycho,0,uniform,1,undefined,1,h,0,0,0,0,110,0,110,0,110,0,0,110,110,110,110,110,Sun Sep 27 17:16:21 2020,600,The main experiment item,yes,FlankerTask.osexp,/Users/tforestmoore/Desktop,no,mono,no,18,no,white,no,yes,768,psycho,30,79,/Users/tforestmoore/Desktop/Tarleton/Fall 2020/Math/Lab 2/ALM-subject-3.csv,psycho,Lentiform Loewenfeld,3.3.3,0,h,s,NA,s,NA,h,478.792286,16237.06817,NA,38139.92674,NA,478.792286,2,psycho,1024,2,48000,-16,experiment,HHHHH,3,odd,187765.6777,43416.27675,204006.0433,NA,234298.4598,5146.075571,204865.6123,NA,255998.0501,5213.521131,NA,254881.4341,256116.6232,256599.7847,255992.8733,256115.8906,Flanker Task,107,55556.89222,111,yes,1024
congruent,95.53571429,95.53571429,499.1923903,499.1923903,black,psycho,psycho,psycho,0,uniform,0,undefined,0,h,0,0,0,0,111,0,111,0,111,0,0,111,111,111,111,111,Sun Sep 27 17:16:21 2020,600,The main experiment item,yes,FlankerTask.osexp,/Users/tforestmoore/Desktop,no,mono,no,18,no,white,no,yes,768,psycho,31,79,/Users/tforestmoore/Desktop/Tarleton/Fall 2020/Math/Lab 2/ALM-subject-3.csv,psycho,Lentiform Loewenfeld,3.3.3,0,s,s,NA,s,NA,s,352.655494,16237.06817,NA,38139.92674,NA,352.655494,2,psycho,1024,2,48000,-16,experiment,HHHHH,3,odd,187765.6777,43416.27675,204006.0433,NA,234298.4598,5146.075571,204865.6123,NA,257731.6592,5213.521131,NA,256614.6244,257848.5506,258203.6364,257723.7213,257847.9458,Flanker Task,107,55909.54772,112,yes,1024
congruent,95.57522124,95.57522124,497.9099773,497.9099773,black,psycho,psycho,psycho,0,uniform,1,undefined,1,s,0,0,0,0,112,0,112,0,112,0,0,112,112,112,112,112,Sun Sep 27 17:16:21 2020,600,The main experiment item,yes,FlankerTask.osexp,/Users/tforestmoore/Desktop,no,mono,no,18,no,white,no,yes,768,psycho,32,79,/Users/tforestmoore/Desktop/Tarleton/Fall 2020/Math/Lab 2/ALM-subject-3.csv,psycho,Lentiform Loewenfeld,3.3.3,0,s,s,NA,s,NA,s,354.279716,16237.06817,NA,38139.92674,NA,354.279716,2,psycho,1024,2,48000,-16,experiment,SSSSS,3,odd,187765.6777,43416.27675,204006.0433,NA,258214.7868,5146.075571,204865.6123,NA,259848.0249,5213.521131,NA,258731.5372,259966.8718,260323.6551,259840.9109,259965.9497,Flanker Task,108,56263.82743,113,yes,1024
congruent,95.61403509,95.61403509,496.935081,496.935081,black,psycho,psycho,psycho,0,uniform,1,undefined,1,h,0,0,0,0,113,0,113,0,113,0,0,113,113,113,113,113,Sun Sep 27 17:16:21 2020,600,The main experiment item,yes,FlankerTask.osexp,/Users/tforestmoore/Desktop,no,mono,no,18,no,white,no,yes,768,psycho,33,79,/Users/tforestmoore/Desktop/Tarleton/Fall 2020/Math/Lab 2/ALM-subject-3.csv,psycho,Lentiform Loewenfeld,3.3.3,0,h,s,NA,s,NA,h,386.7718,16237.06817,NA,38139.92674,NA,386.7718,2,psycho,1024,2,48000,-16,experiment,HHHHH,3,odd,187765.6777,43416.27675,204006.0433,NA,258214.7868,5146.075571,204865.6123,NA,261448.6366,5213.521131,NA,260331.7111,261565.3666,261954.5464,261439.6005,261564.7767,Flanker Task,109,56650.59923,114,yes,1024
incongruent,95.65217391,95.65217391,497.5340841,497.5340841,black,psycho,psycho,psycho,0,uniform,1,undefined,1,h,0,0,0,0,114,0,114,0,114,0,0,114,114,114,114,114,Sun Sep 27 17:16:21 2020,600,The main experiment item,yes,FlankerTask.osexp,/Users/tforestmoore/Desktop,no,mono,no,18,no,white,no,yes,768,psycho,34,79,/Users/tforestmoore/Desktop/Tarleton/Fall 2020/Math/Lab 2/ALM-subject-3.csv,psycho,Lentiform Loewenfeld,3.3.3,0,h,s,NA,s,NA,h,565.820443,16237.06817,NA,38139.92674,NA,565.820443,2,psycho,1024,2,48000,-16,experiment,SSHSS,3,odd,187765.6777,43416.27675,204006.0433,NA,258214.7868,5146.075571,204865.6123,NA,263081.6426,5213.521131,NA,261964.6372,263199.146,263767.2456,263073.0489,263198.2294,Flanker Task,110,57216.41968,115,yes,1024
incongruent,95.68965517,95.68965517,497.6075911,497.6075911,black,psycho,psycho,psycho,0,uniform,1,undefined,1,s,0,0,0,0,115,0,115,0,115,0,0,115,115,115,115,115,Sun Sep 27 17:16:21 2020,600,The main experiment item,yes,FlankerTask.osexp,/Users/tforestmoore/Desktop,no,mono,no,18,no,white,no,yes,768,psycho,35,79,/Users/tforestmoore/Desktop/Tarleton/Fall 2020/Math/Lab 2/ALM-subject-3.csv,psycho,Lentiform Loewenfeld,3.3.3,0,s,s,NA,s,NA,s,506.060892,16237.06817,NA,38139.92674,NA,506.060892,2,psycho,1024,2,48000,-16,experiment,HHSHH,3,odd,187765.6777,43416.27675,204006.0433,NA,258214.7868,5146.075571,204865.6123,NA,264898.3172,5213.521131,NA,263781.4379,265015.9602,265524.4665,264890.5528,265014.8336,Flanker Task,111,57722.48057,116,yes,1024
incongruent,95.72649573,95.72649573,497.4310442,497.4310442,black,psycho,psycho,psycho,0,uniform,1,undefined,1,s,0,0,0,0,116,0,116,0,116,0,0,116,116,116,116,116,Sun Sep 27 17:16:21 2020,600,The main experiment item,yes,FlankerTask.osexp,/Users/tforestmoore/Desktop,no,mono,no,18,no,white,no,yes,768,psycho,36,79,/Users/tforestmoore/Desktop/Tarleton/Fall 2020/Math/Lab 2/ALM-subject-3.csv,psycho,Lentiform Loewenfeld,3.3.3,0,s,s,NA,s,NA,s,476.951598,16237.06817,NA,38139.92674,NA,476.951598,2,psycho,1024,2,48000,-16,experiment,HHSHH,3,odd,187765.6777,43416.27675,204006.0433,NA,258214.7868,5146.075571,204865.6123,NA,266683.0833,5213.521131,NA,265548.0366,266798.9647,267278.3255,266659.7537,266798.1543,Flanker Task,112,58199.43217,117,yes,1024
incongruent,95.76271186,95.76271186,497.4051909,497.4051909,black,psycho,psycho,psycho,0,uniform,1,undefined,1,h,0,0,0,0,117,0,117,0,117,0,0,117,117,117,117,117,Sun Sep 27 17:16:21 2020,600,The main experiment item,yes,FlankerTask.osexp,/Users/tforestmoore/Desktop,no,mono,no,18,no,white,no,yes,768,psycho,37,79,/Users/tforestmoore/Desktop/Tarleton/Fall 2020/Math/Lab 2/ALM-subject-3.csv,psycho,Lentiform Loewenfeld,3.3.3,0,h,s,NA,s,NA,h,494.380363,16237.06817,NA,38139.92674,NA,494.380363,2,psycho,1024,2,48000,-16,experiment,SSHSS,3,odd,187765.6777,43416.27675,204006.0433,NA,258214.7868,5146.075571,204865.6123,NA,268447.7842,5213.521131,NA,267298.3093,268565.753,269062.5334,268431.2531,268564.7096,Flanker Task,113,58693.81253,118,yes,1024
congruent,95.79831933,95.79831933,497.2819845,497.2819845,black,psycho,psycho,psycho,0,uniform,1,undefined,1,s,0,0,0,0,118,0,118,0,118,0,0,118,118,118,118,118,Sun Sep 27 17:16:21 2020,600,The main experiment item,yes,FlankerTask.osexp,/Users/tforestmoore/Desktop,no,mono,no,18,no,white,no,yes,768,psycho,38,79,/Users/tforestmoore/Desktop/Tarleton/Fall 2020/Math/Lab 2/ALM-subject-3.csv,psycho,Lentiform Loewenfeld,3.3.3,0,s,s,NA,s,NA,s,482.743627,16237.06817,NA,38139.92674,NA,482.743627,2,psycho,1024,2,48000,-16,experiment,SSSSS,3,odd,187765.6777,43416.27675,204006.0433,NA,258214.7868,5146.075571,204865.6123,NA,270200.277,5213.521131,NA,269081.5055,270315.2632,270800.4978,270188.243,270314.6776,Flanker Task,114,59176.55616,119,yes,1024
congruent,95.83333333,95.83333333,496.4543189,496.4543189,black,psycho,psycho,psycho,0,uniform,1,undefined,1,h,0,0,0,0,119,0,119,0,119,0,0,119,119,119,119,119,Sun Sep 27 17:16:21 2020,600,The main experiment item,yes,FlankerTask.osexp,/Users/tforestmoore/Desktop,no,mono,no,18,no,white,no,yes,768,psycho,39,79,/Users/tforestmoore/Desktop/Tarleton/Fall 2020/Math/Lab 2/ALM-subject-3.csv,psycho,Lentiform Loewenfeld,3.3.3,0,h,s,NA,s,NA,h,397.962116,16237.06817,NA,38139.92674,NA,397.962116,2,psycho,1024,2,48000,-16,experiment,HHHHH,3,odd,187765.6777,43416.27675,204006.0433,NA,258214.7868,5146.075571,204865.6123,NA,271964.7633,5213.521131,NA,270814.8183,272082.6242,272483.1939,271956.1725,272081.4021,Flanker Task,115,59574.51827,120,yes,1024
incongruent,95.8677686,95.8677686,497.0696181,497.0696181,black,psycho,psycho,psycho,0,uniform,1,undefined,1,h,0,0,0,0,120,0,120,0,120,0,0,120,120,120,120,120,Sun Sep 27 17:16:21 2020,600,The main experiment item,yes,FlankerTask.osexp,/Users/tforestmoore/Desktop,no,mono,no,18,no,white,no,yes,768,psycho,40,79,/Users/tforestmoore/Desktop/Tarleton/Fall 2020/Math/Lab 2/ALM-subject-3.csv,psycho,Lentiform Loewenfeld,3.3.3,0,h,s,NA,s,NA,h,570.905519,16237.06817,NA,38139.92674,NA,570.905519,2,psycho,1024,2,48000,-16,experiment,SSHSS,3,odd,187765.6777,43416.27675,204006.0433,NA,258214.7868,5146.075571,204865.6123,NA,273615.4924,5213.521131,NA,272498.225,273731.8366,274305.178,273607.815,273731.2522,Flanker Task,116,60145.42379,121,yes,1024
congruent,95.90163934,95.90163934,496.8951379,496.8951379,black,psycho,psycho,psycho,0,uniform,1,undefined,1,h,0,0,0,0,121,0,121,0,121,0,0,121,121,121,121,121,Sun Sep 27 17:16:21 2020,600,The main experiment item,yes,FlankerTask.osexp,/Users/tforestmoore/Desktop,no,mono,no,18,no,white,no,yes,768,psycho,41,79,/Users/tforestmoore/Desktop/Tarleton/Fall 2020/Math/Lab 2/ALM-subject-3.csv,psycho,Lentiform Loewenfeld,3.3.3,0,h,s,NA,s,NA,h,475.78303,16237.06817,NA,38139.92674,NA,475.78303,2,psycho,1024,2,48000,-16,experiment,HHHHH,3,odd,187765.6777,43416.27675,204006.0433,NA,258214.7868,5146.075571,204865.6123,NA,275431.6517,5213.521131,NA,274315.272,275549.3333,276028.9619,275423.6407,275548.1569,Flanker Task,117,60621.20682,122,yes,1024
congruent,95.93495935,95.93495935,496.0843456,496.0843456,black,psycho,psycho,psycho,0,uniform,1,undefined,1,h,0,0,0,0,122,0,122,0,122,0,0,122,122,122,122,122,Sun Sep 27 17:16:21 2020,600,The main experiment item,yes,FlankerTask.osexp,/Users/tforestmoore/Desktop,no,mono,no,18,no,white,no,yes,768,psycho,42,79,/Users/tforestmoore/Desktop/Tarleton/Fall 2020/Math/Lab 2/ALM-subject-3.csv,psycho,Lentiform Loewenfeld,3.3.3,0,h,s,NA,s,NA,h,397.167682,16237.06817,NA,38139.92674,NA,397.167682,2,psycho,1024,2,48000,-16,experiment,HHHHH,3,odd,187765.6777,43416.27675,204006.0433,NA,258214.7868,5146.075571,204865.6123,NA,277164.4781,5213.521131,NA,276047.6803,277282.3389,277682.0226,277157.104,277281.2367,Flanker Task,118,61018.3745,123,yes,1024
incongruent,95.96774194,95.96774194,496.2240031,496.2240031,black,psycho,psycho,psycho,0,uniform,1,undefined,1,h,0,0,0,0,123,0,123,0,123,0,0,123,123,123,123,123,Sun Sep 27 17:16:21 2020,600,The main experiment item,yes,FlankerTask.osexp,/Users/tforestmoore/Desktop,no,mono,no,18,no,white,no,yes,768,psycho,43,79,/Users/tforestmoore/Desktop/Tarleton/Fall 2020/Math/Lab 2/ALM-subject-3.csv,psycho,Lentiform Loewenfeld,3.3.3,0,h,s,NA,s,NA,h,513.401877,16237.06817,NA,38139.92674,NA,513.401877,2,psycho,1024,2,48000,-16,experiment,SSHSS,3,odd,187765.6777,43416.27675,204006.0433,NA,258214.7868,5146.075571,204865.6123,NA,278814.7737,5213.521131,NA,277697.9107,278932.1116,279447.8716,278807.8569,278931.3471,Flanker Task,119,61531.77638,124,yes,1024
incongruent,96,96,496.3400586,496.3400586,black,psycho,psycho,psycho,0,uniform,1,undefined,1,s,0,0,0,0,124,0,124,0,124,0,0,124,124,124,124,124,Sun Sep 27 17:16:21 2020,600,The main experiment item,yes,FlankerTask.osexp,/Users/tforestmoore/Desktop,no,mono,no,18,no,white,no,yes,768,psycho,44,79,/Users/tforestmoore/Desktop/Tarleton/Fall 2020/Math/Lab 2/ALM-subject-3.csv,psycho,Lentiform Loewenfeld,3.3.3,0,s,s,NA,s,NA,s,510.730944,16237.06817,NA,38139.92674,NA,510.730944,2,psycho,1024,2,48000,-16,experiment,HHSHH,3,odd,187765.6777,43416.27675,204006.0433,NA,258214.7868,5146.075571,204865.6123,NA,280581.2221,5213.521131,NA,279464.558,280699.0151,281212.197,280572.4012,280697.8613,Flanker Task,120,62042.50732,125,yes,1024
congruent,96.03174603,96.03174603,496.0534631,496.0534631,black,psycho,psycho,psycho,0,uniform,1,undefined,1,h,0,0,0,0,125,0,125,0,125,0,0,125,125,125,125,125,Sun Sep 27 17:16:21 2020,600,The main experiment item,yes,FlankerTask.osexp,/Users/tforestmoore/Desktop,no,mono,no,18,no,white,no,yes,768,psycho,45,79,/Users/tforestmoore/Desktop/Tarleton/Fall 2020/Math/Lab 2/ALM-subject-3.csv,psycho,Lentiform Loewenfeld,3.3.3,0,h,s,NA,s,NA,h,460.229023,16237.06817,NA,38139.92674,NA,460.229023,2,psycho,1024,2,48000,-16,experiment,HHHHH,3,odd,187765.6777,43416.27675,204006.0433,NA,258214.7868,5146.075571,204865.6123,NA,282365.1474,5213.521131,NA,281231.163,282481.3587,282943.9565,282345.8733,282480.9815,Flanker Task,121,62502.73635,126,yes,1024
congruent,96.06299213,96.06299213,496.1283084,496.1283084,black,psycho,psycho,psycho,0,uniform,1,undefined,1,h,0,0,0,0,126,0,126,0,126,0,0,126,126,126,126,126,Sun Sep 27 17:16:21 2020,600,The main experiment item,yes,FlankerTask.osexp,/Users/tforestmoore/Desktop,no,mono,no,18,no,white,no,yes,768,psycho,46,79,/Users/tforestmoore/Desktop/Tarleton/Fall 2020/Math/Lab 2/ALM-subject-3.csv,psycho,Lentiform Loewenfeld,3.3.3,0,h,s,NA,s,NA,h,505.558814,16237.06817,NA,38139.92674,NA,505.558814,2,psycho,1024,2,48000,-16,experiment,HHHHH,3,odd,187765.6777,43416.27675,204006.0433,NA,258214.7868,5146.075571,204865.6123,NA,284081.7801,5213.521131,NA,282964.6591,284198.5553,284706.6258,284075.2364,284197.9707,Flanker Task,122,63008.29516,127,yes,1024
congruent,96.09375,96.09375,495.5210218,495.5210218,black,psycho,psycho,psycho,0,uniform,1,undefined,1,h,0,0,0,0,127,0,127,0,127,0,0,127,127,127,127,127,Sun Sep 27 17:16:21 2020,600,The main experiment item,yes,FlankerTask.osexp,/Users/tforestmoore/Desktop,no,mono,no,18,no,white,no,yes,768,psycho,47,79,/Users/tforestmoore/Desktop/Tarleton/Fall 2020/Math/Lab 2/ALM-subject-3.csv,psycho,Lentiform Loewenfeld,3.3.3,0,h,s,NA,s,NA,h,418.395625,16237.06817,NA,38139.92674,NA,418.395625,2,psycho,1024,2,48000,-16,experiment,HHHHH,3,odd,187765.6777,43416.27675,204006.0433,NA,258214.7868,5146.075571,204865.6123,NA,285847.6914,5213.521131,NA,284714.8789,285965.0377,286385.9487,285832.9481,285964.2381,Flanker Task,123,63426.69079,128,yes,1024
incongruent,96.12403101,96.12403101,497.8435476,497.8435476,black,psycho,psycho,psycho,0,uniform,1,undefined,1,h,0,0,0,0,128,0,128,0,128,0,0,128,128,128,128,128,Sun Sep 27 17:16:21 2020,600,The main experiment item,yes,FlankerTask.osexp,/Users/tforestmoore/Desktop,no,mono,no,18,no,white,no,yes,768,psycho,48,79,/Users/tforestmoore/Desktop/Tarleton/Fall 2020/Math/Lab 2/ALM-subject-3.csv,psycho,Lentiform Loewenfeld,3.3.3,0,h,s,NA,s,NA,h,795.126858,16237.06817,NA,38139.92674,NA,795.126858,2,psycho,1024,2,48000,-16,experiment,SSHSS,3,odd,187765.6777,43416.27675,204006.0433,NA,258214.7868,5146.075571,204865.6123,NA,287514.5421,5213.521131,NA,286397.8944,287632.2939,288429.9509,287507.1328,287631.1617,Flanker Task,124,64221.81764,129,yes,1024
congruent,96.15384615,96.15384615,497.2178877,497.2178877,black,psycho,psycho,psycho,0,uniform,1,undefined,1,h,0,0,0,0,129,0,129,0,129,0,0,129,129,129,129,129,Sun Sep 27 17:16:21 2020,600,The main experiment item,yes,FlankerTask.osexp,/Users/tforestmoore/Desktop,no,mono,no,18,no,white,no,yes,768,psycho,49,79,/Users/tforestmoore/Desktop/Tarleton/Fall 2020/Math/Lab 2/ALM-subject-3.csv,psycho,Lentiform Loewenfeld,3.3.3,0,h,s,NA,s,NA,h,416.507753,16237.06817,NA,38139.92674,NA,416.507753,2,psycho,1024,2,48000,-16,experiment,HHHHH,3,odd,187765.6777,43416.27675,204006.0433,NA,258214.7868,5146.075571,288447.884,NA,290097.6025,5213.521131,NA,288964.5024,290214.9455,290634.6275,290075.7377,290214.2191,Flanker Task,125,64638.3254,130,yes,1024
congruent,96.18320611,96.18320611,495.9856174,495.9856174,black,psycho,psycho,psycho,0,uniform,1,undefined,1,h,0,0,0,0,130,0,130,0,130,0,0,130,130,130,130,130,Sun Sep 27 17:16:21 2020,600,The main experiment item,yes,FlankerTask.osexp,/Users/tforestmoore/Desktop,no,mono,no,18,no,white,no,yes,768,psycho,50,79,/Users/tforestmoore/Desktop/Tarleton/Fall 2020/Math/Lab 2/ALM-subject-3.csv,psycho,Lentiform Loewenfeld,3.3.3,0,h,s,NA,s,NA,h,335.790488,16237.06817,NA,38139.92674,NA,335.790488,2,psycho,1024,2,48000,-16,experiment,HHHHH,3,odd,187765.6777,43416.27675,204006.0433,NA,258214.7868,5146.075571,288447.884,NA,291764.334,5213.521131,NA,290647.8218,291882.1514,292220.9919,291757.7868,291881.0191,Flanker Task,126,64974.11589,131,yes,1024
incongruent,96.21212121,96.21212121,494.9305218,494.9305218,black,psycho,psycho,psycho,0,uniform,1,undefined,1,s,0,0,0,0,131,0,131,0,131,0,0,131,131,131,131,131,Sun Sep 27 17:16:21 2020,600,The main experiment item,yes,FlankerTask.osexp,/Users/tforestmoore/Desktop,no,mono,no,18,no,white,no,yes,768,psycho,51,79,/Users/tforestmoore/Desktop/Tarleton/Fall 2020/Math/Lab 2/ALM-subject-3.csv,psycho,Lentiform Loewenfeld,3.3.3,0,s,s,NA,s,NA,s,356.712988,16237.06817,NA,38139.92674,NA,356.712988,2,psycho,1024,2,48000,-16,experiment,HHSHH,3,odd,187765.6777,43416.27675,204006.0433,NA,258214.7868,5146.075571,288447.884,NA,293348.1984,5213.521131,NA,292230.647,293465.5927,293824.7017,293338.7818,293464.4355,Flanker Task,127,65330.82887,132,yes,1024
congruent,96.2406015,96.2406015,494.5779929,494.5779929,black,psycho,psycho,psycho,0,uniform,1,undefined,1,s,0,0,0,0,132,0,132,0,132,0,0,132,132,132,132,132,Sun Sep 27 17:16:21 2020,600,The main experiment item,yes,FlankerTask.osexp,/Users/tforestmoore/Desktop,no,mono,no,18,no,white,no,yes,768,psycho,52,79,/Users/tforestmoore/Desktop/Tarleton/Fall 2020/Math/Lab 2/ALM-subject-3.csv,psycho,Lentiform Loewenfeld,3.3.3,0,s,s,NA,s,NA,s,448.044182,16237.06817,NA,38139.92674,NA,448.044182,2,psycho,1024,2,48000,-16,experiment,SSSSS,3,odd,187765.6777,43416.27675,204006.0433,NA,258214.7868,5146.075571,288447.884,NA,294964.5593,5213.521131,NA,293847.6579,295082.231,295532.6774,294956.9099,295081.0243,Flanker Task,128,65778.87306,133,yes,1024
incongruent,96.26865672,96.26865672,493.645276,493.645276,black,psycho,psycho,psycho,0,uniform,1,undefined,1,h,0,0,0,0,133,0,133,0,133,0,0,133,133,133,133,133,Sun Sep 27 17:16:21 2020,600,The main experiment item,yes,FlankerTask.osexp,/Users/tforestmoore/Desktop,no,mono,no,18,no,white,no,yes,768,psycho,53,79,/Users/tforestmoore/Desktop/Tarleton/Fall 2020/Math/Lab 2/ALM-subject-3.csv,psycho,Lentiform Loewenfeld,3.3.3,0,h,s,NA,s,NA,h,369.593926,16237.06817,NA,38139.92674,NA,369.593926,2,psycho,1024,2,48000,-16,experiment,SSHSS,3,odd,187765.6777,43416.27675,204006.0433,NA,258214.7868,5146.075571,288447.884,NA,296681.055,5213.521131,NA,295547.6384,296798.9312,297170.9222,296663.1333,296797.8333,Flanker Task,129,66148.46698,134,yes,1024
congruent,96.2962963,96.2962963,493.0442596,493.0442596,black,psycho,psycho,psycho,0,uniform,1,undefined,1,s,0,0,0,0,134,0,134,0,134,0,0,134,134,134,134,134,Sun Sep 27 17:16:21 2020,600,The main experiment item,yes,FlankerTask.osexp,/Users/tforestmoore/Desktop,no,mono,no,18,no,white,no,yes,768,psycho,54,79,/Users/tforestmoore/Desktop/Tarleton/Fall 2020/Math/Lab 2/ALM-subject-3.csv,psycho,Lentiform Loewenfeld,3.3.3,0,s,s,NA,s,NA,s,412.508066,16237.06817,NA,38139.92674,NA,412.508066,2,psycho,1024,2,48000,-16,experiment,SSSSS,3,odd,187765.6777,43416.27675,204006.0433,NA,258214.7868,5146.075571,288447.884,NA,298297.7563,5213.521131,NA,297180.8828,298415.5009,298830.4019,298290.0733,298414.3311,Flanker Task,130,66560.97505,135,yes,1024
congruent,96.32352941,96.32352941,491.9507822,491.9507822,black,psycho,psycho,psycho,0,uniform,1,undefined,1,h,0,0,0,0,135,0,135,0,135,0,0,135,135,135,135,135,Sun Sep 27 17:16:21 2020,600,The main experiment item,yes,FlankerTask.osexp,/Users/tforestmoore/Desktop,no,mono,no,18,no,white,no,yes,768,psycho,55,79,/Users/tforestmoore/Desktop/Tarleton/Fall 2020/Math/Lab 2/ALM-subject-3.csv,psycho,Lentiform Loewenfeld,3.3.3,0,h,s,NA,s,NA,h,344.331336,16237.06817,NA,38139.92674,NA,344.331336,2,psycho,1024,2,48000,-16,experiment,HHHHH,3,odd,187765.6777,43416.27675,204006.0433,NA,258214.7868,5146.075571,288447.884,NA,299997.3192,5213.521131,NA,298847.6357,300114.7511,300461.6154,299980.9907,300113.974,Flanker Task,131,66905.30638,136,yes,1024
congruent,96.35036496,96.35036496,491.2897309,491.2897309,black,psycho,psycho,psycho,0,uniform,1,undefined,1,h,0,0,0,0,136,0,136,0,136,0,0,136,136,136,136,136,Sun Sep 27 17:16:21 2020,600,The main experiment item,yes,FlankerTask.osexp,/Users/tforestmoore/Desktop,no,mono,no,18,no,white,no,yes,768,psycho,56,79,/Users/tforestmoore/Desktop/Tarleton/Fall 2020/Math/Lab 2/ALM-subject-3.csv,psycho,Lentiform Loewenfeld,3.3.3,0,h,s,NA,s,NA,h,401.386746,16237.06817,NA,38139.92674,NA,401.386746,2,psycho,1024,2,48000,-16,experiment,HHHHH,3,odd,187765.6777,43416.27675,204006.0433,NA,258214.7868,5146.075571,288447.884,NA,301597.4398,5213.521131,NA,300480.9302,301717.2065,302121.8585,301590.2493,301716.0128,Flanker Task,132,67306.69313,137,yes,1024
incongruent,95.65217391,95.65217391,490.3293847,490.3293847,black,psycho,psycho,psycho,0,uniform,0,undefined,0,s,0,0,0,0,137,0,137,0,137,0,0,137,137,137,137,137,Sun Sep 27 17:16:21 2020,600,The main experiment item,yes,FlankerTask.osexp,/Users/tforestmoore/Desktop,no,mono,no,18,no,white,no,yes,768,psycho,57,79,/Users/tforestmoore/Desktop/Tarleton/Fall 2020/Math/Lab 2/ALM-subject-3.csv,psycho,Lentiform Loewenfeld,3.3.3,0,h,s,NA,s,NA,h,358.761955,16237.06817,NA,38139.92674,NA,358.761955,2,psycho,1024,2,48000,-16,experiment,HHSHH,3,odd,187765.6777,43416.27675,204006.0433,NA,258214.7868,5146.075571,288447.884,NA,303247.7722,5213.521131,NA,302133.0307,303365.4245,303726.6881,303241.5211,303364.3741,Flanker Task,132,67665.45508,138,yes,1024
