"acc","accuracy","average_response_time","avg_rt","background","canvas_backend","clock_backend","color_backend","compensation","condition","coordinates","correct","correct_instructions","correct_keyboard_response","correct_response","count_ISI","count_block1","count_block2","count_block3","count_errorFeedback","count_experiment","count_faster","count_finish","count_fixation","count_instructions","count_instructions2","count_instructions3","count_keyboard_response","count_logger","count_sequence","count_stimulus","datetime","deadline","description","disable_garbage_collection","experiment_file","experiment_path","font_bold","font_family","font_italic","font_size","font_underline","foreground","form_clicks","fullscreen","height","keyboard_backend","live_row","live_row_block1","logfile","mouse_backend","opensesame_codename","opensesame_version","repeat_cycle","response","response_finish","response_instructions","response_instructions2","response_instructions3","response_keyboard_response","response_time","response_time_finish","response_time_instructions","response_time_instructions2","response_time_instructions3","response_time_keyboard_response","round_decimals","sampler_backend","sound_buf_size","sound_channels","sound_freq","sound_sample_size","start","stimulus","subject_nr","subject_parity","time_ISI","time_block1","time_block2","time_block3","time_errorFeedback","time_experiment","time_faster","time_finish","time_fixation","time_instructions","time_instructions2","time_instructions3","time_keyboard_response","time_logger","time_sequence","time_stimulus","title","total_correct","total_response_time","total_responses","uniform_coordinates","width"
"100","100","732","732","black","legacy","legacy","legacy","0","congruent","uniform","1","undefined","1","h","0","0","0","0","0","0","0","0","0","0","0","0","0","0","0","0","Sat Sep 26 14:23:08 2020","1500","The main experiment item","yes","FlankerTask.osexp","/Users/suzannejosey","no","mono","no","18","no","white","no","yes","768","legacy","0","0","/Users/suzannejosey/subject-3.csv","legacy","Lentiform Loewenfeld","3.3.3","0","h","NA","s","NA","NA","h","732","NA","11785","NA","NA","732","2","legacy","1024","2","48000","-16","experiment","HHHHH","3","odd","NA","14502","NA","NA","NA","2691","NA","NA","14562","2702","NA","NA","14677","15410","14552","14677","Flanker Task","1","732","1","yes","1024"
"100","100","556.5","556.5","black","legacy","legacy","legacy","0","incongruent","uniform","1","undefined","1","s","1","0","0","0","1","0","1","0","1","0","0","0","1","1","1","1","Sat Sep 26 14:23:08 2020","1500","The main experiment item","yes","FlankerTask.osexp","/Users/suzannejosey","no","mono","no","18","no","white","no","yes","768","legacy","1","1","/Users/suzannejosey/subject-3.csv","legacy","Lentiform Loewenfeld","3.3.3","0","s","NA","s","NA","NA","s","381","NA","11785","NA","NA","381","2","legacy","1024","2","48000","-16","experiment","HHSHH","3","odd","15426","14502","NA","NA","NA","2691","NA","NA","16494","2702","NA","NA","16608","16990","16485","16608","Flanker Task","2","1113","2","yes","1024"
"100","100","493.3333333333333","493.3333333333333","black","legacy","legacy","legacy","0","congruent","uniform","1","undefined","1","h","2","0","0","0","2","0","2","0","2","0","0","0","2","2","2","2","Sat Sep 26 14:23:08 2020","1500","The main experiment item","yes","FlankerTask.osexp","/Users/suzannejosey","no","mono","no","18","no","white","no","yes","768","legacy","2","2","/Users/suzannejosey/subject-3.csv","legacy","Lentiform Loewenfeld","3.3.3","0","h","NA","s","NA","NA","h","367","NA","11785","NA","NA","367","2","legacy","1024","2","48000","-16","experiment","HHHHH","3","odd","17003","14502","NA","NA","NA","2691","NA","NA","18078","2702","NA","NA","18192","18560","18066","18192","Flanker Task","3","1480","3","yes","1024"
"100","100","513","513","black","legacy","legacy","legacy","0","incongruent","uniform","1","undefined","1","s","3","0","0","0","3","0","3","0","3","0","0","0","3","3","3","3","Sat Sep 26 14:23:08 2020","1500","The main experiment item","yes","FlankerTask.osexp","/Users/suzannejosey","no","mono","no","18","no","white","no","yes","768","legacy","3","3","/Users/suzannejosey/subject-3.csv","legacy","Lentiform Loewenfeld","3.3.3","0","s","NA","s","NA","NA","s","572","NA","11785","NA","NA","572","2","legacy","1024","2","48000","-16","experiment","HHSHH","3","odd","18573","14502","NA","NA","NA","2691","NA","NA","19646","2702","NA","NA","19760","20333","19634","19760","Flanker Task","4","2052","4","yes","1024"
"100","100","527.4","527.4","black","legacy","legacy","legacy","0","incongruent","uniform","1","undefined","1","s","4","0","0","0","4","0","4","0","4","0","0","0","4","4","4","4","Sat Sep 26 14:23:08 2020","1500","The main experiment item","yes","FlankerTask.osexp","/Users/suzannejosey","no","mono","no","18","no","white","no","yes","768","legacy","4","4","/Users/suzannejosey/subject-3.csv","legacy","Lentiform Loewenfeld","3.3.3","0","s","NA","s","NA","NA","s","585","NA","11785","NA","NA","585","2","legacy","1024","2","48000","-16","experiment","HHSHH","3","odd","20347","14502","NA","NA","NA","2691","NA","NA","21421","2702","NA","NA","21537","22123","21408","21536","Flanker Task","5","2637","5","yes","1024"
"100","100","557.1666666666666","557.1666666666666","black","legacy","legacy","legacy","0","incongruent","uniform","1","undefined","1","h","5","0","0","0","5","0","5","0","5","0","0","0","5","5","5","5","Sat Sep 26 14:23:08 2020","1500","The main experiment item","yes","FlankerTask.osexp","/Users/suzannejosey","no","mono","no","18","no","white","no","yes","768","legacy","5","5","/Users/suzannejosey/subject-3.csv","legacy","Lentiform Loewenfeld","3.3.3","0","h","NA","s","NA","NA","h","706","NA","11785","NA","NA","706","2","legacy","1024","2","48000","-16","experiment","SSHSS","3","odd","22137","14502","NA","NA","NA","2691","NA","NA","23211","2702","NA","NA","23327","24034","23198","23326","Flanker Task","6","3343","6","yes","1024"
"100","100","565.4285714285714","565.4285714285714","black","legacy","legacy","legacy","0","incongruent","uniform","1","undefined","1","h","6","0","0","0","6","0","6","0","6","0","0","0","6","6","6","6","Sat Sep 26 14:23:08 2020","1500","The main experiment item","yes","FlankerTask.osexp","/Users/suzannejosey","no","mono","no","18","no","white","no","yes","768","legacy","6","6","/Users/suzannejosey/subject-3.csv","legacy","Lentiform Loewenfeld","3.3.3","0","h","NA","s","NA","NA","h","615","NA","11785","NA","NA","615","2","legacy","1024","2","48000","-16","experiment","SSHSS","3","odd","24047","14502","NA","NA","NA","2691","NA","NA","25121","2702","NA","NA","25236","25852","25109","25235","Flanker Task","7","3958","7","yes","1024"
"100","100","552.125","552.125","black","legacy","legacy","legacy","0","congruent","uniform","1","undefined","1","s","7","0","0","0","7","0","7","0","7","0","0","0","7","7","7","7","Sat Sep 26 14:23:08 2020","1500","The main experiment item","yes","FlankerTask.osexp","/Users/suzannejosey","no","mono","no","18","no","white","no","yes","768","legacy","7","7","/Users/suzannejosey/subject-3.csv","legacy","Lentiform Loewenfeld","3.3.3","0","s","NA","s","NA","NA","s","459","NA","11785","NA","NA","459","2","legacy","1024","2","48000","-16","experiment","SSSSS","3","odd","25865","14502","NA","NA","NA","2691","NA","NA","26938","2702","NA","NA","27052","27512","26926","27052","Flanker Task","8","4417","8","yes","1024"
"100","100","554.1111111111111","554.1111111111111","black","legacy","legacy","legacy","0","incongruent","uniform","1","undefined","1","s","8","0","0","0","8","0","8","0","8","0","0","0","8","8","8","8","Sat Sep 26 14:23:08 2020","1500","The main experiment item","yes","FlankerTask.osexp","/Users/suzannejosey","no","mono","no","18","no","white","no","yes","768","legacy","8","8","/Users/suzannejosey/subject-3.csv","legacy","Lentiform Loewenfeld","3.3.3","0","s","NA","s","NA","NA","s","570","NA","11785","NA","NA","570","2","legacy","1024","2","48000","-16","experiment","HHSHH","3","odd","27525","14502","NA","NA","NA","2691","NA","NA","28599","2702","NA","NA","28713","29284","28587","28713","Flanker Task","9","4987","9","yes","1024"
"100","100","546.3","546.3","black","legacy","legacy","legacy","0","congruent","uniform","1","undefined","1","h","9","0","0","0","9","0","9","0","9","0","0","0","9","9","9","9","Sat Sep 26 14:23:08 2020","1500","The main experiment item","yes","FlankerTask.osexp","/Users/suzannejosey","no","mono","no","18","no","white","no","yes","768","legacy","9","9","/Users/suzannejosey/subject-3.csv","legacy","Lentiform Loewenfeld","3.3.3","0","h","NA","s","NA","NA","h","476","NA","11785","NA","NA","476","2","legacy","1024","2","48000","-16","experiment","HHHHH","3","odd","29298","14502","NA","NA","NA","2691","NA","NA","30372","2702","NA","NA","30487","30964","30360","30487","Flanker Task","10","5463","10","yes","1024"
"100","100","544.5454545454545","544.5454545454545","black","legacy","legacy","legacy","0","incongruent","uniform","1","undefined","1","s","10","0","0","0","10","0","10","0","10","0","0","0","10","10","10","10","Sat Sep 26 14:23:08 2020","1500","The main experiment item","yes","FlankerTask.osexp","/Users/suzannejosey","no","mono","no","18","no","white","no","yes","768","legacy","10","10","/Users/suzannejosey/subject-3.csv","legacy","Lentiform Loewenfeld","3.3.3","0","s","NA","s","NA","NA","s","527","NA","11785","NA","NA","527","2","legacy","1024","2","48000","-16","experiment","HHSHH","3","odd","30978","14502","NA","NA","NA","2691","NA","NA","32051","2702","NA","NA","32165","32693","32039","32165","Flanker Task","11","5990","11","yes","1024"
"100","100","534.6666666666666","534.6666666666666","black","legacy","legacy","legacy","0","congruent","uniform","1","undefined","1","s","11","0","0","0","11","0","11","0","11","0","0","0","11","11","11","11","Sat Sep 26 14:23:08 2020","1500","The main experiment item","yes","FlankerTask.osexp","/Users/suzannejosey","no","mono","no","18","no","white","no","yes","768","legacy","11","11","/Users/suzannejosey/subject-3.csv","legacy","Lentiform Loewenfeld","3.3.3","0","s","NA","s","NA","NA","s","426","NA","11785","NA","NA","426","2","legacy","1024","2","48000","-16","experiment","SSSSS","3","odd","32706","14502","NA","NA","NA","2691","NA","NA","33780","2702","NA","NA","33892","34319","33768","33892","Flanker Task","12","6416","12","yes","1024"
"100","100","533.5384615384615","533.5384615384615","black","legacy","legacy","legacy","0","congruent","uniform","1","undefined","1","s","12","0","0","0","12","0","12","0","12","0","0","0","12","12","12","12","Sat Sep 26 14:23:08 2020","1500","The main experiment item","yes","FlankerTask.osexp","/Users/suzannejosey","no","mono","no","18","no","white","no","yes","768","legacy","12","12","/Users/suzannejosey/subject-3.csv","legacy","Lentiform Loewenfeld","3.3.3","0","s","NA","s","NA","NA","s","520","NA","11785","NA","NA","520","2","legacy","1024","2","48000","-16","experiment","SSSSS","3","odd","34332","14502","NA","NA","NA","2691","NA","NA","35406","2702","NA","NA","35519","36040","35393","35519","Flanker Task","13","6936","13","yes","1024"
"100","100","531.0714285714286","531.0714285714286","black","legacy","legacy","legacy","0","congruent","uniform","1","undefined","1","s","13","0","0","0","13","0","13","0","13","0","0","0","13","13","13","13","Sat Sep 26 14:23:08 2020","1500","The main experiment item","yes","FlankerTask.osexp","/Users/suzannejosey","no","mono","no","18","no","white","no","yes","768","legacy","13","13","/Users/suzannejosey/subject-3.csv","legacy","Lentiform Loewenfeld","3.3.3","0","s","NA","s","NA","NA","s","499","NA","11785","NA","NA","499","2","legacy","1024","2","48000","-16","experiment","SSSSS","3","odd","36052","14502","NA","NA","NA","2691","NA","NA","37125","2702","NA","NA","37240","37740","37113","37240","Flanker Task","14","7435","14","yes","1024"
"100","100","534.5333333333333","534.5333333333333","black","legacy","legacy","legacy","0","congruent","uniform","1","undefined","1","s","14","0","0","0","14","0","14","0","14","0","0","0","14","14","14","14","Sat Sep 26 14:23:08 2020","1500","The main experiment item","yes","FlankerTask.osexp","/Users/suzannejosey","no","mono","no","18","no","white","no","yes","768","legacy","14","14","/Users/suzannejosey/subject-3.csv","legacy","Lentiform Loewenfeld","3.3.3","0","s","NA","s","NA","NA","s","583","NA","11785","NA","NA","583","2","legacy","1024","2","48000","-16","experiment","SSSSS","3","odd","37754","14502","NA","NA","NA","2691","NA","NA","38827","2702","NA","NA","38939","39523","38815","38939","Flanker Task","15","8018","15","yes","1024"
"100","100","531.5625","531.5625","black","legacy","legacy","legacy","0","congruent","uniform","1","undefined","1","s","15","0","0","0","15","0","15","0","15","0","0","0","15","15","15","15","Sat Sep 26 14:23:08 2020","1500","The main experiment item","yes","FlankerTask.osexp","/Users/suzannejosey","no","mono","no","18","no","white","no","yes","768","legacy","15","15","/Users/suzannejosey/subject-3.csv","legacy","Lentiform Loewenfeld","3.3.3","0","s","NA","s","NA","NA","s","487","NA","11785","NA","NA","487","2","legacy","1024","2","48000","-16","experiment","SSSSS","3","odd","39536","14502","NA","NA","NA","2691","NA","NA","40608","2702","NA","NA","40723","41211","40596","40723","Flanker Task","16","8505","16","yes","1024"
"100","100","538.1764705882352","538.1764705882352","black","legacy","legacy","legacy","0","incongruent","uniform","1","undefined","1","s","16","0","0","0","16","0","16","0","16","0","0","0","16","16","16","16","Sat Sep 26 14:23:08 2020","1500","The main experiment item","yes","FlankerTask.osexp","/Users/suzannejosey","no","mono","no","18","no","white","no","yes","768","legacy","16","16","/Users/suzannejosey/subject-3.csv","legacy","Lentiform Loewenfeld","3.3.3","0","s","NA","s","NA","NA","s","644","NA","11785","NA","NA","644","2","legacy","1024","2","48000","-16","experiment","HHSHH","3","odd","41225","14502","NA","NA","NA","2691","NA","NA","42292","2702","NA","NA","42403","43049","42281","42403","Flanker Task","17","9149","17","yes","1024"
"100","100","537.0555555555555","537.0555555555555","black","legacy","legacy","legacy","0","congruent","uniform","1","undefined","1","h","17","0","0","0","17","0","17","0","17","0","0","0","17","17","17","17","Sat Sep 26 14:23:08 2020","1500","The main experiment item","yes","FlankerTask.osexp","/Users/suzannejosey","no","mono","no","18","no","white","no","yes","768","legacy","17","17","/Users/suzannejosey/subject-3.csv","legacy","Lentiform Loewenfeld","3.3.3","0","h","NA","s","NA","NA","h","518","NA","11785","NA","NA","518","2","legacy","1024","2","48000","-16","experiment","HHHHH","3","odd","43062","14502","NA","NA","NA","2691","NA","NA","44138","2702","NA","NA","44253","44772","44126","44253","Flanker Task","18","9667","18","yes","1024"
"100","100","538.421052631579","538.421052631579","black","legacy","legacy","legacy","0","congruent","uniform","1","undefined","1","s","18","0","0","0","18","0","18","0","18","0","0","0","18","18","18","18","Sat Sep 26 14:23:08 2020","1500","The main experiment item","yes","FlankerTask.osexp","/Users/suzannejosey","no","mono","no","18","no","white","no","yes","768","legacy","18","18","/Users/suzannejosey/subject-3.csv","legacy","Lentiform Loewenfeld","3.3.3","0","s","NA","s","NA","NA","s","563","NA","11785","NA","NA","563","2","legacy","1024","2","48000","-16","experiment","SSSSS","3","odd","44785","14502","NA","NA","NA","2691","NA","NA","45858","2702","NA","NA","45972","46536","45846","45972","Flanker Task","19","10230","19","yes","1024"
"95","95","530","530","black","legacy","legacy","legacy","0","incongruent","uniform","0","undefined","0","s","19","0","0","0","19","0","19","0","19","0","0","0","19","19","19","19","Sat Sep 26 14:23:08 2020","1500","The main experiment item","yes","FlankerTask.osexp","/Users/suzannejosey","no","mono","no","18","no","white","no","yes","768","legacy","19","19","/Users/suzannejosey/subject-3.csv","legacy","Lentiform Loewenfeld","3.3.3","0","h","NA","s","NA","NA","h","370","NA","11785","NA","NA","370","2","legacy","1024","2","48000","-16","experiment","HHSHH","3","odd","46548","14502","NA","NA","NA","2691","NA","NA","47622","2702","NA","NA","47736","48107","47610","47736","Flanker Task","19","10600","20","yes","1024"
"95.23809523809524","95.23809523809524","535.1904761904761","535.1904761904761","black","legacy","legacy","legacy","0","incongruent","uniform","1","undefined","1","h","20","0","0","0","20","0","20","0","20","0","0","0","20","20","20","20","Sat Sep 26 14:23:08 2020","1500","The main experiment item","yes","FlankerTask.osexp","/Users/suzannejosey","no","mono","no","18","no","white","no","yes","768","legacy","20","20","/Users/suzannejosey/subject-3.csv","legacy","Lentiform Loewenfeld","3.3.3","0","h","NA","s","NA","NA","h","639","NA","11785","NA","NA","639","2","legacy","1024","2","48000","-16","experiment","SSHSS","3","odd","48636","14502","NA","NA","48121","2691","NA","NA","49712","2702","NA","NA","49824","50464","49700","49824","Flanker Task","20","11239","21","yes","1024"
"90.9090909090909","90.9090909090909","539.8181818181819","539.8181818181819","black","legacy","legacy","legacy","0","incongruent","uniform","0","undefined","0","h","21","0","0","0","21","0","21","0","21","0","0","0","21","21","21","21","Sat Sep 26 14:23:08 2020","1500","The main experiment item","yes","FlankerTask.osexp","/Users/suzannejosey","no","mono","no","18","no","white","no","yes","768","legacy","21","21","/Users/suzannejosey/subject-3.csv","legacy","Lentiform Loewenfeld","3.3.3","0","s","NA","s","NA","NA","s","637","NA","11785","NA","NA","637","2","legacy","1024","2","48000","-16","experiment","SSHSS","3","odd","50477","14502","NA","NA","48121","2691","NA","NA","51551","2702","NA","NA","51665","52303","51539","51665","Flanker Task","20","11876","22","yes","1024"
"91.30434782608695","91.30434782608695","549.9565217391304","549.9565217391304","black","legacy","legacy","legacy","0","incongruent","uniform","1","undefined","1","h","22","0","0","0","22","0","22","0","22","0","0","0","22","22","22","22","Sat Sep 26 14:23:08 2020","1500","The main experiment item","yes","FlankerTask.osexp","/Users/suzannejosey","no","mono","no","18","no","white","no","yes","768","legacy","22","22","/Users/suzannejosey/subject-3.csv","legacy","Lentiform Loewenfeld","3.3.3","0","h","NA","s","NA","NA","h","773","NA","11785","NA","NA","773","2","legacy","1024","2","48000","-16","experiment","SSHSS","3","odd","52828","14502","NA","NA","52316","2691","NA","NA","53902","2702","NA","NA","54016","54790","53890","54016","Flanker Task","21","12649","23","yes","1024"
"91.66666666666667","91.66666666666667","547.3333333333334","547.3333333333334","black","legacy","legacy","legacy","0","congruent","uniform","1","undefined","1","h","23","0","0","0","23","0","23","0","23","0","0","0","23","23","23","23","Sat Sep 26 14:23:08 2020","1500","The main experiment item","yes","FlankerTask.osexp","/Users/suzannejosey","no","mono","no","18","no","white","no","yes","768","legacy","23","23","/Users/suzannejosey/subject-3.csv","legacy","Lentiform Loewenfeld","3.3.3","0","h","NA","s","NA","NA","h","487","NA","11785","NA","NA","487","2","legacy","1024","2","48000","-16","experiment","HHHHH","3","odd","54803","14502","NA","NA","52316","2691","NA","NA","55876","2702","NA","NA","55988","56476","55863","55988","Flanker Task","22","13136","24","yes","1024"
"92","92","545.92","545.92","black","legacy","legacy","legacy","0","congruent","uniform","1","undefined","1","h","24","0","0","0","24","0","24","0","24","0","0","0","24","24","24","24","Sat Sep 26 14:23:08 2020","1500","The main experiment item","yes","FlankerTask.osexp","/Users/suzannejosey","no","mono","no","18","no","white","no","yes","768","legacy","24","24","/Users/suzannejosey/subject-3.csv","legacy","Lentiform Loewenfeld","3.3.3","0","h","NA","s","NA","NA","h","512","NA","11785","NA","NA","512","2","legacy","1024","2","48000","-16","experiment","HHHHH","3","odd","56489","14502","NA","NA","52316","2691","NA","NA","57562","2702","NA","NA","57676","58189","57549","57676","Flanker Task","23","13648","25","yes","1024"
"92.3076923076923","92.3076923076923","545.3846153846154","545.3846153846154","black","legacy","legacy","legacy","0","congruent","uniform","1","undefined","1","s","25","0","0","0","25","0","25","0","25","0","0","0","25","25","25","25","Sat Sep 26 14:23:08 2020","1500","The main experiment item","yes","FlankerTask.osexp","/Users/suzannejosey","no","mono","no","18","no","white","no","yes","768","legacy","25","25","/Users/suzannejosey/subject-3.csv","legacy","Lentiform Loewenfeld","3.3.3","0","s","NA","s","NA","NA","s","532","NA","11785","NA","NA","532","2","legacy","1024","2","48000","-16","experiment","SSSSS","3","odd","58202","14502","NA","NA","52316","2691","NA","NA","59276","2702","NA","NA","59390","59923","59264","59390","Flanker Task","24","14180","26","yes","1024"
"92.5925925925926","92.5925925925926","544.2962962962963","544.2962962962963","black","legacy","legacy","legacy","0","congruent","uniform","1","undefined","1","h","26","0","0","0","26","0","26","0","26","0","0","0","26","26","26","26","Sat Sep 26 14:23:08 2020","1500","The main experiment item","yes","FlankerTask.osexp","/Users/suzannejosey","no","mono","no","18","no","white","no","yes","768","legacy","26","26","/Users/suzannejosey/subject-3.csv","legacy","Lentiform Loewenfeld","3.3.3","0","h","NA","s","NA","NA","h","516","NA","11785","NA","NA","516","2","legacy","1024","2","48000","-16","experiment","HHHHH","3","odd","59937","14502","NA","NA","52316","2691","NA","NA","61009","2702","NA","NA","61123","61640","60998","61123","Flanker Task","25","14696","27","yes","1024"
"92.85714285714286","92.85714285714286","548.1071428571429","548.1071428571429","black","legacy","legacy","legacy","0","incongruent","uniform","1","undefined","1","s","27","0","0","0","27","0","27","0","27","0","0","0","27","27","27","27","Sat Sep 26 14:23:08 2020","1500","The main experiment item","yes","FlankerTask.osexp","/Users/suzannejosey","no","mono","no","18","no","white","no","yes","768","legacy","27","27","/Users/suzannejosey/subject-3.csv","legacy","Lentiform Loewenfeld","3.3.3","0","s","NA","s","NA","NA","s","651","NA","11785","NA","NA","651","2","legacy","1024","2","48000","-16","experiment","HHSHH","3","odd","61653","14502","NA","NA","52316","2691","NA","NA","62726","2702","NA","NA","62840","63492","62714","62840","Flanker Task","26","15347","28","yes","1024"
"93.10344827586206","93.10344827586206","559.9310344827586","559.9310344827586","black","legacy","legacy","legacy","0","incongruent","uniform","1","undefined","1","s","28","0","0","0","28","0","28","0","28","0","0","0","28","28","28","28","Sat Sep 26 14:23:08 2020","1500","The main experiment item","yes","FlankerTask.osexp","/Users/suzannejosey","no","mono","no","18","no","white","no","yes","768","legacy","28","28","/Users/suzannejosey/subject-3.csv","legacy","Lentiform Loewenfeld","3.3.3","0","s","NA","s","NA","NA","s","891","NA","11785","NA","NA","891","2","legacy","1024","2","48000","-16","experiment","HHSHH","3","odd","63506","14502","NA","NA","52316","2691","NA","NA","64578","2702","NA","NA","64692","65584","64566","64692","Flanker Task","27","16238","29","yes","1024"
"93.33333333333333","93.33333333333333","562.1666666666666","562.1666666666666","black","legacy","legacy","legacy","0","incongruent","uniform","1","undefined","1","s","29","0","0","0","29","0","29","0","29","0","0","0","29","29","29","29","Sat Sep 26 14:23:08 2020","1500","The main experiment item","yes","FlankerTask.osexp","/Users/suzannejosey","no","mono","no","18","no","white","no","yes","768","legacy","29","29","/Users/suzannejosey/subject-3.csv","legacy","Lentiform Loewenfeld","3.3.3","0","s","NA","s","NA","NA","s","627","NA","11785","NA","NA","627","2","legacy","1024","2","48000","-16","experiment","HHSHH","3","odd","65600","14502","NA","NA","52316","2691","NA","NA","66685","2702","NA","NA","66802","67431","66670","66802","Flanker Task","28","16865","30","yes","1024"
"93.54838709677419","93.54838709677419","563.258064516129","563.258064516129","black","legacy","legacy","legacy","0","incongruent","uniform","1","undefined","1","h","30","0","0","0","30","0","30","0","30","0","0","0","30","30","30","30","Sat Sep 26 14:23:08 2020","1500","The main experiment item","yes","FlankerTask.osexp","/Users/suzannejosey","no","mono","no","18","no","white","no","yes","768","legacy","30","30","/Users/suzannejosey/subject-3.csv","legacy","Lentiform Loewenfeld","3.3.3","0","h","NA","s","NA","NA","h","596","NA","11785","NA","NA","596","2","legacy","1024","2","48000","-16","experiment","SSHSS","3","odd","67450","14502","NA","NA","52316","2691","NA","NA","68553","2702","NA","NA","68672","69270","68534","68671","Flanker Task","29","17461","31","yes","1024"
"93.75","93.75","562.96875","562.96875","black","legacy","legacy","legacy","0","incongruent","uniform","1","undefined","1","h","31","0","0","0","31","0","31","0","31","0","0","0","31","31","31","31","Sat Sep 26 14:23:08 2020","1500","The main experiment item","yes","FlankerTask.osexp","/Users/suzannejosey","no","mono","no","18","no","white","no","yes","768","legacy","31","31","/Users/suzannejosey/subject-3.csv","legacy","Lentiform Loewenfeld","3.3.3","0","h","NA","s","NA","NA","h","554","NA","11785","NA","NA","554","2","legacy","1024","2","48000","-16","experiment","SSHSS","3","odd","69292","14502","NA","NA","52316","2691","NA","NA","70397","2702","NA","NA","70517","71073","70377","70516","Flanker Task","30","18015","32","yes","1024"
"93.93939393939394","93.93939393939394","567.7272727272727","567.7272727272727","black","legacy","legacy","legacy","0","incongruent","uniform","1","undefined","1","s","32","0","0","0","32","0","32","0","32","0","0","0","32","32","32","32","Sat Sep 26 14:23:08 2020","1500","The main experiment item","yes","FlankerTask.osexp","/Users/suzannejosey","no","mono","no","18","no","white","no","yes","768","legacy","32","32","/Users/suzannejosey/subject-3.csv","legacy","Lentiform Loewenfeld","3.3.3","0","s","NA","s","NA","NA","s","720","NA","11785","NA","NA","720","2","legacy","1024","2","48000","-16","experiment","HHSHH","3","odd","71097","14502","NA","NA","52316","2691","NA","NA","72208","2702","NA","NA","72329","73051","72187","72329","Flanker Task","31","18735","33","yes","1024"
"94.11764705882354","94.11764705882354","572.3823529411765","572.3823529411765","black","legacy","legacy","legacy","0","incongruent","uniform","1","undefined","1","h","33","0","0","0","33","0","33","0","33","0","0","0","33","33","33","33","Sat Sep 26 14:23:08 2020","1500","The main experiment item","yes","FlankerTask.osexp","/Users/suzannejosey","no","mono","no","18","no","white","no","yes","768","legacy","33","33","/Users/suzannejosey/subject-3.csv","legacy","Lentiform Loewenfeld","3.3.3","0","h","NA","s","NA","NA","h","726","NA","11785","NA","NA","726","2","legacy","1024","2","48000","-16","experiment","SSHSS","3","odd","73077","14502","NA","NA","52316","2691","NA","NA","74195","2702","NA","NA","74317","75046","74173","74317","Flanker Task","32","19461","34","yes","1024"
"94.28571428571429","94.28571428571429","575.1714285714286","575.1714285714286","black","legacy","legacy","legacy","0","congruent","uniform","1","undefined","1","h","34","0","0","0","34","0","34","0","34","0","0","0","34","34","34","34","Sat Sep 26 14:23:08 2020","1500","The main experiment item","yes","FlankerTask.osexp","/Users/suzannejosey","no","mono","no","18","no","white","no","yes","768","legacy","34","34","/Users/suzannejosey/subject-3.csv","legacy","Lentiform Loewenfeld","3.3.3","0","h","NA","s","NA","NA","h","670","NA","11785","NA","NA","670","2","legacy","1024","2","48000","-16","experiment","HHHHH","3","odd","75073","14502","NA","NA","52316","2691","NA","NA","76200","2702","NA","NA","76324","76997","76176","76324","Flanker Task","33","20131","35","yes","1024"
"94.44444444444444","94.44444444444444","575.25","575.25","black","legacy","legacy","legacy","0","incongruent","uniform","1","undefined","1","s","35","0","0","0","35","0","35","0","35","0","0","0","35","35","35","35","Sat Sep 26 14:23:08 2020","1500","The main experiment item","yes","FlankerTask.osexp","/Users/suzannejosey","no","mono","no","18","no","white","no","yes","768","legacy","35","35","/Users/suzannejosey/subject-3.csv","legacy","Lentiform Loewenfeld","3.3.3","0","s","NA","s","NA","NA","s","578","NA","11785","NA","NA","578","2","legacy","1024","2","48000","-16","experiment","HHSHH","3","odd","77023","14502","NA","NA","52316","2691","NA","NA","78096","2702","NA","NA","78210","78789","78084","78210","Flanker Task","34","20709","36","yes","1024"
"94.5945945945946","94.5945945945946","573.1081081081081","573.1081081081081","black","legacy","legacy","legacy","0","congruent","uniform","1","undefined","1","h","36","0","0","0","36","0","36","0","36","0","0","0","36","36","36","36","Sat Sep 26 14:23:08 2020","1500","The main experiment item","yes","FlankerTask.osexp","/Users/suzannejosey","no","mono","no","18","no","white","no","yes","768","legacy","36","36","/Users/suzannejosey/subject-3.csv","legacy","Lentiform Loewenfeld","3.3.3","0","h","NA","s","NA","NA","h","496","NA","11785","NA","NA","496","2","legacy","1024","2","48000","-16","experiment","HHHHH","3","odd","78803","14502","NA","NA","52316","2691","NA","NA","79880","2702","NA","NA","79994","80491","79868","79994","Flanker Task","35","21205","37","yes","1024"
"94.73684210526316","94.73684210526316","572.2894736842105","572.2894736842105","black","legacy","legacy","legacy","0","congruent","uniform","1","undefined","1","s","37","0","0","0","37","0","37","0","37","0","0","0","37","37","37","37","Sat Sep 26 14:23:08 2020","1500","The main experiment item","yes","FlankerTask.osexp","/Users/suzannejosey","no","mono","no","18","no","white","no","yes","768","legacy","37","37","/Users/suzannejosey/subject-3.csv","legacy","Lentiform Loewenfeld","3.3.3","0","s","NA","s","NA","NA","s","542","NA","11785","NA","NA","542","2","legacy","1024","2","48000","-16","experiment","SSSSS","3","odd","80502","14502","NA","NA","52316","2691","NA","NA","81575","2702","NA","NA","81688","82231","81562","81688","Flanker Task","36","21747","38","yes","1024"
"94.87179487179488","94.87179487179488","570","570","black","legacy","legacy","legacy","0","congruent","uniform","1","undefined","1","s","38","0","0","0","38","0","38","0","38","0","0","0","38","38","38","38","Sat Sep 26 14:23:08 2020","1500","The main experiment item","yes","FlankerTask.osexp","/Users/suzannejosey","no","mono","no","18","no","white","no","yes","768","legacy","38","38","/Users/suzannejosey/subject-3.csv","legacy","Lentiform Loewenfeld","3.3.3","0","s","NA","s","NA","NA","s","483","NA","11785","NA","NA","483","2","legacy","1024","2","48000","-16","experiment","SSSSS","3","odd","82244","14502","NA","NA","52316","2691","NA","NA","83318","2702","NA","NA","83432","83916","83306","83432","Flanker Task","37","22230","39","yes","1024"
"95","95","573.175","573.175","black","legacy","legacy","legacy","0","incongruent","uniform","1","undefined","1","s","39","0","0","0","39","0","39","0","39","0","0","0","39","39","39","39","Sat Sep 26 14:23:08 2020","1500","The main experiment item","yes","FlankerTask.osexp","/Users/suzannejosey","no","mono","no","18","no","white","no","yes","768","legacy","39","39","/Users/suzannejosey/subject-3.csv","legacy","Lentiform Loewenfeld","3.3.3","0","s","NA","s","NA","NA","s","697","NA","11785","NA","NA","697","2","legacy","1024","2","48000","-16","experiment","HHSHH","3","odd","83928","14502","NA","NA","52316","2691","NA","NA","85002","2702","NA","NA","85116","85814","84991","85116","Flanker Task","38","22927","40","yes","1024"
"95.1219512195122","95.1219512195122","576.1463414634146","576.1463414634146","black","legacy","legacy","legacy","0","congruent","uniform","1","undefined","1","h","40","0","0","0","40","0","40","0","40","0","0","0","40","40","40","40","Sat Sep 26 14:23:08 2020","1500","The main experiment item","yes","FlankerTask.osexp","/Users/suzannejosey","no","mono","no","18","no","white","no","yes","768","legacy","40","40","/Users/suzannejosey/subject-3.csv","legacy","Lentiform Loewenfeld","3.3.3","0","h","NA","s","NA","NA","h","695","NA","11785","NA","NA","695","2","legacy","1024","2","48000","-16","experiment","HHHHH","3","odd","85828","14502","NA","NA","52316","2691","NA","NA","86902","2702","NA","NA","87016","87712","86890","87016","Flanker Task","39","23622","41","yes","1024"
"95.23809523809524","95.23809523809524","574.4047619047619","574.4047619047619","black","legacy","legacy","legacy","0","congruent","uniform","1","undefined","1","s","41","0","0","0","41","0","41","0","41","0","0","0","41","41","41","41","Sat Sep 26 14:23:08 2020","1500","The main experiment item","yes","FlankerTask.osexp","/Users/suzannejosey","no","mono","no","18","no","white","no","yes","768","legacy","41","41","/Users/suzannejosey/subject-3.csv","legacy","Lentiform Loewenfeld","3.3.3","0","s","NA","s","NA","NA","s","503","NA","11785","NA","NA","503","2","legacy","1024","2","48000","-16","experiment","SSSSS","3","odd","87726","14502","NA","NA","52316","2691","NA","NA","88798","2702","NA","NA","88913","89417","88786","88913","Flanker Task","40","24125","42","yes","1024"
"95.34883720930233","95.34883720930233","573.953488372093","573.953488372093","black","legacy","legacy","legacy","0","incongruent","uniform","1","undefined","1","s","42","0","0","0","42","0","42","0","42","0","0","0","42","42","42","42","Sat Sep 26 14:23:08 2020","1500","The main experiment item","yes","FlankerTask.osexp","/Users/suzannejosey","no","mono","no","18","no","white","no","yes","768","legacy","42","42","/Users/suzannejosey/subject-3.csv","legacy","Lentiform Loewenfeld","3.3.3","0","s","NA","s","NA","NA","s","555","NA","11785","NA","NA","555","2","legacy","1024","2","48000","-16","experiment","HHSHH","3","odd","89431","14502","NA","NA","52316","2691","NA","NA","90508","2702","NA","NA","90622","91178","90495","90622","Flanker Task","41","24680","43","yes","1024"
"95.45454545454545","95.45454545454545","572.7045454545455","572.7045454545455","black","legacy","legacy","legacy","0","incongruent","uniform","1","undefined","1","h","43","0","0","0","43","0","43","0","43","0","0","0","43","43","43","43","Sat Sep 26 14:23:08 2020","1500","The main experiment item","yes","FlankerTask.osexp","/Users/suzannejosey","no","mono","no","18","no","white","no","yes","768","legacy","43","43","/Users/suzannejosey/subject-3.csv","legacy","Lentiform Loewenfeld","3.3.3","0","h","NA","s","NA","NA","h","519","NA","11785","NA","NA","519","2","legacy","1024","2","48000","-16","experiment","SSHSS","3","odd","91192","14502","NA","NA","52316","2691","NA","NA","92267","2702","NA","NA","92381","92901","92254","92381","Flanker Task","42","25199","44","yes","1024"
"95.55555555555556","95.55555555555556","572.7555555555556","572.7555555555556","black","legacy","legacy","legacy","0","incongruent","uniform","1","undefined","1","s","44","0","0","0","44","0","44","0","44","0","0","0","44","44","44","44","Sat Sep 26 14:23:08 2020","1500","The main experiment item","yes","FlankerTask.osexp","/Users/suzannejosey","no","mono","no","18","no","white","no","yes","768","legacy","44","44","/Users/suzannejosey/subject-3.csv","legacy","Lentiform Loewenfeld","3.3.3","0","s","NA","s","NA","NA","s","575","NA","11785","NA","NA","575","2","legacy","1024","2","48000","-16","experiment","HHSHH","3","odd","92915","14502","NA","NA","52316","2691","NA","NA","93992","2702","NA","NA","94107","94683","93980","94107","Flanker Task","43","25774","45","yes","1024"
"95.65217391304348","95.65217391304348","570.8260869565217","570.8260869565217","black","legacy","legacy","legacy","0","congruent","uniform","1","undefined","1","s","45","0","0","0","45","0","45","0","45","0","0","0","45","45","45","45","Sat Sep 26 14:23:08 2020","1500","The main experiment item","yes","FlankerTask.osexp","/Users/suzannejosey","no","mono","no","18","no","white","no","yes","768","legacy","45","45","/Users/suzannejosey/subject-3.csv","legacy","Lentiform Loewenfeld","3.3.3","0","s","NA","s","NA","NA","s","484","NA","11785","NA","NA","484","2","legacy","1024","2","48000","-16","experiment","SSSSS","3","odd","94696","14502","NA","NA","52316","2691","NA","NA","95769","2702","NA","NA","95883","96368","95757","95883","Flanker Task","44","26258","46","yes","1024"
"95.74468085106383","95.74468085106383","572.5106382978723","572.5106382978723","black","legacy","legacy","legacy","0","congruent","uniform","1","undefined","1","h","46","0","0","0","46","0","46","0","46","0","0","0","46","46","46","46","Sat Sep 26 14:23:08 2020","1500","The main experiment item","yes","FlankerTask.osexp","/Users/suzannejosey","no","mono","no","18","no","white","no","yes","768","legacy","46","46","/Users/suzannejosey/subject-3.csv","legacy","Lentiform Loewenfeld","3.3.3","0","h","NA","s","NA","NA","h","650","NA","11785","NA","NA","650","2","legacy","1024","2","48000","-16","experiment","HHHHH","3","odd","96382","14502","NA","NA","52316","2691","NA","NA","97439","2702","NA","NA","97553","98204","97430","97553","Flanker Task","45","26908","47","yes","1024"
"95.83333333333333","95.83333333333333","571.2291666666666","571.2291666666666","black","legacy","legacy","legacy","0","congruent","uniform","1","undefined","1","s","47","0","0","0","47","0","47","0","47","0","0","0","47","47","47","47","Sat Sep 26 14:23:08 2020","1500","The main experiment item","yes","FlankerTask.osexp","/Users/suzannejosey","no","mono","no","18","no","white","no","yes","768","legacy","47","47","/Users/suzannejosey/subject-3.csv","legacy","Lentiform Loewenfeld","3.3.3","0","s","NA","s","NA","NA","s","511","NA","11785","NA","NA","511","2","legacy","1024","2","48000","-16","experiment","SSSSS","3","odd","98217","14502","NA","NA","52316","2691","NA","NA","99275","2702","NA","NA","99389","99901","99266","99389","Flanker Task","46","27419","48","yes","1024"
"95.91836734693878","95.91836734693878","569.3673469387755","569.3673469387755","black","legacy","legacy","legacy","0","incongruent","uniform","1","undefined","1","s","48","0","0","0","48","0","48","0","48","0","0","0","48","48","48","48","Sat Sep 26 14:23:08 2020","1500","The main experiment item","yes","FlankerTask.osexp","/Users/suzannejosey","no","mono","no","18","no","white","no","yes","768","legacy","48","48","/Users/suzannejosey/subject-3.csv","legacy","Lentiform Loewenfeld","3.3.3","0","s","NA","s","NA","NA","s","480","NA","11785","NA","NA","480","2","legacy","1024","2","48000","-16","experiment","HHSHH","3","odd","99914","14502","NA","NA","52316","2691","NA","NA","100991","2702","NA","NA","101105","101586","100977","101105","Flanker Task","47","27899","49","yes","1024"
"96","96","568.1","568.1","black","legacy","legacy","legacy","0","congruent","uniform","1","undefined","1","s","49","0","0","0","49","0","49","0","49","0","0","0","49","49","49","49","Sat Sep 26 14:23:08 2020","1500","The main experiment item","yes","FlankerTask.osexp","/Users/suzannejosey","no","mono","no","18","no","white","no","yes","768","legacy","49","49","/Users/suzannejosey/subject-3.csv","legacy","Lentiform Loewenfeld","3.3.3","0","s","NA","s","NA","NA","s","506","NA","11785","NA","NA","506","2","legacy","1024","2","48000","-16","experiment","SSSSS","3","odd","101605","14502","NA","NA","52316","2691","NA","NA","102691","2702","NA","NA","102807","103315","102675","102807","Flanker Task","48","28405","50","yes","1024"
"96.07843137254902","96.07843137254902","569.2941176470588","569.2941176470588","black","legacy","legacy","legacy","0","incongruent","uniform","1","undefined","1","h","50","0","0","0","50","0","50","0","50","0","0","0","50","50","50","50","Sat Sep 26 14:23:08 2020","1500","The main experiment item","yes","FlankerTask.osexp","/Users/suzannejosey","no","mono","no","18","no","white","no","yes","768","legacy","50","50","/Users/suzannejosey/subject-3.csv","legacy","Lentiform Loewenfeld","3.3.3","0","h","NA","s","NA","NA","h","629","NA","11785","NA","NA","629","2","legacy","1024","2","48000","-16","experiment","SSHSS","3","odd","103334","14502","NA","NA","52316","2691","NA","NA","104431","2702","NA","NA","104550","105181","104413","104549","Flanker Task","49","29034","51","yes","1024"
"96.15384615384616","96.15384615384616","567.6923076923077","567.6923076923077","black","legacy","legacy","legacy","0","congruent","uniform","1","undefined","1","h","51","0","0","0","51","0","51","0","51","0","0","0","51","51","51","51","Sat Sep 26 14:23:08 2020","1500","The main experiment item","yes","FlankerTask.osexp","/Users/suzannejosey","no","mono","no","18","no","white","no","yes","768","legacy","51","51","/Users/suzannejosey/subject-3.csv","legacy","Lentiform Loewenfeld","3.3.3","0","h","NA","s","NA","NA","h","486","NA","11785","NA","NA","486","2","legacy","1024","2","48000","-16","experiment","HHHHH","3","odd","105204","14502","NA","NA","52316","2691","NA","NA","106309","2702","NA","NA","106429","106917","106289","106428","Flanker Task","50","29520","52","yes","1024"
"96.22641509433963","96.22641509433963","565.7547169811321","565.7547169811321","black","legacy","legacy","legacy","0","congruent","uniform","1","undefined","1","h","52","0","0","0","52","0","52","0","52","0","0","0","52","52","52","52","Sat Sep 26 14:23:08 2020","1500","The main experiment item","yes","FlankerTask.osexp","/Users/suzannejosey","no","mono","no","18","no","white","no","yes","768","legacy","52","52","/Users/suzannejosey/subject-3.csv","legacy","Lentiform Loewenfeld","3.3.3","0","h","NA","s","NA","NA","h","465","NA","11785","NA","NA","465","2","legacy","1024","2","48000","-16","experiment","HHHHH","3","odd","106940","14502","NA","NA","52316","2691","NA","NA","108051","2702","NA","NA","108172","108639","108030","108172","Flanker Task","51","29985","53","yes","1024"
"94.44444444444444","94.44444444444444","564.2777777777778","564.2777777777778","black","legacy","legacy","legacy","0","incongruent","uniform","0","undefined","0","h","53","0","0","0","53","0","53","0","53","0","0","0","53","53","53","53","Sat Sep 26 14:23:08 2020","1500","The main experiment item","yes","FlankerTask.osexp","/Users/suzannejosey","no","mono","no","18","no","white","no","yes","768","legacy","53","53","/Users/suzannejosey/subject-3.csv","legacy","Lentiform Loewenfeld","3.3.3","0","s","NA","s","NA","NA","s","486","NA","11785","NA","NA","486","2","legacy","1024","2","48000","-16","experiment","SSHSS","3","odd","108663","14502","NA","NA","52316","2691","NA","NA","109781","2702","NA","NA","109903","110392","109759","109903","Flanker Task","51","30471","54","yes","1024"
"94.54545454545455","94.54545454545455","562.7272727272727","562.7272727272727","black","legacy","legacy","legacy","0","incongruent","uniform","1","undefined","1","h","54","0","0","0","54","0","54","0","54","0","0","0","54","54","54","54","Sat Sep 26 14:23:08 2020","1500","The main experiment item","yes","FlankerTask.osexp","/Users/suzannejosey","no","mono","no","18","no","white","no","yes","768","legacy","54","54","/Users/suzannejosey/subject-3.csv","legacy","Lentiform Loewenfeld","3.3.3","0","h","NA","s","NA","NA","h","479","NA","11785","NA","NA","479","2","legacy","1024","2","48000","-16","experiment","SSHSS","3","odd","110940","14502","NA","NA","110417","2691","NA","NA","112010","2702","NA","NA","112125","112605","111999","112125","Flanker Task","52","30950","55","yes","1024"
"94.64285714285714","94.64285714285714","562.6428571428571","562.6428571428571","black","legacy","legacy","legacy","0","incongruent","uniform","1","undefined","1","s","55","0","0","0","55","0","55","0","55","0","0","0","55","55","55","55","Sat Sep 26 14:23:08 2020","1500","The main experiment item","yes","FlankerTask.osexp","/Users/suzannejosey","no","mono","no","18","no","white","no","yes","768","legacy","55","55","/Users/suzannejosey/subject-3.csv","legacy","Lentiform Loewenfeld","3.3.3","0","s","NA","s","NA","NA","s","558","NA","11785","NA","NA","558","2","legacy","1024","2","48000","-16","experiment","HHSHH","3","odd","112618","14502","NA","NA","110417","2691","NA","NA","113691","2702","NA","NA","113806","114365","113679","113805","Flanker Task","53","31508","56","yes","1024"
"94.73684210526316","94.73684210526316","562.1228070175439","562.1228070175439","black","legacy","legacy","legacy","0","incongruent","uniform","1","undefined","1","h","56","0","0","0","56","0","56","0","56","0","0","0","56","56","56","56","Sat Sep 26 14:23:08 2020","1500","The main experiment item","yes","FlankerTask.osexp","/Users/suzannejosey","no","mono","no","18","no","white","no","yes","768","legacy","56","56","/Users/suzannejosey/subject-3.csv","legacy","Lentiform Loewenfeld","3.3.3","0","h","NA","s","NA","NA","h","533","NA","11785","NA","NA","533","2","legacy","1024","2","48000","-16","experiment","SSHSS","3","odd","114380","14502","NA","NA","110417","2691","NA","NA","115452","2702","NA","NA","115566","116100","115440","115566","Flanker Task","54","32041","57","yes","1024"
"94.82758620689656","94.82758620689656","561.6896551724138","561.6896551724138","black","legacy","legacy","legacy","0","incongruent","uniform","1","undefined","1","s","57","0","0","0","57","0","57","0","57","0","0","0","57","57","57","57","Sat Sep 26 14:23:08 2020","1500","The main experiment item","yes","FlankerTask.osexp","/Users/suzannejosey","no","mono","no","18","no","white","no","yes","768","legacy","57","57","/Users/suzannejosey/subject-3.csv","legacy","Lentiform Loewenfeld","3.3.3","0","s","NA","s","NA","NA","s","537","NA","11785","NA","NA","537","2","legacy","1024","2","48000","-16","experiment","HHSHH","3","odd","116113","14502","NA","NA","110417","2691","NA","NA","117186","2702","NA","NA","117301","117839","117174","117301","Flanker Task","55","32578","58","yes","1024"
"94.91525423728814","94.91525423728814","561.4067796610169","561.4067796610169","black","legacy","legacy","legacy","0","congruent","uniform","1","undefined","1","s","58","0","0","0","58","0","58","0","58","0","0","0","58","58","58","58","Sat Sep 26 14:23:08 2020","1500","The main experiment item","yes","FlankerTask.osexp","/Users/suzannejosey","no","mono","no","18","no","white","no","yes","768","legacy","58","58","/Users/suzannejosey/subject-3.csv","legacy","Lentiform Loewenfeld","3.3.3","0","s","NA","s","NA","NA","s","545","NA","11785","NA","NA","545","2","legacy","1024","2","48000","-16","experiment","SSSSS","3","odd","117852","14502","NA","NA","110417","2691","NA","NA","118925","2702","NA","NA","119039","119585","118913","119039","Flanker Task","56","33123","59","yes","1024"
"95","95","561.85","561.85","black","legacy","legacy","legacy","0","incongruent","uniform","1","undefined","1","h","59","0","0","0","59","0","59","0","59","0","0","0","59","59","59","59","Sat Sep 26 14:23:08 2020","1500","The main experiment item","yes","FlankerTask.osexp","/Users/suzannejosey","no","mono","no","18","no","white","no","yes","768","legacy","59","59","/Users/suzannejosey/subject-3.csv","legacy","Lentiform Loewenfeld","3.3.3","0","h","NA","s","NA","NA","h","588","NA","11785","NA","NA","588","2","legacy","1024","2","48000","-16","experiment","SSHSS","3","odd","119599","14502","NA","NA","110417","2691","NA","NA","120671","2702","NA","NA","120786","121375","120659","120785","Flanker Task","57","33711","60","yes","1024"
"95.08196721311475","95.08196721311475","561.5409836065573","561.5409836065573","black","legacy","legacy","legacy","0","congruent","uniform","1","undefined","1","s","60","0","0","0","60","0","60","0","60","0","0","0","60","60","60","60","Sat Sep 26 14:23:08 2020","1500","The main experiment item","yes","FlankerTask.osexp","/Users/suzannejosey","no","mono","no","18","no","white","no","yes","768","legacy","60","60","/Users/suzannejosey/subject-3.csv","legacy","Lentiform Loewenfeld","3.3.3","0","s","NA","s","NA","NA","s","543","NA","11785","NA","NA","543","2","legacy","1024","2","48000","-16","experiment","SSSSS","3","odd","121388","14502","NA","NA","110417","2691","NA","NA","122463","2702","NA","NA","122577","123121","122450","122577","Flanker Task","58","34254","61","yes","1024"
"95.16129032258064","95.16129032258064","560.3709677419355","560.3709677419355","black","legacy","legacy","legacy","0","congruent","uniform","1","undefined","1","h","61","0","0","0","61","0","61","0","61","0","0","0","61","61","61","61","Sat Sep 26 14:23:08 2020","1500","The main experiment item","yes","FlankerTask.osexp","/Users/suzannejosey","no","mono","no","18","no","white","no","yes","768","legacy","61","61","/Users/suzannejosey/subject-3.csv","legacy","Lentiform Loewenfeld","3.3.3","0","h","NA","s","NA","NA","h","489","NA","11785","NA","NA","489","2","legacy","1024","2","48000","-16","experiment","HHHHH","3","odd","123134","14502","NA","NA","110417","2691","NA","NA","124211","2702","NA","NA","124325","124815","124199","124325","Flanker Task","59","34743","62","yes","1024"
"95.23809523809524","95.23809523809524","559.0952380952381","559.0952380952381","black","legacy","legacy","legacy","0","incongruent","uniform","1","undefined","1","s","62","0","0","0","62","0","62","0","62","0","0","0","62","62","62","62","Sat Sep 26 14:23:08 2020","1500","The main experiment item","yes","FlankerTask.osexp","/Users/suzannejosey","no","mono","no","18","no","white","no","yes","768","legacy","62","62","/Users/suzannejosey/subject-3.csv","legacy","Lentiform Loewenfeld","3.3.3","0","s","NA","s","NA","NA","s","480","NA","11785","NA","NA","480","2","legacy","1024","2","48000","-16","experiment","HHSHH","3","odd","124828","14502","NA","NA","110417","2691","NA","NA","125905","2702","NA","NA","126017","126498","125892","126017","Flanker Task","60","35223","63","yes","1024"
"95.3125","95.3125","557.703125","557.703125","black","legacy","legacy","legacy","0","incongruent","uniform","1","undefined","1","h","63","0","0","0","63","0","63","0","63","0","0","0","63","63","63","63","Sat Sep 26 14:23:08 2020","1500","The main experiment item","yes","FlankerTask.osexp","/Users/suzannejosey","no","mono","no","18","no","white","no","yes","768","legacy","63","63","/Users/suzannejosey/subject-3.csv","legacy","Lentiform Loewenfeld","3.3.3","0","h","NA","s","NA","NA","h","470","NA","11785","NA","NA","470","2","legacy","1024","2","48000","-16","experiment","SSHSS","3","odd","126511","14502","NA","NA","110417","2691","NA","NA","127586","2702","NA","NA","127701","128172","127573","127700","Flanker Task","61","35693","64","yes","1024"
"95.38461538461539","95.38461538461539","557.1076923076923","557.1076923076923","black","legacy","legacy","legacy","0","congruent","uniform","1","undefined","1","h","64","0","0","0","64","0","64","0","64","0","0","0","64","64","64","64","Sat Sep 26 14:23:08 2020","1500","The main experiment item","yes","FlankerTask.osexp","/Users/suzannejosey","no","mono","no","18","no","white","no","yes","768","legacy","64","64","/Users/suzannejosey/subject-3.csv","legacy","Lentiform Loewenfeld","3.3.3","0","h","NA","s","NA","NA","h","519","NA","11785","NA","NA","519","2","legacy","1024","2","48000","-16","experiment","HHHHH","3","odd","128185","14502","NA","NA","110417","2691","NA","NA","129263","2702","NA","NA","129377","129897","129249","129377","Flanker Task","62","36212","65","yes","1024"
"95.45454545454545","95.45454545454545","558.030303030303","558.030303030303","black","legacy","legacy","legacy","0","incongruent","uniform","1","undefined","1","h","65","0","0","0","65","0","65","0","65","0","0","0","65","65","65","65","Sat Sep 26 14:23:08 2020","1500","The main experiment item","yes","FlankerTask.osexp","/Users/suzannejosey","no","mono","no","18","no","white","no","yes","768","legacy","65","65","/Users/suzannejosey/subject-3.csv","legacy","Lentiform Loewenfeld","3.3.3","0","h","NA","s","NA","NA","h","618","NA","11785","NA","NA","618","2","legacy","1024","2","48000","-16","experiment","SSHSS","3","odd","129910","14502","NA","NA","110417","2691","NA","NA","130984","2702","NA","NA","131098","131717","130972","131098","Flanker Task","63","36830","66","yes","1024"
"95.5223880597015","95.5223880597015","558.4776119402985","558.4776119402985","black","legacy","legacy","legacy","0","congruent","uniform","1","undefined","1","s","66","0","0","0","66","0","66","0","66","0","0","0","66","66","66","66","Sat Sep 26 14:23:08 2020","1500","The main experiment item","yes","FlankerTask.osexp","/Users/suzannejosey","no","mono","no","18","no","white","no","yes","768","legacy","66","66","/Users/suzannejosey/subject-3.csv","legacy","Lentiform Loewenfeld","3.3.3","0","s","NA","s","NA","NA","s","588","NA","11785","NA","NA","588","2","legacy","1024","2","48000","-16","experiment","SSSSS","3","odd","131730","14502","NA","NA","110417","2691","NA","NA","132804","2702","NA","NA","132918","133507","132792","132918","Flanker Task","64","37418","67","yes","1024"
"95.58823529411765","95.58823529411765","557.1764705882352","557.1764705882352","black","legacy","legacy","legacy","0","congruent","uniform","1","undefined","1","h","67","0","0","0","67","0","67","0","67","0","0","0","67","67","67","67","Sat Sep 26 14:23:08 2020","1500","The main experiment item","yes","FlankerTask.osexp","/Users/suzannejosey","no","mono","no","18","no","white","no","yes","768","legacy","67","67","/Users/suzannejosey/subject-3.csv","legacy","Lentiform Loewenfeld","3.3.3","0","h","NA","s","NA","NA","h","470","NA","11785","NA","NA","470","2","legacy","1024","2","48000","-16","experiment","HHHHH","3","odd","133518","14502","NA","NA","110417","2691","NA","NA","134591","2702","NA","NA","134706","135177","134579","134706","Flanker Task","65","37888","68","yes","1024"
"95.65217391304348","95.65217391304348","559.6521739130435","559.6521739130435","black","legacy","legacy","legacy","0","incongruent","uniform","1","undefined","1","h","68","0","0","0","68","0","68","0","68","0","0","0","68","68","68","68","Sat Sep 26 14:23:08 2020","1500","The main experiment item","yes","FlankerTask.osexp","/Users/suzannejosey","no","mono","no","18","no","white","no","yes","768","legacy","68","68","/Users/suzannejosey/subject-3.csv","legacy","Lentiform Loewenfeld","3.3.3","0","h","NA","s","NA","NA","h","728","NA","11785","NA","NA","728","2","legacy","1024","2","48000","-16","experiment","SSHSS","3","odd","135191","14502","NA","NA","110417","2691","NA","NA","136267","2702","NA","NA","136379","137108","136255","136379","Flanker Task","66","38616","69","yes","1024"
"95.71428571428571","95.71428571428571","558.6857142857143","558.6857142857143","black","legacy","legacy","legacy","0","congruent","uniform","1","undefined","1","h","69","0","0","0","69","0","69","0","69","0","0","0","69","69","69","69","Sat Sep 26 14:23:08 2020","1500","The main experiment item","yes","FlankerTask.osexp","/Users/suzannejosey","no","mono","no","18","no","white","no","yes","768","legacy","69","69","/Users/suzannejosey/subject-3.csv","legacy","Lentiform Loewenfeld","3.3.3","0","h","NA","s","NA","NA","h","492","NA","11785","NA","NA","492","2","legacy","1024","2","48000","-16","experiment","HHHHH","3","odd","137121","14502","NA","NA","110417","2691","NA","NA","138195","2702","NA","NA","138310","138803","138183","138309","Flanker Task","67","39108","70","yes","1024"
"95.77464788732394","95.77464788732394","559.0422535211268","559.0422535211268","black","legacy","legacy","legacy","0","incongruent","uniform","1","undefined","1","s","70","0","0","0","70","0","70","0","70","0","0","0","70","70","70","70","Sat Sep 26 14:23:08 2020","1500","The main experiment item","yes","FlankerTask.osexp","/Users/suzannejosey","no","mono","no","18","no","white","no","yes","768","legacy","70","70","/Users/suzannejosey/subject-3.csv","legacy","Lentiform Loewenfeld","3.3.3","0","s","NA","s","NA","NA","s","584","NA","11785","NA","NA","584","2","legacy","1024","2","48000","-16","experiment","HHSHH","3","odd","138817","14502","NA","NA","110417","2691","NA","NA","139891","2702","NA","NA","140005","140590","139879","140005","Flanker Task","68","39692","71","yes","1024"
"95.83333333333333","95.83333333333333","559.4305555555555","559.4305555555555","black","legacy","legacy","legacy","0","congruent","uniform","1","undefined","1","s","71","0","0","0","71","0","71","0","71","0","0","0","71","71","71","71","Sat Sep 26 14:23:08 2020","1500","The main experiment item","yes","FlankerTask.osexp","/Users/suzannejosey","no","mono","no","18","no","white","no","yes","768","legacy","71","71","/Users/suzannejosey/subject-3.csv","legacy","Lentiform Loewenfeld","3.3.3","0","s","NA","s","NA","NA","s","587","NA","11785","NA","NA","587","2","legacy","1024","2","48000","-16","experiment","SSSSS","3","odd","140603","14502","NA","NA","110417","2691","NA","NA","141675","2702","NA","NA","141790","142379","141663","141790","Flanker Task","69","40279","72","yes","1024"
"95.89041095890411","95.89041095890411","558.4246575342465","558.4246575342465","black","legacy","legacy","legacy","0","congruent","uniform","1","undefined","1","s","72","0","0","0","72","0","72","0","72","0","0","0","72","72","72","72","Sat Sep 26 14:23:08 2020","1500","The main experiment item","yes","FlankerTask.osexp","/Users/suzannejosey","no","mono","no","18","no","white","no","yes","768","legacy","72","72","/Users/suzannejosey/subject-3.csv","legacy","Lentiform Loewenfeld","3.3.3","0","s","NA","s","NA","NA","s","486","NA","11785","NA","NA","486","2","legacy","1024","2","48000","-16","experiment","SSSSS","3","odd","142392","14502","NA","NA","110417","2691","NA","NA","143462","2702","NA","NA","143576","144063","143450","143576","Flanker Task","70","40765","73","yes","1024"
"95.94594594594595","95.94594594594595","558.8783783783783","558.8783783783783","black","legacy","legacy","legacy","0","incongruent","uniform","1","undefined","1","h","73","0","0","0","73","0","73","0","73","0","0","0","73","73","73","73","Sat Sep 26 14:23:08 2020","1500","The main experiment item","yes","FlankerTask.osexp","/Users/suzannejosey","no","mono","no","18","no","white","no","yes","768","legacy","73","73","/Users/suzannejosey/subject-3.csv","legacy","Lentiform Loewenfeld","3.3.3","0","h","NA","s","NA","NA","h","592","NA","11785","NA","NA","592","2","legacy","1024","2","48000","-16","experiment","SSHSS","3","odd","144076","14502","NA","NA","110417","2691","NA","NA","145154","2702","NA","NA","145270","145864","145141","145269","Flanker Task","71","41357","74","yes","1024"
"94.66666666666667","94.66666666666667","557.1866666666666","557.1866666666666","black","legacy","legacy","legacy","0","congruent","uniform","0","undefined","0","h","74","0","0","0","74","0","74","0","74","0","0","0","74","74","74","74","Sat Sep 26 14:23:08 2020","1500","The main experiment item","yes","FlankerTask.osexp","/Users/suzannejosey","no","mono","no","18","no","white","no","yes","768","legacy","74","74","/Users/suzannejosey/subject-3.csv","legacy","Lentiform Loewenfeld","3.3.3","0","s","NA","s","NA","NA","s","432","NA","11785","NA","NA","432","2","legacy","1024","2","48000","-16","experiment","HHHHH","3","odd","145882","14502","NA","NA","110417","2691","NA","NA","146968","2702","NA","NA","147084","147518","146952","147084","Flanker Task","71","41789","75","yes","1024"
"94.73684210526316","94.73684210526316","554.4605263157895","554.4605263157895","black","legacy","legacy","legacy","0","congruent","uniform","1","undefined","1","h","75","0","0","0","75","0","75","0","75","0","0","0","75","75","75","75","Sat Sep 26 14:23:08 2020","1500","The main experiment item","yes","FlankerTask.osexp","/Users/suzannejosey","no","mono","no","18","no","white","no","yes","768","legacy","75","75","/Users/suzannejosey/subject-3.csv","legacy","Lentiform Loewenfeld","3.3.3","0","h","NA","s","NA","NA","h","350","NA","11785","NA","NA","350","2","legacy","1024","2","48000","-16","experiment","HHHHH","3","odd","148055","14502","NA","NA","147538","2691","NA","NA","149153","2702","NA","NA","149272","149624","149135","149272","Flanker Task","72","42139","76","yes","1024"
"94.8051948051948","94.8051948051948","554.9350649350649","554.9350649350649","black","legacy","legacy","legacy","0","incongruent","uniform","1","undefined","1","h","76","0","0","0","76","0","76","0","76","0","0","0","76","76","76","76","Sat Sep 26 14:23:08 2020","1500","The main experiment item","yes","FlankerTask.osexp","/Users/suzannejosey","no","mono","no","18","no","white","no","yes","768","legacy","76","76","/Users/suzannejosey/subject-3.csv","legacy","Lentiform Loewenfeld","3.3.3","0","h","NA","s","NA","NA","h","591","NA","11785","NA","NA","591","2","legacy","1024","2","48000","-16","experiment","SSHSS","3","odd","149646","14502","NA","NA","147538","2691","NA","NA","150751","2702","NA","NA","150871","151464","150731","150870","Flanker Task","73","42730","77","yes","1024"
"94.87179487179488","94.87179487179488","554.9487179487179","554.9487179487179","black","legacy","legacy","legacy","0","congruent","uniform","1","undefined","1","s","77","0","0","0","77","0","77","0","77","0","0","0","77","77","77","77","Sat Sep 26 14:23:08 2020","1500","The main experiment item","yes","FlankerTask.osexp","/Users/suzannejosey","no","mono","no","18","no","white","no","yes","768","legacy","77","77","/Users/suzannejosey/subject-3.csv","legacy","Lentiform Loewenfeld","3.3.3","0","s","NA","s","NA","NA","s","556","NA","11785","NA","NA","556","2","legacy","1024","2","48000","-16","experiment","SSSSS","3","odd","151486","14502","NA","NA","147538","2691","NA","NA","152598","2702","NA","NA","152720","153278","152578","152719","Flanker Task","74","43286","78","yes","1024"
"94.9367088607595","94.9367088607595","555.7721518987341","555.7721518987341","black","legacy","legacy","legacy","0","congruent","uniform","1","undefined","1","h","78","0","0","0","78","0","78","0","78","0","0","0","78","78","78","78","Sat Sep 26 14:23:08 2020","1500","The main experiment item","yes","FlankerTask.osexp","/Users/suzannejosey","no","mono","no","18","no","white","no","yes","768","legacy","78","78","/Users/suzannejosey/subject-3.csv","legacy","Lentiform Loewenfeld","3.3.3","0","h","NA","s","NA","NA","h","620","NA","11785","NA","NA","620","2","legacy","1024","2","48000","-16","experiment","HHHHH","3","odd","153302","14502","NA","NA","147538","2691","NA","NA","154422","2702","NA","NA","154544","155166","154399","154544","Flanker Task","75","43906","79","yes","1024"
"93.75","93.75","552.9125","552.9125","black","legacy","legacy","legacy","0","incongruent","uniform","0","undefined","0","h","79","0","0","0","79","0","79","0","79","0","0","0","79","79","79","79","Sat Sep 26 14:23:08 2020","1500","The main experiment item","yes","FlankerTask.osexp","/Users/suzannejosey","no","mono","no","18","no","white","no","yes","768","legacy","79","79","/Users/suzannejosey/subject-3.csv","legacy","Lentiform Loewenfeld","3.3.3","0","s","NA","s","NA","NA","s","327","NA","11785","NA","NA","327","2","legacy","1024","2","48000","-16","experiment","SSHSS","3","odd","155179","14502","NA","NA","147538","2691","NA","NA","156253","2702","NA","NA","156368","156697","156240","156368","Flanker Task","75","44233","80","yes","1024"
"93.82716049382717","93.82716049382717","553.3827160493827","553.3827160493827","black","legacy","legacy","legacy","0","congruent","uniform","1","undefined","1","s","80","0","0","0","80","0","80","0","80","0","0","0","80","80","80","80","Sat Sep 26 14:23:08 2020","600","The main experiment item","yes","FlankerTask.osexp","/Users/suzannejosey","no","mono","no","18","no","white","no","yes","768","legacy","0","79","/Users/suzannejosey/subject-3.csv","legacy","Lentiform Loewenfeld","3.3.3","0","s","NA","s","h","NA","s","591","NA","11785","30766","NA","591","2","legacy","1024","2","48000","-16","experiment","SSSSS","3","odd","157222","14502","189031","NA","156710","2691","NA","NA","189074","2702","158264","NA","189189","189781","189064","189189","Flanker Task","76","44824","81","yes","1024"
"92.6829268292683","92.6829268292683","551.1829268292682","551.1829268292682","black","legacy","legacy","legacy","0","incongruent","uniform","0","undefined","0","h","81","0","0","0","81","0","81","0","81","0","0","0","81","81","81","81","Sat Sep 26 14:23:08 2020","600","The main experiment item","yes","FlankerTask.osexp","/Users/suzannejosey","no","mono","no","18","no","white","no","yes","768","legacy","1","79","/Users/suzannejosey/subject-3.csv","legacy","Lentiform Loewenfeld","3.3.3","0","s","NA","s","h","NA","s","373","NA","11785","30766","NA","373","2","legacy","1024","2","48000","-16","experiment","SSHSS","3","odd","189794","14502","189031","NA","156710","2691","NA","NA","190867","2702","158264","NA","190982","191356","190855","190982","Flanker Task","76","45197","82","yes","1024"
"92.7710843373494","92.7710843373494","549.0963855421687","549.0963855421687","black","legacy","legacy","legacy","0","congruent","uniform","1","undefined","1","h","82","0","0","0","82","0","82","0","82","0","0","0","82","82","82","82","Sat Sep 26 14:23:08 2020","600","The main experiment item","yes","FlankerTask.osexp","/Users/suzannejosey","no","mono","no","18","no","white","no","yes","768","legacy","2","79","/Users/suzannejosey/subject-3.csv","legacy","Lentiform Loewenfeld","3.3.3","0","h","NA","s","h","NA","h","378","NA","11785","30766","NA","378","2","legacy","1024","2","48000","-16","experiment","HHHHH","3","odd","191882","14502","189031","NA","191369","2691","NA","NA","192955","2702","158264","NA","193069","193448","192943","193069","Flanker Task","77","45575","83","yes","1024"
"92.85714285714286","92.85714285714286","547.25","547.25","black","legacy","legacy","legacy","0","incongruent","uniform","1","undefined","1","h","83","0","0","0","83","0","83","0","83","0","0","0","83","83","83","83","Sat Sep 26 14:23:08 2020","600","The main experiment item","yes","FlankerTask.osexp","/Users/suzannejosey","no","mono","no","18","no","white","no","yes","768","legacy","3","79","/Users/suzannejosey/subject-3.csv","legacy","Lentiform Loewenfeld","3.3.3","0","h","NA","s","h","NA","h","394","NA","11785","30766","NA","394","2","legacy","1024","2","48000","-16","experiment","SSHSS","3","odd","193461","14502","189031","NA","191369","2691","NA","NA","194536","2702","158264","NA","194651","195046","194523","194651","Flanker Task","78","45969","84","yes","1024"
"92.94117647058823","92.94117647058823","546.8352941176471","546.8352941176471","black","legacy","legacy","legacy","0","congruent","uniform","1","undefined","1","s","84","0","0","0","84","0","84","0","84","0","0","0","84","84","84","84","Sat Sep 26 14:23:08 2020","600","The main experiment item","yes","FlankerTask.osexp","/Users/suzannejosey","no","mono","no","18","no","white","no","yes","768","legacy","4","79","/Users/suzannejosey/subject-3.csv","legacy","Lentiform Loewenfeld","3.3.3","0","s","NA","s","h","NA","s","512","NA","11785","30766","NA","512","2","legacy","1024","2","48000","-16","experiment","SSSSS","3","odd","195058","14502","189031","NA","191369","2691","NA","NA","196135","2702","158264","NA","196251","196764","196120","196249","Flanker Task","79","46481","85","yes","1024"
"93.02325581395348","93.02325581395348","545.7325581395348","545.7325581395348","black","legacy","legacy","legacy","0","congruent","uniform","1","undefined","1","h","85","0","0","0","85","0","85","0","85","0","0","0","85","85","85","85","Sat Sep 26 14:23:08 2020","600","The main experiment item","yes","FlankerTask.osexp","/Users/suzannejosey","no","mono","no","18","no","white","no","yes","768","legacy","5","79","/Users/suzannejosey/subject-3.csv","legacy","Lentiform Loewenfeld","3.3.3","0","h","NA","s","h","NA","h","452","NA","11785","30766","NA","452","2","legacy","1024","2","48000","-16","experiment","HHHHH","3","odd","196777","14502","189031","NA","191369","2691","NA","NA","197851","2702","158264","NA","197966","198419","197839","197966","Flanker Task","80","46933","86","yes","1024"
"93.10344827586206","93.10344827586206","544.2413793103449","544.2413793103449","black","legacy","legacy","legacy","0","congruent","uniform","1","undefined","1","s","86","0","0","0","86","0","86","0","86","0","0","0","86","86","86","86","Sat Sep 26 14:23:08 2020","600","The main experiment item","yes","FlankerTask.osexp","/Users/suzannejosey","no","mono","no","18","no","white","no","yes","768","legacy","6","79","/Users/suzannejosey/subject-3.csv","legacy","Lentiform Loewenfeld","3.3.3","0","s","NA","s","h","NA","s","416","NA","11785","30766","NA","416","2","legacy","1024","2","48000","-16","experiment","SSSSS","3","odd","198432","14502","189031","NA","191369","2691","NA","NA","199506","2702","158264","NA","199621","200038","199493","199621","Flanker Task","81","47349","87","yes","1024"
"93.18181818181819","93.18181818181819","544.2386363636364","544.2386363636364","black","legacy","legacy","legacy","0","incongruent","uniform","1","undefined","1","h","87","0","0","0","87","0","87","0","87","0","0","0","87","87","87","87","Sat Sep 26 14:23:08 2020","600","The main experiment item","yes","FlankerTask.osexp","/Users/suzannejosey","no","mono","no","18","no","white","no","yes","768","legacy","7","79","/Users/suzannejosey/subject-3.csv","legacy","Lentiform Loewenfeld","3.3.3","0","h","NA","s","h","NA","h","544","NA","11785","30766","NA","544","2","legacy","1024","2","48000","-16","experiment","SSHSS","3","odd","200051","14502","189031","NA","191369","2691","NA","NA","201126","2702","158264","NA","201240","201786","201114","201240","Flanker Task","82","47893","88","yes","1024"
"93.25842696629213","93.25842696629213","544.0337078651686","544.0337078651686","black","legacy","legacy","legacy","0","incongruent","uniform","1","undefined","1","s","88","0","0","0","88","0","88","0","88","0","0","0","88","88","88","88","Sat Sep 26 14:23:08 2020","600","The main experiment item","yes","FlankerTask.osexp","/Users/suzannejosey","no","mono","no","18","no","white","no","yes","768","legacy","8","79","/Users/suzannejosey/subject-3.csv","legacy","Lentiform Loewenfeld","3.3.3","0","s","NA","s","h","NA","s","526","NA","11785","30766","NA","526","2","legacy","1024","2","48000","-16","experiment","HHSHH","3","odd","201800","14502","189031","NA","191369","2691","NA","NA","202873","2702","158264","NA","202988","203516","202861","202988","Flanker Task","83","48419","89","yes","1024"
"93.33333333333333","93.33333333333333","543.6222222222223","543.6222222222223","black","legacy","legacy","legacy","0","incongruent","uniform","1","undefined","1","s","89","0","0","0","89","0","89","0","89","0","0","0","89","89","89","89","Sat Sep 26 14:23:08 2020","600","The main experiment item","yes","FlankerTask.osexp","/Users/suzannejosey","no","mono","no","18","no","white","no","yes","768","legacy","9","79","/Users/suzannejosey/subject-3.csv","legacy","Lentiform Loewenfeld","3.3.3","0","s","NA","s","h","NA","s","507","NA","11785","30766","NA","507","2","legacy","1024","2","48000","-16","experiment","HHSHH","3","odd","203529","14502","189031","NA","191369","2691","NA","NA","204588","2702","158264","NA","204699","205207","204578","204699","Flanker Task","84","48926","90","yes","1024"
"93.4065934065934","93.4065934065934","543.1758241758242","543.1758241758242","black","legacy","legacy","legacy","0","incongruent","uniform","1","undefined","1","s","90","0","0","0","90","0","90","0","90","0","0","0","90","90","90","90","Sat Sep 26 14:23:08 2020","600","The main experiment item","yes","FlankerTask.osexp","/Users/suzannejosey","no","mono","no","18","no","white","no","yes","768","legacy","10","79","/Users/suzannejosey/subject-3.csv","legacy","Lentiform Loewenfeld","3.3.3","0","s","NA","s","h","NA","s","503","NA","11785","30766","NA","503","2","legacy","1024","2","48000","-16","experiment","HHSHH","3","odd","205220","14502","189031","NA","191369","2691","NA","NA","206295","2702","158264","NA","206409","206914","206282","206409","Flanker Task","85","49429","91","yes","1024"
"93.47826086956522","93.47826086956522","542.9782608695652","542.9782608695652","black","legacy","legacy","legacy","0","incongruent","uniform","1","undefined","1","s","91","0","0","0","91","0","91","0","91","0","0","0","91","91","91","91","Sat Sep 26 14:23:08 2020","600","The main experiment item","yes","FlankerTask.osexp","/Users/suzannejosey","no","mono","no","18","no","white","no","yes","768","legacy","11","79","/Users/suzannejosey/subject-3.csv","legacy","Lentiform Loewenfeld","3.3.3","0","s","NA","s","h","NA","s","525","NA","11785","30766","NA","525","2","legacy","1024","2","48000","-16","experiment","HHSHH","3","odd","206928","14502","189031","NA","191369","2691","NA","NA","208002","2702","158264","NA","208116","208643","207990","208116","Flanker Task","86","49954","92","yes","1024"
"93.54838709677419","93.54838709677419","541.5376344086021","541.5376344086021","black","legacy","legacy","legacy","0","congruent","uniform","1","undefined","1","h","92","0","0","0","92","0","92","0","92","0","0","0","92","92","92","92","Sat Sep 26 14:23:08 2020","600","The main experiment item","yes","FlankerTask.osexp","/Users/suzannejosey","no","mono","no","18","no","white","no","yes","768","legacy","12","79","/Users/suzannejosey/subject-3.csv","legacy","Lentiform Loewenfeld","3.3.3","0","h","NA","s","h","NA","h","409","NA","11785","30766","NA","409","2","legacy","1024","2","48000","-16","experiment","HHHHH","3","odd","208655","14502","189031","NA","191369","2691","NA","NA","209730","2702","158264","NA","209844","210255","209717","209844","Flanker Task","87","50363","93","yes","1024"
"93.61702127659575","93.61702127659575","542.7021276595744","542.7021276595744","black","legacy","legacy","legacy","0","incongruent","uniform","1","undefined","1","h","93","0","0","0","93","0","93","0","93","0","0","0","93","93","93","93","Sat Sep 26 14:23:08 2020","600","The main experiment item","yes","FlankerTask.osexp","/Users/suzannejosey","no","mono","no","18","no","white","no","yes","768","legacy","13","79","/Users/suzannejosey/subject-3.csv","legacy","Lentiform Loewenfeld","3.3.3","0","h","NA","s","h","NA","h","651","NA","11785","30766","NA","651","2","legacy","1024","2","48000","-16","experiment","SSHSS","3","odd","210268","14502","189031","NA","191369","2691","NA","NA","211341","2702","158264","NA","211455","212108","211328","211455","Flanker Task","88","51014","94","yes","1024"
"93.6842105263158","93.6842105263158","541.6315789473684","541.6315789473684","black","legacy","legacy","legacy","0","incongruent","uniform","1","undefined","1","h","94","0","0","0","94","0","94","0","94","0","0","0","94","94","94","94","Sat Sep 26 14:23:08 2020","600","The main experiment item","yes","FlankerTask.osexp","/Users/suzannejosey","no","mono","no","18","no","white","no","yes","768","legacy","14","79","/Users/suzannejosey/subject-3.csv","legacy","Lentiform Loewenfeld","3.3.3","0","h","NA","s","h","NA","h","441","NA","11785","30766","NA","441","2","legacy","1024","2","48000","-16","experiment","SSHSS","3","odd","212634","14502","189031","NA","191369","2691","212121","NA","213707","2702","158264","NA","213822","214265","213695","213822","Flanker Task","89","51455","95","yes","1024"
"93.75","93.75","540.7395833333334","540.7395833333334","black","legacy","legacy","legacy","0","congruent","uniform","1","undefined","1","h","95","0","0","0","95","0","95","0","95","0","0","0","95","95","95","95","Sat Sep 26 14:23:08 2020","600","The main experiment item","yes","FlankerTask.osexp","/Users/suzannejosey","no","mono","no","18","no","white","no","yes","768","legacy","15","79","/Users/suzannejosey/subject-3.csv","legacy","Lentiform Loewenfeld","3.3.3","0","h","NA","s","h","NA","h","456","NA","11785","30766","NA","456","2","legacy","1024","2","48000","-16","experiment","HHHHH","3","odd","214279","14502","189031","NA","191369","2691","212121","NA","215355","2702","158264","NA","215470","215928","215342","215469","Flanker Task","90","51911","96","yes","1024"
"92.78350515463917","92.78350515463917","538.7628865979382","538.7628865979382","black","legacy","legacy","legacy","0","incongruent","uniform","0","undefined","0","s","96","0","0","0","96","0","96","0","96","0","0","0","96","96","96","96","Sat Sep 26 14:23:08 2020","600","The main experiment item","yes","FlankerTask.osexp","/Users/suzannejosey","no","mono","no","18","no","white","no","yes","768","legacy","16","79","/Users/suzannejosey/subject-3.csv","legacy","Lentiform Loewenfeld","3.3.3","0","h","NA","s","h","NA","h","349","NA","11785","30766","NA","349","2","legacy","1024","2","48000","-16","experiment","HHSHH","3","odd","215942","14502","189031","NA","191369","2691","212121","NA","217016","2702","158264","NA","217130","217480","217003","217130","Flanker Task","90","52260","97","yes","1024"
"92.85714285714286","92.85714285714286","538.3265306122449","538.3265306122449","black","legacy","legacy","legacy","0","congruent","uniform","1","undefined","1","h","97","0","0","0","97","0","97","0","97","0","0","0","97","97","97","97","Sat Sep 26 14:23:08 2020","600","The main experiment item","yes","FlankerTask.osexp","/Users/suzannejosey","no","mono","no","18","no","white","no","yes","768","legacy","17","79","/Users/suzannejosey/subject-3.csv","legacy","Lentiform Loewenfeld","3.3.3","0","h","NA","s","h","NA","h","496","NA","11785","30766","NA","496","2","legacy","1024","2","48000","-16","experiment","HHHHH","3","odd","218006","14502","189031","NA","217494","2691","212121","NA","219080","2702","158264","NA","219195","219693","219068","219194","Flanker Task","91","52756","98","yes","1024"
"92.92929292929293","92.92929292929293","538.2121212121212","538.2121212121212","black","legacy","legacy","legacy","0","incongruent","uniform","1","undefined","1","s","98","0","0","0","98","0","98","0","98","0","0","0","98","98","98","98","Sat Sep 26 14:23:08 2020","600","The main experiment item","yes","FlankerTask.osexp","/Users/suzannejosey","no","mono","no","18","no","white","no","yes","768","legacy","18","79","/Users/suzannejosey/subject-3.csv","legacy","Lentiform Loewenfeld","3.3.3","0","s","NA","s","h","NA","s","527","NA","11785","30766","NA","527","2","legacy","1024","2","48000","-16","experiment","HHSHH","3","odd","219706","14502","189031","NA","217494","2691","212121","NA","220780","2702","158264","NA","220894","221423","220768","220894","Flanker Task","92","53283","99","yes","1024"
"93","93","536.79","536.79","black","legacy","legacy","legacy","0","incongruent","uniform","1","undefined","1","h","99","0","0","0","99","0","99","0","99","0","0","0","99","99","99","99","Sat Sep 26 14:23:08 2020","600","The main experiment item","yes","FlankerTask.osexp","/Users/suzannejosey","no","mono","no","18","no","white","no","yes","768","legacy","19","79","/Users/suzannejosey/subject-3.csv","legacy","Lentiform Loewenfeld","3.3.3","0","h","NA","s","h","NA","h","396","NA","11785","30766","NA","396","2","legacy","1024","2","48000","-16","experiment","SSHSS","3","odd","221436","14502","189031","NA","217494","2691","212121","NA","222510","2702","158264","NA","222624","223022","222497","222624","Flanker Task","93","53679","100","yes","1024"
"93.06930693069307","93.06930693069307","535.990099009901","535.990099009901","black","legacy","legacy","legacy","0","congruent","uniform","1","undefined","1","s","100","0","0","0","100","0","100","0","100","0","0","0","100","100","100","100","Sat Sep 26 14:23:08 2020","600","The main experiment item","yes","FlankerTask.osexp","/Users/suzannejosey","no","mono","no","18","no","white","no","yes","768","legacy","20","79","/Users/suzannejosey/subject-3.csv","legacy","Lentiform Loewenfeld","3.3.3","0","s","NA","s","h","NA","s","456","NA","11785","30766","NA","456","2","legacy","1024","2","48000","-16","experiment","SSSSS","3","odd","223035","14502","189031","NA","217494","2691","212121","NA","224110","2702","158264","NA","224225","224682","224097","224225","Flanker Task","94","54135","101","yes","1024"
"93.13725490196079","93.13725490196079","536.0588235294117","536.0588235294117","black","legacy","legacy","legacy","0","congruent","uniform","1","undefined","1","s","101","0","0","0","101","0","101","0","101","0","0","0","101","101","101","101","Sat Sep 26 14:23:08 2020","600","The main experiment item","yes","FlankerTask.osexp","/Users/suzannejosey","no","mono","no","18","no","white","no","yes","768","legacy","21","79","/Users/suzannejosey/subject-3.csv","legacy","Lentiform Loewenfeld","3.3.3","0","s","NA","s","h","NA","s","543","NA","11785","30766","NA","543","2","legacy","1024","2","48000","-16","experiment","SSSSS","3","odd","224697","14502","189031","NA","217494","2691","212121","NA","225770","2702","158264","NA","225884","226429","225757","225884","Flanker Task","95","54678","102","yes","1024"
"93.20388349514563","93.20388349514563","536.7281553398059","536.7281553398059","black","legacy","legacy","legacy","0","incongruent","uniform","1","undefined","1","s","102","0","0","0","102","0","102","0","102","0","0","0","102","102","102","102","Sat Sep 26 14:23:08 2020","600","The main experiment item","yes","FlankerTask.osexp","/Users/suzannejosey","no","mono","no","18","no","white","no","yes","768","legacy","22","79","/Users/suzannejosey/subject-3.csv","legacy","Lentiform Loewenfeld","3.3.3","0","s","NA","s","h","NA","s","605","NA","11785","30766","NA","605","2","legacy","1024","2","48000","-16","experiment","HHSHH","3","odd","226442","14502","189031","NA","217494","2691","212121","NA","227516","2702","158264","NA","227631","228237","227503","227630","Flanker Task","96","55283","103","yes","1024"
"93.26923076923077","93.26923076923077","535.8269230769231","535.8269230769231","black","legacy","legacy","legacy","0","congruent","uniform","1","undefined","1","h","103","0","0","0","103","0","103","0","103","0","0","0","103","103","103","103","Sat Sep 26 14:23:08 2020","600","The main experiment item","yes","FlankerTask.osexp","/Users/suzannejosey","no","mono","no","18","no","white","no","yes","768","legacy","23","79","/Users/suzannejosey/subject-3.csv","legacy","Lentiform Loewenfeld","3.3.3","0","h","NA","s","h","NA","h","443","NA","11785","30766","NA","443","2","legacy","1024","2","48000","-16","experiment","HHHHH","3","odd","228766","14502","189031","NA","217494","2691","228252","NA","229841","2702","158264","NA","229955","230399","229829","229955","Flanker Task","97","55726","104","yes","1024"
"93.33333333333333","93.33333333333333","536.1904761904761","536.1904761904761","black","legacy","legacy","legacy","0","incongruent","uniform","1","undefined","1","h","104","0","0","0","104","0","104","0","104","0","0","0","104","104","104","104","Sat Sep 26 14:23:08 2020","600","The main experiment item","yes","FlankerTask.osexp","/Users/suzannejosey","no","mono","no","18","no","white","no","yes","768","legacy","24","79","/Users/suzannejosey/subject-3.csv","legacy","Lentiform Loewenfeld","3.3.3","0","h","NA","s","h","NA","h","574","NA","11785","30766","NA","574","2","legacy","1024","2","48000","-16","experiment","SSHSS","3","odd","230413","14502","189031","NA","217494","2691","228252","NA","231487","2702","158264","NA","231601","232176","231474","231601","Flanker Task","98","56300","105","yes","1024"
"93.39622641509433","93.39622641509433","535.7452830188679","535.7452830188679","black","legacy","legacy","legacy","0","congruent","uniform","1","undefined","1","s","105","0","0","0","105","0","105","0","105","0","0","0","105","105","105","105","Sat Sep 26 14:23:08 2020","600","The main experiment item","yes","FlankerTask.osexp","/Users/suzannejosey","no","mono","no","18","no","white","no","yes","768","legacy","25","79","/Users/suzannejosey/subject-3.csv","legacy","Lentiform Loewenfeld","3.3.3","0","s","NA","s","h","NA","s","489","NA","11785","30766","NA","489","2","legacy","1024","2","48000","-16","experiment","SSSSS","3","odd","232190","14502","189031","NA","217494","2691","228252","NA","233268","2702","158264","NA","233383","233874","233254","233382","Flanker Task","99","56789","106","yes","1024"
"93.45794392523365","93.45794392523365","534.1308411214953","534.1308411214953","black","legacy","legacy","legacy","0","congruent","uniform","1","undefined","1","h","106","0","0","0","106","0","106","0","106","0","0","0","106","106","106","106","Sat Sep 26 14:23:08 2020","600","The main experiment item","yes","FlankerTask.osexp","/Users/suzannejosey","no","mono","no","18","no","white","no","yes","768","legacy","26","79","/Users/suzannejosey/subject-3.csv","legacy","Lentiform Loewenfeld","3.3.3","0","h","NA","s","h","NA","h","363","NA","11785","30766","NA","363","2","legacy","1024","2","48000","-16","experiment","HHHHH","3","odd","233891","14502","189031","NA","217494","2691","228252","NA","234977","2702","158264","NA","235094","235459","234961","235094","Flanker Task","100","57152","107","yes","1024"
"93.51851851851852","93.51851851851852","532.6481481481482","532.6481481481482","black","legacy","legacy","legacy","0","congruent","uniform","1","undefined","1","h","107","0","0","0","107","0","107","0","107","0","0","0","107","107","107","107","Sat Sep 26 14:23:08 2020","600","The main experiment item","yes","FlankerTask.osexp","/Users/suzannejosey","no","mono","no","18","no","white","no","yes","768","legacy","27","79","/Users/suzannejosey/subject-3.csv","legacy","Lentiform Loewenfeld","3.3.3","0","h","NA","s","h","NA","h","374","NA","11785","30766","NA","374","2","legacy","1024","2","48000","-16","experiment","HHHHH","3","odd","235479","14502","189031","NA","217494","2691","228252","NA","236575","2702","158264","NA","236693","237070","236557","236693","Flanker Task","101","57526","108","yes","1024"
"93.57798165137615","93.57798165137615","532.2935779816514","532.2935779816514","black","legacy","legacy","legacy","0","congruent","uniform","1","undefined","1","s","108","0","0","0","108","0","108","0","108","0","0","0","108","108","108","108","Sat Sep 26 14:23:08 2020","600","The main experiment item","yes","FlankerTask.osexp","/Users/suzannejosey","no","mono","no","18","no","white","no","yes","768","legacy","28","79","/Users/suzannejosey/subject-3.csv","legacy","Lentiform Loewenfeld","3.3.3","0","s","NA","s","h","NA","s","494","NA","11785","30766","NA","494","2","legacy","1024","2","48000","-16","experiment","SSSSS","3","odd","237091","14502","189031","NA","217494","2691","228252","NA","238196","2702","158264","NA","238316","238813","238176","238316","Flanker Task","102","58020","109","yes","1024"
"93.63636363636364","93.63636363636364","532.2363636363636","532.2363636363636","black","legacy","legacy","legacy","0","incongruent","uniform","1","undefined","1","s","109","0","0","0","109","0","109","0","109","0","0","0","109","109","109","109","Sat Sep 26 14:23:08 2020","600","The main experiment item","yes","FlankerTask.osexp","/Users/suzannejosey","no","mono","no","18","no","white","no","yes","768","legacy","29","79","/Users/suzannejosey/subject-3.csv","legacy","Lentiform Loewenfeld","3.3.3","0","s","NA","s","h","NA","s","526","NA","11785","30766","NA","526","2","legacy","1024","2","48000","-16","experiment","HHSHH","3","odd","238835","14502","189031","NA","217494","2691","228252","NA","239940","2702","158264","NA","240060","240588","239920","240060","Flanker Task","103","58546","110","yes","1024"
"93.69369369369369","93.69369369369369","531.2792792792793","531.2792792792793","black","legacy","legacy","legacy","0","congruent","uniform","1","undefined","1","s","110","0","0","0","110","0","110","0","110","0","0","0","110","110","110","110","Sat Sep 26 14:23:08 2020","600","The main experiment item","yes","FlankerTask.osexp","/Users/suzannejosey","no","mono","no","18","no","white","no","yes","768","legacy","30","79","/Users/suzannejosey/subject-3.csv","legacy","Lentiform Loewenfeld","3.3.3","0","s","NA","s","h","NA","s","426","NA","11785","30766","NA","426","2","legacy","1024","2","48000","-16","experiment","SSSSS","3","odd","240613","14502","189031","NA","217494","2691","228252","NA","241725","2702","158264","NA","241849","242278","241703","241849","Flanker Task","104","58972","111","yes","1024"
"93.75","93.75","530.0892857142857","530.0892857142857","black","legacy","legacy","legacy","0","congruent","uniform","1","undefined","1","h","111","0","0","0","111","0","111","0","111","0","0","0","111","111","111","111","Sat Sep 26 14:23:08 2020","600","The main experiment item","yes","FlankerTask.osexp","/Users/suzannejosey","no","mono","no","18","no","white","no","yes","768","legacy","31","79","/Users/suzannejosey/subject-3.csv","legacy","Lentiform Loewenfeld","3.3.3","0","h","NA","s","h","NA","h","398","NA","11785","30766","NA","398","2","legacy","1024","2","48000","-16","experiment","HHHHH","3","odd","242303","14502","189031","NA","217494","2691","228252","NA","243425","2702","158264","NA","243548","243947","243403","243548","Flanker Task","105","59370","112","yes","1024"
"93.80530973451327","93.80530973451327","529.5840707964602","529.5840707964602","black","legacy","legacy","legacy","0","incongruent","uniform","1","undefined","1","h","112","0","0","0","112","0","112","0","112","0","0","0","112","112","112","112","Sat Sep 26 14:23:08 2020","600","The main experiment item","yes","FlankerTask.osexp","/Users/suzannejosey","no","mono","no","18","no","white","no","yes","768","legacy","32","79","/Users/suzannejosey/subject-3.csv","legacy","Lentiform Loewenfeld","3.3.3","0","h","NA","s","h","NA","h","473","NA","11785","30766","NA","473","2","legacy","1024","2","48000","-16","experiment","SSHSS","3","odd","243961","14502","189031","NA","217494","2691","228252","NA","245033","2702","158264","NA","245145","245619","245021","245145","Flanker Task","106","59843","113","yes","1024"
"93.85964912280701","93.85964912280701","529.1315789473684","529.1315789473684","black","legacy","legacy","legacy","0","congruent","uniform","1","undefined","1","h","113","0","0","0","113","0","113","0","113","0","0","0","113","113","113","113","Sat Sep 26 14:23:08 2020","600","The main experiment item","yes","FlankerTask.osexp","/Users/suzannejosey","no","mono","no","18","no","white","no","yes","768","legacy","33","79","/Users/suzannejosey/subject-3.csv","legacy","Lentiform Loewenfeld","3.3.3","0","h","NA","s","h","NA","h","478","NA","11785","30766","NA","478","2","legacy","1024","2","48000","-16","experiment","HHHHH","3","odd","245633","14502","189031","NA","217494","2691","228252","NA","246708","2702","158264","NA","246823","247302","246696","246823","Flanker Task","107","60321","114","yes","1024"
"93.91304347826087","93.91304347826087","528.6434782608695","528.6434782608695","black","legacy","legacy","legacy","0","incongruent","uniform","1","undefined","1","s","114","0","0","0","114","0","114","0","114","0","0","0","114","114","114","114","Sat Sep 26 14:23:08 2020","600","The main experiment item","yes","FlankerTask.osexp","/Users/suzannejosey","no","mono","no","18","no","white","no","yes","768","legacy","34","79","/Users/suzannejosey/subject-3.csv","legacy","Lentiform Loewenfeld","3.3.3","0","s","NA","s","h","NA","s","473","NA","11785","30766","NA","473","2","legacy","1024","2","48000","-16","experiment","HHSHH","3","odd","247315","14502","189031","NA","217494","2691","228252","NA","248389","2702","158264","NA","248503","248977","248376","248503","Flanker Task","108","60794","115","yes","1024"
"93.96551724137932","93.96551724137932","528.3362068965517","528.3362068965517","black","legacy","legacy","legacy","0","congruent","uniform","1","undefined","1","s","115","0","0","0","115","0","115","0","115","0","0","0","115","115","115","115","Sat Sep 26 14:23:08 2020","600","The main experiment item","yes","FlankerTask.osexp","/Users/suzannejosey","no","mono","no","18","no","white","no","yes","768","legacy","35","79","/Users/suzannejosey/subject-3.csv","legacy","Lentiform Loewenfeld","3.3.3","0","s","NA","s","h","NA","s","493","NA","11785","30766","NA","493","2","legacy","1024","2","48000","-16","experiment","SSSSS","3","odd","248991","14502","189031","NA","217494","2691","228252","NA","250047","2702","158264","NA","250161","250655","250037","250161","Flanker Task","109","61287","116","yes","1024"
"94.01709401709402","94.01709401709402","528.034188034188","528.034188034188","black","legacy","legacy","legacy","0","congruent","uniform","1","undefined","1","s","116","0","0","0","116","0","116","0","116","0","0","0","116","116","116","116","Sat Sep 26 14:23:08 2020","600","The main experiment item","yes","FlankerTask.osexp","/Users/suzannejosey","no","mono","no","18","no","white","no","yes","768","legacy","36","79","/Users/suzannejosey/subject-3.csv","legacy","Lentiform Loewenfeld","3.3.3","0","s","NA","s","h","NA","s","493","NA","11785","30766","NA","493","2","legacy","1024","2","48000","-16","experiment","SSSSS","3","odd","250669","14502","189031","NA","217494","2691","228252","NA","251726","2702","158264","NA","251840","252334","251716","251840","Flanker Task","110","61780","117","yes","1024"
"93.22033898305085","93.22033898305085","527.5084745762712","527.5084745762712","black","legacy","legacy","legacy","0","incongruent","uniform","0","undefined","0","s","117","0","0","0","117","0","117","0","117","0","0","0","117","117","117","117","Sat Sep 26 14:23:08 2020","600","The main experiment item","yes","FlankerTask.osexp","/Users/suzannejosey","no","mono","no","18","no","white","no","yes","768","legacy","37","79","/Users/suzannejosey/subject-3.csv","legacy","Lentiform Loewenfeld","3.3.3","0","h","NA","s","h","NA","h","466","NA","11785","30766","NA","466","2","legacy","1024","2","48000","-16","experiment","HHSHH","3","odd","252347","14502","189031","NA","217494","2691","228252","NA","253406","2702","158264","NA","253520","253987","253397","253520","Flanker Task","110","62246","118","yes","1024"
"93.27731092436974","93.27731092436974","526.8319327731092","526.8319327731092","black","legacy","legacy","legacy","0","incongruent","uniform","1","undefined","1","h","118","0","0","0","118","0","118","0","118","0","0","0","118","118","118","118","Sat Sep 26 14:23:08 2020","600","The main experiment item","yes","FlankerTask.osexp","/Users/suzannejosey","no","mono","no","18","no","white","no","yes","768","legacy","38","79","/Users/suzannejosey/subject-3.csv","legacy","Lentiform Loewenfeld","3.3.3","0","h","NA","s","h","NA","h","447","NA","11785","30766","NA","447","2","legacy","1024","2","48000","-16","experiment","SSHSS","3","odd","254512","14502","189031","NA","254000","2691","228252","NA","255585","2702","158264","NA","255700","256148","255574","255700","Flanker Task","111","62693","119","yes","1024"
"93.33333333333333","93.33333333333333","527.8","527.8","black","legacy","legacy","legacy","0","incongruent","uniform","1","undefined","1","s","119","0","0","0","119","0","119","0","119","0","0","0","119","119","119","119","Sat Sep 26 14:23:08 2020","600","The main experiment item","yes","FlankerTask.osexp","/Users/suzannejosey","no","mono","no","18","no","white","no","yes","768","legacy","39","79","/Users/suzannejosey/subject-3.csv","legacy","Lentiform Loewenfeld","3.3.3","0","s","NA","s","h","NA","s","643","NA","11785","30766","NA","643","2","legacy","1024","2","48000","-16","experiment","HHSHH","3","odd","256162","14502","189031","NA","254000","2691","228252","NA","257235","2702","158264","NA","257349","257993","257223","257349","Flanker Task","112","63336","120","yes","1024"
"93.38842975206612","93.38842975206612","526.9338842975206","526.9338842975206","black","legacy","legacy","legacy","0","congruent","uniform","1","undefined","1","s","120","0","0","0","120","0","120","0","120","0","0","0","120","120","120","120","Sat Sep 26 14:23:08 2020","600","The main experiment item","yes","FlankerTask.osexp","/Users/suzannejosey","no","mono","no","18","no","white","no","yes","768","legacy","40","79","/Users/suzannejosey/subject-3.csv","legacy","Lentiform Loewenfeld","3.3.3","0","s","NA","s","h","NA","s","423","NA","11785","30766","NA","423","2","legacy","1024","2","48000","-16","experiment","SSSSS","3","odd","258519","14502","189031","NA","254000","2691","258006","NA","259592","2702","158264","NA","259706","260130","259580","259706","Flanker Task","113","63759","121","yes","1024"
"93.44262295081967","93.44262295081967","526.8934426229508","526.8934426229508","black","legacy","legacy","legacy","0","congruent","uniform","1","undefined","1","s","121","0","0","0","121","0","121","0","121","0","0","0","121","121","121","121","Sat Sep 26 14:23:08 2020","600","The main experiment item","yes","FlankerTask.osexp","/Users/suzannejosey","no","mono","no","18","no","white","no","yes","768","legacy","41","79","/Users/suzannejosey/subject-3.csv","legacy","Lentiform Loewenfeld","3.3.3","0","s","NA","s","h","NA","s","522","NA","11785","30766","NA","522","2","legacy","1024","2","48000","-16","experiment","SSSSS","3","odd","260143","14502","189031","NA","254000","2691","258006","NA","261216","2702","158264","NA","261331","261854","261204","261331","Flanker Task","114","64281","122","yes","1024"
"93.4959349593496","93.4959349593496","527.2357723577236","527.2357723577236","black","legacy","legacy","legacy","0","congruent","uniform","1","undefined","1","h","122","0","0","0","122","0","122","0","122","0","0","0","122","122","122","122","Sat Sep 26 14:23:08 2020","600","The main experiment item","yes","FlankerTask.osexp","/Users/suzannejosey","no","mono","no","18","no","white","no","yes","768","legacy","42","79","/Users/suzannejosey/subject-3.csv","legacy","Lentiform Loewenfeld","3.3.3","0","h","NA","s","h","NA","h","569","NA","11785","30766","NA","569","2","legacy","1024","2","48000","-16","experiment","HHHHH","3","odd","261868","14502","189031","NA","254000","2691","258006","NA","262941","2702","158264","NA","263055","263625","262929","263055","Flanker Task","115","64850","123","yes","1024"
"93.54838709677419","93.54838709677419","527.3225806451613","527.3225806451613","black","legacy","legacy","legacy","0","congruent","uniform","1","undefined","1","s","123","0","0","0","123","0","123","0","123","0","0","0","123","123","123","123","Sat Sep 26 14:23:08 2020","600","The main experiment item","yes","FlankerTask.osexp","/Users/suzannejosey","no","mono","no","18","no","white","no","yes","768","legacy","43","79","/Users/suzannejosey/subject-3.csv","legacy","Lentiform Loewenfeld","3.3.3","0","s","NA","s","h","NA","s","538","NA","11785","30766","NA","538","2","legacy","1024","2","48000","-16","experiment","SSSSS","3","odd","263638","14502","189031","NA","254000","2691","258006","NA","264712","2702","158264","NA","264826","265365","264699","264826","Flanker Task","116","65388","124","yes","1024"
"93.6","93.6","526.64","526.64","black","legacy","legacy","legacy","0","congruent","uniform","1","undefined","1","s","124","0","0","0","124","0","124","0","124","0","0","0","124","124","124","124","Sat Sep 26 14:23:08 2020","600","The main experiment item","yes","FlankerTask.osexp","/Users/suzannejosey","no","mono","no","18","no","white","no","yes","768","legacy","44","79","/Users/suzannejosey/subject-3.csv","legacy","Lentiform Loewenfeld","3.3.3","0","s","NA","s","h","NA","s","442","NA","11785","30766","NA","442","2","legacy","1024","2","48000","-16","experiment","SSSSS","3","odd","265377","14502","189031","NA","254000","2691","258006","NA","266453","2702","158264","NA","266565","267008","266440","266565","Flanker Task","117","65830","125","yes","1024"
