"acc","accuracy","average_response_time","avg_rt","background","canvas_backend","clock_backend","color_backend","compensation","condition","coordinates","correct","correct_instructions1","correct_keyboard_response","correct_response","count_ISI","count_block1","count_block2","count_block3","count_errorFeedback","count_experiment","count_faster","count_finish","count_fixation","count_instructions1","count_instructions2","count_instructions3","count_keyboard_response","count_logger","count_sequence","count_stimulus","datetime","deadline","description","disable_garbage_collection","experiment_file","experiment_path","font_bold","font_family","font_italic","font_size","font_underline","foreground","form_clicks","fullscreen","height","keyboard_backend","live_row","live_row_block1","logfile","mouse_backend","opensesame_codename","opensesame_version","repeat_cycle","response","response_finish","response_instructions1","response_instructions2","response_instructions3","response_keyboard_response","response_time","response_time_finish","response_time_instructions1","response_time_instructions2","response_time_instructions3","response_time_keyboard_response","round_decimals","sampler_backend","sound_buf_size","sound_channels","sound_freq","sound_sample_size","start","stimulus","subject_nr","subject_parity","time_ISI","time_block1","time_block2","time_block3","time_errorFeedback","time_experiment","time_faster","time_finish","time_fixation","time_instructions1","time_instructions2","time_instructions3","time_keyboard_response","time_logger","time_sequence","time_stimulus","title","total_correct","total_response_time","total_responses","uniform_coordinates","width"
"100","100","1450","1450","black","legacy","legacy","legacy","0","incongruent","uniform","1","undefined","1","s","0","0","0","0","0","0","0","0","0","0","0","0","0","0","0","0","Sun Sep 27 18:57:50 2020","1500","The main experiment item","yes","Flankertask.osexp","C:/Users/JHS6-EAGLE/Desktop/OpenSes Files","no","mono","no","18","no","white","no","yes","1440","legacy","0","0","C:/Users/JHS6-EAGLE/Desktop/OpenSes Files/CK-subject-3.csv","legacy","Lentiform Loewenfeld","3.3.3","0","s","NA","s","NA","NA","s","1450","NA","29271","NA","NA","1450","2","legacy","1024","2","48000","-16","experiment","HHSHH","3","odd","NA","30778","NA","NA","NA","1501","NA","NA","30900","1506","NA","NA","31017","32468","30895","31017","Flanker task","1","1450","1","yes","2560"
"100","100","1224","1224","black","legacy","legacy","legacy","0","conruent","uniform","1","undefined","1","s","1","0","0","0","1","0","1","0","1","0","0","0","1","1","1","1","Sun Sep 27 18:57:50 2020","1500","The main experiment item","yes","Flankertask.osexp","C:/Users/JHS6-EAGLE/Desktop/OpenSes Files","no","mono","no","18","no","white","no","yes","1440","legacy","1","1","C:/Users/JHS6-EAGLE/Desktop/OpenSes Files/CK-subject-3.csv","legacy","Lentiform Loewenfeld","3.3.3","0","s","NA","s","NA","NA","s","998","NA","29271","NA","NA","998","2","legacy","1024","2","48000","-16","experiment","SSSSS","3","odd","32477","30778","NA","NA","NA","1501","NA","NA","33599","1506","NA","NA","33703","34702","33593","33703","Flanker task","2","2448","2","yes","2560"
"100","100","1200","1200","black","legacy","legacy","legacy","0","incongruent","uniform","1","undefined","1","h","2","0","0","0","2","0","2","0","2","0","0","0","2","2","2","2","Sun Sep 27 18:57:50 2020","1500","The main experiment item","yes","Flankertask.osexp","C:/Users/JHS6-EAGLE/Desktop/OpenSes Files","no","mono","no","18","no","white","no","yes","1440","legacy","2","2","C:/Users/JHS6-EAGLE/Desktop/OpenSes Files/CK-subject-3.csv","legacy","Lentiform Loewenfeld","3.3.3","0","h","NA","s","NA","NA","h","1152","NA","29271","NA","NA","1152","2","legacy","1024","2","48000","-16","experiment","SSHSS","3","odd","34709","30778","NA","NA","NA","1501","NA","NA","35833","1506","NA","NA","35937","37089","35828","35937","Flanker task","3","3600","3","yes","2560"
"100","100","1187.75","1187.75","black","legacy","legacy","legacy","0","incongruent","uniform","1","undefined","1","s","3","0","0","0","3","0","3","0","3","0","0","0","3","3","3","3","Sun Sep 27 18:57:50 2020","1500","The main experiment item","yes","Flankertask.osexp","C:/Users/JHS6-EAGLE/Desktop/OpenSes Files","no","mono","no","18","no","white","no","yes","1440","legacy","3","3","C:/Users/JHS6-EAGLE/Desktop/OpenSes Files/CK-subject-3.csv","legacy","Lentiform Loewenfeld","3.3.3","0","s","NA","s","NA","NA","s","1151","NA","29271","NA","NA","1151","2","legacy","1024","2","48000","-16","experiment","HHSHH","3","odd","37095","30778","NA","NA","NA","1501","NA","NA","38223","1506","NA","NA","38343","39494","38218","38342","Flanker task","4","4751","4","yes","2560"
"100","100","1208.2","1208.2","black","legacy","legacy","legacy","0","conruent","uniform","1","undefined","1","s","4","0","0","0","4","0","4","0","4","0","0","0","4","4","4","4","Sun Sep 27 18:57:50 2020","1500","The main experiment item","yes","Flankertask.osexp","C:/Users/JHS6-EAGLE/Desktop/OpenSes Files","no","mono","no","18","no","white","no","yes","1440","legacy","4","4","C:/Users/JHS6-EAGLE/Desktop/OpenSes Files/CK-subject-3.csv","legacy","Lentiform Loewenfeld","3.3.3","0","s","NA","s","NA","NA","s","1290","NA","29271","NA","NA","1290","2","legacy","1024","2","48000","-16","experiment","SSSSS","3","odd","39502","30778","NA","NA","NA","1501","NA","NA","40629","1506","NA","NA","40734","42024","40623","40734","Flanker task","5","6041","5","yes","2560"
"100","100","1159.8333333333333","1159.8333333333333","black","legacy","legacy","legacy","0","incongruent","uniform","1","undefined","1","s","5","0","0","0","5","0","5","0","5","0","0","0","5","5","5","5","Sun Sep 27 18:57:50 2020","1500","The main experiment item","yes","Flankertask.osexp","C:/Users/JHS6-EAGLE/Desktop/OpenSes Files","no","mono","no","18","no","white","no","yes","1440","legacy","5","5","C:/Users/JHS6-EAGLE/Desktop/OpenSes Files/CK-subject-3.csv","legacy","Lentiform Loewenfeld","3.3.3","0","s","NA","s","NA","NA","s","918","NA","29271","NA","NA","918","2","legacy","1024","2","48000","-16","experiment","HHSHH","3","odd","42032","30778","NA","NA","NA","1501","NA","NA","43162","1506","NA","NA","43280","44199","43157","43280","Flanker task","6","6959","6","yes","2560"
"100","100","1122.7142857142858","1122.7142857142858","black","legacy","legacy","legacy","0","conruent","uniform","1","undefined","1","s","6","0","0","0","6","0","6","0","6","0","0","0","6","6","6","6","Sun Sep 27 18:57:50 2020","1500","The main experiment item","yes","Flankertask.osexp","C:/Users/JHS6-EAGLE/Desktop/OpenSes Files","no","mono","no","18","no","white","no","yes","1440","legacy","6","6","C:/Users/JHS6-EAGLE/Desktop/OpenSes Files/CK-subject-3.csv","legacy","Lentiform Loewenfeld","3.3.3","0","s","NA","s","NA","NA","s","900","NA","29271","NA","NA","900","2","legacy","1024","2","48000","-16","experiment","SSSSS","3","odd","44206","30778","NA","NA","NA","1501","NA","NA","45331","1506","NA","NA","45435","46335","45325","45435","Flanker task","7","7859","7","yes","2560"
"100","100","1107.75","1107.75","black","legacy","legacy","legacy","0","incongruent","uniform","1","undefined","1","h","7","0","0","0","7","0","7","0","7","0","0","0","7","7","7","7","Sun Sep 27 18:57:50 2020","1500","The main experiment item","yes","Flankertask.osexp","C:/Users/JHS6-EAGLE/Desktop/OpenSes Files","no","mono","no","18","no","white","no","yes","1440","legacy","7","7","C:/Users/JHS6-EAGLE/Desktop/OpenSes Files/CK-subject-3.csv","legacy","Lentiform Loewenfeld","3.3.3","0","h","NA","s","NA","NA","h","1003","NA","29271","NA","NA","1003","2","legacy","1024","2","48000","-16","experiment","SSHSS","3","odd","46343","30778","NA","NA","NA","1501","NA","NA","47469","1506","NA","NA","47573","48576","47464","47573","Flanker task","8","8862","8","yes","2560"
"100","100","1087.5555555555557","1087.5555555555557","black","legacy","legacy","legacy","0","incongruent","uniform","1","undefined","1","s","8","0","0","0","8","0","8","0","8","0","0","0","8","8","8","8","Sun Sep 27 18:57:50 2020","1500","The main experiment item","yes","Flankertask.osexp","C:/Users/JHS6-EAGLE/Desktop/OpenSes Files","no","mono","no","18","no","white","no","yes","1440","legacy","8","8","C:/Users/JHS6-EAGLE/Desktop/OpenSes Files/CK-subject-3.csv","legacy","Lentiform Loewenfeld","3.3.3","0","s","NA","s","NA","NA","s","926","NA","29271","NA","NA","926","2","legacy","1024","2","48000","-16","experiment","HHSHH","3","odd","48584","30778","NA","NA","NA","1501","NA","NA","49710","1506","NA","NA","49814","50741","49704","49814","Flanker task","9","9788","9","yes","2560"
"100","100","1076.8","1076.8","black","legacy","legacy","legacy","0","incongruent","uniform","1","undefined","1","h","9","0","0","0","9","0","9","0","9","0","0","0","9","9","9","9","Sun Sep 27 18:57:50 2020","1500","The main experiment item","yes","Flankertask.osexp","C:/Users/JHS6-EAGLE/Desktop/OpenSes Files","no","mono","no","18","no","white","no","yes","1440","legacy","9","9","C:/Users/JHS6-EAGLE/Desktop/OpenSes Files/CK-subject-3.csv","legacy","Lentiform Loewenfeld","3.3.3","0","h","NA","s","NA","NA","h","980","NA","29271","NA","NA","980","2","legacy","1024","2","48000","-16","experiment","SSHSS","3","odd","50748","30778","NA","NA","NA","1501","NA","NA","51877","1506","NA","NA","51982","52963","51871","51981","Flanker task","10","10768","10","yes","2560"
"100","100","1057.090909090909","1057.090909090909","black","legacy","legacy","legacy","0","conruent","uniform","1","undefined","1","s","10","0","0","0","10","0","10","0","10","0","0","0","10","10","10","10","Sun Sep 27 18:57:50 2020","1500","The main experiment item","yes","Flankertask.osexp","C:/Users/JHS6-EAGLE/Desktop/OpenSes Files","no","mono","no","18","no","white","no","yes","1440","legacy","10","10","C:/Users/JHS6-EAGLE/Desktop/OpenSes Files/CK-subject-3.csv","legacy","Lentiform Loewenfeld","3.3.3","0","s","NA","s","NA","NA","s","860","NA","29271","NA","NA","860","2","legacy","1024","2","48000","-16","experiment","SSSSS","3","odd","52970","30778","NA","NA","NA","1501","NA","NA","54095","1506","NA","NA","54208","55068","54089","54208","Flanker task","11","11628","11","yes","2560"
"100","100","1040.0833333333333","1040.0833333333333","black","legacy","legacy","legacy","0","incongruent","uniform","1","undefined","1","s","11","0","0","0","11","0","11","0","11","0","0","0","11","11","11","11","Sun Sep 27 18:57:50 2020","1500","The main experiment item","yes","Flankertask.osexp","C:/Users/JHS6-EAGLE/Desktop/OpenSes Files","no","mono","no","18","no","white","no","yes","1440","legacy","11","11","C:/Users/JHS6-EAGLE/Desktop/OpenSes Files/CK-subject-3.csv","legacy","Lentiform Loewenfeld","3.3.3","0","s","NA","s","NA","NA","s","853","NA","29271","NA","NA","853","2","legacy","1024","2","48000","-16","experiment","HHSHH","3","odd","55076","30778","NA","NA","NA","1501","NA","NA","56201","1506","NA","NA","56306","57159","56195","56306","Flanker task","12","12481","12","yes","2560"
"100","100","1013.2307692307693","1013.2307692307693","black","legacy","legacy","legacy","0","congruent","uniform","1","undefined","1","h","12","0","0","0","12","0","12","0","12","0","0","0","12","12","12","12","Sun Sep 27 18:57:50 2020","1500","The main experiment item","yes","Flankertask.osexp","C:/Users/JHS6-EAGLE/Desktop/OpenSes Files","no","mono","no","18","no","white","no","yes","1440","legacy","12","12","C:/Users/JHS6-EAGLE/Desktop/OpenSes Files/CK-subject-3.csv","legacy","Lentiform Loewenfeld","3.3.3","0","h","NA","s","NA","NA","h","691","NA","29271","NA","NA","691","2","legacy","1024","2","48000","-16","experiment","HHHHH","3","odd","57167","30778","NA","NA","NA","1501","NA","NA","58292","1506","NA","NA","58396","59088","58287","58396","Flanker task","13","13172","13","yes","2560"
"100","100","1004.4285714285714","1004.4285714285714","black","legacy","legacy","legacy","0","conruent","uniform","1","undefined","1","s","13","0","0","0","13","0","13","0","13","0","0","0","13","13","13","13","Sun Sep 27 18:57:50 2020","1500","The main experiment item","yes","Flankertask.osexp","C:/Users/JHS6-EAGLE/Desktop/OpenSes Files","no","mono","no","18","no","white","no","yes","1440","legacy","13","13","C:/Users/JHS6-EAGLE/Desktop/OpenSes Files/CK-subject-3.csv","legacy","Lentiform Loewenfeld","3.3.3","0","s","NA","s","NA","NA","s","890","NA","29271","NA","NA","890","2","legacy","1024","2","48000","-16","experiment","SSSSS","3","odd","59095","30778","NA","NA","NA","1501","NA","NA","60233","1506","NA","NA","60337","61228","60227","60337","Flanker task","14","14062","14","yes","2560"
"100","100","1002.2","1002.2","black","legacy","legacy","legacy","0","conruent","uniform","1","undefined","1","s","14","0","0","0","14","0","14","0","14","0","0","0","14","14","14","14","Sun Sep 27 18:57:50 2020","1500","The main experiment item","yes","Flankertask.osexp","C:/Users/JHS6-EAGLE/Desktop/OpenSes Files","no","mono","no","18","no","white","no","yes","1440","legacy","14","14","C:/Users/JHS6-EAGLE/Desktop/OpenSes Files/CK-subject-3.csv","legacy","Lentiform Loewenfeld","3.3.3","0","s","NA","s","NA","NA","s","971","NA","29271","NA","NA","971","2","legacy","1024","2","48000","-16","experiment","SSSSS","3","odd","61236","30778","NA","NA","NA","1501","NA","NA","62361","1506","NA","NA","62465","63436","62356","62465","Flanker task","15","15033","15","yes","2560"
"100","100","989.0625","989.0625","black","legacy","legacy","legacy","0","incongruent","uniform","1","undefined","1","s","15","0","0","0","15","0","15","0","15","0","0","0","15","15","15","15","Sun Sep 27 18:57:50 2020","1500","The main experiment item","yes","Flankertask.osexp","C:/Users/JHS6-EAGLE/Desktop/OpenSes Files","no","mono","no","18","no","white","no","yes","1440","legacy","15","15","C:/Users/JHS6-EAGLE/Desktop/OpenSes Files/CK-subject-3.csv","legacy","Lentiform Loewenfeld","3.3.3","0","s","NA","s","NA","NA","s","792","NA","29271","NA","NA","792","2","legacy","1024","2","48000","-16","experiment","HHSHH","3","odd","63444","30778","NA","NA","NA","1501","NA","NA","64587","1506","NA","NA","64691","65483","64581","64691","Flanker task","16","15825","16","yes","2560"
"100","100","973.1764705882352","973.1764705882352","black","legacy","legacy","legacy","0","conruent","uniform","1","undefined","1","s","16","0","0","0","16","0","16","0","16","0","0","0","16","16","16","16","Sun Sep 27 18:57:50 2020","1500","The main experiment item","yes","Flankertask.osexp","C:/Users/JHS6-EAGLE/Desktop/OpenSes Files","no","mono","no","18","no","white","no","yes","1440","legacy","16","16","C:/Users/JHS6-EAGLE/Desktop/OpenSes Files/CK-subject-3.csv","legacy","Lentiform Loewenfeld","3.3.3","0","s","NA","s","NA","NA","s","719","NA","29271","NA","NA","719","2","legacy","1024","2","48000","-16","experiment","SSSSS","3","odd","65491","30778","NA","NA","NA","1501","NA","NA","66631","1506","NA","NA","66736","67455","66626","66736","Flanker task","17","16544","17","yes","2560"
"100","100","957.8888888888889","957.8888888888889","black","legacy","legacy","legacy","0","congruent","uniform","1","undefined","1","h","17","0","0","0","17","0","17","0","17","0","0","0","17","17","17","17","Sun Sep 27 18:57:50 2020","1500","The main experiment item","yes","Flankertask.osexp","C:/Users/JHS6-EAGLE/Desktop/OpenSes Files","no","mono","no","18","no","white","no","yes","1440","legacy","17","17","C:/Users/JHS6-EAGLE/Desktop/OpenSes Files/CK-subject-3.csv","legacy","Lentiform Loewenfeld","3.3.3","0","h","NA","s","NA","NA","h","698","NA","29271","NA","NA","698","2","legacy","1024","2","48000","-16","experiment","HHHHH","3","odd","67463","30778","NA","NA","NA","1501","NA","NA","68588","1506","NA","NA","68692","69390","68583","68692","Flanker task","18","17242","18","yes","2560"
"100","100","939.9473684210526","939.9473684210526","black","legacy","legacy","legacy","0","incongruent","uniform","1","undefined","1","s","18","0","0","0","18","0","18","0","18","0","0","0","18","18","18","18","Sun Sep 27 18:57:50 2020","1500","The main experiment item","yes","Flankertask.osexp","C:/Users/JHS6-EAGLE/Desktop/OpenSes Files","no","mono","no","18","no","white","no","yes","1440","legacy","18","18","C:/Users/JHS6-EAGLE/Desktop/OpenSes Files/CK-subject-3.csv","legacy","Lentiform Loewenfeld","3.3.3","0","s","NA","s","NA","NA","s","617","NA","29271","NA","NA","617","2","legacy","1024","2","48000","-16","experiment","HHSHH","3","odd","69398","30778","NA","NA","NA","1501","NA","NA","70522","1506","NA","NA","70626","71243","70517","70626","Flanker task","19","17859","19","yes","2560"
"100","100","921.9","921.9","black","legacy","legacy","legacy","0","congruent","uniform","1","undefined","1","h","19","0","0","0","19","0","19","0","19","0","0","0","19","19","19","19","Sun Sep 27 18:57:50 2020","1500","The main experiment item","yes","Flankertask.osexp","C:/Users/JHS6-EAGLE/Desktop/OpenSes Files","no","mono","no","18","no","white","no","yes","1440","legacy","19","19","C:/Users/JHS6-EAGLE/Desktop/OpenSes Files/CK-subject-3.csv","legacy","Lentiform Loewenfeld","3.3.3","0","h","NA","s","NA","NA","h","579","NA","29271","NA","NA","579","2","legacy","1024","2","48000","-16","experiment","HHHHH","3","odd","71251","30778","NA","NA","NA","1501","NA","NA","72377","1506","NA","NA","72481","73060","72371","72481","Flanker task","20","18438","20","yes","2560"
"100","100","915.4285714285714","915.4285714285714","black","legacy","legacy","legacy","0","conruent","uniform","1","undefined","1","s","20","0","0","0","20","0","20","0","20","0","0","0","20","20","20","20","Sun Sep 27 18:57:50 2020","1500","The main experiment item","yes","Flankertask.osexp","C:/Users/JHS6-EAGLE/Desktop/OpenSes Files","no","mono","no","18","no","white","no","yes","1440","legacy","20","20","C:/Users/JHS6-EAGLE/Desktop/OpenSes Files/CK-subject-3.csv","legacy","Lentiform Loewenfeld","3.3.3","0","s","NA","s","NA","NA","s","786","NA","29271","NA","NA","786","2","legacy","1024","2","48000","-16","experiment","SSSSS","3","odd","73068","30778","NA","NA","NA","1501","NA","NA","74194","1506","NA","NA","74301","75087","74188","74300","Flanker task","21","19224","21","yes","2560"
"100","100","907.2272727272727","907.2272727272727","black","legacy","legacy","legacy","0","conruent","uniform","1","undefined","1","s","21","0","0","0","21","0","21","0","21","0","0","0","21","21","21","21","Sun Sep 27 18:57:50 2020","1500","The main experiment item","yes","Flankertask.osexp","C:/Users/JHS6-EAGLE/Desktop/OpenSes Files","no","mono","no","18","no","white","no","yes","1440","legacy","21","21","C:/Users/JHS6-EAGLE/Desktop/OpenSes Files/CK-subject-3.csv","legacy","Lentiform Loewenfeld","3.3.3","0","s","NA","s","NA","NA","s","735","NA","29271","NA","NA","735","2","legacy","1024","2","48000","-16","experiment","SSSSS","3","odd","75095","30778","NA","NA","NA","1501","NA","NA","76220","1506","NA","NA","76324","77059","76215","76324","Flanker task","22","19959","22","yes","2560"
"100","100","898.3478260869565","898.3478260869565","black","legacy","legacy","legacy","0","incongruent","uniform","1","undefined","1","h","22","0","0","0","22","0","22","0","22","0","0","0","22","22","22","22","Sun Sep 27 18:57:50 2020","1500","The main experiment item","yes","Flankertask.osexp","C:/Users/JHS6-EAGLE/Desktop/OpenSes Files","no","mono","no","18","no","white","no","yes","1440","legacy","22","22","C:/Users/JHS6-EAGLE/Desktop/OpenSes Files/CK-subject-3.csv","legacy","Lentiform Loewenfeld","3.3.3","0","h","NA","s","NA","NA","h","703","NA","29271","NA","NA","703","2","legacy","1024","2","48000","-16","experiment","SSHSS","3","odd","77067","30778","NA","NA","NA","1501","NA","NA","78214","1506","NA","NA","78320","79023","78208","78320","Flanker task","23","20662","23","yes","2560"
"100","100","888.6666666666666","888.6666666666666","black","legacy","legacy","legacy","0","congruent","uniform","1","undefined","1","h","23","0","0","0","23","0","23","0","23","0","0","0","23","23","23","23","Sun Sep 27 18:57:50 2020","1500","The main experiment item","yes","Flankertask.osexp","C:/Users/JHS6-EAGLE/Desktop/OpenSes Files","no","mono","no","18","no","white","no","yes","1440","legacy","23","23","C:/Users/JHS6-EAGLE/Desktop/OpenSes Files/CK-subject-3.csv","legacy","Lentiform Loewenfeld","3.3.3","0","h","NA","s","NA","NA","h","666","NA","29271","NA","NA","666","2","legacy","1024","2","48000","-16","experiment","HHHHH","3","odd","79030","30778","NA","NA","NA","1501","NA","NA","80156","1506","NA","NA","80260","80927","80151","80260","Flanker task","24","21328","24","yes","2560"
"100","100","879.36","879.36","black","legacy","legacy","legacy","0","incongruent","uniform","1","undefined","1","h","24","0","0","0","24","0","24","0","24","0","0","0","24","24","24","24","Sun Sep 27 18:57:50 2020","1500","The main experiment item","yes","Flankertask.osexp","C:/Users/JHS6-EAGLE/Desktop/OpenSes Files","no","mono","no","18","no","white","no","yes","1440","legacy","24","24","C:/Users/JHS6-EAGLE/Desktop/OpenSes Files/CK-subject-3.csv","legacy","Lentiform Loewenfeld","3.3.3","0","h","NA","s","NA","NA","h","656","NA","29271","NA","NA","656","2","legacy","1024","2","48000","-16","experiment","SSHSS","3","odd","80933","30778","NA","NA","NA","1501","NA","NA","82058","1506","NA","NA","82165","82821","82053","82164","Flanker task","25","21984","25","yes","2560"
"100","100","871.9230769230769","871.9230769230769","black","legacy","legacy","legacy","0","incongruent","uniform","1","undefined","1","h","25","0","0","0","25","0","25","0","25","0","0","0","25","25","25","25","Sun Sep 27 18:57:50 2020","1500","The main experiment item","yes","Flankertask.osexp","C:/Users/JHS6-EAGLE/Desktop/OpenSes Files","no","mono","no","18","no","white","no","yes","1440","legacy","25","25","C:/Users/JHS6-EAGLE/Desktop/OpenSes Files/CK-subject-3.csv","legacy","Lentiform Loewenfeld","3.3.3","0","h","NA","s","NA","NA","h","686","NA","29271","NA","NA","686","2","legacy","1024","2","48000","-16","experiment","SSHSS","3","odd","82829","30778","NA","NA","NA","1501","NA","NA","83961","1506","NA","NA","84065","84751","83955","84065","Flanker task","26","22670","26","yes","2560"
"100","100","862.1851851851852","862.1851851851852","black","legacy","legacy","legacy","0","incongruent","uniform","1","undefined","1","h","26","0","0","0","26","0","26","0","26","0","0","0","26","26","26","26","Sun Sep 27 18:57:50 2020","1500","The main experiment item","yes","Flankertask.osexp","C:/Users/JHS6-EAGLE/Desktop/OpenSes Files","no","mono","no","18","no","white","no","yes","1440","legacy","26","26","C:/Users/JHS6-EAGLE/Desktop/OpenSes Files/CK-subject-3.csv","legacy","Lentiform Loewenfeld","3.3.3","0","h","NA","s","NA","NA","h","609","NA","29271","NA","NA","609","2","legacy","1024","2","48000","-16","experiment","SSHSS","3","odd","84758","30778","NA","NA","NA","1501","NA","NA","85883","1506","NA","NA","85991","86600","85877","85991","Flanker task","27","23279","27","yes","2560"
"100","100","853.6071428571429","853.6071428571429","black","legacy","legacy","legacy","0","congruent","uniform","1","undefined","1","h","27","0","0","0","27","0","27","0","27","0","0","0","27","27","27","27","Sun Sep 27 18:57:50 2020","1500","The main experiment item","yes","Flankertask.osexp","C:/Users/JHS6-EAGLE/Desktop/OpenSes Files","no","mono","no","18","no","white","no","yes","1440","legacy","27","27","C:/Users/JHS6-EAGLE/Desktop/OpenSes Files/CK-subject-3.csv","legacy","Lentiform Loewenfeld","3.3.3","0","h","NA","s","NA","NA","h","622","NA","29271","NA","NA","622","2","legacy","1024","2","48000","-16","experiment","HHHHH","3","odd","86608","30778","NA","NA","NA","1501","NA","NA","87732","1506","NA","NA","87837","88459","87727","87837","Flanker task","28","23901","28","yes","2560"
"100","100","846.6896551724138","846.6896551724138","black","legacy","legacy","legacy","0","conruent","uniform","1","undefined","1","s","28","0","0","0","28","0","28","0","28","0","0","0","28","28","28","28","Sun Sep 27 18:57:50 2020","1500","The main experiment item","yes","Flankertask.osexp","C:/Users/JHS6-EAGLE/Desktop/OpenSes Files","no","mono","no","18","no","white","no","yes","1440","legacy","28","28","C:/Users/JHS6-EAGLE/Desktop/OpenSes Files/CK-subject-3.csv","legacy","Lentiform Loewenfeld","3.3.3","0","s","NA","s","NA","NA","s","653","NA","29271","NA","NA","653","2","legacy","1024","2","48000","-16","experiment","SSSSS","3","odd","88467","30778","NA","NA","NA","1501","NA","NA","89591","1506","NA","NA","89695","90348","89586","89695","Flanker task","29","24554","29","yes","2560"
"100","100","837.1333333333333","837.1333333333333","black","legacy","legacy","legacy","0","incongruent","uniform","1","undefined","1","h","29","0","0","0","29","0","29","0","29","0","0","0","29","29","29","29","Sun Sep 27 18:57:50 2020","1500","The main experiment item","yes","Flankertask.osexp","C:/Users/JHS6-EAGLE/Desktop/OpenSes Files","no","mono","no","18","no","white","no","yes","1440","legacy","29","29","C:/Users/JHS6-EAGLE/Desktop/OpenSes Files/CK-subject-3.csv","legacy","Lentiform Loewenfeld","3.3.3","0","h","NA","s","NA","NA","h","560","NA","29271","NA","NA","560","2","legacy","1024","2","48000","-16","experiment","SSHSS","3","odd","90356","30778","NA","NA","NA","1501","NA","NA","91481","1506","NA","NA","91585","92146","91475","91585","Flanker task","30","25114","30","yes","2560"
"100","100","849.6451612903226","849.6451612903226","black","legacy","legacy","legacy","0","congruent","uniform","1","undefined","1","h","30","0","0","0","30","0","30","0","30","0","0","0","30","30","30","30","Sun Sep 27 18:57:50 2020","1500","The main experiment item","yes","Flankertask.osexp","C:/Users/JHS6-EAGLE/Desktop/OpenSes Files","no","mono","no","18","no","white","no","yes","1440","legacy","30","30","C:/Users/JHS6-EAGLE/Desktop/OpenSes Files/CK-subject-3.csv","legacy","Lentiform Loewenfeld","3.3.3","0","h","NA","s","NA","NA","h","1225","NA","29271","NA","NA","1225","2","legacy","1024","2","48000","-16","experiment","HHHHH","3","odd","92153","30778","NA","NA","NA","1501","NA","NA","93277","1506","NA","NA","93392","94617","93272","93392","Flanker task","31","26339","31","yes","2560"
"96.875","96.875","840.84375","840.84375","black","legacy","legacy","legacy","0","incongruent","uniform","0","undefined","0","s","31","0","0","0","31","0","31","0","31","0","0","0","31","31","31","31","Sun Sep 27 18:57:50 2020","1500","The main experiment item","yes","Flankertask.osexp","C:/Users/JHS6-EAGLE/Desktop/OpenSes Files","no","mono","no","18","no","white","no","yes","1440","legacy","31","31","C:/Users/JHS6-EAGLE/Desktop/OpenSes Files/CK-subject-3.csv","legacy","Lentiform Loewenfeld","3.3.3","0","h","NA","s","NA","NA","h","568","NA","29271","NA","NA","568","2","legacy","1024","2","48000","-16","experiment","HHSHH","3","odd","94625","30778","NA","NA","NA","1501","NA","NA","95750","1506","NA","NA","95868","96437","95745","95868","Flanker task","31","26907","32","yes","2560"
"96.96969696969697","96.96969696969697","845.5757575757576","845.5757575757576","black","legacy","legacy","legacy","0","conruent","uniform","1","undefined","1","s","32","0","0","0","32","0","32","0","32","0","0","0","32","32","32","32","Sun Sep 27 18:57:50 2020","1500","The main experiment item","yes","Flankertask.osexp","C:/Users/JHS6-EAGLE/Desktop/OpenSes Files","no","mono","no","18","no","white","no","yes","1440","legacy","32","32","C:/Users/JHS6-EAGLE/Desktop/OpenSes Files/CK-subject-3.csv","legacy","Lentiform Loewenfeld","3.3.3","0","s","NA","s","NA","NA","s","997","NA","29271","NA","NA","997","2","legacy","1024","2","48000","-16","experiment","SSSSS","3","odd","96959","30778","NA","NA","96444","1501","NA","NA","98083","1506","NA","NA","98191","99189","98078","98191","Flanker task","32","27904","33","yes","2560"
"97.05882352941177","97.05882352941177","834.2647058823529","834.2647058823529","black","legacy","legacy","legacy","0","congruent","uniform","1","undefined","1","h","33","0","0","0","33","0","33","0","33","0","0","0","33","33","33","33","Sun Sep 27 18:57:50 2020","1500","The main experiment item","yes","Flankertask.osexp","C:/Users/JHS6-EAGLE/Desktop/OpenSes Files","no","mono","no","18","no","white","no","yes","1440","legacy","33","33","C:/Users/JHS6-EAGLE/Desktop/OpenSes Files/CK-subject-3.csv","legacy","Lentiform Loewenfeld","3.3.3","0","h","NA","s","NA","NA","h","461","NA","29271","NA","NA","461","2","legacy","1024","2","48000","-16","experiment","HHHHH","3","odd","99196","30778","NA","NA","96444","1501","NA","NA","100321","1506","NA","NA","100425","100886","100316","100425","Flanker task","33","28365","34","yes","2560"
"97.14285714285714","97.14285714285714","827.2857142857143","827.2857142857143","black","legacy","legacy","legacy","0","incongruent","uniform","1","undefined","1","s","34","0","0","0","34","0","34","0","34","0","0","0","34","34","34","34","Sun Sep 27 18:57:50 2020","1500","The main experiment item","yes","Flankertask.osexp","C:/Users/JHS6-EAGLE/Desktop/OpenSes Files","no","mono","no","18","no","white","no","yes","1440","legacy","34","34","C:/Users/JHS6-EAGLE/Desktop/OpenSes Files/CK-subject-3.csv","legacy","Lentiform Loewenfeld","3.3.3","0","s","NA","s","NA","NA","s","590","NA","29271","NA","NA","590","2","legacy","1024","2","48000","-16","experiment","HHSHH","3","odd","100894","30778","NA","NA","96444","1501","NA","NA","102022","1506","NA","NA","102139","102730","102016","102139","Flanker task","34","28955","35","yes","2560"
"97.22222222222223","97.22222222222223","822.25","822.25","black","legacy","legacy","legacy","0","incongruent","uniform","1","undefined","1","s","35","0","0","0","35","0","35","0","35","0","0","0","35","35","35","35","Sun Sep 27 18:57:50 2020","1500","The main experiment item","yes","Flankertask.osexp","C:/Users/JHS6-EAGLE/Desktop/OpenSes Files","no","mono","no","18","no","white","no","yes","1440","legacy","35","35","C:/Users/JHS6-EAGLE/Desktop/OpenSes Files/CK-subject-3.csv","legacy","Lentiform Loewenfeld","3.3.3","0","s","NA","s","NA","NA","s","646","NA","29271","NA","NA","646","2","legacy","1024","2","48000","-16","experiment","HHSHH","3","odd","102737","30778","NA","NA","96444","1501","NA","NA","103878","1506","NA","NA","103982","104628","103872","103982","Flanker task","35","29601","36","yes","2560"
"97.29729729729729","97.29729729729729","819.4594594594595","819.4594594594595","black","legacy","legacy","legacy","0","congruent","uniform","1","undefined","1","h","36","0","0","0","36","0","36","0","36","0","0","0","36","36","36","36","Sun Sep 27 18:57:50 2020","1500","The main experiment item","yes","Flankertask.osexp","C:/Users/JHS6-EAGLE/Desktop/OpenSes Files","no","mono","no","18","no","white","no","yes","1440","legacy","36","36","C:/Users/JHS6-EAGLE/Desktop/OpenSes Files/CK-subject-3.csv","legacy","Lentiform Loewenfeld","3.3.3","0","h","NA","s","NA","NA","h","719","NA","29271","NA","NA","719","2","legacy","1024","2","48000","-16","experiment","HHHHH","3","odd","104636","30778","NA","NA","96444","1501","NA","NA","105762","1506","NA","NA","105880","106599","105756","105880","Flanker task","36","30320","37","yes","2560"
"97.36842105263158","97.36842105263158","820.6315789473684","820.6315789473684","black","legacy","legacy","legacy","0","incongruent","uniform","1","undefined","1","h","37","0","0","0","37","0","37","0","37","0","0","0","37","37","37","37","Sun Sep 27 18:57:50 2020","1500","The main experiment item","yes","Flankertask.osexp","C:/Users/JHS6-EAGLE/Desktop/OpenSes Files","no","mono","no","18","no","white","no","yes","1440","legacy","37","37","C:/Users/JHS6-EAGLE/Desktop/OpenSes Files/CK-subject-3.csv","legacy","Lentiform Loewenfeld","3.3.3","0","h","NA","s","NA","NA","h","864","NA","29271","NA","NA","864","2","legacy","1024","2","48000","-16","experiment","SSHSS","3","odd","106606","30778","NA","NA","96444","1501","NA","NA","107731","1506","NA","NA","107835","108699","107725","107835","Flanker task","37","31184","38","yes","2560"
"97.43589743589743","97.43589743589743","820.5897435897435","820.5897435897435","black","legacy","legacy","legacy","0","congruent","uniform","1","undefined","1","h","38","0","0","0","38","0","38","0","38","0","0","0","38","38","38","38","Sun Sep 27 18:57:50 2020","1500","The main experiment item","yes","Flankertask.osexp","C:/Users/JHS6-EAGLE/Desktop/OpenSes Files","no","mono","no","18","no","white","no","yes","1440","legacy","38","38","C:/Users/JHS6-EAGLE/Desktop/OpenSes Files/CK-subject-3.csv","legacy","Lentiform Loewenfeld","3.3.3","0","h","NA","s","NA","NA","h","819","NA","29271","NA","NA","819","2","legacy","1024","2","48000","-16","experiment","HHHHH","3","odd","108707","30778","NA","NA","96444","1501","NA","NA","109832","1506","NA","NA","109936","110755","109826","109936","Flanker task","38","32003","39","yes","2560"
"97.5","97.5","817.875","817.875","black","legacy","legacy","legacy","0","conruent","uniform","1","undefined","1","s","39","0","0","0","39","0","39","0","39","0","0","0","39","39","39","39","Sun Sep 27 18:57:50 2020","1500","The main experiment item","yes","Flankertask.osexp","C:/Users/JHS6-EAGLE/Desktop/OpenSes Files","no","mono","no","18","no","white","no","yes","1440","legacy","39","39","C:/Users/JHS6-EAGLE/Desktop/OpenSes Files/CK-subject-3.csv","legacy","Lentiform Loewenfeld","3.3.3","0","s","NA","s","NA","NA","s","712","NA","29271","NA","NA","712","2","legacy","1024","2","48000","-16","experiment","SSSSS","3","odd","110763","30778","NA","NA","96444","1501","NA","NA","111887","1506","NA","NA","111991","112704","111882","111991","Flanker task","39","32715","40","yes","2560"
"97.5609756097561","97.5609756097561","812.6585365853658","812.6585365853658","black","legacy","legacy","legacy","0","incongruent","uniform","1","undefined","1","s","40","0","0","0","40","0","40","0","40","0","0","0","40","40","40","40","Sun Sep 27 18:57:50 2020","1500","The main experiment item","yes","Flankertask.osexp","C:/Users/JHS6-EAGLE/Desktop/OpenSes Files","no","mono","no","18","no","white","no","yes","1440","legacy","40","40","C:/Users/JHS6-EAGLE/Desktop/OpenSes Files/CK-subject-3.csv","legacy","Lentiform Loewenfeld","3.3.3","0","s","NA","s","NA","NA","s","604","NA","29271","NA","NA","604","2","legacy","1024","2","48000","-16","experiment","HHSHH","3","odd","112712","30778","NA","NA","96444","1501","NA","NA","113836","1506","NA","NA","113955","114560","113831","113954","Flanker task","40","33319","41","yes","2560"
"97.61904761904762","97.61904761904762","805.0952380952381","805.0952380952381","black","legacy","legacy","legacy","0","incongruent","uniform","1","undefined","1","s","41","0","0","0","41","0","41","0","41","0","0","0","41","41","41","41","Sun Sep 27 18:57:50 2020","1500","The main experiment item","yes","Flankertask.osexp","C:/Users/JHS6-EAGLE/Desktop/OpenSes Files","no","mono","no","18","no","white","no","yes","1440","legacy","41","41","C:/Users/JHS6-EAGLE/Desktop/OpenSes Files/CK-subject-3.csv","legacy","Lentiform Loewenfeld","3.3.3","0","s","NA","s","NA","NA","s","495","NA","29271","NA","NA","495","2","legacy","1024","2","48000","-16","experiment","HHSHH","3","odd","114567","30778","NA","NA","96444","1501","NA","NA","115692","1506","NA","NA","115798","116294","115687","115798","Flanker task","41","33814","42","yes","2560"
"97.67441860465117","97.67441860465117","798.8372093023256","798.8372093023256","black","legacy","legacy","legacy","0","congruent","uniform","1","undefined","1","h","42","0","0","0","42","0","42","0","42","0","0","0","42","42","42","42","Sun Sep 27 18:57:50 2020","1500","The main experiment item","yes","Flankertask.osexp","C:/Users/JHS6-EAGLE/Desktop/OpenSes Files","no","mono","no","18","no","white","no","yes","1440","legacy","42","42","C:/Users/JHS6-EAGLE/Desktop/OpenSes Files/CK-subject-3.csv","legacy","Lentiform Loewenfeld","3.3.3","0","h","NA","s","NA","NA","h","536","NA","29271","NA","NA","536","2","legacy","1024","2","48000","-16","experiment","HHHHH","3","odd","116302","30778","NA","NA","96444","1501","NA","NA","117434","1506","NA","NA","117538","118074","117429","117538","Flanker task","42","34350","43","yes","2560"
"97.72727272727273","97.72727272727273","791.7045454545455","791.7045454545455","black","legacy","legacy","legacy","0","incongruent","uniform","1","undefined","1","s","43","0","0","0","43","0","43","0","43","0","0","0","43","43","43","43","Sun Sep 27 18:57:50 2020","1500","The main experiment item","yes","Flankertask.osexp","C:/Users/JHS6-EAGLE/Desktop/OpenSes Files","no","mono","no","18","no","white","no","yes","1440","legacy","43","43","C:/Users/JHS6-EAGLE/Desktop/OpenSes Files/CK-subject-3.csv","legacy","Lentiform Loewenfeld","3.3.3","0","s","NA","s","NA","NA","s","485","NA","29271","NA","NA","485","2","legacy","1024","2","48000","-16","experiment","HHSHH","3","odd","118082","30778","NA","NA","96444","1501","NA","NA","119210","1506","NA","NA","119324","119809","119204","119324","Flanker task","43","34835","44","yes","2560"
"97.77777777777777","97.77777777777777","787.2222222222222","787.2222222222222","black","legacy","legacy","legacy","0","congruent","uniform","1","undefined","1","h","44","0","0","0","44","0","44","0","44","0","0","0","44","44","44","44","Sun Sep 27 18:57:50 2020","1500","The main experiment item","yes","Flankertask.osexp","C:/Users/JHS6-EAGLE/Desktop/OpenSes Files","no","mono","no","18","no","white","no","yes","1440","legacy","44","44","C:/Users/JHS6-EAGLE/Desktop/OpenSes Files/CK-subject-3.csv","legacy","Lentiform Loewenfeld","3.3.3","0","h","NA","s","NA","NA","h","590","NA","29271","NA","NA","590","2","legacy","1024","2","48000","-16","experiment","HHHHH","3","odd","119817","30778","NA","NA","96444","1501","NA","NA","120942","1506","NA","NA","121048","121639","120937","121048","Flanker task","44","35425","45","yes","2560"
"97.82608695652173","97.82608695652173","782.9130434782609","782.9130434782609","black","legacy","legacy","legacy","0","incongruent","uniform","1","undefined","1","s","45","0","0","0","45","0","45","0","45","0","0","0","45","45","45","45","Sun Sep 27 18:57:50 2020","1500","The main experiment item","yes","Flankertask.osexp","C:/Users/JHS6-EAGLE/Desktop/OpenSes Files","no","mono","no","18","no","white","no","yes","1440","legacy","45","45","C:/Users/JHS6-EAGLE/Desktop/OpenSes Files/CK-subject-3.csv","legacy","Lentiform Loewenfeld","3.3.3","0","s","NA","s","NA","NA","s","589","NA","29271","NA","NA","589","2","legacy","1024","2","48000","-16","experiment","HHSHH","3","odd","121646","30778","NA","NA","96444","1501","NA","NA","122771","1506","NA","NA","122883","123473","122766","122882","Flanker task","45","36014","46","yes","2560"
"97.87234042553192","97.87234042553192","779.1702127659574","779.1702127659574","black","legacy","legacy","legacy","0","incongruent","uniform","1","undefined","1","s","46","0","0","0","46","0","46","0","46","0","0","0","46","46","46","46","Sun Sep 27 18:57:50 2020","1500","The main experiment item","yes","Flankertask.osexp","C:/Users/JHS6-EAGLE/Desktop/OpenSes Files","no","mono","no","18","no","white","no","yes","1440","legacy","46","46","C:/Users/JHS6-EAGLE/Desktop/OpenSes Files/CK-subject-3.csv","legacy","Lentiform Loewenfeld","3.3.3","0","s","NA","s","NA","NA","s","607","NA","29271","NA","NA","607","2","legacy","1024","2","48000","-16","experiment","HHSHH","3","odd","123480","30778","NA","NA","96444","1501","NA","NA","124605","1506","NA","NA","124710","125317","124599","124709","Flanker task","46","36621","47","yes","2560"
"97.91666666666667","97.91666666666667","775.4583333333334","775.4583333333334","black","legacy","legacy","legacy","0","incongruent","uniform","1","undefined","1","s","47","0","0","0","47","0","47","0","47","0","0","0","47","47","47","47","Sun Sep 27 18:57:50 2020","1500","The main experiment item","yes","Flankertask.osexp","C:/Users/JHS6-EAGLE/Desktop/OpenSes Files","no","mono","no","18","no","white","no","yes","1440","legacy","47","47","C:/Users/JHS6-EAGLE/Desktop/OpenSes Files/CK-subject-3.csv","legacy","Lentiform Loewenfeld","3.3.3","0","s","NA","s","NA","NA","s","601","NA","29271","NA","NA","601","2","legacy","1024","2","48000","-16","experiment","HHSHH","3","odd","125325","30778","NA","NA","96444","1501","NA","NA","126450","1506","NA","NA","126554","127155","126444","126554","Flanker task","47","37222","48","yes","2560"
"97.95918367346938","97.95918367346938","770.6734693877551","770.6734693877551","black","legacy","legacy","legacy","0","incongruent","uniform","1","undefined","1","s","48","0","0","0","48","0","48","0","48","0","0","0","48","48","48","48","Sun Sep 27 18:57:50 2020","1500","The main experiment item","yes","Flankertask.osexp","C:/Users/JHS6-EAGLE/Desktop/OpenSes Files","no","mono","no","18","no","white","no","yes","1440","legacy","48","48","C:/Users/JHS6-EAGLE/Desktop/OpenSes Files/CK-subject-3.csv","legacy","Lentiform Loewenfeld","3.3.3","0","s","NA","s","NA","NA","s","541","NA","29271","NA","NA","541","2","legacy","1024","2","48000","-16","experiment","HHSHH","3","odd","127163","30778","NA","NA","96444","1501","NA","NA","128297","1506","NA","NA","128401","128942","128291","128401","Flanker task","48","37763","49","yes","2560"
"98","98","767.1","767.1","black","legacy","legacy","legacy","0","incongruent","uniform","1","undefined","1","h","49","0","0","0","49","0","49","0","49","0","0","0","49","49","49","49","Sun Sep 27 18:57:50 2020","1500","The main experiment item","yes","Flankertask.osexp","C:/Users/JHS6-EAGLE/Desktop/OpenSes Files","no","mono","no","18","no","white","no","yes","1440","legacy","49","49","C:/Users/JHS6-EAGLE/Desktop/OpenSes Files/CK-subject-3.csv","legacy","Lentiform Loewenfeld","3.3.3","0","h","NA","s","NA","NA","h","592","NA","29271","NA","NA","592","2","legacy","1024","2","48000","-16","experiment","SSHSS","3","odd","128950","30778","NA","NA","96444","1501","NA","NA","130090","1506","NA","NA","130201","130794","130084","130200","Flanker task","49","38355","50","yes","2560"
"98.03921568627452","98.03921568627452","762.4117647058823","762.4117647058823","black","legacy","legacy","legacy","0","congruent","uniform","1","undefined","1","h","50","0","0","0","50","0","50","0","50","0","0","0","50","50","50","50","Sun Sep 27 18:57:50 2020","1500","The main experiment item","yes","Flankertask.osexp","C:/Users/JHS6-EAGLE/Desktop/OpenSes Files","no","mono","no","18","no","white","no","yes","1440","legacy","50","50","C:/Users/JHS6-EAGLE/Desktop/OpenSes Files/CK-subject-3.csv","legacy","Lentiform Loewenfeld","3.3.3","0","h","NA","s","NA","NA","h","528","NA","29271","NA","NA","528","2","legacy","1024","2","48000","-16","experiment","HHHHH","3","odd","130802","30778","NA","NA","96444","1501","NA","NA","131927","1506","NA","NA","132047","132575","131921","132047","Flanker task","50","38883","51","yes","2560"
"98.07692307692308","98.07692307692308","761.2307692307693","761.2307692307693","black","legacy","legacy","legacy","0","incongruent","uniform","1","undefined","1","h","51","0","0","0","51","0","51","0","51","0","0","0","51","51","51","51","Sun Sep 27 18:57:50 2020","1500","The main experiment item","yes","Flankertask.osexp","C:/Users/JHS6-EAGLE/Desktop/OpenSes Files","no","mono","no","18","no","white","no","yes","1440","legacy","51","51","C:/Users/JHS6-EAGLE/Desktop/OpenSes Files/CK-subject-3.csv","legacy","Lentiform Loewenfeld","3.3.3","0","h","NA","s","NA","NA","h","701","NA","29271","NA","NA","701","2","legacy","1024","2","48000","-16","experiment","SSHSS","3","odd","132583","30778","NA","NA","96444","1501","NA","NA","133709","1506","NA","NA","133813","134514","133703","133813","Flanker task","51","39584","52","yes","2560"
"98.11320754716981","98.11320754716981","760.2075471698113","760.2075471698113","black","legacy","legacy","legacy","0","incongruent","uniform","1","undefined","1","h","52","0","0","0","52","0","52","0","52","0","0","0","52","52","52","52","Sun Sep 27 18:57:50 2020","1500","The main experiment item","yes","Flankertask.osexp","C:/Users/JHS6-EAGLE/Desktop/OpenSes Files","no","mono","no","18","no","white","no","yes","1440","legacy","52","52","C:/Users/JHS6-EAGLE/Desktop/OpenSes Files/CK-subject-3.csv","legacy","Lentiform Loewenfeld","3.3.3","0","h","NA","s","NA","NA","h","707","NA","29271","NA","NA","707","2","legacy","1024","2","48000","-16","experiment","SSHSS","3","odd","134522","30778","NA","NA","96444","1501","NA","NA","135649","1506","NA","NA","135757","136465","135643","135757","Flanker task","52","40291","53","yes","2560"
"98.14814814814815","98.14814814814815","760.0370370370371","760.0370370370371","black","legacy","legacy","legacy","0","incongruent","uniform","1","undefined","1","s","53","0","0","0","53","0","53","0","53","0","0","0","53","53","53","53","Sun Sep 27 18:57:50 2020","1500","The main experiment item","yes","Flankertask.osexp","C:/Users/JHS6-EAGLE/Desktop/OpenSes Files","no","mono","no","18","no","white","no","yes","1440","legacy","53","53","C:/Users/JHS6-EAGLE/Desktop/OpenSes Files/CK-subject-3.csv","legacy","Lentiform Loewenfeld","3.3.3","0","s","NA","s","NA","NA","s","751","NA","29271","NA","NA","751","2","legacy","1024","2","48000","-16","experiment","HHSHH","3","odd","136472","30778","NA","NA","96444","1501","NA","NA","137603","1506","NA","NA","137722","138474","137598","137722","Flanker task","53","41042","54","yes","2560"
"98.18181818181819","98.18181818181819","757.7454545454545","757.7454545454545","black","legacy","legacy","legacy","0","conruent","uniform","1","undefined","1","s","54","0","0","0","54","0","54","0","54","0","0","0","54","54","54","54","Sun Sep 27 18:57:50 2020","1500","The main experiment item","yes","Flankertask.osexp","C:/Users/JHS6-EAGLE/Desktop/OpenSes Files","no","mono","no","18","no","white","no","yes","1440","legacy","54","54","C:/Users/JHS6-EAGLE/Desktop/OpenSes Files/CK-subject-3.csv","legacy","Lentiform Loewenfeld","3.3.3","0","s","NA","s","NA","NA","s","634","NA","29271","NA","NA","634","2","legacy","1024","2","48000","-16","experiment","SSSSS","3","odd","138482","30778","NA","NA","96444","1501","NA","NA","139612","1506","NA","NA","139718","140353","139607","139718","Flanker task","54","41676","55","yes","2560"
"98.21428571428571","98.21428571428571","756.7321428571429","756.7321428571429","black","legacy","legacy","legacy","0","incongruent","uniform","1","undefined","1","h","55","0","0","0","55","0","55","0","55","0","0","0","55","55","55","55","Sun Sep 27 18:57:50 2020","1500","The main experiment item","yes","Flankertask.osexp","C:/Users/JHS6-EAGLE/Desktop/OpenSes Files","no","mono","no","18","no","white","no","yes","1440","legacy","55","55","C:/Users/JHS6-EAGLE/Desktop/OpenSes Files/CK-subject-3.csv","legacy","Lentiform Loewenfeld","3.3.3","0","h","NA","s","NA","NA","h","701","NA","29271","NA","NA","701","2","legacy","1024","2","48000","-16","experiment","SSHSS","3","odd","140360","30778","NA","NA","96444","1501","NA","NA","141506","1506","NA","NA","141618","142320","141499","141618","Flanker task","55","42377","56","yes","2560"
"98.24561403508773","98.24561403508773","755.9473684210526","755.9473684210526","black","legacy","legacy","legacy","0","incongruent","uniform","1","undefined","1","h","56","0","0","0","56","0","56","0","56","0","0","0","56","56","56","56","Sun Sep 27 18:57:50 2020","1500","The main experiment item","yes","Flankertask.osexp","C:/Users/JHS6-EAGLE/Desktop/OpenSes Files","no","mono","no","18","no","white","no","yes","1440","legacy","56","56","C:/Users/JHS6-EAGLE/Desktop/OpenSes Files/CK-subject-3.csv","legacy","Lentiform Loewenfeld","3.3.3","0","h","NA","s","NA","NA","h","712","NA","29271","NA","NA","712","2","legacy","1024","2","48000","-16","experiment","SSHSS","3","odd","142327","30778","NA","NA","96444","1501","NA","NA","143452","1506","NA","NA","143559","144271","143446","143558","Flanker task","56","43089","57","yes","2560"
"98.27586206896552","98.27586206896552","753.6034482758621","753.6034482758621","black","legacy","legacy","legacy","0","conruent","uniform","1","undefined","1","s","57","0","0","0","57","0","57","0","57","0","0","0","57","57","57","57","Sun Sep 27 18:57:50 2020","1500","The main experiment item","yes","Flankertask.osexp","C:/Users/JHS6-EAGLE/Desktop/OpenSes Files","no","mono","no","18","no","white","no","yes","1440","legacy","57","57","C:/Users/JHS6-EAGLE/Desktop/OpenSes Files/CK-subject-3.csv","legacy","Lentiform Loewenfeld","3.3.3","0","s","NA","s","NA","NA","s","620","NA","29271","NA","NA","620","2","legacy","1024","2","48000","-16","experiment","SSSSS","3","odd","144279","30778","NA","NA","96444","1501","NA","NA","145411","1506","NA","NA","145516","146137","145406","145516","Flanker task","57","43709","58","yes","2560"
"98.30508474576271","98.30508474576271","752.9491525423729","752.9491525423729","black","legacy","legacy","legacy","0","conruent","uniform","1","undefined","1","s","58","0","0","0","58","0","58","0","58","0","0","0","58","58","58","58","Sun Sep 27 18:57:50 2020","1500","The main experiment item","yes","Flankertask.osexp","C:/Users/JHS6-EAGLE/Desktop/OpenSes Files","no","mono","no","18","no","white","no","yes","1440","legacy","58","58","C:/Users/JHS6-EAGLE/Desktop/OpenSes Files/CK-subject-3.csv","legacy","Lentiform Loewenfeld","3.3.3","0","s","NA","s","NA","NA","s","715","NA","29271","NA","NA","715","2","legacy","1024","2","48000","-16","experiment","SSSSS","3","odd","146143","30778","NA","NA","96444","1501","NA","NA","147267","1506","NA","NA","147372","148088","147262","147372","Flanker task","58","44424","59","yes","2560"
"98.33333333333333","98.33333333333333","753.7333333333333","753.7333333333333","black","legacy","legacy","legacy","0","conruent","uniform","1","undefined","1","s","59","0","0","0","59","0","59","0","59","0","0","0","59","59","59","59","Sun Sep 27 18:57:50 2020","1500","The main experiment item","yes","Flankertask.osexp","C:/Users/JHS6-EAGLE/Desktop/OpenSes Files","no","mono","no","18","no","white","no","yes","1440","legacy","59","59","C:/Users/JHS6-EAGLE/Desktop/OpenSes Files/CK-subject-3.csv","legacy","Lentiform Loewenfeld","3.3.3","0","s","NA","s","NA","NA","s","800","NA","29271","NA","NA","800","2","legacy","1024","2","48000","-16","experiment","SSSSS","3","odd","148095","30778","NA","NA","96444","1501","NA","NA","149220","1506","NA","NA","149325","150126","149215","149325","Flanker task","59","45224","60","yes","2560"
"98.36065573770492","98.36065573770492","751.6065573770492","751.6065573770492","black","legacy","legacy","legacy","0","conruent","uniform","1","undefined","1","s","60","0","0","0","60","0","60","0","60","0","0","0","60","60","60","60","Sun Sep 27 18:57:50 2020","1500","The main experiment item","yes","Flankertask.osexp","C:/Users/JHS6-EAGLE/Desktop/OpenSes Files","no","mono","no","18","no","white","no","yes","1440","legacy","60","60","C:/Users/JHS6-EAGLE/Desktop/OpenSes Files/CK-subject-3.csv","legacy","Lentiform Loewenfeld","3.3.3","0","s","NA","s","NA","NA","s","624","NA","29271","NA","NA","624","2","legacy","1024","2","48000","-16","experiment","SSSSS","3","odd","150134","30778","NA","NA","96444","1501","NA","NA","151257","1506","NA","NA","151362","151986","151252","151362","Flanker task","60","45848","61","yes","2560"
"98.38709677419355","98.38709677419355","750.5","750.5","black","legacy","legacy","legacy","0","conruent","uniform","1","undefined","1","s","61","0","0","0","61","0","61","0","61","0","0","0","61","61","61","61","Sun Sep 27 18:57:50 2020","1500","The main experiment item","yes","Flankertask.osexp","C:/Users/JHS6-EAGLE/Desktop/OpenSes Files","no","mono","no","18","no","white","no","yes","1440","legacy","61","61","C:/Users/JHS6-EAGLE/Desktop/OpenSes Files/CK-subject-3.csv","legacy","Lentiform Loewenfeld","3.3.3","0","s","NA","s","NA","NA","s","683","NA","29271","NA","NA","683","2","legacy","1024","2","48000","-16","experiment","SSSSS","3","odd","151993","30778","NA","NA","96444","1501","NA","NA","153116","1506","NA","NA","153221","153906","153111","153221","Flanker task","61","46531","62","yes","2560"
"98.41269841269842","98.41269841269842","749.2539682539683","749.2539682539683","black","legacy","legacy","legacy","0","conruent","uniform","1","undefined","1","s","62","0","0","0","62","0","62","0","62","0","0","0","62","62","62","62","Sun Sep 27 18:57:50 2020","1500","The main experiment item","yes","Flankertask.osexp","C:/Users/JHS6-EAGLE/Desktop/OpenSes Files","no","mono","no","18","no","white","no","yes","1440","legacy","62","62","C:/Users/JHS6-EAGLE/Desktop/OpenSes Files/CK-subject-3.csv","legacy","Lentiform Loewenfeld","3.3.3","0","s","NA","s","NA","NA","s","672","NA","29271","NA","NA","672","2","legacy","1024","2","48000","-16","experiment","SSSSS","3","odd","153914","30778","NA","NA","96444","1501","NA","NA","155037","1506","NA","NA","155144","155817","155031","155143","Flanker task","62","47203","63","yes","2560"
"98.4375","98.4375","749.828125","749.828125","black","legacy","legacy","legacy","0","incongruent","uniform","1","undefined","1","s","63","0","0","0","63","0","63","0","63","0","0","0","63","63","63","63","Sun Sep 27 18:57:50 2020","1500","The main experiment item","yes","Flankertask.osexp","C:/Users/JHS6-EAGLE/Desktop/OpenSes Files","no","mono","no","18","no","white","no","yes","1440","legacy","63","63","C:/Users/JHS6-EAGLE/Desktop/OpenSes Files/CK-subject-3.csv","legacy","Lentiform Loewenfeld","3.3.3","0","s","NA","s","NA","NA","s","786","NA","29271","NA","NA","786","2","legacy","1024","2","48000","-16","experiment","HHSHH","3","odd","155825","30778","NA","NA","96444","1501","NA","NA","156949","1506","NA","NA","157053","157839","156944","157053","Flanker task","63","47989","64","yes","2560"
"98.46153846153847","98.46153846153847","750.1076923076923","750.1076923076923","black","legacy","legacy","legacy","0","congruent","uniform","1","undefined","1","h","64","0","0","0","64","0","64","0","64","0","0","0","64","64","64","64","Sun Sep 27 18:57:50 2020","1500","The main experiment item","yes","Flankertask.osexp","C:/Users/JHS6-EAGLE/Desktop/OpenSes Files","no","mono","no","18","no","white","no","yes","1440","legacy","64","64","C:/Users/JHS6-EAGLE/Desktop/OpenSes Files/CK-subject-3.csv","legacy","Lentiform Loewenfeld","3.3.3","0","h","NA","s","NA","NA","h","768","NA","29271","NA","NA","768","2","legacy","1024","2","48000","-16","experiment","HHHHH","3","odd","157846","30778","NA","NA","96444","1501","NA","NA","158970","1506","NA","NA","159075","159843","158965","159075","Flanker task","64","48757","65","yes","2560"
"98.48484848484848","98.48484848484848","748.8636363636364","748.8636363636364","black","legacy","legacy","legacy","0","congruent","uniform","1","undefined","1","h","65","0","0","0","65","0","65","0","65","0","0","0","65","65","65","65","Sun Sep 27 18:57:50 2020","1500","The main experiment item","yes","Flankertask.osexp","C:/Users/JHS6-EAGLE/Desktop/OpenSes Files","no","mono","no","18","no","white","no","yes","1440","legacy","65","65","C:/Users/JHS6-EAGLE/Desktop/OpenSes Files/CK-subject-3.csv","legacy","Lentiform Loewenfeld","3.3.3","0","h","NA","s","NA","NA","h","668","NA","29271","NA","NA","668","2","legacy","1024","2","48000","-16","experiment","HHHHH","3","odd","159851","30778","NA","NA","96444","1501","NA","NA","160993","1506","NA","NA","161098","161767","160987","161098","Flanker task","65","49425","66","yes","2560"
"98.50746268656717","98.50746268656717","746.8656716417911","746.8656716417911","black","legacy","legacy","legacy","0","incongruent","uniform","1","undefined","1","h","66","0","0","0","66","0","66","0","66","0","0","0","66","66","66","66","Sun Sep 27 18:57:50 2020","1500","The main experiment item","yes","Flankertask.osexp","C:/Users/JHS6-EAGLE/Desktop/OpenSes Files","no","mono","no","18","no","white","no","yes","1440","legacy","66","66","C:/Users/JHS6-EAGLE/Desktop/OpenSes Files/CK-subject-3.csv","legacy","Lentiform Loewenfeld","3.3.3","0","h","NA","s","NA","NA","h","615","NA","29271","NA","NA","615","2","legacy","1024","2","48000","-16","experiment","SSHSS","3","odd","161775","30778","NA","NA","96444","1501","NA","NA","162899","1506","NA","NA","163004","163620","162893","163004","Flanker task","66","50040","67","yes","2560"
"98.52941176470588","98.52941176470588","746","746","black","legacy","legacy","legacy","0","incongruent","uniform","1","undefined","1","h","67","0","0","0","67","0","67","0","67","0","0","0","67","67","67","67","Sun Sep 27 18:57:50 2020","1500","The main experiment item","yes","Flankertask.osexp","C:/Users/JHS6-EAGLE/Desktop/OpenSes Files","no","mono","no","18","no","white","no","yes","1440","legacy","67","67","C:/Users/JHS6-EAGLE/Desktop/OpenSes Files/CK-subject-3.csv","legacy","Lentiform Loewenfeld","3.3.3","0","h","NA","s","NA","NA","h","688","NA","29271","NA","NA","688","2","legacy","1024","2","48000","-16","experiment","SSHSS","3","odd","163628","30778","NA","NA","96444","1501","NA","NA","164752","1506","NA","NA","164856","165544","164746","164856","Flanker task","67","50728","68","yes","2560"
"98.55072463768116","98.55072463768116","742.5217391304348","742.5217391304348","black","legacy","legacy","legacy","0","congruent","uniform","1","undefined","1","h","68","0","0","0","68","0","68","0","68","0","0","0","68","68","68","68","Sun Sep 27 18:57:50 2020","1500","The main experiment item","yes","Flankertask.osexp","C:/Users/JHS6-EAGLE/Desktop/OpenSes Files","no","mono","no","18","no","white","no","yes","1440","legacy","68","68","C:/Users/JHS6-EAGLE/Desktop/OpenSes Files/CK-subject-3.csv","legacy","Lentiform Loewenfeld","3.3.3","0","h","NA","s","NA","NA","h","506","NA","29271","NA","NA","506","2","legacy","1024","2","48000","-16","experiment","HHHHH","3","odd","165552","30778","NA","NA","96444","1501","NA","NA","166677","1506","NA","NA","166781","167287","166671","166781","Flanker task","68","51234","69","yes","2560"
"98.57142857142857","98.57142857142857","741.2428571428571","741.2428571428571","black","legacy","legacy","legacy","0","incongruent","uniform","1","undefined","1","h","69","0","0","0","69","0","69","0","69","0","0","0","69","69","69","69","Sun Sep 27 18:57:50 2020","1500","The main experiment item","yes","Flankertask.osexp","C:/Users/JHS6-EAGLE/Desktop/OpenSes Files","no","mono","no","18","no","white","no","yes","1440","legacy","69","69","C:/Users/JHS6-EAGLE/Desktop/OpenSes Files/CK-subject-3.csv","legacy","Lentiform Loewenfeld","3.3.3","0","h","NA","s","NA","NA","h","653","NA","29271","NA","NA","653","2","legacy","1024","2","48000","-16","experiment","SSHSS","3","odd","167295","30778","NA","NA","96444","1501","NA","NA","168418","1506","NA","NA","168522","169176","168413","168522","Flanker task","69","51887","70","yes","2560"
"98.59154929577464","98.59154929577464","739.1971830985915","739.1971830985915","black","legacy","legacy","legacy","0","congruent","uniform","1","undefined","1","h","70","0","0","0","70","0","70","0","70","0","0","0","70","70","70","70","Sun Sep 27 18:57:50 2020","1500","The main experiment item","yes","Flankertask.osexp","C:/Users/JHS6-EAGLE/Desktop/OpenSes Files","no","mono","no","18","no","white","no","yes","1440","legacy","70","70","C:/Users/JHS6-EAGLE/Desktop/OpenSes Files/CK-subject-3.csv","legacy","Lentiform Loewenfeld","3.3.3","0","h","NA","s","NA","NA","h","596","NA","29271","NA","NA","596","2","legacy","1024","2","48000","-16","experiment","HHHHH","3","odd","169183","30778","NA","NA","96444","1501","NA","NA","170307","1506","NA","NA","170423","171019","170301","170423","Flanker task","70","52483","71","yes","2560"
"98.61111111111111","98.61111111111111","736.625","736.625","black","legacy","legacy","legacy","0","conruent","uniform","1","undefined","1","s","71","0","0","0","71","0","71","0","71","0","0","0","71","71","71","71","Sun Sep 27 18:57:50 2020","1500","The main experiment item","yes","Flankertask.osexp","C:/Users/JHS6-EAGLE/Desktop/OpenSes Files","no","mono","no","18","no","white","no","yes","1440","legacy","71","71","C:/Users/JHS6-EAGLE/Desktop/OpenSes Files/CK-subject-3.csv","legacy","Lentiform Loewenfeld","3.3.3","0","s","NA","s","NA","NA","s","554","NA","29271","NA","NA","554","2","legacy","1024","2","48000","-16","experiment","SSSSS","3","odd","171027","30778","NA","NA","96444","1501","NA","NA","172152","1506","NA","NA","172256","172811","172146","172256","Flanker task","71","53037","72","yes","2560"
"98.63013698630137","98.63013698630137","734.0410958904109","734.0410958904109","black","legacy","legacy","legacy","0","incongruent","uniform","1","undefined","1","s","72","0","0","0","72","0","72","0","72","0","0","0","72","72","72","72","Sun Sep 27 18:57:50 2020","1500","The main experiment item","yes","Flankertask.osexp","C:/Users/JHS6-EAGLE/Desktop/OpenSes Files","no","mono","no","18","no","white","no","yes","1440","legacy","72","72","C:/Users/JHS6-EAGLE/Desktop/OpenSes Files/CK-subject-3.csv","legacy","Lentiform Loewenfeld","3.3.3","0","s","NA","s","NA","NA","s","548","NA","29271","NA","NA","548","2","legacy","1024","2","48000","-16","experiment","HHSHH","3","odd","172819","30778","NA","NA","96444","1501","NA","NA","173942","1506","NA","NA","174050","174599","173937","174049","Flanker task","72","53585","73","yes","2560"
"98.64864864864865","98.64864864864865","732.527027027027","732.527027027027","black","legacy","legacy","legacy","0","congruent","uniform","1","undefined","1","h","73","0","0","0","73","0","73","0","73","0","0","0","73","73","73","73","Sun Sep 27 18:57:50 2020","1500","The main experiment item","yes","Flankertask.osexp","C:/Users/JHS6-EAGLE/Desktop/OpenSes Files","no","mono","no","18","no","white","no","yes","1440","legacy","73","73","C:/Users/JHS6-EAGLE/Desktop/OpenSes Files/CK-subject-3.csv","legacy","Lentiform Loewenfeld","3.3.3","0","h","NA","s","NA","NA","h","622","NA","29271","NA","NA","622","2","legacy","1024","2","48000","-16","experiment","HHHHH","3","odd","174608","30778","NA","NA","96444","1501","NA","NA","175736","1506","NA","NA","175840","176463","175730","175840","Flanker task","73","54207","74","yes","2560"
"98.66666666666667","98.66666666666667","728.9466666666667","728.9466666666667","black","legacy","legacy","legacy","0","incongruent","uniform","1","undefined","1","h","74","0","0","0","74","0","74","0","74","0","0","0","74","74","74","74","Sun Sep 27 18:57:50 2020","1500","The main experiment item","yes","Flankertask.osexp","C:/Users/JHS6-EAGLE/Desktop/OpenSes Files","no","mono","no","18","no","white","no","yes","1440","legacy","74","74","C:/Users/JHS6-EAGLE/Desktop/OpenSes Files/CK-subject-3.csv","legacy","Lentiform Loewenfeld","3.3.3","0","h","NA","s","NA","NA","h","464","NA","29271","NA","NA","464","2","legacy","1024","2","48000","-16","experiment","SSHSS","3","odd","176471","30778","NA","NA","96444","1501","NA","NA","177594","1506","NA","NA","177698","178162","177589","177698","Flanker task","74","54671","75","yes","2560"
"98.6842105263158","98.6842105263158","726.671052631579","726.671052631579","black","legacy","legacy","legacy","0","congruent","uniform","1","undefined","1","h","75","0","0","0","75","0","75","0","75","0","0","0","75","75","75","75","Sun Sep 27 18:57:50 2020","1500","The main experiment item","yes","Flankertask.osexp","C:/Users/JHS6-EAGLE/Desktop/OpenSes Files","no","mono","no","18","no","white","no","yes","1440","legacy","75","75","C:/Users/JHS6-EAGLE/Desktop/OpenSes Files/CK-subject-3.csv","legacy","Lentiform Loewenfeld","3.3.3","0","h","NA","s","NA","NA","h","556","NA","29271","NA","NA","556","2","legacy","1024","2","48000","-16","experiment","HHHHH","3","odd","178180","30778","NA","NA","96444","1501","NA","NA","179305","1506","NA","NA","179410","179967","179299","179410","Flanker task","75","55227","76","yes","2560"
"98.7012987012987","98.7012987012987","724.4285714285714","724.4285714285714","black","legacy","legacy","legacy","0","incongruent","uniform","1","undefined","1","h","76","0","0","0","76","0","76","0","76","0","0","0","76","76","76","76","Sun Sep 27 18:57:50 2020","1500","The main experiment item","yes","Flankertask.osexp","C:/Users/JHS6-EAGLE/Desktop/OpenSes Files","no","mono","no","18","no","white","no","yes","1440","legacy","76","76","C:/Users/JHS6-EAGLE/Desktop/OpenSes Files/CK-subject-3.csv","legacy","Lentiform Loewenfeld","3.3.3","0","h","NA","s","NA","NA","h","554","NA","29271","NA","NA","554","2","legacy","1024","2","48000","-16","experiment","SSHSS","3","odd","179975","30778","NA","NA","96444","1501","NA","NA","181098","1506","NA","NA","181203","181758","181093","181203","Flanker task","76","55781","77","yes","2560"
"98.71794871794872","98.71794871794872","722.3205128205128","722.3205128205128","black","legacy","legacy","legacy","0","congruent","uniform","1","undefined","1","h","77","0","0","0","77","0","77","0","77","0","0","0","77","77","77","77","Sun Sep 27 18:57:50 2020","1500","The main experiment item","yes","Flankertask.osexp","C:/Users/JHS6-EAGLE/Desktop/OpenSes Files","no","mono","no","18","no","white","no","yes","1440","legacy","77","77","C:/Users/JHS6-EAGLE/Desktop/OpenSes Files/CK-subject-3.csv","legacy","Lentiform Loewenfeld","3.3.3","0","h","NA","s","NA","NA","h","560","NA","29271","NA","NA","560","2","legacy","1024","2","48000","-16","experiment","HHHHH","3","odd","181765","30778","NA","NA","96444","1501","NA","NA","182888","1506","NA","NA","182995","183557","182883","182995","Flanker task","77","56341","78","yes","2560"
"98.73417721518987","98.73417721518987","720.9113924050633","720.9113924050633","black","legacy","legacy","legacy","0","incongruent","uniform","1","undefined","1","h","78","0","0","0","78","0","78","0","78","0","0","0","78","78","78","78","Sun Sep 27 18:57:50 2020","1500","The main experiment item","yes","Flankertask.osexp","C:/Users/JHS6-EAGLE/Desktop/OpenSes Files","no","mono","no","18","no","white","no","yes","1440","legacy","78","78","C:/Users/JHS6-EAGLE/Desktop/OpenSes Files/CK-subject-3.csv","legacy","Lentiform Loewenfeld","3.3.3","0","h","NA","s","NA","NA","h","611","NA","29271","NA","NA","611","2","legacy","1024","2","48000","-16","experiment","SSHSS","3","odd","183565","30778","NA","NA","96444","1501","NA","NA","184690","1506","NA","NA","184798","185410","184683","184798","Flanker task","78","56952","79","yes","2560"
"98.75","98.75","721.475","721.475","black","legacy","legacy","legacy","0","congruent","uniform","1","undefined","1","h","79","0","0","0","79","0","79","0","79","0","0","0","79","79","79","79","Sun Sep 27 18:57:50 2020","1500","The main experiment item","yes","Flankertask.osexp","C:/Users/JHS6-EAGLE/Desktop/OpenSes Files","no","mono","no","18","no","white","no","yes","1440","legacy","79","79","C:/Users/JHS6-EAGLE/Desktop/OpenSes Files/CK-subject-3.csv","legacy","Lentiform Loewenfeld","3.3.3","0","h","NA","s","NA","NA","h","766","NA","29271","NA","NA","766","2","legacy","1024","2","48000","-16","experiment","HHHHH","3","odd","185418","30778","NA","NA","96444","1501","NA","NA","186542","1506","NA","NA","186646","187413","186536","186646","Flanker task","79","57718","80","yes","2560"
"98.76543209876543","98.76543209876543","722.1728395061729","722.1728395061729","black","legacy","legacy","legacy","0","conruent","uniform","1","undefined","1","s","80","0","0","0","80","0","80","0","80","0","0","0","80","80","80","80","Sun Sep 27 18:57:50 2020","600","The main experiment item","yes","Flankertask.osexp","C:/Users/JHS6-EAGLE/Desktop/OpenSes Files","no","mono","no","18","no","white","no","yes","1440","legacy","0","79","C:/Users/JHS6-EAGLE/Desktop/OpenSes Files/CK-subject-3.csv","legacy","Lentiform Loewenfeld","3.3.3","0","s","NA","s","h","NA","s","778","NA","29271","15714","NA","778","2","legacy","1024","2","48000","-16","experiment","SSSSS","3","odd","187419","30778","204156","NA","96444","1501","NA","NA","204268","1506","188441","NA","204386","205166","204263","204386","Flanker task","80","58496","81","yes","2560"
"98.78048780487805","98.78048780487805","720.2073170731708","720.2073170731708","black","legacy","legacy","legacy","0","conruent","uniform","1","undefined","1","s","81","0","0","0","81","0","81","0","81","0","0","0","81","81","81","81","Sun Sep 27 18:57:50 2020","600","The main experiment item","yes","Flankertask.osexp","C:/Users/JHS6-EAGLE/Desktop/OpenSes Files","no","mono","no","18","no","white","no","yes","1440","legacy","1","79","C:/Users/JHS6-EAGLE/Desktop/OpenSes Files/CK-subject-3.csv","legacy","Lentiform Loewenfeld","3.3.3","0","s","NA","s","h","NA","s","561","NA","29271","15714","NA","561","2","legacy","1024","2","48000","-16","experiment","SSSSS","3","odd","205685","30778","204156","NA","96444","1501","205180","NA","206814","1506","188441","NA","206921","207483","206808","206921","Flanker task","81","59057","82","yes","2560"
"98.79518072289157","98.79518072289157","719.2650602409639","719.2650602409639","black","legacy","legacy","legacy","0","incongruent","uniform","1","undefined","1","s","82","0","0","0","82","0","82","0","82","0","0","0","82","82","82","82","Sun Sep 27 18:57:50 2020","600","The main experiment item","yes","Flankertask.osexp","C:/Users/JHS6-EAGLE/Desktop/OpenSes Files","no","mono","no","18","no","white","no","yes","1440","legacy","2","79","C:/Users/JHS6-EAGLE/Desktop/OpenSes Files/CK-subject-3.csv","legacy","Lentiform Loewenfeld","3.3.3","0","s","NA","s","h","NA","s","642","NA","29271","15714","NA","642","2","legacy","1024","2","48000","-16","experiment","HHSHH","3","odd","207489","30778","204156","NA","96444","1501","205180","NA","208621","1506","188441","NA","208725","209368","208615","208725","Flanker task","82","59699","83","yes","2560"
"98.80952380952381","98.80952380952381","715.5238095238095","715.5238095238095","black","legacy","legacy","legacy","0","incongruent","uniform","1","undefined","1","s","83","0","0","0","83","0","83","0","83","0","0","0","83","83","83","83","Sun Sep 27 18:57:50 2020","600","The main experiment item","yes","Flankertask.osexp","C:/Users/JHS6-EAGLE/Desktop/OpenSes Files","no","mono","no","18","no","white","no","yes","1440","legacy","3","79","C:/Users/JHS6-EAGLE/Desktop/OpenSes Files/CK-subject-3.csv","legacy","Lentiform Loewenfeld","3.3.3","0","s","NA","s","h","NA","s","405","NA","29271","15714","NA","405","2","legacy","1024","2","48000","-16","experiment","HHSHH","3","odd","209879","30778","204156","NA","96444","1501","209375","NA","211007","1506","188441","NA","211112","211517","211001","211112","Flanker task","83","60104","84","yes","2560"
"98.82352941176471","98.82352941176471","711.6117647058824","711.6117647058824","black","legacy","legacy","legacy","0","conruent","uniform","1","undefined","1","s","84","0","0","0","84","0","84","0","84","0","0","0","84","84","84","84","Sun Sep 27 18:57:50 2020","600","The main experiment item","yes","Flankertask.osexp","C:/Users/JHS6-EAGLE/Desktop/OpenSes Files","no","mono","no","18","no","white","no","yes","1440","legacy","4","79","C:/Users/JHS6-EAGLE/Desktop/OpenSes Files/CK-subject-3.csv","legacy","Lentiform Loewenfeld","3.3.3","0","s","NA","s","h","NA","s","383","NA","29271","15714","NA","383","2","legacy","1024","2","48000","-16","experiment","SSSSS","3","odd","211525","30778","204156","NA","96444","1501","209375","NA","212663","1506","188441","NA","212769","213153","212657","212769","Flanker task","84","60487","85","yes","2560"
"98.83720930232558","98.83720930232558","707.6395348837209","707.6395348837209","black","legacy","legacy","legacy","0","incongruent","uniform","1","undefined","1","h","85","0","0","0","85","0","85","0","85","0","0","0","85","85","85","85","Sun Sep 27 18:57:50 2020","600","The main experiment item","yes","Flankertask.osexp","C:/Users/JHS6-EAGLE/Desktop/OpenSes Files","no","mono","no","18","no","white","no","yes","1440","legacy","5","79","C:/Users/JHS6-EAGLE/Desktop/OpenSes Files/CK-subject-3.csv","legacy","Lentiform Loewenfeld","3.3.3","0","h","NA","s","h","NA","h","370","NA","29271","15714","NA","370","2","legacy","1024","2","48000","-16","experiment","SSHSS","3","odd","213161","30778","204156","NA","96444","1501","209375","NA","214285","1506","188441","NA","214390","214761","214279","214390","Flanker task","85","60857","86","yes","2560"
"98.85057471264368","98.85057471264368","702.5172413793103","702.5172413793103","black","legacy","legacy","legacy","0","incongruent","uniform","1","undefined","1","h","86","0","0","0","86","0","86","0","86","0","0","0","86","86","86","86","Sun Sep 27 18:57:50 2020","600","The main experiment item","yes","Flankertask.osexp","C:/Users/JHS6-EAGLE/Desktop/OpenSes Files","no","mono","no","18","no","white","no","yes","1440","legacy","6","79","C:/Users/JHS6-EAGLE/Desktop/OpenSes Files/CK-subject-3.csv","legacy","Lentiform Loewenfeld","3.3.3","0","h","NA","s","h","NA","h","262","NA","29271","15714","NA","262","2","legacy","1024","2","48000","-16","experiment","SSHSS","3","odd","214769","30778","204156","NA","96444","1501","209375","NA","215892","1506","188441","NA","215998","216261","215886","215998","Flanker task","86","61119","87","yes","2560"
"97.72727272727273","97.72727272727273","697.0340909090909","697.0340909090909","black","legacy","legacy","legacy","0","conruent","uniform","0","undefined","0","s","87","0","0","0","87","0","87","0","87","0","0","0","87","87","87","87","Sun Sep 27 18:57:50 2020","600","The main experiment item","yes","Flankertask.osexp","C:/Users/JHS6-EAGLE/Desktop/OpenSes Files","no","mono","no","18","no","white","no","yes","1440","legacy","7","79","C:/Users/JHS6-EAGLE/Desktop/OpenSes Files/CK-subject-3.csv","legacy","Lentiform Loewenfeld","3.3.3","0","h","NA","s","h","NA","h","220","NA","29271","15714","NA","220","2","legacy","1024","2","48000","-16","experiment","SSSSS","3","odd","216269","30778","204156","NA","96444","1501","209375","NA","217392","1506","188441","NA","217496","217717","217387","217496","Flanker task","86","61339","88","yes","2560"
"97.75280898876404","97.75280898876404","694.8314606741573","694.8314606741573","black","legacy","legacy","legacy","0","conruent","uniform","1","undefined","1","s","88","0","0","0","88","0","88","0","88","0","0","0","88","88","88","88","Sun Sep 27 18:57:50 2020","600","The main experiment item","yes","Flankertask.osexp","C:/Users/JHS6-EAGLE/Desktop/OpenSes Files","no","mono","no","18","no","white","no","yes","1440","legacy","8","79","C:/Users/JHS6-EAGLE/Desktop/OpenSes Files/CK-subject-3.csv","legacy","Lentiform Loewenfeld","3.3.3","0","s","NA","s","h","NA","s","501","NA","29271","15714","NA","501","2","legacy","1024","2","48000","-16","experiment","SSSSS","3","odd","218228","30778","204156","NA","217724","1501","209375","NA","219355","1506","188441","NA","219462","219964","219349","219462","Flanker task","87","61840","89","yes","2560"
"97.77777777777777","97.77777777777777","692.9444444444445","692.9444444444445","black","legacy","legacy","legacy","0","congruent","uniform","1","undefined","1","h","89","0","0","0","89","0","89","0","89","0","0","0","89","89","89","89","Sun Sep 27 18:57:50 2020","600","The main experiment item","yes","Flankertask.osexp","C:/Users/JHS6-EAGLE/Desktop/OpenSes Files","no","mono","no","18","no","white","no","yes","1440","legacy","9","79","C:/Users/JHS6-EAGLE/Desktop/OpenSes Files/CK-subject-3.csv","legacy","Lentiform Loewenfeld","3.3.3","0","h","NA","s","h","NA","h","525","NA","29271","15714","NA","525","2","legacy","1024","2","48000","-16","experiment","HHHHH","3","odd","219972","30778","204156","NA","217724","1501","209375","NA","221096","1506","188441","NA","221200","221726","221091","221200","Flanker task","88","62365","90","yes","2560"
"97.8021978021978","97.8021978021978","690.4725274725274","690.4725274725274","black","legacy","legacy","legacy","0","congruent","uniform","1","undefined","1","h","90","0","0","0","90","0","90","0","90","0","0","0","90","90","90","90","Sun Sep 27 18:57:50 2020","600","The main experiment item","yes","Flankertask.osexp","C:/Users/JHS6-EAGLE/Desktop/OpenSes Files","no","mono","no","18","no","white","no","yes","1440","legacy","10","79","C:/Users/JHS6-EAGLE/Desktop/OpenSes Files/CK-subject-3.csv","legacy","Lentiform Loewenfeld","3.3.3","0","h","NA","s","h","NA","h","468","NA","29271","15714","NA","468","2","legacy","1024","2","48000","-16","experiment","HHHHH","3","odd","221734","30778","204156","NA","217724","1501","209375","NA","222859","1506","188441","NA","222966","223434","222853","222966","Flanker task","89","62833","91","yes","2560"
"97.82608695652173","97.82608695652173","688.5652173913044","688.5652173913044","black","legacy","legacy","legacy","0","incongruent","uniform","1","undefined","1","s","91","0","0","0","91","0","91","0","91","0","0","0","91","91","91","91","Sun Sep 27 18:57:50 2020","600","The main experiment item","yes","Flankertask.osexp","C:/Users/JHS6-EAGLE/Desktop/OpenSes Files","no","mono","no","18","no","white","no","yes","1440","legacy","11","79","C:/Users/JHS6-EAGLE/Desktop/OpenSes Files/CK-subject-3.csv","legacy","Lentiform Loewenfeld","3.3.3","0","s","NA","s","h","NA","s","515","NA","29271","15714","NA","515","2","legacy","1024","2","48000","-16","experiment","HHSHH","3","odd","223442","30778","204156","NA","217724","1501","209375","NA","224565","1506","188441","NA","224672","225188","224560","224672","Flanker task","90","63348","92","yes","2560"
"97.84946236559139","97.84946236559139","685.1827956989247","685.1827956989247","black","legacy","legacy","legacy","0","congruent","uniform","1","undefined","1","h","92","0","0","0","92","0","92","0","92","0","0","0","92","92","92","92","Sun Sep 27 18:57:50 2020","600","The main experiment item","yes","Flankertask.osexp","C:/Users/JHS6-EAGLE/Desktop/OpenSes Files","no","mono","no","18","no","white","no","yes","1440","legacy","12","79","C:/Users/JHS6-EAGLE/Desktop/OpenSes Files/CK-subject-3.csv","legacy","Lentiform Loewenfeld","3.3.3","0","h","NA","s","h","NA","h","374","NA","29271","15714","NA","374","2","legacy","1024","2","48000","-16","experiment","HHHHH","3","odd","225194","30778","204156","NA","217724","1501","209375","NA","226317","1506","188441","NA","226421","226795","226312","226421","Flanker task","91","63722","93","yes","2560"
"97.87234042553192","97.87234042553192","681.9468085106383","681.9468085106383","black","legacy","legacy","legacy","0","conruent","uniform","1","undefined","1","s","93","0","0","0","93","0","93","0","93","0","0","0","93","93","93","93","Sun Sep 27 18:57:50 2020","600","The main experiment item","yes","Flankertask.osexp","C:/Users/JHS6-EAGLE/Desktop/OpenSes Files","no","mono","no","18","no","white","no","yes","1440","legacy","13","79","C:/Users/JHS6-EAGLE/Desktop/OpenSes Files/CK-subject-3.csv","legacy","Lentiform Loewenfeld","3.3.3","0","s","NA","s","h","NA","s","381","NA","29271","15714","NA","381","2","legacy","1024","2","48000","-16","experiment","SSSSS","3","odd","226803","30778","204156","NA","217724","1501","209375","NA","227932","1506","188441","NA","228038","228420","227925","228038","Flanker task","92","64103","94","yes","2560"
"97.89473684210526","97.89473684210526","679.7684210526315","679.7684210526315","black","legacy","legacy","legacy","0","congruent","uniform","1","undefined","1","h","94","0","0","0","94","0","94","0","94","0","0","0","94","94","94","94","Sun Sep 27 18:57:50 2020","600","The main experiment item","yes","Flankertask.osexp","C:/Users/JHS6-EAGLE/Desktop/OpenSes Files","no","mono","no","18","no","white","no","yes","1440","legacy","14","79","C:/Users/JHS6-EAGLE/Desktop/OpenSes Files/CK-subject-3.csv","legacy","Lentiform Loewenfeld","3.3.3","0","h","NA","s","h","NA","h","475","NA","29271","15714","NA","475","2","legacy","1024","2","48000","-16","experiment","HHHHH","3","odd","228427","30778","204156","NA","217724","1501","209375","NA","229569","1506","188441","NA","229683","230159","229564","229683","Flanker task","93","64578","95","yes","2560"
"97.91666666666667","97.91666666666667","677.75","677.75","black","legacy","legacy","legacy","0","incongruent","uniform","1","undefined","1","h","95","0","0","0","95","0","95","0","95","0","0","0","95","95","95","95","Sun Sep 27 18:57:50 2020","600","The main experiment item","yes","Flankertask.osexp","C:/Users/JHS6-EAGLE/Desktop/OpenSes Files","no","mono","no","18","no","white","no","yes","1440","legacy","15","79","C:/Users/JHS6-EAGLE/Desktop/OpenSes Files/CK-subject-3.csv","legacy","Lentiform Loewenfeld","3.3.3","0","h","NA","s","h","NA","h","486","NA","29271","15714","NA","486","2","legacy","1024","2","48000","-16","experiment","SSHSS","3","odd","230167","30778","204156","NA","217724","1501","209375","NA","231291","1506","188441","NA","231404","231891","231285","231404","Flanker task","94","65064","96","yes","2560"
"97.9381443298969","97.9381443298969","676.4536082474227","676.4536082474227","black","legacy","legacy","legacy","0","incongruent","uniform","1","undefined","1","s","96","0","0","0","96","0","96","0","96","0","0","0","96","96","96","96","Sun Sep 27 18:57:50 2020","600","The main experiment item","yes","Flankertask.osexp","C:/Users/JHS6-EAGLE/Desktop/OpenSes Files","no","mono","no","18","no","white","no","yes","1440","legacy","16","79","C:/Users/JHS6-EAGLE/Desktop/OpenSes Files/CK-subject-3.csv","legacy","Lentiform Loewenfeld","3.3.3","0","s","NA","s","h","NA","s","552","NA","29271","15714","NA","552","2","legacy","1024","2","48000","-16","experiment","HHSHH","3","odd","231898","30778","204156","NA","217724","1501","209375","NA","233021","1506","188441","NA","233127","233680","233016","233127","Flanker task","95","65616","97","yes","2560"
"97.95918367346938","97.95918367346938","674.8571428571429","674.8571428571429","black","legacy","legacy","legacy","0","conruent","uniform","1","undefined","1","s","97","0","0","0","97","0","97","0","97","0","0","0","97","97","97","97","Sun Sep 27 18:57:50 2020","600","The main experiment item","yes","Flankertask.osexp","C:/Users/JHS6-EAGLE/Desktop/OpenSes Files","no","mono","no","18","no","white","no","yes","1440","legacy","17","79","C:/Users/JHS6-EAGLE/Desktop/OpenSes Files/CK-subject-3.csv","legacy","Lentiform Loewenfeld","3.3.3","0","s","NA","s","h","NA","s","520","NA","29271","15714","NA","520","2","legacy","1024","2","48000","-16","experiment","SSSSS","3","odd","233687","30778","204156","NA","217724","1501","209375","NA","234811","1506","188441","NA","234927","235448","234806","234927","Flanker task","96","66136","98","yes","2560"
"97.97979797979798","97.97979797979798","673.3939393939394","673.3939393939394","black","legacy","legacy","legacy","0","incongruent","uniform","1","undefined","1","h","98","0","0","0","98","0","98","0","98","0","0","0","98","98","98","98","Sun Sep 27 18:57:50 2020","600","The main experiment item","yes","Flankertask.osexp","C:/Users/JHS6-EAGLE/Desktop/OpenSes Files","no","mono","no","18","no","white","no","yes","1440","legacy","18","79","C:/Users/JHS6-EAGLE/Desktop/OpenSes Files/CK-subject-3.csv","legacy","Lentiform Loewenfeld","3.3.3","0","h","NA","s","h","NA","h","530","NA","29271","15714","NA","530","2","legacy","1024","2","48000","-16","experiment","SSHSS","3","odd","235459","30778","204156","NA","217724","1501","209375","NA","236584","1506","188441","NA","236697","237228","236577","236697","Flanker task","97","66666","99","yes","2560"
"98","98","671.59","671.59","black","legacy","legacy","legacy","0","conruent","uniform","1","undefined","1","s","99","0","0","0","99","0","99","0","99","0","0","0","99","99","99","99","Sun Sep 27 18:57:50 2020","600","The main experiment item","yes","Flankertask.osexp","C:/Users/JHS6-EAGLE/Desktop/OpenSes Files","no","mono","no","18","no","white","no","yes","1440","legacy","19","79","C:/Users/JHS6-EAGLE/Desktop/OpenSes Files/CK-subject-3.csv","legacy","Lentiform Loewenfeld","3.3.3","0","s","NA","s","h","NA","s","493","NA","29271","15714","NA","493","2","legacy","1024","2","48000","-16","experiment","SSSSS","3","odd","237237","30778","204156","NA","217724","1501","209375","NA","238359","1506","188441","NA","238476","238970","238354","238475","Flanker task","98","67159","100","yes","2560"
"98.01980198019803","98.01980198019803","670.3465346534654","670.3465346534654","black","legacy","legacy","legacy","0","congruent","uniform","1","undefined","1","h","100","0","0","0","100","0","100","0","100","0","0","0","100","100","100","100","Sun Sep 27 18:57:50 2020","600","The main experiment item","yes","Flankertask.osexp","C:/Users/JHS6-EAGLE/Desktop/OpenSes Files","no","mono","no","18","no","white","no","yes","1440","legacy","20","79","C:/Users/JHS6-EAGLE/Desktop/OpenSes Files/CK-subject-3.csv","legacy","Lentiform Loewenfeld","3.3.3","0","h","NA","s","h","NA","h","546","NA","29271","15714","NA","546","2","legacy","1024","2","48000","-16","experiment","HHHHH","3","odd","238977","30778","204156","NA","217724","1501","209375","NA","240103","1506","188441","NA","240212","240759","240097","240212","Flanker task","99","67705","101","yes","2560"
"98.03921568627452","98.03921568627452","668.5196078431372","668.5196078431372","black","legacy","legacy","legacy","0","incongruent","uniform","1","undefined","1","h","101","0","0","0","101","0","101","0","101","0","0","0","101","101","101","101","Sun Sep 27 18:57:50 2020","600","The main experiment item","yes","Flankertask.osexp","C:/Users/JHS6-EAGLE/Desktop/OpenSes Files","no","mono","no","18","no","white","no","yes","1440","legacy","21","79","C:/Users/JHS6-EAGLE/Desktop/OpenSes Files/CK-subject-3.csv","legacy","Lentiform Loewenfeld","3.3.3","0","h","NA","s","h","NA","h","484","NA","29271","15714","NA","484","2","legacy","1024","2","48000","-16","experiment","SSHSS","3","odd","240767","30778","204156","NA","217724","1501","209375","NA","241891","1506","188441","NA","241997","242482","241885","241997","Flanker task","100","68189","102","yes","2560"
"98.05825242718447","98.05825242718447","667.3592233009708","667.3592233009708","black","legacy","legacy","legacy","0","incongruent","uniform","1","undefined","1","s","102","0","0","0","102","0","102","0","102","0","0","0","102","102","102","102","Sun Sep 27 18:57:50 2020","600","The main experiment item","yes","Flankertask.osexp","C:/Users/JHS6-EAGLE/Desktop/OpenSes Files","no","mono","no","18","no","white","no","yes","1440","legacy","22","79","C:/Users/JHS6-EAGLE/Desktop/OpenSes Files/CK-subject-3.csv","legacy","Lentiform Loewenfeld","3.3.3","0","s","NA","s","h","NA","s","549","NA","29271","15714","NA","549","2","legacy","1024","2","48000","-16","experiment","HHSHH","3","odd","242490","30778","204156","NA","217724","1501","209375","NA","243613","1506","188441","NA","243731","244281","243607","243731","Flanker task","101","68738","103","yes","2560"
"98.07692307692308","98.07692307692308","666.625","666.625","black","legacy","legacy","legacy","0","incongruent","uniform","1","undefined","1","h","103","0","0","0","103","0","103","0","103","0","0","0","103","103","103","103","Sun Sep 27 18:57:50 2020","600","The main experiment item","yes","Flankertask.osexp","C:/Users/JHS6-EAGLE/Desktop/OpenSes Files","no","mono","no","18","no","white","no","yes","1440","legacy","23","79","C:/Users/JHS6-EAGLE/Desktop/OpenSes Files/CK-subject-3.csv","legacy","Lentiform Loewenfeld","3.3.3","0","h","NA","s","h","NA","h","591","NA","29271","15714","NA","591","2","legacy","1024","2","48000","-16","experiment","SSHSS","3","odd","244287","30778","204156","NA","217724","1501","209375","NA","245410","1506","188441","NA","245514","246106","245404","245514","Flanker task","102","69329","104","yes","2560"
"98.0952380952381","98.0952380952381","665.5333333333333","665.5333333333333","black","legacy","legacy","legacy","0","incongruent","uniform","1","undefined","1","s","104","0","0","0","104","0","104","0","104","0","0","0","104","104","104","104","Sun Sep 27 18:57:50 2020","600","The main experiment item","yes","Flankertask.osexp","C:/Users/JHS6-EAGLE/Desktop/OpenSes Files","no","mono","no","18","no","white","no","yes","1440","legacy","24","79","C:/Users/JHS6-EAGLE/Desktop/OpenSes Files/CK-subject-3.csv","legacy","Lentiform Loewenfeld","3.3.3","0","s","NA","s","h","NA","s","552","NA","29271","15714","NA","552","2","legacy","1024","2","48000","-16","experiment","HHSHH","3","odd","246114","30778","204156","NA","217724","1501","209375","NA","247238","1506","188441","NA","247342","247895","247233","247342","Flanker task","103","69881","105","yes","2560"
"98.11320754716981","98.11320754716981","664.7641509433962","664.7641509433962","black","legacy","legacy","legacy","0","congruent","uniform","1","undefined","1","h","105","0","0","0","105","0","105","0","105","0","0","0","105","105","105","105","Sun Sep 27 18:57:50 2020","600","The main experiment item","yes","Flankertask.osexp","C:/Users/JHS6-EAGLE/Desktop/OpenSes Files","no","mono","no","18","no","white","no","yes","1440","legacy","25","79","C:/Users/JHS6-EAGLE/Desktop/OpenSes Files/CK-subject-3.csv","legacy","Lentiform Loewenfeld","3.3.3","0","h","NA","s","h","NA","h","584","NA","29271","15714","NA","584","2","legacy","1024","2","48000","-16","experiment","HHHHH","3","odd","247903","30778","204156","NA","217724","1501","209375","NA","249031","1506","188441","NA","249149","249734","249025","249149","Flanker task","104","70465","106","yes","2560"
"98.13084112149532","98.13084112149532","665.8411214953271","665.8411214953271","black","legacy","legacy","legacy","0","incongruent","uniform","1","undefined","1","s","106","0","0","0","106","0","106","0","106","0","0","0","106","106","106","106","Sun Sep 27 18:57:50 2020","600","The main experiment item","yes","Flankertask.osexp","C:/Users/JHS6-EAGLE/Desktop/OpenSes Files","no","mono","no","18","no","white","no","yes","1440","legacy","26","79","C:/Users/JHS6-EAGLE/Desktop/OpenSes Files/CK-subject-3.csv","legacy","Lentiform Loewenfeld","3.3.3","0","s","NA","s","h","NA","s","780","NA","29271","15714","NA","780","2","legacy","1024","2","48000","-16","experiment","HHSHH","3","odd","249741","30778","204156","NA","217724","1501","209375","NA","250866","1506","188441","NA","250977","251758","250861","250976","Flanker task","105","71245","107","yes","2560"
"98.14814814814815","98.14814814814815","665.3148148148148","665.3148148148148","black","legacy","legacy","legacy","0","congruent","uniform","1","undefined","1","h","107","0","0","0","107","0","107","0","107","0","0","0","107","107","107","107","Sun Sep 27 18:57:50 2020","600","The main experiment item","yes","Flankertask.osexp","C:/Users/JHS6-EAGLE/Desktop/OpenSes Files","no","mono","no","18","no","white","no","yes","1440","legacy","27","79","C:/Users/JHS6-EAGLE/Desktop/OpenSes Files/CK-subject-3.csv","legacy","Lentiform Loewenfeld","3.3.3","0","h","NA","s","h","NA","h","609","NA","29271","15714","NA","609","2","legacy","1024","2","48000","-16","experiment","HHHHH","3","odd","252269","30778","204156","NA","217724","1501","251765","NA","253418","1506","188441","NA","253523","254134","253413","253523","Flanker task","106","71854","108","yes","2560"
"98.1651376146789","98.1651376146789","664.5412844036697","664.5412844036697","black","legacy","legacy","legacy","0","incongruent","uniform","1","undefined","1","s","108","0","0","0","108","0","108","0","108","0","0","0","108","108","108","108","Sun Sep 27 18:57:50 2020","600","The main experiment item","yes","Flankertask.osexp","C:/Users/JHS6-EAGLE/Desktop/OpenSes Files","no","mono","no","18","no","white","no","yes","1440","legacy","28","79","C:/Users/JHS6-EAGLE/Desktop/OpenSes Files/CK-subject-3.csv","legacy","Lentiform Loewenfeld","3.3.3","0","s","NA","s","h","NA","s","581","NA","29271","15714","NA","581","2","legacy","1024","2","48000","-16","experiment","HHSHH","3","odd","254645","30778","204156","NA","217724","1501","254141","NA","255769","1506","188441","NA","255874","256456","255763","255874","Flanker task","107","72435","109","yes","2560"
"98.18181818181819","98.18181818181819","664","664","black","legacy","legacy","legacy","0","congruent","uniform","1","undefined","1","h","109","0","0","0","109","0","109","0","109","0","0","0","109","109","109","109","Sun Sep 27 18:57:50 2020","600","The main experiment item","yes","Flankertask.osexp","C:/Users/JHS6-EAGLE/Desktop/OpenSes Files","no","mono","no","18","no","white","no","yes","1440","legacy","29","79","C:/Users/JHS6-EAGLE/Desktop/OpenSes Files/CK-subject-3.csv","legacy","Lentiform Loewenfeld","3.3.3","0","h","NA","s","h","NA","h","605","NA","29271","15714","NA","605","2","legacy","1024","2","48000","-16","experiment","HHHHH","3","odd","256464","30778","204156","NA","217724","1501","254141","NA","257587","1506","188441","NA","257692","258298","257582","257692","Flanker task","108","73040","110","yes","2560"
"98.1981981981982","98.1981981981982","662.6936936936937","662.6936936936937","black","legacy","legacy","legacy","0","incongruent","uniform","1","undefined","1","h","110","0","0","0","110","0","110","0","110","0","0","0","110","110","110","110","Sun Sep 27 18:57:50 2020","600","The main experiment item","yes","Flankertask.osexp","C:/Users/JHS6-EAGLE/Desktop/OpenSes Files","no","mono","no","18","no","white","no","yes","1440","legacy","30","79","C:/Users/JHS6-EAGLE/Desktop/OpenSes Files/CK-subject-3.csv","legacy","Lentiform Loewenfeld","3.3.3","0","h","NA","s","h","NA","h","519","NA","29271","15714","NA","519","2","legacy","1024","2","48000","-16","experiment","SSHSS","3","odd","258810","30778","204156","NA","217724","1501","258306","NA","259933","1506","188441","NA","260048","260568","259927","260048","Flanker task","109","73559","111","yes","2560"
"97.32142857142857","97.32142857142857","659.0982142857143","659.0982142857143","black","legacy","legacy","legacy","0","incongruent","uniform","0","undefined","0","s","111","0","0","0","111","0","111","0","111","0","0","0","111","111","111","111","Sun Sep 27 18:57:50 2020","600","The main experiment item","yes","Flankertask.osexp","C:/Users/JHS6-EAGLE/Desktop/OpenSes Files","no","mono","no","18","no","white","no","yes","1440","legacy","31","79","C:/Users/JHS6-EAGLE/Desktop/OpenSes Files/CK-subject-3.csv","legacy","Lentiform Loewenfeld","3.3.3","0","h","NA","s","h","NA","h","260","NA","29271","15714","NA","260","2","legacy","1024","2","48000","-16","experiment","HHSHH","3","odd","260576","30778","204156","NA","217724","1501","258306","NA","261701","1506","188441","NA","261806","262066","261695","261806","Flanker task","109","73819","112","yes","2560"
"96.46017699115045","96.46017699115045","656.929203539823","656.929203539823","black","legacy","legacy","legacy","0","congruent","uniform","0","undefined","0","h","112","0","0","0","112","0","112","0","112","0","0","0","112","112","112","112","Sun Sep 27 18:57:50 2020","600","The main experiment item","yes","Flankertask.osexp","C:/Users/JHS6-EAGLE/Desktop/OpenSes Files","no","mono","no","18","no","white","no","yes","1440","legacy","32","79","C:/Users/JHS6-EAGLE/Desktop/OpenSes Files/CK-subject-3.csv","legacy","Lentiform Loewenfeld","3.3.3","0","s","NA","s","h","NA","s","414","NA","29271","15714","NA","414","2","legacy","1024","2","48000","-16","experiment","HHHHH","3","odd","262580","30778","204156","NA","262074","1501","258306","NA","263703","1506","188441","NA","263807","264222","263698","263807","Flanker task","109","74233","113","yes","2560"
"96.49122807017544","96.49122807017544","655.7543859649123","655.7543859649123","black","legacy","legacy","legacy","0","incongruent","uniform","1","undefined","1","h","113","0","0","0","113","0","113","0","113","0","0","0","113","113","113","113","Sun Sep 27 18:57:50 2020","600","The main experiment item","yes","Flankertask.osexp","C:/Users/JHS6-EAGLE/Desktop/OpenSes Files","no","mono","no","18","no","white","no","yes","1440","legacy","33","79","C:/Users/JHS6-EAGLE/Desktop/OpenSes Files/CK-subject-3.csv","legacy","Lentiform Loewenfeld","3.3.3","0","h","NA","s","h","NA","h","523","NA","29271","15714","NA","523","2","legacy","1024","2","48000","-16","experiment","SSHSS","3","odd","264733","30778","204156","NA","264229","1501","258306","NA","265856","1506","188441","NA","265961","266485","265851","265960","Flanker task","110","74756","114","yes","2560"
"96.52173913043478","96.52173913043478","655.0347826086957","655.0347826086957","black","legacy","legacy","legacy","0","incongruent","uniform","1","undefined","1","s","114","0","0","0","114","0","114","0","114","0","0","0","114","114","114","114","Sun Sep 27 18:57:50 2020","600","The main experiment item","yes","Flankertask.osexp","C:/Users/JHS6-EAGLE/Desktop/OpenSes Files","no","mono","no","18","no","white","no","yes","1440","legacy","34","79","C:/Users/JHS6-EAGLE/Desktop/OpenSes Files/CK-subject-3.csv","legacy","Lentiform Loewenfeld","3.3.3","0","s","NA","s","h","NA","s","573","NA","29271","15714","NA","573","2","legacy","1024","2","48000","-16","experiment","HHSHH","3","odd","266492","30778","204156","NA","264229","1501","258306","NA","267615","1506","188441","NA","267719","268293","267609","267719","Flanker task","111","75329","115","yes","2560"
"96.55172413793103","96.55172413793103","654.0086206896551","654.0086206896551","black","legacy","legacy","legacy","0","incongruent","uniform","1","undefined","1","h","115","0","0","0","115","0","115","0","115","0","0","0","115","115","115","115","Sun Sep 27 18:57:50 2020","600","The main experiment item","yes","Flankertask.osexp","C:/Users/JHS6-EAGLE/Desktop/OpenSes Files","no","mono","no","18","no","white","no","yes","1440","legacy","35","79","C:/Users/JHS6-EAGLE/Desktop/OpenSes Files/CK-subject-3.csv","legacy","Lentiform Loewenfeld","3.3.3","0","h","NA","s","h","NA","h","536","NA","29271","15714","NA","536","2","legacy","1024","2","48000","-16","experiment","SSHSS","3","odd","268301","30778","204156","NA","264229","1501","258306","NA","269427","1506","188441","NA","269532","270069","269421","269532","Flanker task","112","75865","116","yes","2560"
"95.72649572649573","95.72649572649573","655.6837606837607","655.6837606837607","black","legacy","legacy","legacy","0","incongruent","uniform","0","undefined","0","h","116","0","0","0","116","0","116","0","116","0","0","0","116","116","116","116","Sun Sep 27 18:57:50 2020","600","The main experiment item","yes","Flankertask.osexp","C:/Users/JHS6-EAGLE/Desktop/OpenSes Files","no","mono","no","18","no","white","no","yes","1440","legacy","36","79","C:/Users/JHS6-EAGLE/Desktop/OpenSes Files/CK-subject-3.csv","legacy","Lentiform Loewenfeld","3.3.3","0","s","NA","s","h","NA","s","850","NA","29271","15714","NA","850","2","legacy","1024","2","48000","-16","experiment","SSHSS","3","odd","270077","30778","204156","NA","264229","1501","258306","NA","271207","1506","188441","NA","271311","272162","271201","271311","Flanker task","112","76715","117","yes","2560"
"95.76271186440678","95.76271186440678","653.7457627118644","653.7457627118644","black","legacy","legacy","legacy","0","congruent","uniform","1","undefined","1","h","117","0","0","0","117","0","117","0","117","0","0","0","117","117","117","117","Sun Sep 27 18:57:50 2020","600","The main experiment item","yes","Flankertask.osexp","C:/Users/JHS6-EAGLE/Desktop/OpenSes Files","no","mono","no","18","no","white","no","yes","1440","legacy","37","79","C:/Users/JHS6-EAGLE/Desktop/OpenSes Files/CK-subject-3.csv","legacy","Lentiform Loewenfeld","3.3.3","0","h","NA","s","h","NA","h","427","NA","29271","15714","NA","427","2","legacy","1024","2","48000","-16","experiment","HHHHH","3","odd","273176","30778","204156","NA","272169","1501","272673","NA","274301","1506","188441","NA","274409","274837","274296","274409","Flanker task","113","77142","118","yes","2560"
