acc,accuracy,average_response_time,avg_rt,background,canvas_backend,clock_backend,color_backend,compensation,condition,coordinates,correct,correct_instructions1,correct_keyboard_response,correct_response,count_Block1,count_Block2,count_Block3,count_errorFeedback,count_experiment,count_faster,count_finish,count_fixation,count_instructions1,count_instructions2,count_instructions3,count_isi,count_keyboard_response,count_logger,count_sequence,count_stimulus,datetime,deadline,description,disable_garbage_collection,experiment_file,experiment_path,font_bold,font_family,font_italic,font_size,font_underline,foreground,form_clicks,fullscreen,height,keyboard_backend,live_row,live_row_Block1,logfile,mouse_backend,opensesame_codename,opensesame_version,repeat_cycle,response,response_finish,response_instructions1,response_instructions2,response_instructions3,response_keyboard_response,response_time,response_time_finish,response_time_instructions1,response_time_instructions2,response_time_instructions3,response_time_keyboard_response,round_decimals,sampler_backend,sound_buf_size,sound_channels,sound_freq,sound_sample_size,start,stimulus,subject_nr,subject_parity,time_Block1,time_Block2,time_Block3,time_errorFeedback,time_experiment,time_faster,time_finish,time_fixation,time_instructions1,time_instructions2,time_instructions3,time_isi,time_keyboard_response,time_logger,time_sequence,time_stimulus,title,total_correct,total_response_time,total_responses,uniform_coordinates,width
100,100,884,884,black,legacy,legacy,legacy,0,congruent,uniform,1,undefined,1,h,0,0,0,0,0,0,0,0,0,0,0,0,0,0,0,0,9/15/2020 20:48,1500,The main experiment item,yes,FlankerTask.osexp,C:/Users/18177/OneDrive/Documents/School/Grad School/Fall 2020,no,mono,no,18,no,white,no,yes,768,legacy,0,0,C:/Users/18177/OneDrive/Documents/School/Grad School/Fall 2020/RW-subject-0.csv,legacy,Lentiform Loewenfeld,3.3.3,0,h,NA,s,NA,NA,h,884,NA,20415,NA,NA,884,2,legacy,1024,2,48000,-16,experiment,HHHHH,0,even,23826,NA,NA,NA,3403,NA,NA,23947,3410,NA,NA,NA,24048,24932,23945,24048,Flanker Task,1,884,1,yes,1024
100,100,892.5,892.5,black,legacy,legacy,legacy,0,incongruent,uniform,1,undefined,1,s,0,0,0,1,0,1,0,1,0,0,0,1,1,1,1,1,9/15/2020 20:48,1500,The main experiment item,yes,FlankerTask.osexp,C:/Users/18177/OneDrive/Documents/School/Grad School/Fall 2020,no,mono,no,18,no,white,no,yes,768,legacy,1,1,C:/Users/18177/OneDrive/Documents/School/Grad School/Fall 2020/RW-subject-0.csv,legacy,Lentiform Loewenfeld,3.3.3,0,s,NA,s,NA,NA,s,901,NA,20415,NA,NA,901,2,legacy,1024,2,48000,-16,experiment,HHSHH,0,even,23826,NA,NA,NA,3403,NA,NA,25998,3410,NA,NA,24948,26101,27002,25996,26101,Flanker Task,2,1785,2,yes,1024
100,100,810,810,black,legacy,legacy,legacy,0,incongruent,uniform,1,undefined,1,h,0,0,0,2,0,2,0,2,0,0,0,2,2,2,2,2,9/15/2020 20:48,1500,The main experiment item,yes,FlankerTask.osexp,C:/Users/18177/OneDrive/Documents/School/Grad School/Fall 2020,no,mono,no,18,no,white,no,yes,768,legacy,2,2,C:/Users/18177/OneDrive/Documents/School/Grad School/Fall 2020/RW-subject-0.csv,legacy,Lentiform Loewenfeld,3.3.3,0,h,NA,s,NA,NA,h,645,NA,20415,NA,NA,645,2,legacy,1024,2,48000,-16,experiment,SSHSS,0,even,23826,NA,NA,NA,3403,NA,NA,28074,3410,NA,NA,27015,28177,28822,28073,28177,Flanker Task,3,2430,3,yes,1024
100,100,750,750,black,legacy,legacy,legacy,0,congruent,uniform,1,undefined,1,h,0,0,0,3,0,3,0,3,0,0,0,3,3,3,3,3,9/15/2020 20:48,1500,The main experiment item,yes,FlankerTask.osexp,C:/Users/18177/OneDrive/Documents/School/Grad School/Fall 2020,no,mono,no,18,no,white,no,yes,768,legacy,3,3,C:/Users/18177/OneDrive/Documents/School/Grad School/Fall 2020/RW-subject-0.csv,legacy,Lentiform Loewenfeld,3.3.3,0,h,NA,s,NA,NA,h,570,NA,20415,NA,NA,570,2,legacy,1024,2,48000,-16,experiment,HHHHH,0,even,23826,NA,NA,NA,3403,NA,NA,29881,3410,NA,NA,28835,29983,30553,29879,29983,Flanker Task,4,3000,4,yes,1024
100,100,708.6,708.6,black,legacy,legacy,legacy,0,congruent,uniform,1,undefined,1,h,0,0,0,4,0,4,0,4,0,0,0,4,4,4,4,4,9/15/2020 20:48,1500,The main experiment item,yes,FlankerTask.osexp,C:/Users/18177/OneDrive/Documents/School/Grad School/Fall 2020,no,mono,no,18,no,white,no,yes,768,legacy,4,4,C:/Users/18177/OneDrive/Documents/School/Grad School/Fall 2020/RW-subject-0.csv,legacy,Lentiform Loewenfeld,3.3.3,0,h,NA,s,NA,NA,h,543,NA,20415,NA,NA,543,2,legacy,1024,2,48000,-16,experiment,HHHHH,0,even,23826,NA,NA,NA,3403,NA,NA,31612,3410,NA,NA,30565,31713,32257,31610,31713,Flanker Task,5,3543,5,yes,1024
100,100,689,689,black,legacy,legacy,legacy,0,incongruent,uniform,1,undefined,1,h,0,0,0,5,0,5,0,5,0,0,0,5,5,5,5,5,9/15/2020 20:48,1500,The main experiment item,yes,FlankerTask.osexp,C:/Users/18177/OneDrive/Documents/School/Grad School/Fall 2020,no,mono,no,18,no,white,no,yes,768,legacy,5,5,C:/Users/18177/OneDrive/Documents/School/Grad School/Fall 2020/RW-subject-0.csv,legacy,Lentiform Loewenfeld,3.3.3,0,h,NA,s,NA,NA,h,591,NA,20415,NA,NA,591,2,legacy,1024,2,48000,-16,experiment,SSHSS,0,even,23826,NA,NA,NA,3403,NA,NA,33316,3410,NA,NA,32269,33420,34011,33314,33420,Flanker Task,6,4134,6,yes,1024
100,100,678.8571429,678.8571429,black,legacy,legacy,legacy,0,congruent,uniform,1,undefined,1,s,0,0,0,6,0,6,0,6,0,0,0,6,6,6,6,6,9/15/2020 20:48,1500,The main experiment item,yes,FlankerTask.osexp,C:/Users/18177/OneDrive/Documents/School/Grad School/Fall 2020,no,mono,no,18,no,white,no,yes,768,legacy,6,6,C:/Users/18177/OneDrive/Documents/School/Grad School/Fall 2020/RW-subject-0.csv,legacy,Lentiform Loewenfeld,3.3.3,0,s,NA,s,NA,NA,s,618,NA,20415,NA,NA,618,2,legacy,1024,2,48000,-16,experiment,SSSSS,0,even,23826,NA,NA,NA,3403,NA,NA,35065,3410,NA,NA,34019,35167,35786,35063,35167,Flanker Task,7,4752,7,yes,1024
100,100,668.75,668.75,black,legacy,legacy,legacy,0,congruent,uniform,1,undefined,1,h,0,0,0,7,0,7,0,7,0,0,0,7,7,7,7,7,9/15/2020 20:48,1500,The main experiment item,yes,FlankerTask.osexp,C:/Users/18177/OneDrive/Documents/School/Grad School/Fall 2020,no,mono,no,18,no,white,no,yes,768,legacy,7,7,C:/Users/18177/OneDrive/Documents/School/Grad School/Fall 2020/RW-subject-0.csv,legacy,Lentiform Loewenfeld,3.3.3,0,h,NA,s,NA,NA,h,598,NA,20415,NA,NA,598,2,legacy,1024,2,48000,-16,experiment,HHHHH,0,even,23826,NA,NA,NA,3403,NA,NA,36844,3410,NA,NA,35799,36946,37545,36843,36946,Flanker Task,8,5350,8,yes,1024
100,100,650.3333333,650.3333333,black,legacy,legacy,legacy,0,incongruent,uniform,1,undefined,1,s,0,0,0,8,0,8,0,8,0,0,0,8,8,8,8,8,9/15/2020 20:48,1500,The main experiment item,yes,FlankerTask.osexp,C:/Users/18177/OneDrive/Documents/School/Grad School/Fall 2020,no,mono,no,18,no,white,no,yes,768,legacy,8,8,C:/Users/18177/OneDrive/Documents/School/Grad School/Fall 2020/RW-subject-0.csv,legacy,Lentiform Loewenfeld,3.3.3,0,s,NA,s,NA,NA,s,503,NA,20415,NA,NA,503,2,legacy,1024,2,48000,-16,experiment,HHSHH,0,even,23826,NA,NA,NA,3403,NA,NA,38603,3410,NA,NA,37557,38704,39208,38601,38704,Flanker Task,9,5853,9,yes,1024
100,100,635.7,635.7,black,legacy,legacy,legacy,0,congruent,uniform,1,undefined,1,s,0,0,0,9,0,9,0,9,0,0,0,9,9,9,9,9,9/15/2020 20:48,1500,The main experiment item,yes,FlankerTask.osexp,C:/Users/18177/OneDrive/Documents/School/Grad School/Fall 2020,no,mono,no,18,no,white,no,yes,768,legacy,9,9,C:/Users/18177/OneDrive/Documents/School/Grad School/Fall 2020/RW-subject-0.csv,legacy,Lentiform Loewenfeld,3.3.3,0,s,NA,s,NA,NA,s,504,NA,20415,NA,NA,504,2,legacy,1024,2,48000,-16,experiment,SSSSS,0,even,23826,NA,NA,NA,3403,NA,NA,40286,3410,NA,NA,39220,40389,40894,40284,40389,Flanker Task,10,6357,10,yes,1024
90.90909091,90.90909091,618.6363636,618.6363636,black,legacy,legacy,legacy,0,incongruent,uniform,0,undefined,0,h,0,0,0,10,0,10,0,10,0,0,0,10,10,10,10,10,9/15/2020 20:48,1500,The main experiment item,yes,FlankerTask.osexp,C:/Users/18177/OneDrive/Documents/School/Grad School/Fall 2020,no,mono,no,18,no,white,no,yes,768,legacy,10,10,C:/Users/18177/OneDrive/Documents/School/Grad School/Fall 2020/RW-subject-0.csv,legacy,Lentiform Loewenfeld,3.3.3,0,s,NA,s,NA,NA,s,448,NA,20415,NA,NA,448,2,legacy,1024,2,48000,-16,experiment,SSHSS,0,even,23826,NA,NA,NA,3403,NA,NA,41973,3410,NA,NA,40907,42075,42524,41971,42075,Flanker Task,10,6805,11,yes,1024
91.66666667,91.66666667,603.5,603.5,black,legacy,legacy,legacy,0,incongruent,uniform,1,undefined,1,h,0,0,0,11,0,11,0,11,0,0,0,11,11,11,11,11,9/15/2020 20:48,1500,The main experiment item,yes,FlankerTask.osexp,C:/Users/18177/OneDrive/Documents/School/Grad School/Fall 2020,no,mono,no,18,no,white,no,yes,768,legacy,11,11,C:/Users/18177/OneDrive/Documents/School/Grad School/Fall 2020/RW-subject-0.csv,legacy,Lentiform Loewenfeld,3.3.3,0,h,NA,s,NA,NA,h,437,NA,20415,NA,NA,437,2,legacy,1024,2,48000,-16,experiment,SSHSS,0,even,23826,NA,NA,42535,3403,NA,NA,44085,3410,NA,NA,43037,44189,44626,44082,44189,Flanker Task,11,7242,12,yes,1024
92.30769231,92.30769231,596.2307692,596.2307692,black,legacy,legacy,legacy,0,congruent,uniform,1,undefined,1,h,0,0,0,12,0,12,0,12,0,0,0,12,12,12,12,12,9/15/2020 20:48,1500,The main experiment item,yes,FlankerTask.osexp,C:/Users/18177/OneDrive/Documents/School/Grad School/Fall 2020,no,mono,no,18,no,white,no,yes,768,legacy,12,12,C:/Users/18177/OneDrive/Documents/School/Grad School/Fall 2020/RW-subject-0.csv,legacy,Lentiform Loewenfeld,3.3.3,0,h,NA,s,NA,NA,h,509,NA,20415,NA,NA,509,2,legacy,1024,2,48000,-16,experiment,HHHHH,0,even,23826,NA,NA,42535,3403,NA,NA,45685,3410,NA,NA,44639,45786,46296,45683,45786,Flanker Task,12,7751,13,yes,1024
92.85714286,92.85714286,593.7857143,593.7857143,black,legacy,legacy,legacy,0,incongruent,uniform,1,undefined,1,h,0,0,0,13,0,13,0,13,0,0,0,13,13,13,13,13,9/15/2020 20:48,1500,The main experiment item,yes,FlankerTask.osexp,C:/Users/18177/OneDrive/Documents/School/Grad School/Fall 2020,no,mono,no,18,no,white,no,yes,768,legacy,13,13,C:/Users/18177/OneDrive/Documents/School/Grad School/Fall 2020/RW-subject-0.csv,legacy,Lentiform Loewenfeld,3.3.3,0,h,NA,s,NA,NA,h,562,NA,20415,NA,NA,562,2,legacy,1024,2,48000,-16,experiment,SSHSS,0,even,23826,NA,NA,42535,3403,NA,NA,47354,3410,NA,NA,46309,47457,48020,47352,47457,Flanker Task,13,8313,14,yes,1024
93.33333333,93.33333333,586.4666667,586.4666667,black,legacy,legacy,legacy,0,congruent,uniform,1,undefined,1,h,0,0,0,14,0,14,0,14,0,0,0,14,14,14,14,14,9/15/2020 20:48,1500,The main experiment item,yes,FlankerTask.osexp,C:/Users/18177/OneDrive/Documents/School/Grad School/Fall 2020,no,mono,no,18,no,white,no,yes,768,legacy,14,14,C:/Users/18177/OneDrive/Documents/School/Grad School/Fall 2020/RW-subject-0.csv,legacy,Lentiform Loewenfeld,3.3.3,0,h,NA,s,NA,NA,h,484,NA,20415,NA,NA,484,2,legacy,1024,2,48000,-16,experiment,HHHHH,0,even,23826,NA,NA,42535,3403,NA,NA,49095,3410,NA,NA,48031,49199,49683,49094,49198,Flanker Task,14,8797,15,yes,1024
87.5,87.5,578.125,578.125,black,legacy,legacy,legacy,0,congruent,uniform,0,undefined,0,s,0,0,0,15,0,15,0,15,0,0,0,15,15,15,15,15,9/15/2020 20:48,1500,The main experiment item,yes,FlankerTask.osexp,C:/Users/18177/OneDrive/Documents/School/Grad School/Fall 2020,no,mono,no,18,no,white,no,yes,768,legacy,15,15,C:/Users/18177/OneDrive/Documents/School/Grad School/Fall 2020/RW-subject-0.csv,legacy,Lentiform Loewenfeld,3.3.3,0,h,NA,s,NA,NA,h,453,NA,20415,NA,NA,453,2,legacy,1024,2,48000,-16,experiment,SSSSS,0,even,23826,NA,NA,42535,3403,NA,NA,50753,3410,NA,NA,49696,50857,51310,50751,50857,Flanker Task,14,9250,16,yes,1024
88.23529412,88.23529412,580.1764706,580.1764706,black,legacy,legacy,legacy,0,incongruent,uniform,1,undefined,1,s,0,0,0,16,0,16,0,16,0,0,0,16,16,16,16,16,9/15/2020 20:48,1500,The main experiment item,yes,FlankerTask.osexp,C:/Users/18177/OneDrive/Documents/School/Grad School/Fall 2020,no,mono,no,18,no,white,no,yes,768,legacy,16,16,C:/Users/18177/OneDrive/Documents/School/Grad School/Fall 2020/RW-subject-0.csv,legacy,Lentiform Loewenfeld,3.3.3,0,s,NA,s,NA,NA,s,613,NA,20415,NA,NA,613,2,legacy,1024,2,48000,-16,experiment,HHSHH,0,even,23826,NA,NA,51323,3403,NA,NA,52870,3410,NA,NA,51824,52972,53586,52868,52971,Flanker Task,15,9863,17,yes,1024
88.88888889,88.88888889,578.8333333,578.8333333,black,legacy,legacy,legacy,0,incongruent,uniform,1,undefined,1,h,0,0,0,17,0,17,0,17,0,0,0,17,17,17,17,17,9/15/2020 20:48,1500,The main experiment item,yes,FlankerTask.osexp,C:/Users/18177/OneDrive/Documents/School/Grad School/Fall 2020,no,mono,no,18,no,white,no,yes,768,legacy,17,17,C:/Users/18177/OneDrive/Documents/School/Grad School/Fall 2020/RW-subject-0.csv,legacy,Lentiform Loewenfeld,3.3.3,0,h,NA,s,NA,NA,h,556,NA,20415,NA,NA,556,2,legacy,1024,2,48000,-16,experiment,SSHSS,0,even,23826,NA,NA,51323,3403,NA,NA,54643,3410,NA,NA,53597,54746,55302,54641,54746,Flanker Task,16,10419,18,yes,1024
89.47368421,89.47368421,575.8421053,575.8421053,black,legacy,legacy,legacy,0,congruent,uniform,1,undefined,1,s,0,0,0,18,0,18,0,18,0,0,0,18,18,18,18,18,9/15/2020 20:48,1500,The main experiment item,yes,FlankerTask.osexp,C:/Users/18177/OneDrive/Documents/School/Grad School/Fall 2020,no,mono,no,18,no,white,no,yes,768,legacy,18,18,C:/Users/18177/OneDrive/Documents/School/Grad School/Fall 2020/RW-subject-0.csv,legacy,Lentiform Loewenfeld,3.3.3,0,s,NA,s,NA,NA,s,522,NA,20415,NA,NA,522,2,legacy,1024,2,48000,-16,experiment,SSSSS,0,even,23826,NA,NA,51323,3403,NA,NA,56362,3410,NA,NA,55316,56466,56989,56360,56465,Flanker Task,17,10941,19,yes,1024
90,90,572,572,black,legacy,legacy,legacy,0,incongruent,uniform,1,undefined,1,h,0,0,0,19,0,19,0,19,0,0,0,19,19,19,19,19,9/15/2020 20:48,1500,The main experiment item,yes,FlankerTask.osexp,C:/Users/18177/OneDrive/Documents/School/Grad School/Fall 2020,no,mono,no,18,no,white,no,yes,768,legacy,19,19,C:/Users/18177/OneDrive/Documents/School/Grad School/Fall 2020/RW-subject-0.csv,legacy,Lentiform Loewenfeld,3.3.3,0,h,NA,s,NA,NA,h,499,NA,20415,NA,NA,499,2,legacy,1024,2,48000,-16,experiment,SSHSS,0,even,23826,NA,NA,51323,3403,NA,NA,58046,3410,NA,NA,57001,58149,58648,58044,58149,Flanker Task,18,11440,20,yes,1024
90.47619048,90.47619048,568.1904762,568.1904762,black,legacy,legacy,legacy,0,congruent,uniform,1,undefined,1,h,0,0,0,20,0,20,0,20,0,0,0,20,20,20,20,20,9/15/2020 20:48,1500,The main experiment item,yes,FlankerTask.osexp,C:/Users/18177/OneDrive/Documents/School/Grad School/Fall 2020,no,mono,no,18,no,white,no,yes,768,legacy,20,20,C:/Users/18177/OneDrive/Documents/School/Grad School/Fall 2020/RW-subject-0.csv,legacy,Lentiform Loewenfeld,3.3.3,0,h,NA,s,NA,NA,h,492,NA,20415,NA,NA,492,2,legacy,1024,2,48000,-16,experiment,HHHHH,0,even,23826,NA,NA,51323,3403,NA,NA,59707,3410,NA,NA,58661,59811,60303,59705,59811,Flanker Task,19,11932,21,yes,1024
90.90909091,90.90909091,564.4090909,564.4090909,black,legacy,legacy,legacy,0,incongruent,uniform,1,undefined,1,h,0,0,0,21,0,21,0,21,0,0,0,21,21,21,21,21,9/15/2020 20:48,1500,The main experiment item,yes,FlankerTask.osexp,C:/Users/18177/OneDrive/Documents/School/Grad School/Fall 2020,no,mono,no,18,no,white,no,yes,768,legacy,21,21,C:/Users/18177/OneDrive/Documents/School/Grad School/Fall 2020/RW-subject-0.csv,legacy,Lentiform Loewenfeld,3.3.3,0,h,NA,s,NA,NA,h,485,NA,20415,NA,NA,485,2,legacy,1024,2,48000,-16,experiment,SSHSS,0,even,23826,NA,NA,51323,3403,NA,NA,61384,3410,NA,NA,60316,61485,61970,61382,61485,Flanker Task,20,12417,22,yes,1024
86.95652174,86.95652174,558.2173913,558.2173913,black,legacy,legacy,legacy,0,incongruent,uniform,0,undefined,0,s,0,0,0,22,0,22,0,22,0,0,0,22,22,22,22,22,9/15/2020 20:48,1500,The main experiment item,yes,FlankerTask.osexp,C:/Users/18177/OneDrive/Documents/School/Grad School/Fall 2020,no,mono,no,18,no,white,no,yes,768,legacy,22,22,C:/Users/18177/OneDrive/Documents/School/Grad School/Fall 2020/RW-subject-0.csv,legacy,Lentiform Loewenfeld,3.3.3,0,h,NA,s,NA,NA,h,422,NA,20415,NA,NA,422,2,legacy,1024,2,48000,-16,experiment,HHSHH,0,even,23826,NA,NA,51323,3403,NA,NA,63029,3410,NA,NA,61982,63131,63553,63028,63131,Flanker Task,20,12839,23,yes,1024
87.5,87.5,559.4583333,559.4583333,black,legacy,legacy,legacy,0,congruent,uniform,1,undefined,1,h,0,0,0,23,0,23,0,23,0,0,0,23,23,23,23,23,9/15/2020 20:48,1500,The main experiment item,yes,FlankerTask.osexp,C:/Users/18177/OneDrive/Documents/School/Grad School/Fall 2020,no,mono,no,18,no,white,no,yes,768,legacy,23,23,C:/Users/18177/OneDrive/Documents/School/Grad School/Fall 2020/RW-subject-0.csv,legacy,Lentiform Loewenfeld,3.3.3,0,h,NA,s,NA,NA,h,588,NA,20415,NA,NA,588,2,legacy,1024,2,48000,-16,experiment,HHHHH,0,even,23826,NA,NA,63565,3403,NA,NA,65112,3410,NA,NA,64066,65213,65801,65109,65213,Flanker Task,21,13427,24,yes,1024
88,88,562.56,562.56,black,legacy,legacy,legacy,0,congruent,uniform,1,undefined,1,s,0,0,0,24,0,24,0,24,0,0,0,24,24,24,24,24,9/15/2020 20:48,1500,The main experiment item,yes,FlankerTask.osexp,C:/Users/18177/OneDrive/Documents/School/Grad School/Fall 2020,no,mono,no,18,no,white,no,yes,768,legacy,24,24,C:/Users/18177/OneDrive/Documents/School/Grad School/Fall 2020/RW-subject-0.csv,legacy,Lentiform Loewenfeld,3.3.3,0,s,NA,s,NA,NA,s,637,NA,20415,NA,NA,637,2,legacy,1024,2,48000,-16,experiment,SSSSS,0,even,23826,NA,NA,63565,3403,NA,NA,66859,3410,NA,NA,65814,66962,67600,66858,66962,Flanker Task,22,14064,25,yes,1024
88.46153846,88.46153846,563.6923077,563.6923077,black,legacy,legacy,legacy,0,incongruent,uniform,1,undefined,1,h,0,0,0,25,0,25,0,25,0,0,0,25,25,25,25,25,9/15/2020 20:48,1500,The main experiment item,yes,FlankerTask.osexp,C:/Users/18177/OneDrive/Documents/School/Grad School/Fall 2020,no,mono,no,18,no,white,no,yes,768,legacy,25,25,C:/Users/18177/OneDrive/Documents/School/Grad School/Fall 2020/RW-subject-0.csv,legacy,Lentiform Loewenfeld,3.3.3,0,h,NA,s,NA,NA,h,592,NA,20415,NA,NA,592,2,legacy,1024,2,48000,-16,experiment,SSHSS,0,even,23826,NA,NA,63565,3403,NA,NA,68660,3410,NA,NA,67614,68762,69355,68657,68762,Flanker Task,23,14656,26,yes,1024
88.88888889,88.88888889,559.7037037,559.7037037,black,legacy,legacy,legacy,0,incongruent,uniform,1,undefined,1,s,0,0,0,26,0,26,0,26,0,0,0,26,26,26,26,26,9/15/2020 20:48,1500,The main experiment item,yes,FlankerTask.osexp,C:/Users/18177/OneDrive/Documents/School/Grad School/Fall 2020,no,mono,no,18,no,white,no,yes,768,legacy,26,26,C:/Users/18177/OneDrive/Documents/School/Grad School/Fall 2020/RW-subject-0.csv,legacy,Lentiform Loewenfeld,3.3.3,0,s,NA,s,NA,NA,s,456,NA,20415,NA,NA,456,2,legacy,1024,2,48000,-16,experiment,HHSHH,0,even,23826,NA,NA,63565,3403,NA,NA,70413,3410,NA,NA,69367,70517,70973,70411,70517,Flanker Task,24,15112,27,yes,1024
89.28571429,89.28571429,560.5,560.5,black,legacy,legacy,legacy,0,incongruent,uniform,1,undefined,1,s,0,0,0,27,0,27,0,27,0,0,0,27,27,27,27,27,9/15/2020 20:48,1500,The main experiment item,yes,FlankerTask.osexp,C:/Users/18177/OneDrive/Documents/School/Grad School/Fall 2020,no,mono,no,18,no,white,no,yes,768,legacy,27,27,C:/Users/18177/OneDrive/Documents/School/Grad School/Fall 2020/RW-subject-0.csv,legacy,Lentiform Loewenfeld,3.3.3,0,s,NA,s,NA,NA,s,582,NA,20415,NA,NA,582,2,legacy,1024,2,48000,-16,experiment,HHSHH,0,even,23826,NA,NA,63565,3403,NA,NA,72025,3410,NA,NA,70978,72128,72710,72023,72127,Flanker Task,25,15694,28,yes,1024
89.65517241,89.65517241,556.1034483,556.1034483,black,legacy,legacy,legacy,0,congruent,uniform,1,undefined,1,h,0,0,0,28,0,28,0,28,0,0,0,28,28,28,28,28,9/15/2020 20:48,1500,The main experiment item,yes,FlankerTask.osexp,C:/Users/18177/OneDrive/Documents/School/Grad School/Fall 2020,no,mono,no,18,no,white,no,yes,768,legacy,28,28,C:/Users/18177/OneDrive/Documents/School/Grad School/Fall 2020/RW-subject-0.csv,legacy,Lentiform Loewenfeld,3.3.3,0,h,NA,s,NA,NA,h,433,NA,20415,NA,NA,433,2,legacy,1024,2,48000,-16,experiment,HHHHH,0,even,23826,NA,NA,63565,3403,NA,NA,73768,3410,NA,NA,72722,73870,74303,73766,73870,Flanker Task,26,16127,29,yes,1024
90,90,553.2,553.2,black,legacy,legacy,legacy,0,incongruent,uniform,1,undefined,1,s,0,0,0,29,0,29,0,29,0,0,0,29,29,29,29,29,9/15/2020 20:48,1500,The main experiment item,yes,FlankerTask.osexp,C:/Users/18177/OneDrive/Documents/School/Grad School/Fall 2020,no,mono,no,18,no,white,no,yes,768,legacy,29,29,C:/Users/18177/OneDrive/Documents/School/Grad School/Fall 2020/RW-subject-0.csv,legacy,Lentiform Loewenfeld,3.3.3,0,s,NA,s,NA,NA,s,469,NA,20415,NA,NA,469,2,legacy,1024,2,48000,-16,experiment,HHSHH,0,even,23826,NA,NA,63565,3403,NA,NA,75361,3410,NA,NA,74316,75465,75934,75359,75465,Flanker Task,27,16596,30,yes,1024
90.32258065,90.32258065,553.0645161,553.0645161,black,legacy,legacy,legacy,0,incongruent,uniform,1,undefined,1,h,0,0,0,30,0,30,0,30,0,0,0,30,30,30,30,30,9/15/2020 20:48,1500,The main experiment item,yes,FlankerTask.osexp,C:/Users/18177/OneDrive/Documents/School/Grad School/Fall 2020,no,mono,no,18,no,white,no,yes,768,legacy,30,30,C:/Users/18177/OneDrive/Documents/School/Grad School/Fall 2020/RW-subject-0.csv,legacy,Lentiform Loewenfeld,3.3.3,0,h,NA,s,NA,NA,h,549,NA,20415,NA,NA,549,2,legacy,1024,2,48000,-16,experiment,SSHSS,0,even,23826,NA,NA,63565,3403,NA,NA,76995,3410,NA,NA,75948,77096,77645,76992,77096,Flanker Task,28,17145,31,yes,1024
90.625,90.625,553.4375,553.4375,black,legacy,legacy,legacy,0,incongruent,uniform,1,undefined,1,h,0,0,0,31,0,31,0,31,0,0,0,31,31,31,31,31,9/15/2020 20:48,1500,The main experiment item,yes,FlankerTask.osexp,C:/Users/18177/OneDrive/Documents/School/Grad School/Fall 2020,no,mono,no,18,no,white,no,yes,768,legacy,31,31,C:/Users/18177/OneDrive/Documents/School/Grad School/Fall 2020/RW-subject-0.csv,legacy,Lentiform Loewenfeld,3.3.3,0,h,NA,s,NA,NA,h,565,NA,20415,NA,NA,565,2,legacy,1024,2,48000,-16,experiment,SSHSS,0,even,23826,NA,NA,63565,3403,NA,NA,78725,3410,NA,NA,77658,78828,79393,78723,78827,Flanker Task,29,17710,32,yes,1024
90.90909091,90.90909091,553.1818182,553.1818182,black,legacy,legacy,legacy,0,incongruent,uniform,1,undefined,1,s,0,0,0,32,0,32,0,32,0,0,0,32,32,32,32,32,9/15/2020 20:48,1500,The main experiment item,yes,FlankerTask.osexp,C:/Users/18177/OneDrive/Documents/School/Grad School/Fall 2020,no,mono,no,18,no,white,no,yes,768,legacy,32,32,C:/Users/18177/OneDrive/Documents/School/Grad School/Fall 2020/RW-subject-0.csv,legacy,Lentiform Loewenfeld,3.3.3,0,s,NA,s,NA,NA,s,545,NA,20415,NA,NA,545,2,legacy,1024,2,48000,-16,experiment,HHSHH,0,even,23826,NA,NA,63565,3403,NA,NA,80453,3410,NA,NA,79407,80554,81099,80450,80554,Flanker Task,30,18255,33,yes,1024
91.17647059,91.17647059,553.7941176,553.7941176,black,legacy,legacy,legacy,0,congruent,uniform,1,undefined,1,h,0,0,0,33,0,33,0,33,0,0,0,33,33,33,33,33,9/15/2020 20:48,1500,The main experiment item,yes,FlankerTask.osexp,C:/Users/18177/OneDrive/Documents/School/Grad School/Fall 2020,no,mono,no,18,no,white,no,yes,768,legacy,33,33,C:/Users/18177/OneDrive/Documents/School/Grad School/Fall 2020/RW-subject-0.csv,legacy,Lentiform Loewenfeld,3.3.3,0,h,NA,s,NA,NA,h,574,NA,20415,NA,NA,574,2,legacy,1024,2,48000,-16,experiment,HHHHH,0,even,23826,NA,NA,63565,3403,NA,NA,82158,3410,NA,NA,81112,82259,82833,82156,82259,Flanker Task,31,18829,34,yes,1024
91.42857143,91.42857143,562.6,562.6,black,legacy,legacy,legacy,0,incongruent,uniform,1,undefined,1,h,0,0,0,34,0,34,0,34,0,0,0,34,34,34,34,34,9/15/2020 20:48,1500,The main experiment item,yes,FlankerTask.osexp,C:/Users/18177/OneDrive/Documents/School/Grad School/Fall 2020,no,mono,no,18,no,white,no,yes,768,legacy,34,34,C:/Users/18177/OneDrive/Documents/School/Grad School/Fall 2020/RW-subject-0.csv,legacy,Lentiform Loewenfeld,3.3.3,0,h,NA,s,NA,NA,h,862,NA,20415,NA,NA,862,2,legacy,1024,2,48000,-16,experiment,SSHSS,0,even,23826,NA,NA,63565,3403,NA,NA,83918,3410,NA,NA,82850,84021,84883,83917,84021,Flanker Task,32,19691,35,yes,1024
91.66666667,91.66666667,565.8055556,565.8055556,black,legacy,legacy,legacy,0,incongruent,uniform,1,undefined,1,h,0,0,0,35,0,35,0,35,0,0,0,35,35,35,35,35,9/15/2020 20:48,1500,The main experiment item,yes,FlankerTask.osexp,C:/Users/18177/OneDrive/Documents/School/Grad School/Fall 2020,no,mono,no,18,no,white,no,yes,768,legacy,35,35,C:/Users/18177/OneDrive/Documents/School/Grad School/Fall 2020/RW-subject-0.csv,legacy,Lentiform Loewenfeld,3.3.3,0,h,NA,s,NA,NA,h,678,NA,20415,NA,NA,678,2,legacy,1024,2,48000,-16,experiment,SSHSS,0,even,23826,NA,NA,63565,3403,NA,NA,85941,3410,NA,NA,84896,86042,86721,85939,86042,Flanker Task,33,20369,36,yes,1024
89.18918919,89.18918919,563.4324324,563.4324324,black,legacy,legacy,legacy,0,incongruent,uniform,0,undefined,0,s,0,0,0,36,0,36,0,36,0,0,0,36,36,36,36,36,9/15/2020 20:48,1500,The main experiment item,yes,FlankerTask.osexp,C:/Users/18177/OneDrive/Documents/School/Grad School/Fall 2020,no,mono,no,18,no,white,no,yes,768,legacy,36,36,C:/Users/18177/OneDrive/Documents/School/Grad School/Fall 2020/RW-subject-0.csv,legacy,Lentiform Loewenfeld,3.3.3,0,h,NA,s,NA,NA,h,478,NA,20415,NA,NA,478,2,legacy,1024,2,48000,-16,experiment,HHSHH,0,even,23826,NA,NA,63565,3403,NA,NA,87780,3410,NA,NA,86733,87883,88361,87778,87883,Flanker Task,33,20847,37,yes,1024
89.47368421,89.47368421,565.4473684,565.4473684,black,legacy,legacy,legacy,0,congruent,uniform,1,undefined,1,s,0,0,0,37,0,37,0,37,0,0,0,37,37,37,37,37,9/15/2020 20:48,1500,The main experiment item,yes,FlankerTask.osexp,C:/Users/18177/OneDrive/Documents/School/Grad School/Fall 2020,no,mono,no,18,no,white,no,yes,768,legacy,37,37,C:/Users/18177/OneDrive/Documents/School/Grad School/Fall 2020/RW-subject-0.csv,legacy,Lentiform Loewenfeld,3.3.3,0,s,NA,s,NA,NA,s,640,NA,20415,NA,NA,640,2,legacy,1024,2,48000,-16,experiment,SSSSS,0,even,23826,NA,NA,88375,3403,NA,NA,89938,3410,NA,NA,88876,90039,90679,89936,90039,Flanker Task,34,21487,38,yes,1024
89.74358974,89.74358974,566.4871795,566.4871795,black,legacy,legacy,legacy,0,congruent,uniform,1,undefined,1,h,0,0,0,38,0,38,0,38,0,0,0,38,38,38,38,38,9/15/2020 20:48,1500,The main experiment item,yes,FlankerTask.osexp,C:/Users/18177/OneDrive/Documents/School/Grad School/Fall 2020,no,mono,no,18,no,white,no,yes,768,legacy,38,38,C:/Users/18177/OneDrive/Documents/School/Grad School/Fall 2020/RW-subject-0.csv,legacy,Lentiform Loewenfeld,3.3.3,0,h,NA,s,NA,NA,h,606,NA,20415,NA,NA,606,2,legacy,1024,2,48000,-16,experiment,HHHHH,0,even,23826,NA,NA,88375,3403,NA,NA,91735,3410,NA,NA,90691,91839,92446,91733,91838,Flanker Task,35,22093,39,yes,1024
90,90,567.1,567.1,black,legacy,legacy,legacy,0,congruent,uniform,1,undefined,1,s,0,0,0,39,0,39,0,39,0,0,0,39,39,39,39,39,9/15/2020 20:48,1500,The main experiment item,yes,FlankerTask.osexp,C:/Users/18177/OneDrive/Documents/School/Grad School/Fall 2020,no,mono,no,18,no,white,no,yes,768,legacy,39,39,C:/Users/18177/OneDrive/Documents/School/Grad School/Fall 2020/RW-subject-0.csv,legacy,Lentiform Loewenfeld,3.3.3,0,s,NA,s,NA,NA,s,591,NA,20415,NA,NA,591,2,legacy,1024,2,48000,-16,experiment,SSSSS,0,even,23826,NA,NA,88375,3403,NA,NA,93504,3410,NA,NA,92458,93606,94197,93503,93606,Flanker Task,36,22684,40,yes,1024
90.24390244,90.24390244,565.6341463,565.6341463,black,legacy,legacy,legacy,0,congruent,uniform,1,undefined,1,s,0,0,0,40,0,40,0,40,0,0,0,40,40,40,40,40,9/15/2020 20:48,1500,The main experiment item,yes,FlankerTask.osexp,C:/Users/18177/OneDrive/Documents/School/Grad School/Fall 2020,no,mono,no,18,no,white,no,yes,768,legacy,40,40,C:/Users/18177/OneDrive/Documents/School/Grad School/Fall 2020/RW-subject-0.csv,legacy,Lentiform Loewenfeld,3.3.3,0,s,NA,s,NA,NA,s,507,NA,20415,NA,NA,507,2,legacy,1024,2,48000,-16,experiment,SSSSS,0,even,23826,NA,NA,88375,3403,NA,NA,95256,3410,NA,NA,94210,95357,95865,95254,95357,Flanker Task,37,23191,41,yes,1024
88.0952381,88.0952381,564.2380952,564.2380952,black,legacy,legacy,legacy,0,incongruent,uniform,0,undefined,0,s,0,0,0,41,0,41,0,41,0,0,0,41,41,41,41,41,9/15/2020 20:48,1500,The main experiment item,yes,FlankerTask.osexp,C:/Users/18177/OneDrive/Documents/School/Grad School/Fall 2020,no,mono,no,18,no,white,no,yes,768,legacy,41,41,C:/Users/18177/OneDrive/Documents/School/Grad School/Fall 2020/RW-subject-0.csv,legacy,Lentiform Loewenfeld,3.3.3,0,h,NA,s,NA,NA,h,507,NA,20415,NA,NA,507,2,legacy,1024,2,48000,-16,experiment,HHSHH,0,even,23826,NA,NA,88375,3403,NA,NA,96922,3410,NA,NA,95876,97026,97533,96920,97026,Flanker Task,37,23698,42,yes,1024
88.37209302,88.37209302,565.8604651,565.8604651,black,legacy,legacy,legacy,0,incongruent,uniform,1,undefined,1,s,0,0,0,42,0,42,0,42,0,0,0,42,42,42,42,42,9/15/2020 20:48,1500,The main experiment item,yes,FlankerTask.osexp,C:/Users/18177/OneDrive/Documents/School/Grad School/Fall 2020,no,mono,no,18,no,white,no,yes,768,legacy,42,42,C:/Users/18177/OneDrive/Documents/School/Grad School/Fall 2020/RW-subject-0.csv,legacy,Lentiform Loewenfeld,3.3.3,0,s,NA,s,NA,NA,s,634,NA,20415,NA,NA,634,2,legacy,1024,2,48000,-16,experiment,HHSHH,0,even,23826,NA,NA,97545,3403,NA,NA,99114,3410,NA,NA,98046,99215,99849,99111,99215,Flanker Task,38,24332,43,yes,1024
88.63636364,88.63636364,564.9318182,564.9318182,black,legacy,legacy,legacy,0,congruent,uniform,1,undefined,1,h,0,0,0,43,0,43,0,43,0,0,0,43,43,43,43,43,9/15/2020 20:48,1500,The main experiment item,yes,FlankerTask.osexp,C:/Users/18177/OneDrive/Documents/School/Grad School/Fall 2020,no,mono,no,18,no,white,no,yes,768,legacy,43,43,C:/Users/18177/OneDrive/Documents/School/Grad School/Fall 2020/RW-subject-0.csv,legacy,Lentiform Loewenfeld,3.3.3,0,h,NA,s,NA,NA,h,525,NA,20415,NA,NA,525,2,legacy,1024,2,48000,-16,experiment,HHHHH,0,even,23826,NA,NA,97545,3403,NA,NA,100908,3410,NA,NA,99861,101009,101535,100905,101009,Flanker Task,39,24857,44,yes,1024
88.88888889,88.88888889,568.1111111,568.1111111,black,legacy,legacy,legacy,0,incongruent,uniform,1,undefined,1,h,0,0,0,44,0,44,0,44,0,0,0,44,44,44,44,44,9/15/2020 20:48,1500,The main experiment item,yes,FlankerTask.osexp,C:/Users/18177/OneDrive/Documents/School/Grad School/Fall 2020,no,mono,no,18,no,white,no,yes,768,legacy,44,44,C:/Users/18177/OneDrive/Documents/School/Grad School/Fall 2020/RW-subject-0.csv,legacy,Lentiform Loewenfeld,3.3.3,0,h,NA,s,NA,NA,h,708,NA,20415,NA,NA,708,2,legacy,1024,2,48000,-16,experiment,SSHSS,0,even,23826,NA,NA,97545,3403,NA,NA,102594,3410,NA,NA,101548,102696,103404,102592,102696,Flanker Task,40,25565,45,yes,1024
89.13043478,89.13043478,568.1304348,568.1304348,black,legacy,legacy,legacy,0,congruent,uniform,1,undefined,1,s,0,0,0,45,0,45,0,45,0,0,0,45,45,45,45,45,9/15/2020 20:48,1500,The main experiment item,yes,FlankerTask.osexp,C:/Users/18177/OneDrive/Documents/School/Grad School/Fall 2020,no,mono,no,18,no,white,no,yes,768,legacy,45,45,C:/Users/18177/OneDrive/Documents/School/Grad School/Fall 2020/RW-subject-0.csv,legacy,Lentiform Loewenfeld,3.3.3,0,s,NA,s,NA,NA,s,569,NA,20415,NA,NA,569,2,legacy,1024,2,48000,-16,experiment,SSSSS,0,even,23826,NA,NA,97545,3403,NA,NA,104462,3410,NA,NA,103416,104565,105135,104459,104565,Flanker Task,41,26134,46,yes,1024
89.36170213,89.36170213,566.4680851,566.4680851,black,legacy,legacy,legacy,0,congruent,uniform,1,undefined,1,s,0,0,0,46,0,46,0,46,0,0,0,46,46,46,46,46,9/15/2020 20:48,1500,The main experiment item,yes,FlankerTask.osexp,C:/Users/18177/OneDrive/Documents/School/Grad School/Fall 2020,no,mono,no,18,no,white,no,yes,768,legacy,46,46,C:/Users/18177/OneDrive/Documents/School/Grad School/Fall 2020/RW-subject-0.csv,legacy,Lentiform Loewenfeld,3.3.3,0,s,NA,s,NA,NA,s,490,NA,20415,NA,NA,490,2,legacy,1024,2,48000,-16,experiment,SSSSS,0,even,23826,NA,NA,97545,3403,NA,NA,106202,3410,NA,NA,105147,106306,106797,106201,106306,Flanker Task,42,26624,47,yes,1024
89.58333333,89.58333333,563.625,563.625,black,legacy,legacy,legacy,0,incongruent,uniform,1,undefined,1,s,0,0,0,47,0,47,0,47,0,0,0,47,47,47,47,47,9/15/2020 20:48,1500,The main experiment item,yes,FlankerTask.osexp,C:/Users/18177/OneDrive/Documents/School/Grad School/Fall 2020,no,mono,no,18,no,white,no,yes,768,legacy,47,47,C:/Users/18177/OneDrive/Documents/School/Grad School/Fall 2020/RW-subject-0.csv,legacy,Lentiform Loewenfeld,3.3.3,0,s,NA,s,NA,NA,s,430,NA,20415,NA,NA,430,2,legacy,1024,2,48000,-16,experiment,HHSHH,0,even,23826,NA,NA,97545,3403,NA,NA,107871,3410,NA,NA,106801,107972,108403,107869,107972,Flanker Task,43,27054,48,yes,1024
89.79591837,89.79591837,562.4489796,562.4489796,black,legacy,legacy,legacy,0,incongruent,uniform,1,undefined,1,s,0,0,0,48,0,48,0,48,0,0,0,48,48,48,48,48,9/15/2020 20:48,1500,The main experiment item,yes,FlankerTask.osexp,C:/Users/18177/OneDrive/Documents/School/Grad School/Fall 2020,no,mono,no,18,no,white,no,yes,768,legacy,48,48,C:/Users/18177/OneDrive/Documents/School/Grad School/Fall 2020/RW-subject-0.csv,legacy,Lentiform Loewenfeld,3.3.3,0,s,NA,s,NA,NA,s,506,NA,20415,NA,NA,506,2,legacy,1024,2,48000,-16,experiment,HHSHH,0,even,23826,NA,NA,97545,3403,NA,NA,109482,3410,NA,NA,108415,109584,110090,109480,109584,Flanker Task,44,27560,49,yes,1024
90,90,560.18,560.18,black,legacy,legacy,legacy,0,incongruent,uniform,1,undefined,1,s,0,0,0,49,0,49,0,49,0,0,0,49,49,49,49,49,9/15/2020 20:48,1500,The main experiment item,yes,FlankerTask.osexp,C:/Users/18177/OneDrive/Documents/School/Grad School/Fall 2020,no,mono,no,18,no,white,no,yes,768,legacy,49,49,C:/Users/18177/OneDrive/Documents/School/Grad School/Fall 2020/RW-subject-0.csv,legacy,Lentiform Loewenfeld,3.3.3,0,s,NA,s,NA,NA,s,449,NA,20415,NA,NA,449,2,legacy,1024,2,48000,-16,experiment,HHSHH,0,even,23826,NA,NA,97545,3403,NA,NA,111149,3410,NA,NA,110101,111252,111701,111147,111252,Flanker Task,45,28009,50,yes,1024
90.19607843,90.19607843,556.745098,556.745098,black,legacy,legacy,legacy,0,congruent,uniform,1,undefined,1,s,0,0,0,50,0,50,0,50,0,0,0,50,50,50,50,50,9/15/2020 20:48,1500,The main experiment item,yes,FlankerTask.osexp,C:/Users/18177/OneDrive/Documents/School/Grad School/Fall 2020,no,mono,no,18,no,white,no,yes,768,legacy,50,50,C:/Users/18177/OneDrive/Documents/School/Grad School/Fall 2020/RW-subject-0.csv,legacy,Lentiform Loewenfeld,3.3.3,0,s,NA,s,NA,NA,s,385,NA,20415,NA,NA,385,2,legacy,1024,2,48000,-16,experiment,SSSSS,0,even,23826,NA,NA,97545,3403,NA,NA,112759,3410,NA,NA,111713,112861,113247,112757,112861,Flanker Task,46,28394,51,yes,1024
90.38461538,90.38461538,553.2307692,553.2307692,black,legacy,legacy,legacy,0,congruent,uniform,1,undefined,1,s,0,0,0,51,0,51,0,51,0,0,0,51,51,51,51,51,9/15/2020 20:48,1500,The main experiment item,yes,FlankerTask.osexp,C:/Users/18177/OneDrive/Documents/School/Grad School/Fall 2020,no,mono,no,18,no,white,no,yes,768,legacy,51,51,C:/Users/18177/OneDrive/Documents/School/Grad School/Fall 2020/RW-subject-0.csv,legacy,Lentiform Loewenfeld,3.3.3,0,s,NA,s,NA,NA,s,374,NA,20415,NA,NA,374,2,legacy,1024,2,48000,-16,experiment,SSSSS,0,even,23826,NA,NA,97545,3403,NA,NA,114307,3410,NA,NA,113260,114409,114783,114305,114408,Flanker Task,47,28768,52,yes,1024
90.56603774,90.56603774,550.5283019,550.5283019,black,legacy,legacy,legacy,0,congruent,uniform,1,undefined,1,s,0,0,0,52,0,52,0,52,0,0,0,52,52,52,52,52,9/15/2020 20:48,1500,The main experiment item,yes,FlankerTask.osexp,C:/Users/18177/OneDrive/Documents/School/Grad School/Fall 2020,no,mono,no,18,no,white,no,yes,768,legacy,52,52,C:/Users/18177/OneDrive/Documents/School/Grad School/Fall 2020/RW-subject-0.csv,legacy,Lentiform Loewenfeld,3.3.3,0,s,NA,s,NA,NA,s,410,NA,20415,NA,NA,410,2,legacy,1024,2,48000,-16,experiment,SSSSS,0,even,23826,NA,NA,97545,3403,NA,NA,115841,3410,NA,NA,114795,115942,116353,115839,115942,Flanker Task,48,29178,53,yes,1024
90.74074074,90.74074074,550.7407407,550.7407407,black,legacy,legacy,legacy,0,incongruent,uniform,1,undefined,1,h,0,0,0,53,0,53,0,53,0,0,0,53,53,53,53,53,9/15/2020 20:48,1500,The main experiment item,yes,FlankerTask.osexp,C:/Users/18177/OneDrive/Documents/School/Grad School/Fall 2020,no,mono,no,18,no,white,no,yes,768,legacy,53,53,C:/Users/18177/OneDrive/Documents/School/Grad School/Fall 2020/RW-subject-0.csv,legacy,Lentiform Loewenfeld,3.3.3,0,h,NA,s,NA,NA,h,562,NA,20415,NA,NA,562,2,legacy,1024,2,48000,-16,experiment,SSHSS,0,even,23826,NA,NA,97545,3403,NA,NA,117410,3410,NA,NA,116365,117513,118075,117408,117513,Flanker Task,49,29740,54,yes,1024
90.90909091,90.90909091,547.6909091,547.6909091,black,legacy,legacy,legacy,0,congruent,uniform,1,undefined,1,s,0,0,0,54,0,54,0,54,0,0,0,54,54,54,54,54,9/15/2020 20:48,1500,The main experiment item,yes,FlankerTask.osexp,C:/Users/18177/OneDrive/Documents/School/Grad School/Fall 2020,no,mono,no,18,no,white,no,yes,768,legacy,54,54,C:/Users/18177/OneDrive/Documents/School/Grad School/Fall 2020/RW-subject-0.csv,legacy,Lentiform Loewenfeld,3.3.3,0,s,NA,s,NA,NA,s,383,NA,20415,NA,NA,383,2,legacy,1024,2,48000,-16,experiment,SSSSS,0,even,23826,NA,NA,97545,3403,NA,NA,119134,3410,NA,NA,118088,119236,119619,119132,119236,Flanker Task,50,30123,55,yes,1024
91.07142857,91.07142857,545.1428571,545.1428571,black,legacy,legacy,legacy,0,incongruent,uniform,1,undefined,1,h,0,0,0,55,0,55,0,55,0,0,0,55,55,55,55,55,9/15/2020 20:48,1500,The main experiment item,yes,FlankerTask.osexp,C:/Users/18177/OneDrive/Documents/School/Grad School/Fall 2020,no,mono,no,18,no,white,no,yes,768,legacy,55,55,C:/Users/18177/OneDrive/Documents/School/Grad School/Fall 2020/RW-subject-0.csv,legacy,Lentiform Loewenfeld,3.3.3,0,h,NA,s,NA,NA,h,405,NA,20415,NA,NA,405,2,legacy,1024,2,48000,-16,experiment,SSHSS,0,even,23826,NA,NA,97545,3403,NA,NA,120678,3410,NA,NA,119632,120782,121187,120677,120782,Flanker Task,51,30528,56,yes,1024
91.22807018,91.22807018,542.754386,542.754386,black,legacy,legacy,legacy,0,congruent,uniform,1,undefined,1,s,0,0,0,56,0,56,0,56,0,0,0,56,56,56,56,56,9/15/2020 20:48,1500,The main experiment item,yes,FlankerTask.osexp,C:/Users/18177/OneDrive/Documents/School/Grad School/Fall 2020,no,mono,no,18,no,white,no,yes,768,legacy,56,56,C:/Users/18177/OneDrive/Documents/School/Grad School/Fall 2020/RW-subject-0.csv,legacy,Lentiform Loewenfeld,3.3.3,0,s,NA,s,NA,NA,s,409,NA,20415,NA,NA,409,2,legacy,1024,2,48000,-16,experiment,SSSSS,0,even,23826,NA,NA,97545,3403,NA,NA,122246,3410,NA,NA,121200,122347,122756,122245,122347,Flanker Task,52,30937,57,yes,1024
91.37931034,91.37931034,539.7586207,539.7586207,black,legacy,legacy,legacy,0,congruent,uniform,1,undefined,1,h,0,0,0,57,0,57,0,57,0,0,0,57,57,57,57,57,9/15/2020 20:48,1500,The main experiment item,yes,FlankerTask.osexp,C:/Users/18177/OneDrive/Documents/School/Grad School/Fall 2020,no,mono,no,18,no,white,no,yes,768,legacy,57,57,C:/Users/18177/OneDrive/Documents/School/Grad School/Fall 2020/RW-subject-0.csv,legacy,Lentiform Loewenfeld,3.3.3,0,h,NA,s,NA,NA,h,369,NA,20415,NA,NA,369,2,legacy,1024,2,48000,-16,experiment,HHHHH,0,even,23826,NA,NA,97545,3403,NA,NA,123813,3410,NA,NA,122768,123914,124284,123811,123914,Flanker Task,53,31306,58,yes,1024
89.83050847,89.83050847,537.1016949,537.1016949,black,legacy,legacy,legacy,0,incongruent,uniform,0,undefined,0,s,0,0,0,58,0,58,0,58,0,0,0,58,58,58,58,58,9/15/2020 20:48,1500,The main experiment item,yes,FlankerTask.osexp,C:/Users/18177/OneDrive/Documents/School/Grad School/Fall 2020,no,mono,no,18,no,white,no,yes,768,legacy,58,58,C:/Users/18177/OneDrive/Documents/School/Grad School/Fall 2020/RW-subject-0.csv,legacy,Lentiform Loewenfeld,3.3.3,0,h,NA,s,NA,NA,h,383,NA,20415,NA,NA,383,2,legacy,1024,2,48000,-16,experiment,HHSHH,0,even,23826,NA,NA,97545,3403,NA,NA,125342,3410,NA,NA,124296,125446,125830,125340,125446,Flanker Task,53,31689,59,yes,1024
90,90,536.3166667,536.3166667,black,legacy,legacy,legacy,0,congruent,uniform,1,undefined,1,s,0,0,0,59,0,59,0,59,0,0,0,59,59,59,59,59,9/15/2020 20:48,1500,The main experiment item,yes,FlankerTask.osexp,C:/Users/18177/OneDrive/Documents/School/Grad School/Fall 2020,no,mono,no,18,no,white,no,yes,768,legacy,59,59,C:/Users/18177/OneDrive/Documents/School/Grad School/Fall 2020/RW-subject-0.csv,legacy,Lentiform Loewenfeld,3.3.3,0,s,NA,s,NA,NA,s,490,NA,20415,NA,NA,490,2,legacy,1024,2,48000,-16,experiment,SSSSS,0,even,23826,NA,NA,125842,3403,NA,NA,127388,3410,NA,NA,126343,127491,127981,127386,127491,Flanker Task,54,32179,60,yes,1024
90.16393443,90.16393443,541.147541,541.147541,black,legacy,legacy,legacy,0,congruent,uniform,1,undefined,1,h,0,0,0,60,0,60,0,60,0,0,0,60,60,60,60,60,9/15/2020 20:48,1500,The main experiment item,yes,FlankerTask.osexp,C:/Users/18177/OneDrive/Documents/School/Grad School/Fall 2020,no,mono,no,18,no,white,no,yes,768,legacy,60,60,C:/Users/18177/OneDrive/Documents/School/Grad School/Fall 2020/RW-subject-0.csv,legacy,Lentiform Loewenfeld,3.3.3,0,h,NA,s,NA,NA,h,831,NA,20415,NA,NA,831,2,legacy,1024,2,48000,-16,experiment,HHHHH,0,even,23826,NA,NA,125842,3403,NA,NA,129040,3410,NA,NA,127993,129144,129976,129038,129143,Flanker Task,55,33010,61,yes,1024
90.32258065,90.32258065,539.5483871,539.5483871,black,legacy,legacy,legacy,0,congruent,uniform,1,undefined,1,s,0,0,0,61,0,61,0,61,0,0,0,61,61,61,61,61,9/15/2020 20:48,1500,The main experiment item,yes,FlankerTask.osexp,C:/Users/18177/OneDrive/Documents/School/Grad School/Fall 2020,no,mono,no,18,no,white,no,yes,768,legacy,61,61,C:/Users/18177/OneDrive/Documents/School/Grad School/Fall 2020/RW-subject-0.csv,legacy,Lentiform Loewenfeld,3.3.3,0,s,NA,s,NA,NA,s,442,NA,20415,NA,NA,442,2,legacy,1024,2,48000,-16,experiment,SSSSS,0,even,23826,NA,NA,125842,3403,NA,NA,131026,3410,NA,NA,129980,131127,131569,131024,131127,Flanker Task,56,33452,62,yes,1024
90.47619048,90.47619048,537.6190476,537.6190476,black,legacy,legacy,legacy,0,congruent,uniform,1,undefined,1,h,0,0,0,62,0,62,0,62,0,0,0,62,62,62,62,62,9/15/2020 20:48,1500,The main experiment item,yes,FlankerTask.osexp,C:/Users/18177/OneDrive/Documents/School/Grad School/Fall 2020,no,mono,no,18,no,white,no,yes,768,legacy,62,62,C:/Users/18177/OneDrive/Documents/School/Grad School/Fall 2020/RW-subject-0.csv,legacy,Lentiform Loewenfeld,3.3.3,0,h,NA,s,NA,NA,h,418,NA,20415,NA,NA,418,2,legacy,1024,2,48000,-16,experiment,HHHHH,0,even,23826,NA,NA,125842,3403,NA,NA,132627,3410,NA,NA,131582,132729,133148,132625,132729,Flanker Task,57,33870,63,yes,1024
90.625,90.625,535.59375,535.59375,black,legacy,legacy,legacy,0,congruent,uniform,1,undefined,1,s,0,0,0,63,0,63,0,63,0,0,0,63,63,63,63,63,9/15/2020 20:48,1500,The main experiment item,yes,FlankerTask.osexp,C:/Users/18177/OneDrive/Documents/School/Grad School/Fall 2020,no,mono,no,18,no,white,no,yes,768,legacy,63,63,C:/Users/18177/OneDrive/Documents/School/Grad School/Fall 2020/RW-subject-0.csv,legacy,Lentiform Loewenfeld,3.3.3,0,s,NA,s,NA,NA,s,408,NA,20415,NA,NA,408,2,legacy,1024,2,48000,-16,experiment,SSSSS,0,even,23826,NA,NA,125842,3403,NA,NA,134226,3410,NA,NA,133159,134330,134738,134224,134330,Flanker Task,58,34278,64,yes,1024
90.76923077,90.76923077,532.6461538,532.6461538,black,legacy,legacy,legacy,0,congruent,uniform,1,undefined,1,h,0,0,0,64,0,64,0,64,0,0,0,64,64,64,64,64,9/15/2020 20:48,1500,The main experiment item,yes,FlankerTask.osexp,C:/Users/18177/OneDrive/Documents/School/Grad School/Fall 2020,no,mono,no,18,no,white,no,yes,768,legacy,64,64,C:/Users/18177/OneDrive/Documents/School/Grad School/Fall 2020/RW-subject-0.csv,legacy,Lentiform Loewenfeld,3.3.3,0,h,NA,s,NA,NA,h,344,NA,20415,NA,NA,344,2,legacy,1024,2,48000,-16,experiment,HHHHH,0,even,23826,NA,NA,125842,3403,NA,NA,135798,3410,NA,NA,134752,135900,136245,135796,135900,Flanker Task,59,34622,65,yes,1024
90.90909091,90.90909091,531.5757576,531.5757576,black,legacy,legacy,legacy,0,congruent,uniform,1,undefined,1,s,0,0,0,65,0,65,0,65,0,0,0,65,65,65,65,65,9/15/2020 20:48,1500,The main experiment item,yes,FlankerTask.osexp,C:/Users/18177/OneDrive/Documents/School/Grad School/Fall 2020,no,mono,no,18,no,white,no,yes,768,legacy,65,65,C:/Users/18177/OneDrive/Documents/School/Grad School/Fall 2020/RW-subject-0.csv,legacy,Lentiform Loewenfeld,3.3.3,0,s,NA,s,NA,NA,s,462,NA,20415,NA,NA,462,2,legacy,1024,2,48000,-16,experiment,SSSSS,0,even,23826,NA,NA,125842,3403,NA,NA,137322,3410,NA,NA,136257,137426,137888,137321,137426,Flanker Task,60,35084,66,yes,1024
89.55223881,89.55223881,529.2089552,529.2089552,black,legacy,legacy,legacy,0,incongruent,uniform,0,undefined,0,s,0,0,0,66,0,66,0,66,0,0,0,66,66,66,66,66,9/15/2020 20:48,1500,The main experiment item,yes,FlankerTask.osexp,C:/Users/18177/OneDrive/Documents/School/Grad School/Fall 2020,no,mono,no,18,no,white,no,yes,768,legacy,66,66,C:/Users/18177/OneDrive/Documents/School/Grad School/Fall 2020/RW-subject-0.csv,legacy,Lentiform Loewenfeld,3.3.3,0,h,NA,s,NA,NA,h,373,NA,20415,NA,NA,373,2,legacy,1024,2,48000,-16,experiment,HHSHH,0,even,23826,NA,NA,125842,3403,NA,NA,138957,3410,NA,NA,137900,139058,139432,138955,139058,Flanker Task,60,35457,67,yes,1024
89.70588235,89.70588235,528.0147059,528.0147059,black,legacy,legacy,legacy,0,incongruent,uniform,1,undefined,1,h,0,0,0,67,0,67,0,67,0,0,0,67,67,67,67,67,9/15/2020 20:48,1500,The main experiment item,yes,FlankerTask.osexp,C:/Users/18177/OneDrive/Documents/School/Grad School/Fall 2020,no,mono,no,18,no,white,no,yes,768,legacy,67,67,C:/Users/18177/OneDrive/Documents/School/Grad School/Fall 2020/RW-subject-0.csv,legacy,Lentiform Loewenfeld,3.3.3,0,h,NA,s,NA,NA,h,448,NA,20415,NA,NA,448,2,legacy,1024,2,48000,-16,experiment,SSHSS,0,even,23826,NA,NA,139445,3403,NA,NA,140993,3410,NA,NA,139946,141094,141543,140991,141094,Flanker Task,61,35905,68,yes,1024
89.85507246,89.85507246,527.6086957,527.6086957,black,legacy,legacy,legacy,0,incongruent,uniform,1,undefined,1,h,0,0,0,68,0,68,0,68,0,0,0,68,68,68,68,68,9/15/2020 20:48,1500,The main experiment item,yes,FlankerTask.osexp,C:/Users/18177/OneDrive/Documents/School/Grad School/Fall 2020,no,mono,no,18,no,white,no,yes,768,legacy,68,68,C:/Users/18177/OneDrive/Documents/School/Grad School/Fall 2020/RW-subject-0.csv,legacy,Lentiform Loewenfeld,3.3.3,0,h,NA,s,NA,NA,h,500,NA,20415,NA,NA,500,2,legacy,1024,2,48000,-16,experiment,SSHSS,0,even,23826,NA,NA,139445,3403,NA,NA,142602,3410,NA,NA,141556,142705,143205,142600,142705,Flanker Task,62,36405,69,yes,1024
90,90,529.8857143,529.8857143,black,legacy,legacy,legacy,0,incongruent,uniform,1,undefined,1,h,0,0,0,69,0,69,0,69,0,0,0,69,69,69,69,69,9/15/2020 20:48,1500,The main experiment item,yes,FlankerTask.osexp,C:/Users/18177/OneDrive/Documents/School/Grad School/Fall 2020,no,mono,no,18,no,white,no,yes,768,legacy,69,69,C:/Users/18177/OneDrive/Documents/School/Grad School/Fall 2020/RW-subject-0.csv,legacy,Lentiform Loewenfeld,3.3.3,0,h,NA,s,NA,NA,h,687,NA,20415,NA,NA,687,2,legacy,1024,2,48000,-16,experiment,SSHSS,0,even,23826,NA,NA,139445,3403,NA,NA,144263,3410,NA,NA,143217,144368,145055,144261,144367,Flanker Task,63,37092,70,yes,1024
88.73239437,88.73239437,531.5211268,531.5211268,black,legacy,legacy,legacy,0,congruent,uniform,0,undefined,0,h,0,0,0,70,0,70,0,70,0,0,0,70,70,70,70,70,9/15/2020 20:48,1500,The main experiment item,yes,FlankerTask.osexp,C:/Users/18177/OneDrive/Documents/School/Grad School/Fall 2020,no,mono,no,18,no,white,no,yes,768,legacy,70,70,C:/Users/18177/OneDrive/Documents/School/Grad School/Fall 2020/RW-subject-0.csv,legacy,Lentiform Loewenfeld,3.3.3,0,s,NA,s,NA,NA,s,646,NA,20415,NA,NA,646,2,legacy,1024,2,48000,-16,experiment,HHHHH,0,even,23826,NA,NA,139445,3403,NA,NA,146114,3410,NA,NA,145068,146215,146862,146112,146215,Flanker Task,63,37738,71,yes,1024
88.88888889,88.88888889,532.4166667,532.4166667,black,legacy,legacy,legacy,0,incongruent,uniform,1,undefined,1,h,0,0,0,71,0,71,0,71,0,0,0,71,71,71,71,71,9/15/2020 20:48,1500,The main experiment item,yes,FlankerTask.osexp,C:/Users/18177/OneDrive/Documents/School/Grad School/Fall 2020,no,mono,no,18,no,white,no,yes,768,legacy,71,71,C:/Users/18177/OneDrive/Documents/School/Grad School/Fall 2020/RW-subject-0.csv,legacy,Lentiform Loewenfeld,3.3.3,0,h,NA,s,NA,NA,h,596,NA,20415,NA,NA,596,2,legacy,1024,2,48000,-16,experiment,SSHSS,0,even,23826,NA,NA,146874,3403,NA,NA,148421,3410,NA,NA,147375,148523,149120,148419,148522,Flanker Task,64,38334,72,yes,1024
89.04109589,89.04109589,532.3835616,532.3835616,black,legacy,legacy,legacy,0,incongruent,uniform,1,undefined,1,s,0,0,0,72,0,72,0,72,0,0,0,72,72,72,72,72,9/15/2020 20:48,1500,The main experiment item,yes,FlankerTask.osexp,C:/Users/18177/OneDrive/Documents/School/Grad School/Fall 2020,no,mono,no,18,no,white,no,yes,768,legacy,72,72,C:/Users/18177/OneDrive/Documents/School/Grad School/Fall 2020/RW-subject-0.csv,legacy,Lentiform Loewenfeld,3.3.3,0,s,NA,s,NA,NA,s,530,NA,20415,NA,NA,530,2,legacy,1024,2,48000,-16,experiment,HHSHH,0,even,23826,NA,NA,146874,3403,NA,NA,150182,3410,NA,NA,149136,150286,150816,150180,150286,Flanker Task,65,38864,73,yes,1024
89.18918919,89.18918919,534.472973,534.472973,black,legacy,legacy,legacy,0,incongruent,uniform,1,undefined,1,s,0,0,0,73,0,73,0,73,0,0,0,73,73,73,73,73,9/15/2020 20:48,1500,The main experiment item,yes,FlankerTask.osexp,C:/Users/18177/OneDrive/Documents/School/Grad School/Fall 2020,no,mono,no,18,no,white,no,yes,768,legacy,73,73,C:/Users/18177/OneDrive/Documents/School/Grad School/Fall 2020/RW-subject-0.csv,legacy,Lentiform Loewenfeld,3.3.3,0,s,NA,s,NA,NA,s,687,NA,20415,NA,NA,687,2,legacy,1024,2,48000,-16,experiment,HHSHH,0,even,23826,NA,NA,146874,3403,NA,NA,151875,3410,NA,NA,150829,151976,152663,151873,151976,Flanker Task,66,39551,74,yes,1024
89.33333333,89.33333333,534,534,black,legacy,legacy,legacy,0,incongruent,uniform,1,undefined,1,s,0,0,0,74,0,74,0,74,0,0,0,74,74,74,74,74,9/15/2020 20:48,1500,The main experiment item,yes,FlankerTask.osexp,C:/Users/18177/OneDrive/Documents/School/Grad School/Fall 2020,no,mono,no,18,no,white,no,yes,768,legacy,74,74,C:/Users/18177/OneDrive/Documents/School/Grad School/Fall 2020/RW-subject-0.csv,legacy,Lentiform Loewenfeld,3.3.3,0,s,NA,s,NA,NA,s,499,NA,20415,NA,NA,499,2,legacy,1024,2,48000,-16,experiment,HHSHH,0,even,23826,NA,NA,146874,3403,NA,NA,153722,3410,NA,NA,152675,153823,154323,153719,153823,Flanker Task,67,40050,75,yes,1024
89.47368421,89.47368421,532.8026316,532.8026316,black,legacy,legacy,legacy,0,congruent,uniform,1,undefined,1,h,0,0,0,75,0,75,0,75,0,0,0,75,75,75,75,75,9/15/2020 20:48,1500,The main experiment item,yes,FlankerTask.osexp,C:/Users/18177/OneDrive/Documents/School/Grad School/Fall 2020,no,mono,no,18,no,white,no,yes,768,legacy,75,75,C:/Users/18177/OneDrive/Documents/School/Grad School/Fall 2020/RW-subject-0.csv,legacy,Lentiform Loewenfeld,3.3.3,0,h,NA,s,NA,NA,h,443,NA,20415,NA,NA,443,2,legacy,1024,2,48000,-16,experiment,HHHHH,0,even,23826,NA,NA,146874,3403,NA,NA,155382,3410,NA,NA,154335,155483,155926,155379,155483,Flanker Task,68,40493,76,yes,1024
89.61038961,89.61038961,531.3246753,531.3246753,black,legacy,legacy,legacy,0,congruent,uniform,1,undefined,1,h,0,0,0,76,0,76,0,76,0,0,0,76,76,76,76,76,9/15/2020 20:48,1500,The main experiment item,yes,FlankerTask.osexp,C:/Users/18177/OneDrive/Documents/School/Grad School/Fall 2020,no,mono,no,18,no,white,no,yes,768,legacy,76,76,C:/Users/18177/OneDrive/Documents/School/Grad School/Fall 2020/RW-subject-0.csv,legacy,Lentiform Loewenfeld,3.3.3,0,h,NA,s,NA,NA,h,419,NA,20415,NA,NA,419,2,legacy,1024,2,48000,-16,experiment,HHHHH,0,even,23826,NA,NA,146874,3403,NA,NA,156986,3410,NA,NA,155939,157087,157507,156983,157087,Flanker Task,69,40912,77,yes,1024
89.74358974,89.74358974,529.9615385,529.9615385,black,legacy,legacy,legacy,0,congruent,uniform,1,undefined,1,h,0,0,0,77,0,77,0,77,0,0,0,77,77,77,77,77,9/15/2020 20:48,1500,The main experiment item,yes,FlankerTask.osexp,C:/Users/18177/OneDrive/Documents/School/Grad School/Fall 2020,no,mono,no,18,no,white,no,yes,768,legacy,77,77,C:/Users/18177/OneDrive/Documents/School/Grad School/Fall 2020/RW-subject-0.csv,legacy,Lentiform Loewenfeld,3.3.3,0,h,NA,s,NA,NA,h,425,NA,20415,NA,NA,425,2,legacy,1024,2,48000,-16,experiment,HHHHH,0,even,23826,NA,NA,146874,3403,NA,NA,158563,3410,NA,NA,157519,158666,159092,158561,158666,Flanker Task,70,41337,78,yes,1024
89.87341772,89.87341772,531.1518987,531.1518987,black,legacy,legacy,legacy,0,congruent,uniform,1,undefined,1,s,0,0,0,78,0,78,0,78,0,0,0,78,78,78,78,78,9/15/2020 20:48,1500,The main experiment item,yes,FlankerTask.osexp,C:/Users/18177/OneDrive/Documents/School/Grad School/Fall 2020,no,mono,no,18,no,white,no,yes,768,legacy,78,78,C:/Users/18177/OneDrive/Documents/School/Grad School/Fall 2020/RW-subject-0.csv,legacy,Lentiform Loewenfeld,3.3.3,0,s,NA,s,NA,NA,s,624,NA,20415,NA,NA,624,2,legacy,1024,2,48000,-16,experiment,SSSSS,0,even,23826,NA,NA,146874,3403,NA,NA,160150,3410,NA,NA,159104,160252,160876,160148,160252,Flanker Task,71,41961,79,yes,1024
90,90,538.2375,538.2375,black,legacy,legacy,legacy,0,incongruent,uniform,1,undefined,1,s,0,0,0,79,0,79,0,79,0,0,0,79,79,79,79,79,9/15/2020 20:48,1500,The main experiment item,yes,FlankerTask.osexp,C:/Users/18177/OneDrive/Documents/School/Grad School/Fall 2020,no,mono,no,18,no,white,no,yes,768,legacy,79,79,C:/Users/18177/OneDrive/Documents/School/Grad School/Fall 2020/RW-subject-0.csv,legacy,Lentiform Loewenfeld,3.3.3,0,s,NA,s,NA,NA,s,1098,NA,20415,NA,NA,1098,2,legacy,1024,2,48000,-16,experiment,HHSHH,0,even,23826,NA,NA,146874,3403,NA,NA,161935,3410,NA,NA,160889,162038,163137,161933,162037,Flanker Task,72,43059,80,yes,1024
90.12345679,90.12345679,539.9506173,539.9506173,black,legacy,legacy,legacy,0,congruent,uniform,1,undefined,1,h,0,0,0,80,0,80,0,80,0,0,0,80,80,80,80,80,9/15/2020 20:48,600,The main experiment item,yes,FlankerTask.osexp,C:/Users/18177/OneDrive/Documents/School/Grad School/Fall 2020,no,mono,no,18,no,white,no,yes,768,legacy,0,79,C:/Users/18177/OneDrive/Documents/School/Grad School/Fall 2020/RW-subject-0.csv,legacy,Lentiform Loewenfeld,3.3.3,0,h,NA,s,s,NA,h,677,NA,20415,13638,NA,677,2,legacy,1024,2,48000,-16,experiment,HHHHH,0,even,23826,177797,NA,146874,3403,NA,NA,177846,3410,164158,NA,163149,177949,178627,177845,177948,Flanker Task,73,43736,81,yes,1024
90.24390244,90.24390244,538.8292683,538.8292683,black,legacy,legacy,legacy,0,incongruent,uniform,1,undefined,1,h,0,0,0,81,0,81,0,81,0,0,0,81,81,81,81,81,9/15/2020 20:48,600,The main experiment item,yes,FlankerTask.osexp,C:/Users/18177/OneDrive/Documents/School/Grad School/Fall 2020,no,mono,no,18,no,white,no,yes,768,legacy,1,79,C:/Users/18177/OneDrive/Documents/School/Grad School/Fall 2020/RW-subject-0.csv,legacy,Lentiform Loewenfeld,3.3.3,0,h,NA,s,s,NA,h,448,NA,20415,13638,NA,448,2,legacy,1024,2,48000,-16,experiment,SSHSS,0,even,23826,177797,NA,146874,3403,178635,NA,180182,3410,164158,NA,179136,180284,180732,180180,180284,Flanker Task,74,44184,82,yes,1024
90.36144578,90.36144578,537.4939759,537.4939759,black,legacy,legacy,legacy,0,incongruent,uniform,1,undefined,1,h,0,0,0,82,0,82,0,82,0,0,0,82,82,82,82,82,9/15/2020 20:48,600,The main experiment item,yes,FlankerTask.osexp,C:/Users/18177/OneDrive/Documents/School/Grad School/Fall 2020,no,mono,no,18,no,white,no,yes,768,legacy,2,79,C:/Users/18177/OneDrive/Documents/School/Grad School/Fall 2020/RW-subject-0.csv,legacy,Lentiform Loewenfeld,3.3.3,0,h,NA,s,s,NA,h,428,NA,20415,13638,NA,428,2,legacy,1024,2,48000,-16,experiment,SSHSS,0,even,23826,177797,NA,146874,3403,178635,NA,181809,3410,164158,NA,180745,181912,182341,181807,181912,Flanker Task,75,44612,83,yes,1024
90.47619048,90.47619048,535,535,black,legacy,legacy,legacy,0,congruent,uniform,1,undefined,1,h,0,0,0,83,0,83,0,83,0,0,0,83,83,83,83,83,9/15/2020 20:48,600,The main experiment item,yes,FlankerTask.osexp,C:/Users/18177/OneDrive/Documents/School/Grad School/Fall 2020,no,mono,no,18,no,white,no,yes,768,legacy,3,79,C:/Users/18177/OneDrive/Documents/School/Grad School/Fall 2020/RW-subject-0.csv,legacy,Lentiform Loewenfeld,3.3.3,0,h,NA,s,s,NA,h,328,NA,20415,13638,NA,328,2,legacy,1024,2,48000,-16,experiment,HHHHH,0,even,23826,177797,NA,146874,3403,178635,NA,183400,3410,164158,NA,182353,183503,183832,183399,183503,Flanker Task,76,44940,84,yes,1024
89.41176471,89.41176471,532.9176471,532.9176471,black,legacy,legacy,legacy,0,incongruent,uniform,0,undefined,0,s,0,0,0,84,0,84,0,84,0,0,0,84,84,84,84,84,9/15/2020 20:48,600,The main experiment item,yes,FlankerTask.osexp,C:/Users/18177/OneDrive/Documents/School/Grad School/Fall 2020,no,mono,no,18,no,white,no,yes,768,legacy,4,79,C:/Users/18177/OneDrive/Documents/School/Grad School/Fall 2020/RW-subject-0.csv,legacy,Lentiform Loewenfeld,3.3.3,0,h,NA,s,s,NA,h,358,NA,20415,13638,NA,358,2,legacy,1024,2,48000,-16,experiment,HHSHH,0,even,23826,177797,NA,146874,3403,178635,NA,184889,3410,164158,NA,183844,184990,185349,184887,184990,Flanker Task,76,45298,85,yes,1024
89.53488372,89.53488372,531.244186,531.244186,black,legacy,legacy,legacy,0,congruent,uniform,1,undefined,1,s,0,0,0,85,0,85,0,85,0,0,0,85,85,85,85,85,9/15/2020 20:48,600,The main experiment item,yes,FlankerTask.osexp,C:/Users/18177/OneDrive/Documents/School/Grad School/Fall 2020,no,mono,no,18,no,white,no,yes,768,legacy,5,79,C:/Users/18177/OneDrive/Documents/School/Grad School/Fall 2020/RW-subject-0.csv,legacy,Lentiform Loewenfeld,3.3.3,0,s,NA,s,s,NA,s,389,NA,20415,13638,NA,389,2,legacy,1024,2,48000,-16,experiment,SSSSS,0,even,23826,177797,NA,185362,3403,178635,NA,186909,3410,164158,NA,185863,187013,187403,186907,187012,Flanker Task,77,45687,86,yes,1024
89.65517241,89.65517241,530.1034483,530.1034483,black,legacy,legacy,legacy,0,congruent,uniform,1,undefined,1,h,0,0,0,86,0,86,0,86,0,0,0,86,86,86,86,86,9/15/2020 20:48,600,The main experiment item,yes,FlankerTask.osexp,C:/Users/18177/OneDrive/Documents/School/Grad School/Fall 2020,no,mono,no,18,no,white,no,yes,768,legacy,6,79,C:/Users/18177/OneDrive/Documents/School/Grad School/Fall 2020/RW-subject-0.csv,legacy,Lentiform Loewenfeld,3.3.3,0,h,NA,s,s,NA,h,432,NA,20415,13638,NA,432,2,legacy,1024,2,48000,-16,experiment,HHHHH,0,even,23826,177797,NA,185362,3403,178635,NA,188461,3410,164158,NA,187415,188565,188997,188459,188564,Flanker Task,78,46119,87,yes,1024
89.77272727,89.77272727,528.75,528.75,black,legacy,legacy,legacy,0,congruent,uniform,1,undefined,1,h,0,0,0,87,0,87,0,87,0,0,0,87,87,87,87,87,9/15/2020 20:48,600,The main experiment item,yes,FlankerTask.osexp,C:/Users/18177/OneDrive/Documents/School/Grad School/Fall 2020,no,mono,no,18,no,white,no,yes,768,legacy,7,79,C:/Users/18177/OneDrive/Documents/School/Grad School/Fall 2020/RW-subject-0.csv,legacy,Lentiform Loewenfeld,3.3.3,0,h,NA,s,s,NA,h,411,NA,20415,13638,NA,411,2,legacy,1024,2,48000,-16,experiment,HHHHH,0,even,23826,177797,NA,185362,3403,178635,NA,190059,3410,164158,NA,189011,190161,190572,190057,190160,Flanker Task,79,46530,88,yes,1024
89.88764045,89.88764045,527.8988764,527.8988764,black,legacy,legacy,legacy,0,congruent,uniform,1,undefined,1,s,0,0,0,88,0,88,0,88,0,0,0,88,88,88,88,88,9/15/2020 20:48,600,The main experiment item,yes,FlankerTask.osexp,C:/Users/18177/OneDrive/Documents/School/Grad School/Fall 2020,no,mono,no,18,no,white,no,yes,768,legacy,8,79,C:/Users/18177/OneDrive/Documents/School/Grad School/Fall 2020/RW-subject-0.csv,legacy,Lentiform Loewenfeld,3.3.3,0,s,NA,s,s,NA,s,453,NA,20415,13638,NA,453,2,legacy,1024,2,48000,-16,experiment,SSSSS,0,even,23826,177797,NA,185362,3403,178635,NA,191631,3410,164158,NA,190584,191735,192189,191628,191734,Flanker Task,80,46983,89,yes,1024
88.88888889,88.88888889,526.2111111,526.2111111,black,legacy,legacy,legacy,0,incongruent,uniform,0,undefined,0,s,0,0,0,89,0,89,0,89,0,0,0,89,89,89,89,89,9/15/2020 20:48,600,The main experiment item,yes,FlankerTask.osexp,C:/Users/18177/OneDrive/Documents/School/Grad School/Fall 2020,no,mono,no,18,no,white,no,yes,768,legacy,9,79,C:/Users/18177/OneDrive/Documents/School/Grad School/Fall 2020/RW-subject-0.csv,legacy,Lentiform Loewenfeld,3.3.3,0,h,NA,s,s,NA,h,376,NA,20415,13638,NA,376,2,legacy,1024,2,48000,-16,experiment,HHSHH,0,even,23826,177797,NA,185362,3403,178635,NA,193246,3410,164158,NA,192201,193349,193726,193244,193349,Flanker Task,80,47359,90,yes,1024
89.01098901,89.01098901,526.6043956,526.6043956,black,legacy,legacy,legacy,0,incongruent,uniform,1,undefined,1,s,0,0,0,90,0,90,0,90,0,0,0,90,90,90,90,90,9/15/2020 20:48,600,The main experiment item,yes,FlankerTask.osexp,C:/Users/18177/OneDrive/Documents/School/Grad School/Fall 2020,no,mono,no,18,no,white,no,yes,768,legacy,10,79,C:/Users/18177/OneDrive/Documents/School/Grad School/Fall 2020/RW-subject-0.csv,legacy,Lentiform Loewenfeld,3.3.3,0,s,NA,s,s,NA,s,562,NA,20415,13638,NA,562,2,legacy,1024,2,48000,-16,experiment,HHSHH,0,even,23826,177797,NA,193737,3403,178635,NA,195286,3410,164158,NA,194241,195390,195953,195284,195390,Flanker Task,81,47921,91,yes,1024
89.13043478,89.13043478,526.6847826,526.6847826,black,legacy,legacy,legacy,0,incongruent,uniform,1,undefined,1,h,0,0,0,91,0,91,0,91,0,0,0,91,91,91,91,91,9/15/2020 20:48,600,The main experiment item,yes,FlankerTask.osexp,C:/Users/18177/OneDrive/Documents/School/Grad School/Fall 2020,no,mono,no,18,no,white,no,yes,768,legacy,11,79,C:/Users/18177/OneDrive/Documents/School/Grad School/Fall 2020/RW-subject-0.csv,legacy,Lentiform Loewenfeld,3.3.3,0,h,NA,s,s,NA,h,534,NA,20415,13638,NA,534,2,legacy,1024,2,48000,-16,experiment,SSHSS,0,even,23826,177797,NA,193737,3403,178635,NA,197011,3410,164158,NA,195965,197113,197648,197010,197113,Flanker Task,82,48455,92,yes,1024
89.24731183,89.24731183,525.7634409,525.7634409,black,legacy,legacy,legacy,0,incongruent,uniform,1,undefined,1,h,0,0,0,92,0,92,0,92,0,0,0,92,92,92,92,92,9/15/2020 20:48,600,The main experiment item,yes,FlankerTask.osexp,C:/Users/18177/OneDrive/Documents/School/Grad School/Fall 2020,no,mono,no,18,no,white,no,yes,768,legacy,12,79,C:/Users/18177/OneDrive/Documents/School/Grad School/Fall 2020/RW-subject-0.csv,legacy,Lentiform Loewenfeld,3.3.3,0,h,NA,s,s,NA,h,441,NA,20415,13638,NA,441,2,legacy,1024,2,48000,-16,experiment,SSHSS,0,even,23826,177797,NA,193737,3403,178635,NA,198705,3410,164158,NA,197659,198808,199250,198703,198807,Flanker Task,83,48896,93,yes,1024
89.36170213,89.36170213,524.712766,524.712766,black,legacy,legacy,legacy,0,congruent,uniform,1,undefined,1,h,0,0,0,93,0,93,0,93,0,0,0,93,93,93,93,93,9/15/2020 20:48,600,The main experiment item,yes,FlankerTask.osexp,C:/Users/18177/OneDrive/Documents/School/Grad School/Fall 2020,no,mono,no,18,no,white,no,yes,768,legacy,13,79,C:/Users/18177/OneDrive/Documents/School/Grad School/Fall 2020/RW-subject-0.csv,legacy,Lentiform Loewenfeld,3.3.3,0,h,NA,s,s,NA,h,427,NA,20415,13638,NA,427,2,legacy,1024,2,48000,-16,experiment,HHHHH,0,even,23826,177797,NA,193737,3403,178635,NA,200308,3410,164158,NA,199263,200409,200837,200306,200409,Flanker Task,84,49323,94,yes,1024
89.47368421,89.47368421,523.1473684,523.1473684,black,legacy,legacy,legacy,0,congruent,uniform,1,undefined,1,h,0,0,0,94,0,94,0,94,0,0,0,94,94,94,94,94,9/15/2020 20:48,600,The main experiment item,yes,FlankerTask.osexp,C:/Users/18177/OneDrive/Documents/School/Grad School/Fall 2020,no,mono,no,18,no,white,no,yes,768,legacy,14,79,C:/Users/18177/OneDrive/Documents/School/Grad School/Fall 2020/RW-subject-0.csv,legacy,Lentiform Loewenfeld,3.3.3,0,h,NA,s,s,NA,h,376,NA,20415,13638,NA,376,2,legacy,1024,2,48000,-16,experiment,HHHHH,0,even,23826,177797,NA,193737,3403,178635,NA,201895,3410,164158,NA,200849,201996,202372,201892,201996,Flanker Task,85,49699,95,yes,1024
89.58333333,89.58333333,521.96875,521.96875,black,legacy,legacy,legacy,0,congruent,uniform,1,undefined,1,s,0,0,0,95,0,95,0,95,0,0,0,95,95,95,95,95,9/15/2020 20:48,600,The main experiment item,yes,FlankerTask.osexp,C:/Users/18177/OneDrive/Documents/School/Grad School/Fall 2020,no,mono,no,18,no,white,no,yes,768,legacy,15,79,C:/Users/18177/OneDrive/Documents/School/Grad School/Fall 2020/RW-subject-0.csv,legacy,Lentiform Loewenfeld,3.3.3,0,s,NA,s,s,NA,s,410,NA,20415,13638,NA,410,2,legacy,1024,2,48000,-16,experiment,SSSSS,0,even,23826,177797,NA,193737,3403,178635,NA,203454,3410,164158,NA,202384,203556,203967,203452,203556,Flanker Task,86,50109,96,yes,1024
89.69072165,89.69072165,520.8247423,520.8247423,black,legacy,legacy,legacy,0,congruent,uniform,1,undefined,1,h,0,0,0,96,0,96,0,96,0,0,0,96,96,96,96,96,9/15/2020 20:48,600,The main experiment item,yes,FlankerTask.osexp,C:/Users/18177/OneDrive/Documents/School/Grad School/Fall 2020,no,mono,no,18,no,white,no,yes,768,legacy,16,79,C:/Users/18177/OneDrive/Documents/School/Grad School/Fall 2020/RW-subject-0.csv,legacy,Lentiform Loewenfeld,3.3.3,0,h,NA,s,s,NA,h,411,NA,20415,13638,NA,411,2,legacy,1024,2,48000,-16,experiment,HHHHH,0,even,23826,177797,NA,193737,3403,178635,NA,205026,3410,164158,NA,203980,205127,205539,205024,205127,Flanker Task,87,50520,97,yes,1024
89.79591837,89.79591837,519.6122449,519.6122449,black,legacy,legacy,legacy,0,incongruent,uniform,1,undefined,1,h,0,0,0,97,0,97,0,97,0,0,0,97,97,97,97,97,9/15/2020 20:48,600,The main experiment item,yes,FlankerTask.osexp,C:/Users/18177/OneDrive/Documents/School/Grad School/Fall 2020,no,mono,no,18,no,white,no,yes,768,legacy,17,79,C:/Users/18177/OneDrive/Documents/School/Grad School/Fall 2020/RW-subject-0.csv,legacy,Lentiform Loewenfeld,3.3.3,0,h,NA,s,s,NA,h,402,NA,20415,13638,NA,402,2,legacy,1024,2,48000,-16,experiment,SSHSS,0,even,23826,177797,NA,193737,3403,178635,NA,206598,3410,164158,NA,205552,206701,207104,206596,206700,Flanker Task,88,50922,98,yes,1024
89.8989899,89.8989899,518.1717172,518.1717172,black,legacy,legacy,legacy,0,congruent,uniform,1,undefined,1,h,0,0,0,98,0,98,0,98,0,0,0,98,98,98,98,98,9/15/2020 20:48,600,The main experiment item,yes,FlankerTask.osexp,C:/Users/18177/OneDrive/Documents/School/Grad School/Fall 2020,no,mono,no,18,no,white,no,yes,768,legacy,18,79,C:/Users/18177/OneDrive/Documents/School/Grad School/Fall 2020/RW-subject-0.csv,legacy,Lentiform Loewenfeld,3.3.3,0,h,NA,s,s,NA,h,377,NA,20415,13638,NA,377,2,legacy,1024,2,48000,-16,experiment,HHHHH,0,even,23826,177797,NA,193737,3403,178635,NA,208161,3410,164158,NA,207117,208265,208643,208160,208265,Flanker Task,89,51299,99,yes,1024
90,90,515.75,515.75,black,legacy,legacy,legacy,0,incongruent,uniform,1,undefined,1,s,0,0,0,99,0,99,0,99,0,0,0,99,99,99,99,99,9/15/2020 20:48,600,The main experiment item,yes,FlankerTask.osexp,C:/Users/18177/OneDrive/Documents/School/Grad School/Fall 2020,no,mono,no,18,no,white,no,yes,768,legacy,19,79,C:/Users/18177/OneDrive/Documents/School/Grad School/Fall 2020/RW-subject-0.csv,legacy,Lentiform Loewenfeld,3.3.3,0,s,NA,s,s,NA,s,276,NA,20415,13638,NA,276,2,legacy,1024,2,48000,-16,experiment,HHSHH,0,even,23826,177797,NA,193737,3403,178635,NA,209701,3410,164158,NA,208654,209802,210078,209699,209802,Flanker Task,90,51575,100,yes,1024
90.0990099,90.0990099,513.7425743,513.7425743,black,legacy,legacy,legacy,0,congruent,uniform,1,undefined,1,h,0,0,0,100,0,100,0,100,0,0,0,100,100,100,100,100,9/15/2020 20:48,600,The main experiment item,yes,FlankerTask.osexp,C:/Users/18177/OneDrive/Documents/School/Grad School/Fall 2020,no,mono,no,18,no,white,no,yes,768,legacy,20,79,C:/Users/18177/OneDrive/Documents/School/Grad School/Fall 2020/RW-subject-0.csv,legacy,Lentiform Loewenfeld,3.3.3,0,h,NA,s,s,NA,h,313,NA,20415,13638,NA,313,2,legacy,1024,2,48000,-16,experiment,HHHHH,0,even,23826,177797,NA,193737,3403,178635,NA,211138,3410,164158,NA,210091,211242,211556,211136,211242,Flanker Task,91,51888,101,yes,1024
90.19607843,90.19607843,512.3039216,512.3039216,black,legacy,legacy,legacy,0,incongruent,uniform,1,undefined,1,s,0,0,0,101,0,101,0,101,0,0,0,101,101,101,101,101,9/15/2020 20:48,600,The main experiment item,yes,FlankerTask.osexp,C:/Users/18177/OneDrive/Documents/School/Grad School/Fall 2020,no,mono,no,18,no,white,no,yes,768,legacy,21,79,C:/Users/18177/OneDrive/Documents/School/Grad School/Fall 2020/RW-subject-0.csv,legacy,Lentiform Loewenfeld,3.3.3,0,s,NA,s,s,NA,s,367,NA,20415,13638,NA,367,2,legacy,1024,2,48000,-16,experiment,HHSHH,0,even,23826,177797,NA,193737,3403,178635,NA,212614,3410,164158,NA,211568,212717,213084,212611,212716,Flanker Task,92,52255,102,yes,1024
89.32038835,89.32038835,510.2621359,510.2621359,black,legacy,legacy,legacy,0,incongruent,uniform,0,undefined,0,s,0,0,0,102,0,102,0,102,0,0,0,102,102,102,102,102,9/15/2020 20:48,600,The main experiment item,yes,FlankerTask.osexp,C:/Users/18177/OneDrive/Documents/School/Grad School/Fall 2020,no,mono,no,18,no,white,no,yes,768,legacy,22,79,C:/Users/18177/OneDrive/Documents/School/Grad School/Fall 2020/RW-subject-0.csv,legacy,Lentiform Loewenfeld,3.3.3,0,h,NA,s,s,NA,h,302,NA,20415,13638,NA,302,2,legacy,1024,2,48000,-16,experiment,HHSHH,0,even,23826,177797,NA,193737,3403,178635,NA,214164,3410,164158,NA,213097,214266,214569,214162,214266,Flanker Task,92,52557,103,yes,1024
89.42307692,89.42307692,509.4711538,509.4711538,black,legacy,legacy,legacy,0,congruent,uniform,1,undefined,1,s,0,0,0,103,0,103,0,103,0,0,0,103,103,103,103,103,9/15/2020 20:48,600,The main experiment item,yes,FlankerTask.osexp,C:/Users/18177/OneDrive/Documents/School/Grad School/Fall 2020,no,mono,no,18,no,white,no,yes,768,legacy,23,79,C:/Users/18177/OneDrive/Documents/School/Grad School/Fall 2020/RW-subject-0.csv,legacy,Lentiform Loewenfeld,3.3.3,0,s,NA,s,s,NA,s,428,NA,20415,13638,NA,428,2,legacy,1024,2,48000,-16,experiment,SSSSS,0,even,23826,177797,NA,214579,3403,178635,NA,216129,3410,164158,NA,215082,216230,216659,216128,216230,Flanker Task,93,52985,104,yes,1024
89.52380952,89.52380952,508.5428571,508.5428571,black,legacy,legacy,legacy,0,congruent,uniform,1,undefined,1,h,0,0,0,104,0,104,0,104,0,0,0,104,104,104,104,104,9/15/2020 20:48,600,The main experiment item,yes,FlankerTask.osexp,C:/Users/18177/OneDrive/Documents/School/Grad School/Fall 2020,no,mono,no,18,no,white,no,yes,768,legacy,24,79,C:/Users/18177/OneDrive/Documents/School/Grad School/Fall 2020/RW-subject-0.csv,legacy,Lentiform Loewenfeld,3.3.3,0,h,NA,s,s,NA,h,412,NA,20415,13638,NA,412,2,legacy,1024,2,48000,-16,experiment,HHHHH,0,even,23826,177797,NA,214579,3403,178635,NA,217714,3410,164158,NA,216670,217818,218230,217712,217817,Flanker Task,94,53397,105,yes,1024
88.67924528,88.67924528,508.1037736,508.1037736,black,legacy,legacy,legacy,0,incongruent,uniform,0,undefined,0,h,0,0,0,105,0,105,0,105,0,0,0,105,105,105,105,105,9/15/2020 20:48,600,The main experiment item,yes,FlankerTask.osexp,C:/Users/18177/OneDrive/Documents/School/Grad School/Fall 2020,no,mono,no,18,no,white,no,yes,768,legacy,25,79,C:/Users/18177/OneDrive/Documents/School/Grad School/Fall 2020/RW-subject-0.csv,legacy,Lentiform Loewenfeld,3.3.3,0,s,NA,s,s,NA,s,462,NA,20415,13638,NA,462,2,legacy,1024,2,48000,-16,experiment,SSHSS,0,even,23826,177797,NA,214579,3403,178635,NA,219312,3410,164158,NA,218244,219413,219875,219309,219413,Flanker Task,94,53859,106,yes,1024
87.85046729,87.85046729,506.728972,506.728972,black,legacy,legacy,legacy,0,congruent,uniform,0,undefined,0,s,0,0,0,106,0,106,0,106,0,0,0,106,106,106,106,106,9/15/2020 20:48,600,The main experiment item,yes,FlankerTask.osexp,C:/Users/18177/OneDrive/Documents/School/Grad School/Fall 2020,no,mono,no,18,no,white,no,yes,768,legacy,26,79,C:/Users/18177/OneDrive/Documents/School/Grad School/Fall 2020/RW-subject-0.csv,legacy,Lentiform Loewenfeld,3.3.3,0,h,NA,s,s,NA,h,361,NA,20415,13638,NA,361,2,legacy,1024,2,48000,-16,experiment,SSSSS,0,even,23826,177797,NA,219887,3403,178635,NA,221433,3410,164158,NA,220388,221534,221896,221431,221534,Flanker Task,94,54220,107,yes,1024
87.96296296,87.96296296,506.5,506.5,black,legacy,legacy,legacy,0,congruent,uniform,1,undefined,1,s,0,0,0,107,0,107,0,107,0,0,0,107,107,107,107,107,9/15/2020 20:48,600,The main experiment item,yes,FlankerTask.osexp,C:/Users/18177/OneDrive/Documents/School/Grad School/Fall 2020,no,mono,no,18,no,white,no,yes,768,legacy,27,79,C:/Users/18177/OneDrive/Documents/School/Grad School/Fall 2020/RW-subject-0.csv,legacy,Lentiform Loewenfeld,3.3.3,0,s,NA,s,s,NA,s,482,NA,20415,13638,NA,482,2,legacy,1024,2,48000,-16,experiment,SSSSS,0,even,23826,177797,NA,221908,3403,178635,NA,223454,3410,164158,NA,222409,223555,224038,223452,223555,Flanker Task,95,54702,108,yes,1024
88.0733945,88.0733945,505.5137615,505.5137615,black,legacy,legacy,legacy,0,incongruent,uniform,1,undefined,1,h,0,0,0,108,0,108,0,108,0,0,0,108,108,108,108,108,9/15/2020 20:48,600,The main experiment item,yes,FlankerTask.osexp,C:/Users/18177/OneDrive/Documents/School/Grad School/Fall 2020,no,mono,no,18,no,white,no,yes,768,legacy,28,79,C:/Users/18177/OneDrive/Documents/School/Grad School/Fall 2020/RW-subject-0.csv,legacy,Lentiform Loewenfeld,3.3.3,0,h,NA,s,s,NA,h,399,NA,20415,13638,NA,399,2,legacy,1024,2,48000,-16,experiment,SSHSS,0,even,23826,177797,NA,221908,3403,178635,NA,225088,3410,164158,NA,224042,225190,225590,225086,225189,Flanker Task,96,55101,109,yes,1024
87.27272727,87.27272727,505.5727273,505.5727273,black,legacy,legacy,legacy,0,incongruent,uniform,0,undefined,0,h,0,0,0,109,0,109,0,109,0,0,0,109,109,109,109,109,9/15/2020 20:48,600,The main experiment item,yes,FlankerTask.osexp,C:/Users/18177/OneDrive/Documents/School/Grad School/Fall 2020,no,mono,no,18,no,white,no,yes,768,legacy,29,79,C:/Users/18177/OneDrive/Documents/School/Grad School/Fall 2020/RW-subject-0.csv,legacy,Lentiform Loewenfeld,3.3.3,0,s,NA,s,s,NA,s,512,NA,20415,13638,NA,512,2,legacy,1024,2,48000,-16,experiment,SSHSS,0,even,23826,177797,NA,221908,3403,178635,NA,226649,3410,164158,NA,225602,226753,227265,226647,226753,Flanker Task,96,55613,110,yes,1024
87.38738739,87.38738739,504.2972973,504.2972973,black,legacy,legacy,legacy,0,congruent,uniform,1,undefined,1,s,0,0,0,110,0,110,0,110,0,0,0,110,110,110,110,110,9/15/2020 20:48,600,The main experiment item,yes,FlankerTask.osexp,C:/Users/18177/OneDrive/Documents/School/Grad School/Fall 2020,no,mono,no,18,no,white,no,yes,768,legacy,30,79,C:/Users/18177/OneDrive/Documents/School/Grad School/Fall 2020/RW-subject-0.csv,legacy,Lentiform Loewenfeld,3.3.3,0,s,NA,s,s,NA,s,364,NA,20415,13638,NA,364,2,legacy,1024,2,48000,-16,experiment,SSSSS,0,even,23826,177797,NA,227277,3403,178635,NA,228824,3410,164158,NA,227778,228926,229290,228822,228926,Flanker Task,97,55977,111,yes,1024
87.5,87.5,503.3571429,503.3571429,black,legacy,legacy,legacy,0,congruent,uniform,1,undefined,1,s,0,0,0,111,0,111,0,111,0,0,0,111,111,111,111,111,9/15/2020 20:48,600,The main experiment item,yes,FlankerTask.osexp,C:/Users/18177/OneDrive/Documents/School/Grad School/Fall 2020,no,mono,no,18,no,white,no,yes,768,legacy,31,79,C:/Users/18177/OneDrive/Documents/School/Grad School/Fall 2020/RW-subject-0.csv,legacy,Lentiform Loewenfeld,3.3.3,0,s,NA,s,s,NA,s,399,NA,20415,13638,NA,399,2,legacy,1024,2,48000,-16,experiment,SSSSS,0,even,23826,177797,NA,227277,3403,178635,NA,230350,3410,164158,NA,229303,230453,230853,230348,230453,Flanker Task,98,56376,112,yes,1024
86.72566372,86.72566372,501.9469027,501.9469027,black,legacy,legacy,legacy,0,incongruent,uniform,0,undefined,0,h,0,0,0,112,0,112,0,112,0,0,0,112,112,112,112,112,9/15/2020 20:48,600,The main experiment item,yes,FlankerTask.osexp,C:/Users/18177/OneDrive/Documents/School/Grad School/Fall 2020,no,mono,no,18,no,white,no,yes,768,legacy,32,79,C:/Users/18177/OneDrive/Documents/School/Grad School/Fall 2020/RW-subject-0.csv,legacy,Lentiform Loewenfeld,3.3.3,0,s,NA,s,s,NA,s,344,NA,20415,13638,NA,344,2,legacy,1024,2,48000,-16,experiment,SSHSS,0,even,23826,177797,NA,227277,3403,178635,NA,231911,3410,164158,NA,230866,232014,232359,231909,232014,Flanker Task,98,56720,113,yes,1024
86.84210526,86.84210526,501.9122807,501.9122807,black,legacy,legacy,legacy,0,congruent,uniform,1,undefined,1,s,0,0,0,113,0,113,0,113,0,0,0,113,113,113,113,113,9/15/2020 20:48,600,The main experiment item,yes,FlankerTask.osexp,C:/Users/18177/OneDrive/Documents/School/Grad School/Fall 2020,no,mono,no,18,no,white,no,yes,768,legacy,33,79,C:/Users/18177/OneDrive/Documents/School/Grad School/Fall 2020/RW-subject-0.csv,legacy,Lentiform Loewenfeld,3.3.3,0,s,NA,s,s,NA,s,498,NA,20415,13638,NA,498,2,legacy,1024,2,48000,-16,experiment,SSSSS,0,even,23826,177797,NA,232372,3403,178635,NA,233922,3410,164158,NA,232873,234025,234524,233920,234024,Flanker Task,99,57218,114,yes,1024
86.95652174,86.95652174,501.0782609,501.0782609,black,legacy,legacy,legacy,0,congruent,uniform,1,undefined,1,s,0,0,0,114,0,114,0,114,0,0,0,114,114,114,114,114,9/15/2020 20:48,600,The main experiment item,yes,FlankerTask.osexp,C:/Users/18177/OneDrive/Documents/School/Grad School/Fall 2020,no,mono,no,18,no,white,no,yes,768,legacy,34,79,C:/Users/18177/OneDrive/Documents/School/Grad School/Fall 2020/RW-subject-0.csv,legacy,Lentiform Loewenfeld,3.3.3,0,s,NA,s,s,NA,s,406,NA,20415,13638,NA,406,2,legacy,1024,2,48000,-16,experiment,SSSSS,0,even,23826,177797,NA,232372,3403,178635,NA,235581,3410,164158,NA,234536,235682,236088,235579,235682,Flanker Task,100,57624,115,yes,1024
86.20689655,86.20689655,499.8017241,499.8017241,black,legacy,legacy,legacy,0,incongruent,uniform,0,undefined,0,s,0,0,0,115,0,115,0,115,0,0,0,115,115,115,115,115,9/15/2020 20:48,600,The main experiment item,yes,FlankerTask.osexp,C:/Users/18177/OneDrive/Documents/School/Grad School/Fall 2020,no,mono,no,18,no,white,no,yes,768,legacy,35,79,C:/Users/18177/OneDrive/Documents/School/Grad School/Fall 2020/RW-subject-0.csv,legacy,Lentiform Loewenfeld,3.3.3,0,h,NA,s,s,NA,h,353,NA,20415,13638,NA,353,2,legacy,1024,2,48000,-16,experiment,HHSHH,0,even,23826,177797,NA,232372,3403,178635,NA,237148,3410,164158,NA,236101,237250,237604,237146,237250,Flanker Task,100,57977,116,yes,1024
86.32478632,86.32478632,498.4017094,498.4017094,black,legacy,legacy,legacy,0,congruent,uniform,1,undefined,1,s,0,0,0,116,0,116,0,116,0,0,0,116,116,116,116,116,9/15/2020 20:48,600,The main experiment item,yes,FlankerTask.osexp,C:/Users/18177/OneDrive/Documents/School/Grad School/Fall 2020,no,mono,no,18,no,white,no,yes,768,legacy,36,79,C:/Users/18177/OneDrive/Documents/School/Grad School/Fall 2020/RW-subject-0.csv,legacy,Lentiform Loewenfeld,3.3.3,0,s,NA,s,s,NA,s,336,NA,20415,13638,NA,336,2,legacy,1024,2,48000,-16,experiment,SSSSS,0,even,23826,177797,NA,237618,3403,178635,NA,239165,3410,164158,NA,238119,239268,239605,239163,239268,Flanker Task,101,58313,117,yes,1024
86.44067797,86.44067797,498.7457627,498.7457627,black,legacy,legacy,legacy,0,incongruent,uniform,1,undefined,1,s,0,0,0,117,0,117,0,117,0,0,0,117,117,117,117,117,9/15/2020 20:48,600,The main experiment item,yes,FlankerTask.osexp,C:/Users/18177/OneDrive/Documents/School/Grad School/Fall 2020,no,mono,no,18,no,white,no,yes,768,legacy,37,79,C:/Users/18177/OneDrive/Documents/School/Grad School/Fall 2020/RW-subject-0.csv,legacy,Lentiform Loewenfeld,3.3.3,0,s,NA,s,s,NA,s,539,NA,20415,13638,NA,539,2,legacy,1024,2,48000,-16,experiment,HHSHH,0,even,23826,177797,NA,237618,3403,178635,NA,240664,3410,164158,NA,239617,240767,241307,240662,240767,Flanker Task,102,58852,118,yes,1024
86.55462185,86.55462185,497.8571429,497.8571429,black,legacy,legacy,legacy,0,incongruent,uniform,1,undefined,1,h,0,0,0,118,0,118,0,118,0,0,0,118,118,118,118,118,9/15/2020 20:48,600,The main experiment item,yes,FlankerTask.osexp,C:/Users/18177/OneDrive/Documents/School/Grad School/Fall 2020,no,mono,no,18,no,white,no,yes,768,legacy,38,79,C:/Users/18177/OneDrive/Documents/School/Grad School/Fall 2020/RW-subject-0.csv,legacy,Lentiform Loewenfeld,3.3.3,0,h,NA,s,s,NA,h,393,NA,20415,13638,NA,393,2,legacy,1024,2,48000,-16,experiment,SSHSS,0,even,23826,177797,NA,237618,3403,178635,NA,242386,3410,164158,NA,241319,242489,242883,242383,242489,Flanker Task,103,59245,119,yes,1024
86.66666667,86.66666667,497.7833333,497.7833333,black,legacy,legacy,legacy,0,incongruent,uniform,1,undefined,1,h,0,0,0,119,0,119,0,119,0,0,0,119,119,119,119,119,9/15/2020 20:48,600,The main experiment item,yes,FlankerTask.osexp,C:/Users/18177/OneDrive/Documents/School/Grad School/Fall 2020,no,mono,no,18,no,white,no,yes,768,legacy,39,79,C:/Users/18177/OneDrive/Documents/School/Grad School/Fall 2020/RW-subject-0.csv,legacy,Lentiform Loewenfeld,3.3.3,0,h,NA,s,s,NA,h,489,NA,20415,13638,NA,489,2,legacy,1024,2,48000,-16,experiment,SSHSS,0,even,23826,177797,NA,237618,3403,178635,NA,243946,3410,164158,NA,242895,244049,244539,243944,244049,Flanker Task,104,59734,120,yes,1024
85.95041322,85.95041322,496.8677686,496.8677686,black,legacy,legacy,legacy,0,incongruent,uniform,0,undefined,0,h,0,0,0,120,0,120,0,120,0,0,0,120,120,120,120,120,9/15/2020 20:48,600,The main experiment item,yes,FlankerTask.osexp,C:/Users/18177/OneDrive/Documents/School/Grad School/Fall 2020,no,mono,no,18,no,white,no,yes,768,legacy,40,79,C:/Users/18177/OneDrive/Documents/School/Grad School/Fall 2020/RW-subject-0.csv,legacy,Lentiform Loewenfeld,3.3.3,0,s,NA,s,s,NA,s,387,NA,20415,13638,NA,387,2,legacy,1024,2,48000,-16,experiment,SSHSS,0,even,23826,177797,NA,237618,3403,178635,NA,245588,3410,164158,NA,244543,245692,246079,245587,245691,Flanker Task,104,60121,121,yes,1024
86.06557377,86.06557377,497.352459,497.352459,black,legacy,legacy,legacy,0,incongruent,uniform,1,undefined,1,s,0,0,0,121,0,121,0,121,0,0,0,121,121,121,121,121,9/15/2020 20:48,600,The main experiment item,yes,FlankerTask.osexp,C:/Users/18177/OneDrive/Documents/School/Grad School/Fall 2020,no,mono,no,18,no,white,no,yes,768,legacy,41,79,C:/Users/18177/OneDrive/Documents/School/Grad School/Fall 2020/RW-subject-0.csv,legacy,Lentiform Loewenfeld,3.3.3,0,s,NA,s,s,NA,s,556,NA,20415,13638,NA,556,2,legacy,1024,2,48000,-16,experiment,HHSHH,0,even,23826,177797,NA,246091,3403,178635,NA,247637,3410,164158,NA,246592,247738,248295,247635,247738,Flanker Task,105,60677,122,yes,1024
86.17886179,86.17886179,497.5934959,497.5934959,black,legacy,legacy,legacy,0,incongruent,uniform,1,undefined,1,s,0,0,0,122,0,122,0,122,0,0,0,122,122,122,122,122,9/15/2020 20:48,600,The main experiment item,yes,FlankerTask.osexp,C:/Users/18177/OneDrive/Documents/School/Grad School/Fall 2020,no,mono,no,18,no,white,no,yes,768,legacy,42,79,C:/Users/18177/OneDrive/Documents/School/Grad School/Fall 2020/RW-subject-0.csv,legacy,Lentiform Loewenfeld,3.3.3,0,s,NA,s,s,NA,s,527,NA,20415,13638,NA,527,2,legacy,1024,2,48000,-16,experiment,HHSHH,0,even,23826,177797,NA,246091,3403,178635,NA,249353,3410,164158,NA,248307,249454,249982,249352,249454,Flanker Task,106,61204,123,yes,1024
86.29032258,86.29032258,498.1854839,498.1854839,black,legacy,legacy,legacy,0,incongruent,uniform,1,undefined,1,h,0,0,0,123,0,123,0,123,0,0,0,123,123,123,123,123,9/15/2020 20:48,600,The main experiment item,yes,FlankerTask.osexp,C:/Users/18177/OneDrive/Documents/School/Grad School/Fall 2020,no,mono,no,18,no,white,no,yes,768,legacy,43,79,C:/Users/18177/OneDrive/Documents/School/Grad School/Fall 2020/RW-subject-0.csv,legacy,Lentiform Loewenfeld,3.3.3,0,h,NA,s,s,NA,h,571,NA,20415,13638,NA,571,2,legacy,1024,2,48000,-16,experiment,SSHSS,0,even,23826,177797,NA,246091,3403,178635,NA,251033,3410,164158,NA,249986,251134,251706,251031,251134,Flanker Task,107,61775,124,yes,1024
86.4,86.4,500.2,500.2,black,legacy,legacy,legacy,0,congruent,uniform,1,undefined,1,h,0,0,0,124,0,124,0,124,0,0,0,124,124,124,124,124,9/15/2020 20:48,600,The main experiment item,yes,FlankerTask.osexp,C:/Users/18177/OneDrive/Documents/School/Grad School/Fall 2020,no,mono,no,18,no,white,no,yes,768,legacy,44,79,C:/Users/18177/OneDrive/Documents/School/Grad School/Fall 2020/RW-subject-0.csv,legacy,Lentiform Loewenfeld,3.3.3,0,h,NA,s,s,NA,h,750,NA,20415,13638,NA,750,2,legacy,1024,2,48000,-16,experiment,HHHHH,0,even,23826,177797,NA,246091,3403,178635,NA,252763,3410,164158,NA,251718,252867,253618,252762,252867,Flanker Task,108,62525,125,yes,1024
86.50793651,86.50793651,499.7936508,499.7936508,black,legacy,legacy,legacy,0,congruent,uniform,1,undefined,1,s,0,0,0,125,0,125,0,125,0,0,0,125,125,125,125,125,9/15/2020 20:48,600,The main experiment item,yes,FlankerTask.osexp,C:/Users/18177/OneDrive/Documents/School/Grad School/Fall 2020,no,mono,no,18,no,white,no,yes,768,legacy,45,79,C:/Users/18177/OneDrive/Documents/School/Grad School/Fall 2020/RW-subject-0.csv,legacy,Lentiform Loewenfeld,3.3.3,0,s,NA,s,s,NA,s,449,NA,20415,13638,NA,449,2,legacy,1024,2,48000,-16,experiment,SSSSS,0,even,23826,177797,NA,246091,3403,253630,NA,255177,3410,164158,NA,254131,255278,255728,255175,255278,Flanker Task,109,62974,126,yes,1024
86.61417323,86.61417323,499.1259843,499.1259843,black,legacy,legacy,legacy,0,congruent,uniform,1,undefined,1,s,0,0,0,126,0,126,0,126,0,0,0,126,126,126,126,126,9/15/2020 20:48,600,The main experiment item,yes,FlankerTask.osexp,C:/Users/18177/OneDrive/Documents/School/Grad School/Fall 2020,no,mono,no,18,no,white,no,yes,768,legacy,46,79,C:/Users/18177/OneDrive/Documents/School/Grad School/Fall 2020/RW-subject-0.csv,legacy,Lentiform Loewenfeld,3.3.3,0,s,NA,s,s,NA,s,415,NA,20415,13638,NA,415,2,legacy,1024,2,48000,-16,experiment,SSSSS,0,even,23826,177797,NA,246091,3403,253630,NA,256787,3410,164158,NA,255740,256888,257304,256784,256888,Flanker Task,110,63389,127,yes,1024
86.71875,86.71875,498.2109375,498.2109375,black,legacy,legacy,legacy,0,congruent,uniform,1,undefined,1,h,0,0,0,127,0,127,0,127,0,0,0,127,127,127,127,127,9/15/2020 20:48,600,The main experiment item,yes,FlankerTask.osexp,C:/Users/18177/OneDrive/Documents/School/Grad School/Fall 2020,no,mono,no,18,no,white,no,yes,768,legacy,47,79,C:/Users/18177/OneDrive/Documents/School/Grad School/Fall 2020/RW-subject-0.csv,legacy,Lentiform Loewenfeld,3.3.3,0,h,NA,s,s,NA,h,382,NA,20415,13638,NA,382,2,legacy,1024,2,48000,-16,experiment,HHHHH,0,even,23826,177797,NA,246091,3403,253630,NA,258362,3410,164158,NA,257316,258466,258849,258360,258466,Flanker Task,111,63771,128,yes,1024
86.82170543,86.82170543,497.4263566,497.4263566,black,legacy,legacy,legacy,0,congruent,uniform,1,undefined,1,h,0,0,0,128,0,128,0,128,0,0,0,128,128,128,128,128,9/15/2020 20:48,600,The main experiment item,yes,FlankerTask.osexp,C:/Users/18177/OneDrive/Documents/School/Grad School/Fall 2020,no,mono,no,18,no,white,no,yes,768,legacy,48,79,C:/Users/18177/OneDrive/Documents/School/Grad School/Fall 2020/RW-subject-0.csv,legacy,Lentiform Loewenfeld,3.3.3,0,h,NA,s,s,NA,h,397,NA,20415,13638,NA,397,2,legacy,1024,2,48000,-16,experiment,HHHHH,0,even,23826,177797,NA,246091,3403,253630,NA,259909,3410,164158,NA,258863,260013,260411,259907,260012,Flanker Task,112,64168,129,yes,1024
86.92307692,86.92307692,496.6846154,496.6846154,black,legacy,legacy,legacy,0,congruent,uniform,1,undefined,1,s,0,0,0,129,0,129,0,129,0,0,0,129,129,129,129,129,9/15/2020 20:48,600,The main experiment item,yes,FlankerTask.osexp,C:/Users/18177/OneDrive/Documents/School/Grad School/Fall 2020,no,mono,no,18,no,white,no,yes,768,legacy,49,79,C:/Users/18177/OneDrive/Documents/School/Grad School/Fall 2020/RW-subject-0.csv,legacy,Lentiform Loewenfeld,3.3.3,0,s,NA,s,s,NA,s,401,NA,20415,13638,NA,401,2,legacy,1024,2,48000,-16,experiment,SSSSS,0,even,23826,177797,NA,246091,3403,253630,NA,261470,3410,164158,NA,260424,261571,261973,261468,261571,Flanker Task,113,64569,130,yes,1024
87.02290076,87.02290076,497.0458015,497.0458015,black,legacy,legacy,legacy,0,incongruent,uniform,1,undefined,1,s,0,0,0,130,0,130,0,130,0,0,0,130,130,130,130,130,9/15/2020 20:48,600,The main experiment item,yes,FlankerTask.osexp,C:/Users/18177/OneDrive/Documents/School/Grad School/Fall 2020,no,mono,no,18,no,white,no,yes,768,legacy,50,79,C:/Users/18177/OneDrive/Documents/School/Grad School/Fall 2020/RW-subject-0.csv,legacy,Lentiform Loewenfeld,3.3.3,0,s,NA,s,s,NA,s,544,NA,20415,13638,NA,544,2,legacy,1024,2,48000,-16,experiment,HHSHH,0,even,23826,177797,NA,246091,3403,253630,NA,263031,3410,164158,NA,261985,263132,263677,263029,263132,Flanker Task,114,65113,131,yes,1024
87.12121212,87.12121212,496.8106061,496.8106061,black,legacy,legacy,legacy,0,incongruent,uniform,1,undefined,1,s,0,0,0,131,0,131,0,131,0,0,0,131,131,131,131,131,9/15/2020 20:48,600,The main experiment item,yes,FlankerTask.osexp,C:/Users/18177/OneDrive/Documents/School/Grad School/Fall 2020,no,mono,no,18,no,white,no,yes,768,legacy,51,79,C:/Users/18177/OneDrive/Documents/School/Grad School/Fall 2020/RW-subject-0.csv,legacy,Lentiform Loewenfeld,3.3.3,0,s,NA,s,s,NA,s,466,NA,20415,13638,NA,466,2,legacy,1024,2,48000,-16,experiment,HHSHH,0,even,23826,177797,NA,246091,3403,253630,NA,264736,3410,164158,NA,263690,264836,265303,264735,264836,Flanker Task,115,65579,132,yes,1024
87.21804511,87.21804511,495.9699248,495.9699248,black,legacy,legacy,legacy,0,congruent,uniform,1,undefined,1,h,0,0,0,132,0,132,0,132,0,0,0,132,132,132,132,132,9/15/2020 20:48,600,The main experiment item,yes,FlankerTask.osexp,C:/Users/18177/OneDrive/Documents/School/Grad School/Fall 2020,no,mono,no,18,no,white,no,yes,768,legacy,52,79,C:/Users/18177/OneDrive/Documents/School/Grad School/Fall 2020/RW-subject-0.csv,legacy,Lentiform Loewenfeld,3.3.3,0,h,NA,s,s,NA,h,385,NA,20415,13638,NA,385,2,legacy,1024,2,48000,-16,experiment,HHHHH,0,even,23826,177797,NA,246091,3403,253630,NA,266360,3410,164158,NA,265315,266464,266850,266359,266464,Flanker Task,116,65964,133,yes,1024
87.31343284,87.31343284,495.358209,495.358209,black,legacy,legacy,legacy,0,incongruent,uniform,1,undefined,1,s,0,0,0,133,0,133,0,133,0,0,0,133,133,133,133,133,9/15/2020 20:48,600,The main experiment item,yes,FlankerTask.osexp,C:/Users/18177/OneDrive/Documents/School/Grad School/Fall 2020,no,mono,no,18,no,white,no,yes,768,legacy,53,79,C:/Users/18177/OneDrive/Documents/School/Grad School/Fall 2020/RW-subject-0.csv,legacy,Lentiform Loewenfeld,3.3.3,0,s,NA,s,s,NA,s,414,NA,20415,13638,NA,414,2,legacy,1024,2,48000,-16,experiment,HHSHH,0,even,23826,177797,NA,246091,3403,253630,NA,267932,3410,164158,NA,266863,268033,268448,267930,268033,Flanker Task,117,66378,134,yes,1024
87.40740741,87.40740741,495.362963,495.362963,black,legacy,legacy,legacy,0,incongruent,uniform,1,undefined,1,s,0,0,0,134,0,134,0,134,0,0,0,134,134,134,134,134,9/15/2020 20:48,600,The main experiment item,yes,FlankerTask.osexp,C:/Users/18177/OneDrive/Documents/School/Grad School/Fall 2020,no,mono,no,18,no,white,no,yes,768,legacy,54,79,C:/Users/18177/OneDrive/Documents/School/Grad School/Fall 2020/RW-subject-0.csv,legacy,Lentiform Loewenfeld,3.3.3,0,s,NA,s,s,NA,s,496,NA,20415,13638,NA,496,2,legacy,1024,2,48000,-16,experiment,HHSHH,0,even,23826,177797,NA,246091,3403,253630,NA,269506,3410,164158,NA,268460,269610,270106,269504,269609,Flanker Task,118,66874,135,yes,1024
86.76470588,86.76470588,494.6764706,494.6764706,black,legacy,legacy,legacy,0,incongruent,uniform,0,undefined,0,s,0,0,0,135,0,135,0,135,0,0,0,135,135,135,135,135,9/15/2020 20:48,600,The main experiment item,yes,FlankerTask.osexp,C:/Users/18177/OneDrive/Documents/School/Grad School/Fall 2020,no,mono,no,18,no,white,no,yes,768,legacy,55,79,C:/Users/18177/OneDrive/Documents/School/Grad School/Fall 2020/RW-subject-0.csv,legacy,Lentiform Loewenfeld,3.3.3,0,h,NA,s,s,NA,h,402,NA,20415,13638,NA,402,2,legacy,1024,2,48000,-16,experiment,HHSHH,0,even,23826,177797,NA,246091,3403,253630,NA,271163,3410,164158,NA,270118,271265,271668,271162,271265,Flanker Task,118,67276,136,yes,1024
86.86131387,86.86131387,494.350365,494.350365,black,legacy,legacy,legacy,0,incongruent,uniform,1,undefined,1,s,0,0,0,136,0,136,0,136,0,0,0,136,136,136,136,136,9/15/2020 20:48,600,The main experiment item,yes,FlankerTask.osexp,C:/Users/18177/OneDrive/Documents/School/Grad School/Fall 2020,no,mono,no,18,no,white,no,yes,768,legacy,56,79,C:/Users/18177/OneDrive/Documents/School/Grad School/Fall 2020/RW-subject-0.csv,legacy,Lentiform Loewenfeld,3.3.3,0,s,NA,s,s,NA,s,450,NA,20415,13638,NA,450,2,legacy,1024,2,48000,-16,experiment,HHSHH,0,even,23826,177797,NA,271680,3403,253630,NA,273228,3410,164158,NA,272181,273329,273780,273226,273329,Flanker Task,119,67726,137,yes,1024
86.23188406,86.23188406,493.2608696,493.2608696,black,legacy,legacy,legacy,0,incongruent,uniform,0,undefined,0,h,0,0,0,137,0,137,0,137,0,0,0,137,137,137,137,137,9/15/2020 20:48,600,The main experiment item,yes,FlankerTask.osexp,C:/Users/18177/OneDrive/Documents/School/Grad School/Fall 2020,no,mono,no,18,no,white,no,yes,768,legacy,57,79,C:/Users/18177/OneDrive/Documents/School/Grad School/Fall 2020/RW-subject-0.csv,legacy,Lentiform Loewenfeld,3.3.3,0,s,NA,s,s,NA,s,344,NA,20415,13638,NA,344,2,legacy,1024,2,48000,-16,experiment,SSHSS,0,even,23826,177797,NA,271680,3403,253630,NA,274839,3410,164158,NA,273793,274941,275286,274837,274941,Flanker Task,119,68070,138,yes,1024
86.33093525,86.33093525,492.5179856,492.5179856,black,legacy,legacy,legacy,0,congruent,uniform,1,undefined,1,h,0,0,0,138,0,138,0,138,0,0,0,138,138,138,138,138,9/15/2020 20:48,600,The main experiment item,yes,FlankerTask.osexp,C:/Users/18177/OneDrive/Documents/School/Grad School/Fall 2020,no,mono,no,18,no,white,no,yes,768,legacy,58,79,C:/Users/18177/OneDrive/Documents/School/Grad School/Fall 2020/RW-subject-0.csv,legacy,Lentiform Loewenfeld,3.3.3,0,h,NA,s,s,NA,h,390,NA,20415,13638,NA,390,2,legacy,1024,2,48000,-16,experiment,HHHHH,0,even,23826,177797,NA,275299,3403,253630,NA,276847,3410,164158,NA,275800,276948,277339,276844,276948,Flanker Task,120,68460,139,yes,1024
86.42857143,86.42857143,491.65,491.65,black,legacy,legacy,legacy,0,incongruent,uniform,1,undefined,1,h,0,0,0,139,0,139,0,139,0,0,0,139,139,139,139,139,9/15/2020 20:48,600,The main experiment item,yes,FlankerTask.osexp,C:/Users/18177/OneDrive/Documents/School/Grad School/Fall 2020,no,mono,no,18,no,white,no,yes,768,legacy,59,79,C:/Users/18177/OneDrive/Documents/School/Grad School/Fall 2020/RW-subject-0.csv,legacy,Lentiform Loewenfeld,3.3.3,0,h,NA,s,s,NA,h,371,NA,20415,13638,NA,371,2,legacy,1024,2,48000,-16,experiment,SSHSS,0,even,23826,177797,NA,275299,3403,253630,NA,278398,3410,164158,NA,277352,278501,278873,278396,278501,Flanker Task,121,68831,140,yes,1024
86.5248227,86.5248227,491.2553191,491.2553191,black,legacy,legacy,legacy,0,congruent,uniform,1,undefined,1,h,0,0,0,140,0,140,0,140,0,0,0,140,140,140,140,140,9/15/2020 20:48,600,The main experiment item,yes,FlankerTask.osexp,C:/Users/18177/OneDrive/Documents/School/Grad School/Fall 2020,no,mono,no,18,no,white,no,yes,768,legacy,60,79,C:/Users/18177/OneDrive/Documents/School/Grad School/Fall 2020/RW-subject-0.csv,legacy,Lentiform Loewenfeld,3.3.3,0,h,NA,s,s,NA,h,436,NA,20415,13638,NA,436,2,legacy,1024,2,48000,-16,experiment,HHHHH,0,even,23826,177797,NA,275299,3403,253630,NA,279953,3410,164158,NA,278885,280056,280493,279951,280056,Flanker Task,122,69267,141,yes,1024
85.91549296,85.91549296,491.1056338,491.1056338,black,legacy,legacy,legacy,0,incongruent,uniform,0,undefined,0,h,0,0,0,141,0,141,0,141,0,0,0,141,141,141,141,141,9/15/2020 20:48,600,The main experiment item,yes,FlankerTask.osexp,C:/Users/18177/OneDrive/Documents/School/Grad School/Fall 2020,no,mono,no,18,no,white,no,yes,768,legacy,61,79,C:/Users/18177/OneDrive/Documents/School/Grad School/Fall 2020/RW-subject-0.csv,legacy,Lentiform Loewenfeld,3.3.3,0,s,NA,s,s,NA,s,470,NA,20415,13638,NA,470,2,legacy,1024,2,48000,-16,experiment,SSHSS,0,even,23826,177797,NA,275299,3403,253630,NA,281551,3410,164158,NA,280505,281652,282123,281549,281652,Flanker Task,122,69737,142,yes,1024
86.01398601,86.01398601,491.6643357,491.6643357,black,legacy,legacy,legacy,0,incongruent,uniform,1,undefined,1,s,0,0,0,142,0,142,0,142,0,0,0,142,142,142,142,142,9/15/2020 20:48,600,The main experiment item,yes,FlankerTask.osexp,C:/Users/18177/OneDrive/Documents/School/Grad School/Fall 2020,no,mono,no,18,no,white,no,yes,768,legacy,62,79,C:/Users/18177/OneDrive/Documents/School/Grad School/Fall 2020/RW-subject-0.csv,legacy,Lentiform Loewenfeld,3.3.3,0,s,NA,s,s,NA,s,571,NA,20415,13638,NA,571,2,legacy,1024,2,48000,-16,experiment,HHSHH,0,even,23826,177797,NA,282129,3403,253630,NA,283675,3410,164158,NA,282630,283776,284348,283673,283776,Flanker Task,123,70308,143,yes,1024
85.41666667,85.41666667,491.0486111,491.0486111,black,legacy,legacy,legacy,0,incongruent,uniform,0,undefined,0,h,0,0,0,143,0,143,0,143,0,0,0,143,143,143,143,143,9/15/2020 20:48,600,The main experiment item,yes,FlankerTask.osexp,C:/Users/18177/OneDrive/Documents/School/Grad School/Fall 2020,no,mono,no,18,no,white,no,yes,768,legacy,63,79,C:/Users/18177/OneDrive/Documents/School/Grad School/Fall 2020/RW-subject-0.csv,legacy,Lentiform Loewenfeld,3.3.3,0,s,NA,s,s,NA,s,403,NA,20415,13638,NA,403,2,legacy,1024,2,48000,-16,experiment,SSHSS,0,even,23826,177797,NA,282129,3403,253630,NA,285406,3410,164158,NA,284361,285509,285913,285404,285509,Flanker Task,123,70711,144,yes,1024
84.82758621,84.82758621,491.6965517,491.6965517,black,legacy,legacy,legacy,0,incongruent,uniform,0,undefined,0,h,0,0,0,144,0,144,0,144,0,0,0,144,144,144,144,144,9/15/2020 20:48,600,The main experiment item,yes,FlankerTask.osexp,C:/Users/18177/OneDrive/Documents/School/Grad School/Fall 2020,no,mono,no,18,no,white,no,yes,768,legacy,64,79,C:/Users/18177/OneDrive/Documents/School/Grad School/Fall 2020/RW-subject-0.csv,legacy,Lentiform Loewenfeld,3.3.3,0,s,NA,s,s,NA,s,585,NA,20415,13638,NA,585,2,legacy,1024,2,48000,-16,experiment,SSHSS,0,even,23826,177797,NA,285925,3403,253630,NA,287473,3410,164158,NA,286427,287576,288162,287471,287576,Flanker Task,123,71296,145,yes,1024
84.93150685,84.93150685,491.0753425,491.0753425,black,legacy,legacy,legacy,0,congruent,uniform,1,undefined,1,s,0,0,0,145,0,145,0,145,0,0,0,145,145,145,145,145,9/15/2020 20:48,600,The main experiment item,yes,FlankerTask.osexp,C:/Users/18177/OneDrive/Documents/School/Grad School/Fall 2020,no,mono,no,18,no,white,no,yes,768,legacy,65,79,C:/Users/18177/OneDrive/Documents/School/Grad School/Fall 2020/RW-subject-0.csv,legacy,Lentiform Loewenfeld,3.3.3,0,s,NA,s,s,NA,s,401,NA,20415,13638,NA,401,2,legacy,1024,2,48000,-16,experiment,SSSSS,0,even,23826,177797,NA,288175,3403,253630,NA,289721,3410,164158,NA,288676,289824,290226,289719,289824,Flanker Task,124,71697,146,yes,1024
85.03401361,85.03401361,490.4897959,490.4897959,black,legacy,legacy,legacy,0,congruent,uniform,1,undefined,1,h,0,0,0,146,0,146,0,146,0,0,0,146,146,146,146,146,9/15/2020 20:48,600,The main experiment item,yes,FlankerTask.osexp,C:/Users/18177/OneDrive/Documents/School/Grad School/Fall 2020,no,mono,no,18,no,white,no,yes,768,legacy,66,79,C:/Users/18177/OneDrive/Documents/School/Grad School/Fall 2020/RW-subject-0.csv,legacy,Lentiform Loewenfeld,3.3.3,0,h,NA,s,s,NA,h,405,NA,20415,13638,NA,405,2,legacy,1024,2,48000,-16,experiment,HHHHH,0,even,23826,177797,NA,288175,3403,253630,NA,291285,3410,164158,NA,290239,291388,291794,291282,291388,Flanker Task,125,72102,147,yes,1024
85.13513514,85.13513514,490.722973,490.722973,black,legacy,legacy,legacy,0,incongruent,uniform,1,undefined,1,s,0,0,0,147,0,147,0,147,0,0,0,147,147,147,147,147,9/15/2020 20:48,600,The main experiment item,yes,FlankerTask.osexp,C:/Users/18177/OneDrive/Documents/School/Grad School/Fall 2020,no,mono,no,18,no,white,no,yes,768,legacy,67,79,C:/Users/18177/OneDrive/Documents/School/Grad School/Fall 2020/RW-subject-0.csv,legacy,Lentiform Loewenfeld,3.3.3,0,s,NA,s,s,NA,s,525,NA,20415,13638,NA,525,2,legacy,1024,2,48000,-16,experiment,HHSHH,0,even,23826,177797,NA,288175,3403,253630,NA,292854,3410,164158,NA,291807,292956,293482,292852,292956,Flanker Task,126,72627,148,yes,1024
84.56375839,84.56375839,490.9597315,490.9597315,black,legacy,legacy,legacy,0,incongruent,uniform,0,undefined,0,h,0,0,0,148,0,148,0,148,0,0,0,148,148,148,148,148,9/15/2020 20:48,600,The main experiment item,yes,FlankerTask.osexp,C:/Users/18177/OneDrive/Documents/School/Grad School/Fall 2020,no,mono,no,18,no,white,no,yes,768,legacy,68,79,C:/Users/18177/OneDrive/Documents/School/Grad School/Fall 2020/RW-subject-0.csv,legacy,Lentiform Loewenfeld,3.3.3,0,s,NA,s,s,NA,s,526,NA,20415,13638,NA,526,2,legacy,1024,2,48000,-16,experiment,SSHSS,0,even,23826,177797,NA,288175,3403,253630,NA,294541,3410,164158,NA,293495,294645,295172,294539,294644,Flanker Task,126,73153,149,yes,1024
84.66666667,84.66666667,491.3666667,491.3666667,black,legacy,legacy,legacy,0,congruent,uniform,1,undefined,1,h,0,0,0,149,0,149,0,149,0,0,0,149,149,149,149,149,9/15/2020 20:48,600,The main experiment item,yes,FlankerTask.osexp,C:/Users/18177/OneDrive/Documents/School/Grad School/Fall 2020,no,mono,no,18,no,white,no,yes,768,legacy,69,79,C:/Users/18177/OneDrive/Documents/School/Grad School/Fall 2020/RW-subject-0.csv,legacy,Lentiform Loewenfeld,3.3.3,0,h,NA,s,s,NA,h,552,NA,20415,13638,NA,552,2,legacy,1024,2,48000,-16,experiment,HHHHH,0,even,23826,177797,NA,295184,3403,253630,NA,296734,3410,164158,NA,295687,296835,297388,296731,296835,Flanker Task,127,73705,150,yes,1024
