acc,accuracy,average_response_time,avg_rt,background,canvas_backend,clock_backend,color_backend,compensation,condition,coordinates,correct,correct_Instructions1,correct_Keyboard_Response,correct_response,count_ErrorFeedback,count_Faster,count_Finish,count_Fixation,count_ISI,count_Instructions1,count_Instructions3,count_Keyboard_Response,count_Sequence,count_Stimulus,count_block1,count_block2,count_block3,count_experiment,count_instructions2,count_new_logger,datetime,deadline,description,disable_garbage_collection,experiment_file,experiment_path,font_bold,font_family,font_italic,font_size,font_underline,foreground,form_clicks,fullscreen,height,keyboard_backend,live_row,live_row_block1,logfile,mouse_backend,opensesame_codename,opensesame_version,repeat_cycle,response,response_Finish,response_Instructions1,response_Instructions3,response_Keyboard_Response,response_instructions2,response_time,response_time_Finish,response_time_Instructions1,response_time_Instructions3,response_time_Keyboard_Response,response_time_instructions2,round_decimals,sampler_backend,sound_buf_size,sound_channels,sound_freq,sound_sample_size,start,stimulus,subject_nr,subject_parity,time_ErrorFeedback,time_Faster,time_Finish,time_Fixation,time_ISI,time_Instructions1,time_Instructions3,time_Keyboard_Response,time_Sequence,time_Stimulus,time_block1,time_block2,time_block3,time_experiment,time_instructions2,time_new_logger,title,total_correct,total_response_time,total_responses,uniform_coordinates,width
100,100,1071,1071,black,legacy,legacy,legacy,0,congruent,uniform,1,undefined,1,h,0,0,0,0,0,0,0,0,0,0,0,0,0,0,0,0,Sun Sep 13 18:27:08 2020,1500,The main experiment item,yes,FlankerTask.osexp,C:/Users/chelsea/OneDrive - Tarleton State University/psych 5316- adv/flanker test,no,mono,no,18,no,white,no,yes,768,legacy,0,0,C:/Users/chelsea/OneDrive - Tarleton State University/psych 5316- adv/flanker test/vgsubject-2.csv,legacy,Lentiform Loewenfeld,3.3.3,0,h,NA,s,NA,h,NA,1071,NA,3892,NA,1071,NA,2,legacy,1024,2,48000,-16,experiment,HHHHH,2,even,NA,NA,NA,12619,NA,8359,NA,12724,12614,12724,12253,NA,NA,8352,NA,13796,Flanker Task,1,1071,1,yes,1024
100,100,823,823,black,legacy,legacy,legacy,0,incongruent,uniform,1,undefined,1,s,1,1,0,1,1,0,0,1,1,1,0,0,0,0,0,1,Sun Sep 13 18:27:08 2020,1500,The main experiment item,yes,FlankerTask.osexp,C:/Users/chelsea/OneDrive - Tarleton State University/psych 5316- adv/flanker test,no,mono,no,18,no,white,no,yes,768,legacy,1,1,C:/Users/chelsea/OneDrive - Tarleton State University/psych 5316- adv/flanker test/vgsubject-2.csv,legacy,Lentiform Loewenfeld,3.3.3,0,s,NA,s,NA,s,NA,575,NA,3892,NA,575,NA,2,legacy,1024,2,48000,-16,experiment,HHSHH,2,even,NA,NA,NA,15124,13895,8359,NA,15228,15119,15228,12253,NA,NA,8352,NA,15804,Flanker Task,2,1646,2,yes,1024
100,100,692.6666667,692.6666667,black,legacy,legacy,legacy,0,congruent,uniform,1,undefined,1,s,2,2,0,2,2,0,0,2,2,2,0,0,0,0,0,2,Sun Sep 13 18:27:08 2020,1500,The main experiment item,yes,FlankerTask.osexp,C:/Users/chelsea/OneDrive - Tarleton State University/psych 5316- adv/flanker test,no,mono,no,18,no,white,no,yes,768,legacy,2,2,C:/Users/chelsea/OneDrive - Tarleton State University/psych 5316- adv/flanker test/vgsubject-2.csv,legacy,Lentiform Loewenfeld,3.3.3,0,s,NA,s,NA,s,NA,432,NA,3892,NA,432,NA,2,legacy,1024,2,48000,-16,experiment,SSSSS,2,even,NA,NA,NA,17082,15861,8359,NA,17186,17076,17186,12253,NA,NA,8352,NA,17619,Flanker Task,3,2078,3,yes,1024
100,100,604.5,604.5,black,legacy,legacy,legacy,0,congruent,uniform,1,undefined,1,h,3,3,0,3,3,0,0,3,3,3,0,0,0,0,0,3,Sun Sep 13 18:27:08 2020,1500,The main experiment item,yes,FlankerTask.osexp,C:/Users/chelsea/OneDrive - Tarleton State University/psych 5316- adv/flanker test,no,mono,no,18,no,white,no,yes,768,legacy,3,3,C:/Users/chelsea/OneDrive - Tarleton State University/psych 5316- adv/flanker test/vgsubject-2.csv,legacy,Lentiform Loewenfeld,3.3.3,0,h,NA,s,NA,h,NA,340,NA,3892,NA,340,NA,2,legacy,1024,2,48000,-16,experiment,HHHHH,2,even,NA,NA,NA,18879,17650,8359,NA,18983,18874,18983,12253,NA,NA,8352,NA,19324,Flanker Task,4,2418,4,yes,1024
100,100,564.4,564.4,black,legacy,legacy,legacy,0,incongruent,uniform,1,undefined,1,s,4,4,0,4,4,0,0,4,4,4,0,0,0,0,0,4,Sun Sep 13 18:27:08 2020,1500,The main experiment item,yes,FlankerTask.osexp,C:/Users/chelsea/OneDrive - Tarleton State University/psych 5316- adv/flanker test,no,mono,no,18,no,white,no,yes,768,legacy,4,4,C:/Users/chelsea/OneDrive - Tarleton State University/psych 5316- adv/flanker test/vgsubject-2.csv,legacy,Lentiform Loewenfeld,3.3.3,0,s,NA,s,NA,s,NA,404,NA,3892,NA,404,NA,2,legacy,1024,2,48000,-16,experiment,HHSHH,2,even,NA,NA,NA,20614,19387,8359,NA,20718,20609,20718,12253,NA,NA,8352,NA,21123,Flanker Task,5,2822,5,yes,1024
100,100,561,561,black,legacy,legacy,legacy,0,incongruent,uniform,1,undefined,1,s,5,5,0,5,5,0,0,5,5,5,0,0,0,0,0,5,Sun Sep 13 18:27:08 2020,1500,The main experiment item,yes,FlankerTask.osexp,C:/Users/chelsea/OneDrive - Tarleton State University/psych 5316- adv/flanker test,no,mono,no,18,no,white,no,yes,768,legacy,5,5,C:/Users/chelsea/OneDrive - Tarleton State University/psych 5316- adv/flanker test/vgsubject-2.csv,legacy,Lentiform Loewenfeld,3.3.3,0,s,NA,s,NA,s,NA,544,NA,3892,NA,544,NA,2,legacy,1024,2,48000,-16,experiment,HHSHH,2,even,NA,NA,NA,22418,21187,8359,NA,22522,22412,22522,12253,NA,NA,8352,NA,23068,Flanker Task,6,3366,6,yes,1024
100,100,536.8571429,536.8571429,black,legacy,legacy,legacy,0,congruent,uniform,1,undefined,1,h,6,6,0,6,6,0,0,6,6,6,0,0,0,0,0,6,Sun Sep 13 18:27:08 2020,1500,The main experiment item,yes,FlankerTask.osexp,C:/Users/chelsea/OneDrive - Tarleton State University/psych 5316- adv/flanker test,no,mono,no,18,no,white,no,yes,768,legacy,6,6,C:/Users/chelsea/OneDrive - Tarleton State University/psych 5316- adv/flanker test/vgsubject-2.csv,legacy,Lentiform Loewenfeld,3.3.3,0,h,NA,s,NA,h,NA,392,NA,3892,NA,392,NA,2,legacy,1024,2,48000,-16,experiment,HHHHH,2,even,NA,NA,NA,24354,23120,8359,NA,24458,24349,24457,12253,NA,NA,8352,NA,24851,Flanker Task,7,3758,7,yes,1024
87.5,87.5,511.5,511.5,black,legacy,legacy,legacy,0,congruent,uniform,0,undefined,0,h,7,7,0,7,7,0,0,7,7,7,0,0,0,0,0,7,Sun Sep 13 18:27:08 2020,1500,The main experiment item,yes,FlankerTask.osexp,C:/Users/chelsea/OneDrive - Tarleton State University/psych 5316- adv/flanker test,no,mono,no,18,no,white,no,yes,768,legacy,7,7,C:/Users/chelsea/OneDrive - Tarleton State University/psych 5316- adv/flanker test/vgsubject-2.csv,legacy,Lentiform Loewenfeld,3.3.3,0,s,NA,s,NA,s,NA,334,NA,3892,NA,334,NA,2,legacy,1024,2,48000,-16,experiment,HHHHH,2,even,NA,NA,NA,26141,24911,8359,NA,26245,26136,26245,12253,NA,NA,8352,NA,26580,Flanker Task,7,4092,8,yes,1024
88.88888889,88.88888889,508.8888889,508.8888889,black,legacy,legacy,legacy,0,congruent,uniform,1,undefined,1,s,8,8,0,8,8,0,0,8,8,8,0,0,0,0,0,8,Sun Sep 13 18:27:08 2020,1500,The main experiment item,yes,FlankerTask.osexp,C:/Users/chelsea/OneDrive - Tarleton State University/psych 5316- adv/flanker test,no,mono,no,18,no,white,no,yes,768,legacy,8,8,C:/Users/chelsea/OneDrive - Tarleton State University/psych 5316- adv/flanker test/vgsubject-2.csv,legacy,Lentiform Loewenfeld,3.3.3,0,s,NA,s,NA,s,NA,488,NA,3892,NA,488,NA,2,legacy,1024,2,48000,-16,experiment,SSSSS,2,even,26621,NA,NA,28354,27126,8359,NA,28458,28348,28458,12253,NA,NA,8352,NA,28948,Flanker Task,8,4580,9,yes,1024
90,90,510.5,510.5,black,legacy,legacy,legacy,0,congruent,uniform,1,undefined,1,h,9,9,0,9,9,0,0,9,9,9,0,0,0,0,0,9,Sun Sep 13 18:27:08 2020,1500,The main experiment item,yes,FlankerTask.osexp,C:/Users/chelsea/OneDrive - Tarleton State University/psych 5316- adv/flanker test,no,mono,no,18,no,white,no,yes,768,legacy,9,9,C:/Users/chelsea/OneDrive - Tarleton State University/psych 5316- adv/flanker test/vgsubject-2.csv,legacy,Lentiform Loewenfeld,3.3.3,0,h,NA,s,NA,h,NA,525,NA,3892,NA,525,NA,2,legacy,1024,2,48000,-16,experiment,HHHHH,2,even,26621,NA,NA,30242,29017,8359,NA,30349,30237,30348,12253,NA,NA,8352,NA,30875,Flanker Task,9,5105,10,yes,1024
90.90909091,90.90909091,504.1818182,504.1818182,black,legacy,legacy,legacy,0,congruent,uniform,1,undefined,1,s,10,10,0,10,10,0,0,10,10,10,0,0,0,0,0,10,Sun Sep 13 18:27:08 2020,1500,The main experiment item,yes,FlankerTask.osexp,C:/Users/chelsea/OneDrive - Tarleton State University/psych 5316- adv/flanker test,no,mono,no,18,no,white,no,yes,768,legacy,10,10,C:/Users/chelsea/OneDrive - Tarleton State University/psych 5316- adv/flanker test/vgsubject-2.csv,legacy,Lentiform Loewenfeld,3.3.3,0,s,NA,s,NA,s,NA,441,NA,3892,NA,441,NA,2,legacy,1024,2,48000,-16,experiment,SSSSS,2,even,26621,NA,NA,32160,30932,8359,NA,32265,32155,32265,12253,NA,NA,8352,NA,32708,Flanker Task,10,5546,11,yes,1024
91.66666667,91.66666667,510.4166667,510.4166667,black,legacy,legacy,legacy,0,congruent,uniform,1,undefined,1,s,11,11,0,11,11,0,0,11,11,11,0,0,0,0,0,11,Sun Sep 13 18:27:08 2020,1500,The main experiment item,yes,FlankerTask.osexp,C:/Users/chelsea/OneDrive - Tarleton State University/psych 5316- adv/flanker test,no,mono,no,18,no,white,no,yes,768,legacy,11,11,C:/Users/chelsea/OneDrive - Tarleton State University/psych 5316- adv/flanker test/vgsubject-2.csv,legacy,Lentiform Loewenfeld,3.3.3,0,s,NA,s,NA,s,NA,579,NA,3892,NA,579,NA,2,legacy,1024,2,48000,-16,experiment,SSSSS,2,even,26621,NA,NA,33991,32754,8359,NA,34095,33985,34095,12253,NA,NA,8352,NA,34676,Flanker Task,11,6125,12,yes,1024
92.30769231,92.30769231,513.6923077,513.6923077,black,legacy,legacy,legacy,0,incongruent,uniform,1,undefined,1,h,12,12,0,12,12,0,0,12,12,12,0,0,0,0,0,12,Sun Sep 13 18:27:08 2020,1500,The main experiment item,yes,FlankerTask.osexp,C:/Users/chelsea/OneDrive - Tarleton State University/psych 5316- adv/flanker test,no,mono,no,18,no,white,no,yes,768,legacy,12,12,C:/Users/chelsea/OneDrive - Tarleton State University/psych 5316- adv/flanker test/vgsubject-2.csv,legacy,Lentiform Loewenfeld,3.3.3,0,h,NA,s,NA,h,NA,553,NA,3892,NA,553,NA,2,legacy,1024,2,48000,-16,experiment,SSHSS,2,even,26621,NA,NA,35954,34721,8359,NA,36058,35949,36058,12253,NA,NA,8352,NA,36612,Flanker Task,12,6678,13,yes,1024
85.71428571,85.71428571,499.5714286,499.5714286,black,legacy,legacy,legacy,0,congruent,uniform,0,undefined,0,h,13,13,0,13,13,0,0,13,13,13,0,0,0,0,0,13,Sun Sep 13 18:27:08 2020,1500,The main experiment item,yes,FlankerTask.osexp,C:/Users/chelsea/OneDrive - Tarleton State University/psych 5316- adv/flanker test,no,mono,no,18,no,white,no,yes,768,legacy,13,13,C:/Users/chelsea/OneDrive - Tarleton State University/psych 5316- adv/flanker test/vgsubject-2.csv,legacy,Lentiform Loewenfeld,3.3.3,0,s,NA,s,NA,s,NA,316,NA,3892,NA,316,NA,2,legacy,1024,2,48000,-16,experiment,HHHHH,2,even,26621,NA,NA,37958,36712,8359,NA,38062,37952,38062,12253,NA,NA,8352,NA,38380,Flanker Task,12,6994,14,yes,1024
86.66666667,86.66666667,505.4,505.4,black,legacy,legacy,legacy,0,incongruent,uniform,1,undefined,1,s,14,14,0,14,14,0,0,14,14,14,0,0,0,0,0,14,Sun Sep 13 18:27:08 2020,1500,The main experiment item,yes,FlankerTask.osexp,C:/Users/chelsea/OneDrive - Tarleton State University/psych 5316- adv/flanker test,no,mono,no,18,no,white,no,yes,768,legacy,14,14,C:/Users/chelsea/OneDrive - Tarleton State University/psych 5316- adv/flanker test/vgsubject-2.csv,legacy,Lentiform Loewenfeld,3.3.3,0,s,NA,s,NA,s,NA,587,NA,3892,NA,587,NA,2,legacy,1024,2,48000,-16,experiment,HHSHH,2,even,38428,NA,NA,40165,38933,8359,NA,40271,40159,40271,12253,NA,NA,8352,NA,40860,Flanker Task,13,7581,15,yes,1024
87.5,87.5,507.3125,507.3125,black,legacy,legacy,legacy,0,incongruent,uniform,1,undefined,1,s,15,15,0,15,15,0,0,15,15,15,0,0,0,0,0,15,Sun Sep 13 18:27:08 2020,1500,The main experiment item,yes,FlankerTask.osexp,C:/Users/chelsea/OneDrive - Tarleton State University/psych 5316- adv/flanker test,no,mono,no,18,no,white,no,yes,768,legacy,15,15,C:/Users/chelsea/OneDrive - Tarleton State University/psych 5316- adv/flanker test/vgsubject-2.csv,legacy,Lentiform Loewenfeld,3.3.3,0,s,NA,s,NA,s,NA,536,NA,3892,NA,536,NA,2,legacy,1024,2,48000,-16,experiment,HHSHH,2,even,38428,NA,NA,42121,40898,8359,NA,42226,42116,42226,12253,NA,NA,8352,NA,42764,Flanker Task,14,8117,16,yes,1024
88.23529412,88.23529412,508.4117647,508.4117647,black,legacy,legacy,legacy,0,congruent,uniform,1,undefined,1,s,16,16,0,16,16,0,0,16,16,16,0,0,0,0,0,16,Sun Sep 13 18:27:08 2020,1500,The main experiment item,yes,FlankerTask.osexp,C:/Users/chelsea/OneDrive - Tarleton State University/psych 5316- adv/flanker test,no,mono,no,18,no,white,no,yes,768,legacy,16,16,C:/Users/chelsea/OneDrive - Tarleton State University/psych 5316- adv/flanker test/vgsubject-2.csv,legacy,Lentiform Loewenfeld,3.3.3,0,s,NA,s,NA,s,NA,526,NA,3892,NA,526,NA,2,legacy,1024,2,48000,-16,experiment,SSSSS,2,even,38428,NA,NA,44044,42806,8359,NA,44148,44039,44148,12253,NA,NA,8352,NA,44676,Flanker Task,15,8643,17,yes,1024
88.88888889,88.88888889,506.7222222,506.7222222,black,legacy,legacy,legacy,0,congruent,uniform,1,undefined,1,h,17,17,0,17,17,0,0,17,17,17,0,0,0,0,0,17,Sun Sep 13 18:27:08 2020,1500,The main experiment item,yes,FlankerTask.osexp,C:/Users/chelsea/OneDrive - Tarleton State University/psych 5316- adv/flanker test,no,mono,no,18,no,white,no,yes,768,legacy,17,17,C:/Users/chelsea/OneDrive - Tarleton State University/psych 5316- adv/flanker test/vgsubject-2.csv,legacy,Lentiform Loewenfeld,3.3.3,0,h,NA,s,NA,h,NA,478,NA,3892,NA,478,NA,2,legacy,1024,2,48000,-16,experiment,HHHHH,2,even,38428,NA,NA,45964,44724,8359,NA,46068,45958,46068,12253,NA,NA,8352,NA,46548,Flanker Task,16,9121,18,yes,1024
84.21052632,84.21052632,507.3684211,507.3684211,black,legacy,legacy,legacy,0,congruent,uniform,0,undefined,0,h,18,18,0,18,18,0,0,18,18,18,0,0,0,0,0,18,Sun Sep 13 18:27:08 2020,1500,The main experiment item,yes,FlankerTask.osexp,C:/Users/chelsea/OneDrive - Tarleton State University/psych 5316- adv/flanker test,no,mono,no,18,no,white,no,yes,768,legacy,18,18,C:/Users/chelsea/OneDrive - Tarleton State University/psych 5316- adv/flanker test/vgsubject-2.csv,legacy,Lentiform Loewenfeld,3.3.3,0,s,NA,s,NA,s,NA,519,NA,3892,NA,519,NA,2,legacy,1024,2,48000,-16,experiment,HHHHH,2,even,38428,NA,NA,47890,46656,8359,NA,47995,47885,47995,12253,NA,NA,8352,NA,48516,Flanker Task,16,9640,19,yes,1024
85,85,524.3,524.3,black,legacy,legacy,legacy,0,congruent,uniform,1,undefined,1,s,19,19,0,19,19,0,0,19,19,19,0,0,0,0,0,19,Sun Sep 13 18:27:08 2020,1500,The main experiment item,yes,FlankerTask.osexp,C:/Users/chelsea/OneDrive - Tarleton State University/psych 5316- adv/flanker test,no,mono,no,18,no,white,no,yes,768,legacy,19,19,C:/Users/chelsea/OneDrive - Tarleton State University/psych 5316- adv/flanker test/vgsubject-2.csv,legacy,Lentiform Loewenfeld,3.3.3,0,s,NA,s,NA,s,NA,846,NA,3892,NA,846,NA,2,legacy,1024,2,48000,-16,experiment,SSSSS,2,even,48565,NA,NA,50302,49071,8359,NA,50406,50296,50406,12253,NA,NA,8352,NA,51253,Flanker Task,17,10486,20,yes,1024
85.71428571,85.71428571,519,519,black,legacy,legacy,legacy,0,congruent,uniform,1,undefined,1,h,20,20,0,20,20,0,0,20,20,20,0,0,0,0,0,20,Sun Sep 13 18:27:08 2020,1500,The main experiment item,yes,FlankerTask.osexp,C:/Users/chelsea/OneDrive - Tarleton State University/psych 5316- adv/flanker test,no,mono,no,18,no,white,no,yes,768,legacy,20,20,C:/Users/chelsea/OneDrive - Tarleton State University/psych 5316- adv/flanker test/vgsubject-2.csv,legacy,Lentiform Loewenfeld,3.3.3,0,h,NA,s,NA,h,NA,413,NA,3892,NA,413,NA,2,legacy,1024,2,48000,-16,experiment,HHHHH,2,even,48565,NA,NA,52532,51299,8359,NA,52637,52526,52636,12253,NA,NA,8352,NA,53052,Flanker Task,18,10899,21,yes,1024
86.36363636,86.36363636,524.3636364,524.3636364,black,legacy,legacy,legacy,0,incongruent,uniform,1,undefined,1,s,21,21,0,21,21,0,0,21,21,21,0,0,0,0,0,21,Sun Sep 13 18:27:08 2020,1500,The main experiment item,yes,FlankerTask.osexp,C:/Users/chelsea/OneDrive - Tarleton State University/psych 5316- adv/flanker test,no,mono,no,18,no,white,no,yes,768,legacy,21,21,C:/Users/chelsea/OneDrive - Tarleton State University/psych 5316- adv/flanker test/vgsubject-2.csv,legacy,Lentiform Loewenfeld,3.3.3,0,s,NA,s,NA,s,NA,637,NA,3892,NA,637,NA,2,legacy,1024,2,48000,-16,experiment,HHSHH,2,even,48565,NA,NA,54333,53099,8359,NA,54437,54327,54437,12253,NA,NA,8352,NA,55076,Flanker Task,19,11536,22,yes,1024
86.95652174,86.95652174,524.3913043,524.3913043,black,legacy,legacy,legacy,0,incongruent,uniform,1,undefined,1,h,22,22,0,22,22,0,0,22,22,22,0,0,0,0,0,22,Sun Sep 13 18:27:08 2020,1500,The main experiment item,yes,FlankerTask.osexp,C:/Users/chelsea/OneDrive - Tarleton State University/psych 5316- adv/flanker test,no,mono,no,18,no,white,no,yes,768,legacy,22,22,C:/Users/chelsea/OneDrive - Tarleton State University/psych 5316- adv/flanker test/vgsubject-2.csv,legacy,Lentiform Loewenfeld,3.3.3,0,h,NA,s,NA,h,NA,525,NA,3892,NA,525,NA,2,legacy,1024,2,48000,-16,experiment,SSHSS,2,even,48565,NA,NA,56341,55106,8359,NA,56445,56335,56445,12253,NA,NA,8352,NA,56972,Flanker Task,20,12061,23,yes,1024
87.5,87.5,524.25,524.25,black,legacy,legacy,legacy,0,incongruent,uniform,1,undefined,1,s,23,23,0,23,23,0,0,23,23,23,0,0,0,0,0,23,Sun Sep 13 18:27:08 2020,1500,The main experiment item,yes,FlankerTask.osexp,C:/Users/chelsea/OneDrive - Tarleton State University/psych 5316- adv/flanker test,no,mono,no,18,no,white,no,yes,768,legacy,23,23,C:/Users/chelsea/OneDrive - Tarleton State University/psych 5316- adv/flanker test/vgsubject-2.csv,legacy,Lentiform Loewenfeld,3.3.3,0,s,NA,s,NA,s,NA,521,NA,3892,NA,521,NA,2,legacy,1024,2,48000,-16,experiment,HHSHH,2,even,48565,NA,NA,58250,57017,8359,NA,58354,58244,58354,12253,NA,NA,8352,NA,58877,Flanker Task,21,12582,24,yes,1024
88,88,527.48,527.48,black,legacy,legacy,legacy,0,congruent,uniform,1,undefined,1,h,24,24,0,24,24,0,0,24,24,24,0,0,0,0,0,24,Sun Sep 13 18:27:08 2020,1500,The main experiment item,yes,FlankerTask.osexp,C:/Users/chelsea/OneDrive - Tarleton State University/psych 5316- adv/flanker test,no,mono,no,18,no,white,no,yes,768,legacy,24,24,C:/Users/chelsea/OneDrive - Tarleton State University/psych 5316- adv/flanker test/vgsubject-2.csv,legacy,Lentiform Loewenfeld,3.3.3,0,h,NA,s,NA,h,NA,605,NA,3892,NA,605,NA,2,legacy,1024,2,48000,-16,experiment,HHHHH,2,even,48565,NA,NA,60182,58955,8359,NA,60286,60177,60286,12253,NA,NA,8352,NA,60893,Flanker Task,22,13187,25,yes,1024
88.46153846,88.46153846,531.6923077,531.6923077,black,legacy,legacy,legacy,0,incongruent,uniform,1,undefined,1,h,25,25,0,25,25,0,0,25,25,25,0,0,0,0,0,25,Sun Sep 13 18:27:08 2020,1500,The main experiment item,yes,FlankerTask.osexp,C:/Users/chelsea/OneDrive - Tarleton State University/psych 5316- adv/flanker test,no,mono,no,18,no,white,no,yes,768,legacy,25,25,C:/Users/chelsea/OneDrive - Tarleton State University/psych 5316- adv/flanker test/vgsubject-2.csv,legacy,Lentiform Loewenfeld,3.3.3,0,h,NA,s,NA,h,NA,637,NA,3892,NA,637,NA,2,legacy,1024,2,48000,-16,experiment,SSHSS,2,even,48565,NA,NA,62173,60944,8359,NA,62285,62168,62285,12253,NA,NA,8352,NA,62924,Flanker Task,23,13824,26,yes,1024
88.88888889,88.88888889,535.8148148,535.8148148,black,legacy,legacy,legacy,0,congruent,uniform,1,undefined,1,h,26,26,0,26,26,0,0,26,26,26,0,0,0,0,0,26,Sun Sep 13 18:27:08 2020,1500,The main experiment item,yes,FlankerTask.osexp,C:/Users/chelsea/OneDrive - Tarleton State University/psych 5316- adv/flanker test,no,mono,no,18,no,white,no,yes,768,legacy,26,26,C:/Users/chelsea/OneDrive - Tarleton State University/psych 5316- adv/flanker test/vgsubject-2.csv,legacy,Lentiform Loewenfeld,3.3.3,0,h,NA,s,NA,h,NA,643,NA,3892,NA,643,NA,2,legacy,1024,2,48000,-16,experiment,HHHHH,2,even,48565,NA,NA,64198,62969,8359,NA,64303,64193,64303,12253,NA,NA,8352,NA,64949,Flanker Task,24,14467,27,yes,1024
89.28571429,89.28571429,560.0357143,560.0357143,black,legacy,legacy,legacy,0,incongruent,uniform,1,undefined,1,s,27,27,0,27,27,0,0,27,27,27,0,0,0,0,0,27,Sun Sep 13 18:27:08 2020,1500,The main experiment item,yes,FlankerTask.osexp,C:/Users/chelsea/OneDrive - Tarleton State University/psych 5316- adv/flanker test,no,mono,no,18,no,white,no,yes,768,legacy,27,27,C:/Users/chelsea/OneDrive - Tarleton State University/psych 5316- adv/flanker test/vgsubject-2.csv,legacy,Lentiform Loewenfeld,3.3.3,0,s,NA,s,NA,s,NA,1214,NA,3892,NA,1214,NA,2,legacy,1024,2,48000,-16,experiment,HHSHH,2,even,48565,NA,NA,66237,65007,8359,NA,66341,66232,66341,12253,NA,NA,8352,NA,67557,Flanker Task,25,15681,28,yes,1024
89.65517241,89.65517241,558.6551724,558.6551724,black,legacy,legacy,legacy,0,incongruent,uniform,1,undefined,1,h,28,28,0,28,28,0,0,28,28,28,0,0,0,0,0,28,Sun Sep 13 18:27:08 2020,1500,The main experiment item,yes,FlankerTask.osexp,C:/Users/chelsea/OneDrive - Tarleton State University/psych 5316- adv/flanker test,no,mono,no,18,no,white,no,yes,768,legacy,28,28,C:/Users/chelsea/OneDrive - Tarleton State University/psych 5316- adv/flanker test/vgsubject-2.csv,legacy,Lentiform Loewenfeld,3.3.3,0,h,NA,s,NA,h,NA,520,NA,3892,NA,520,NA,2,legacy,1024,2,48000,-16,experiment,SSHSS,2,even,48565,NA,NA,68840,67610,8359,NA,68946,68834,68946,12253,NA,NA,8352,NA,69468,Flanker Task,26,16201,29,yes,1024
90,90,564.8666667,564.8666667,black,legacy,legacy,legacy,0,incongruent,uniform,1,undefined,1,s,29,29,0,29,29,0,0,29,29,29,0,0,0,0,0,29,Sun Sep 13 18:27:08 2020,1500,The main experiment item,yes,FlankerTask.osexp,C:/Users/chelsea/OneDrive - Tarleton State University/psych 5316- adv/flanker test,no,mono,no,18,no,white,no,yes,768,legacy,29,29,C:/Users/chelsea/OneDrive - Tarleton State University/psych 5316- adv/flanker test/vgsubject-2.csv,legacy,Lentiform Loewenfeld,3.3.3,0,s,NA,s,NA,s,NA,745,NA,3892,NA,745,NA,2,legacy,1024,2,48000,-16,experiment,HHSHH,2,even,48565,NA,NA,70744,69510,8359,NA,70849,70739,70849,12253,NA,NA,8352,NA,71597,Flanker Task,27,16946,30,yes,1024
90.32258065,90.32258065,563.0967742,563.0967742,black,legacy,legacy,legacy,0,incongruent,uniform,1,undefined,1,h,30,30,0,30,30,0,0,30,30,30,0,0,0,0,0,30,Sun Sep 13 18:27:08 2020,1500,The main experiment item,yes,FlankerTask.osexp,C:/Users/chelsea/OneDrive - Tarleton State University/psych 5316- adv/flanker test,no,mono,no,18,no,white,no,yes,768,legacy,30,30,C:/Users/chelsea/OneDrive - Tarleton State University/psych 5316- adv/flanker test/vgsubject-2.csv,legacy,Lentiform Loewenfeld,3.3.3,0,h,NA,s,NA,h,NA,510,NA,3892,NA,510,NA,2,legacy,1024,2,48000,-16,experiment,SSHSS,2,even,48565,NA,NA,72868,71633,8359,NA,72972,72863,72972,12253,NA,NA,8352,NA,73484,Flanker Task,28,17456,31,yes,1024
90.625,90.625,558.90625,558.90625,black,legacy,legacy,legacy,0,congruent,uniform,1,undefined,1,s,31,31,0,31,31,0,0,31,31,31,0,0,0,0,0,31,Sun Sep 13 18:27:08 2020,1500,The main experiment item,yes,FlankerTask.osexp,C:/Users/chelsea/OneDrive - Tarleton State University/psych 5316- adv/flanker test,no,mono,no,18,no,white,no,yes,768,legacy,31,31,C:/Users/chelsea/OneDrive - Tarleton State University/psych 5316- adv/flanker test/vgsubject-2.csv,legacy,Lentiform Loewenfeld,3.3.3,0,s,NA,s,NA,s,NA,429,NA,3892,NA,429,NA,2,legacy,1024,2,48000,-16,experiment,SSSSS,2,even,48565,NA,NA,74765,73532,8359,NA,74870,74760,74870,12253,NA,NA,8352,NA,75301,Flanker Task,29,17885,32,yes,1024
90.90909091,90.90909091,553,553,black,legacy,legacy,legacy,0,incongruent,uniform,1,undefined,1,h,32,32,0,32,32,0,0,32,32,32,0,0,0,0,0,32,Sun Sep 13 18:27:08 2020,1500,The main experiment item,yes,FlankerTask.osexp,C:/Users/chelsea/OneDrive - Tarleton State University/psych 5316- adv/flanker test,no,mono,no,18,no,white,no,yes,768,legacy,32,32,C:/Users/chelsea/OneDrive - Tarleton State University/psych 5316- adv/flanker test/vgsubject-2.csv,legacy,Lentiform Loewenfeld,3.3.3,0,h,NA,s,NA,h,NA,364,NA,3892,NA,364,NA,2,legacy,1024,2,48000,-16,experiment,SSHSS,2,even,48565,NA,NA,76581,75352,8359,NA,76686,76576,76686,12253,NA,NA,8352,NA,77053,Flanker Task,30,18249,33,yes,1024
91.17647059,91.17647059,548.9411765,548.9411765,black,legacy,legacy,legacy,0,incongruent,uniform,1,undefined,1,s,33,33,0,33,33,0,0,33,33,33,0,0,0,0,0,33,Sun Sep 13 18:27:08 2020,1500,The main experiment item,yes,FlankerTask.osexp,C:/Users/chelsea/OneDrive - Tarleton State University/psych 5316- adv/flanker test,no,mono,no,18,no,white,no,yes,768,legacy,33,33,C:/Users/chelsea/OneDrive - Tarleton State University/psych 5316- adv/flanker test/vgsubject-2.csv,legacy,Lentiform Loewenfeld,3.3.3,0,s,NA,s,NA,s,NA,415,NA,3892,NA,415,NA,2,legacy,1024,2,48000,-16,experiment,HHSHH,2,even,48565,NA,NA,78467,77234,8359,NA,78571,78461,78571,12253,NA,NA,8352,NA,78988,Flanker Task,31,18664,34,yes,1024
91.42857143,91.42857143,549.3428571,549.3428571,black,legacy,legacy,legacy,0,incongruent,uniform,1,undefined,1,h,34,34,0,34,34,0,0,34,34,34,0,0,0,0,0,34,Sun Sep 13 18:27:08 2020,1500,The main experiment item,yes,FlankerTask.osexp,C:/Users/chelsea/OneDrive - Tarleton State University/psych 5316- adv/flanker test,no,mono,no,18,no,white,no,yes,768,legacy,34,34,C:/Users/chelsea/OneDrive - Tarleton State University/psych 5316- adv/flanker test/vgsubject-2.csv,legacy,Lentiform Loewenfeld,3.3.3,0,h,NA,s,NA,h,NA,563,NA,3892,NA,563,NA,2,legacy,1024,2,48000,-16,experiment,SSHSS,2,even,48565,NA,NA,80245,79022,8359,NA,80351,80240,80351,12253,NA,NA,8352,NA,80917,Flanker Task,32,19227,35,yes,1024
91.66666667,91.66666667,546.6666667,546.6666667,black,legacy,legacy,legacy,0,congruent,uniform,1,undefined,1,s,35,35,0,35,35,0,0,35,35,35,0,0,0,0,0,35,Sun Sep 13 18:27:08 2020,1500,The main experiment item,yes,FlankerTask.osexp,C:/Users/chelsea/OneDrive - Tarleton State University/psych 5316- adv/flanker test,no,mono,no,18,no,white,no,yes,768,legacy,35,35,C:/Users/chelsea/OneDrive - Tarleton State University/psych 5316- adv/flanker test/vgsubject-2.csv,legacy,Lentiform Loewenfeld,3.3.3,0,s,NA,s,NA,s,NA,453,NA,3892,NA,453,NA,2,legacy,1024,2,48000,-16,experiment,SSSSS,2,even,48565,NA,NA,82190,80963,8359,NA,82294,82185,82294,12253,NA,NA,8352,NA,82749,Flanker Task,33,19680,36,yes,1024
91.89189189,91.89189189,544.8648649,544.8648649,black,legacy,legacy,legacy,0,incongruent,uniform,1,undefined,1,h,36,36,0,36,36,0,0,36,36,36,0,0,0,0,0,36,Sun Sep 13 18:27:08 2020,1500,The main experiment item,yes,FlankerTask.osexp,C:/Users/chelsea/OneDrive - Tarleton State University/psych 5316- adv/flanker test,no,mono,no,18,no,white,no,yes,768,legacy,36,36,C:/Users/chelsea/OneDrive - Tarleton State University/psych 5316- adv/flanker test/vgsubject-2.csv,legacy,Lentiform Loewenfeld,3.3.3,0,h,NA,s,NA,h,NA,480,NA,3892,NA,480,NA,2,legacy,1024,2,48000,-16,experiment,SSHSS,2,even,48565,NA,NA,84122,82886,8359,NA,84226,84116,84226,12253,NA,NA,8352,NA,84709,Flanker Task,34,20160,37,yes,1024
92.10526316,92.10526316,546.5263158,546.5263158,black,legacy,legacy,legacy,0,congruent,uniform,1,undefined,1,h,37,37,0,37,37,0,0,37,37,37,0,0,0,0,0,37,Sun Sep 13 18:27:08 2020,1500,The main experiment item,yes,FlankerTask.osexp,C:/Users/chelsea/OneDrive - Tarleton State University/psych 5316- adv/flanker test,no,mono,no,18,no,white,no,yes,768,legacy,37,37,C:/Users/chelsea/OneDrive - Tarleton State University/psych 5316- adv/flanker test/vgsubject-2.csv,legacy,Lentiform Loewenfeld,3.3.3,0,h,NA,s,NA,h,NA,608,NA,3892,NA,608,NA,2,legacy,1024,2,48000,-16,experiment,HHHHH,2,even,48565,NA,NA,86082,84851,8359,NA,86186,86076,86186,12253,NA,NA,8352,NA,86797,Flanker Task,35,20768,38,yes,1024
92.30769231,92.30769231,545.6410256,545.6410256,black,legacy,legacy,legacy,0,congruent,uniform,1,undefined,1,h,38,38,0,38,38,0,0,38,38,38,0,0,0,0,0,38,Sun Sep 13 18:27:08 2020,1500,The main experiment item,yes,FlankerTask.osexp,C:/Users/chelsea/OneDrive - Tarleton State University/psych 5316- adv/flanker test,no,mono,no,18,no,white,no,yes,768,legacy,38,38,C:/Users/chelsea/OneDrive - Tarleton State University/psych 5316- adv/flanker test/vgsubject-2.csv,legacy,Lentiform Loewenfeld,3.3.3,0,h,NA,s,NA,h,NA,512,NA,3892,NA,512,NA,2,legacy,1024,2,48000,-16,experiment,HHHHH,2,even,48565,NA,NA,88067,86833,8359,NA,88171,88062,88171,12253,NA,NA,8352,NA,88685,Flanker Task,36,21280,39,yes,1024
92.5,92.5,547.1,547.1,black,legacy,legacy,legacy,0,incongruent,uniform,1,undefined,1,h,39,39,0,39,39,0,0,39,39,39,0,0,0,0,0,39,Sun Sep 13 18:27:08 2020,1500,The main experiment item,yes,FlankerTask.osexp,C:/Users/chelsea/OneDrive - Tarleton State University/psych 5316- adv/flanker test,no,mono,no,18,no,white,no,yes,768,legacy,39,39,C:/Users/chelsea/OneDrive - Tarleton State University/psych 5316- adv/flanker test/vgsubject-2.csv,legacy,Lentiform Loewenfeld,3.3.3,0,h,NA,s,NA,h,NA,604,NA,3892,NA,604,NA,2,legacy,1024,2,48000,-16,experiment,SSHSS,2,even,48565,NA,NA,90253,89025,8359,NA,90358,90248,90358,12253,NA,NA,8352,NA,90964,Flanker Task,37,21884,40,yes,1024
92.68292683,92.68292683,559.6097561,559.6097561,black,legacy,legacy,legacy,0,incongruent,uniform,1,undefined,1,s,40,40,0,40,40,0,0,40,40,40,0,0,0,0,0,40,Sun Sep 13 18:27:08 2020,1500,The main experiment item,yes,FlankerTask.osexp,C:/Users/chelsea/OneDrive - Tarleton State University/psych 5316- adv/flanker test,no,mono,no,18,no,white,no,yes,768,legacy,40,40,C:/Users/chelsea/OneDrive - Tarleton State University/psych 5316- adv/flanker test/vgsubject-2.csv,legacy,Lentiform Loewenfeld,3.3.3,0,s,NA,s,NA,s,NA,1060,NA,3892,NA,1060,NA,2,legacy,1024,2,48000,-16,experiment,HHSHH,2,even,48565,NA,NA,92245,91016,8359,NA,92350,92240,92350,12253,NA,NA,8352,NA,93413,Flanker Task,38,22944,41,yes,1024
92.85714286,92.85714286,559.2619048,559.2619048,black,legacy,legacy,legacy,0,congruent,uniform,1,undefined,1,h,41,41,0,41,41,0,0,41,41,41,0,0,0,0,0,41,Sun Sep 13 18:27:08 2020,1500,The main experiment item,yes,FlankerTask.osexp,C:/Users/chelsea/OneDrive - Tarleton State University/psych 5316- adv/flanker test,no,mono,no,18,no,white,no,yes,768,legacy,41,41,C:/Users/chelsea/OneDrive - Tarleton State University/psych 5316- adv/flanker test/vgsubject-2.csv,legacy,Lentiform Loewenfeld,3.3.3,0,h,NA,s,NA,h,NA,545,NA,3892,NA,545,NA,2,legacy,1024,2,48000,-16,experiment,HHHHH,2,even,48565,NA,NA,94697,93463,8359,NA,94801,94692,94801,12253,NA,NA,8352,NA,95349,Flanker Task,39,23489,42,yes,1024
90.69767442,90.69767442,561.2790698,561.2790698,black,legacy,legacy,legacy,0,incongruent,uniform,0,undefined,0,s,42,42,0,42,42,0,0,42,42,42,0,0,0,0,0,42,Sun Sep 13 18:27:08 2020,1500,The main experiment item,yes,FlankerTask.osexp,C:/Users/chelsea/OneDrive - Tarleton State University/psych 5316- adv/flanker test,no,mono,no,18,no,white,no,yes,768,legacy,42,42,C:/Users/chelsea/OneDrive - Tarleton State University/psych 5316- adv/flanker test/vgsubject-2.csv,legacy,Lentiform Loewenfeld,3.3.3,0,h,NA,s,NA,h,NA,646,NA,3892,NA,646,NA,2,legacy,1024,2,48000,-16,experiment,HHSHH,2,even,48565,NA,NA,96645,95422,8359,NA,96749,96639,96749,12253,NA,NA,8352,NA,97397,Flanker Task,39,24135,43,yes,1024
90.90909091,90.90909091,568.1818182,568.1818182,black,legacy,legacy,legacy,0,incongruent,uniform,1,undefined,1,h,43,43,0,43,43,0,0,43,43,43,0,0,0,0,0,43,Sun Sep 13 18:27:08 2020,1500,The main experiment item,yes,FlankerTask.osexp,C:/Users/chelsea/OneDrive - Tarleton State University/psych 5316- adv/flanker test,no,mono,no,18,no,white,no,yes,768,legacy,43,43,C:/Users/chelsea/OneDrive - Tarleton State University/psych 5316- adv/flanker test/vgsubject-2.csv,legacy,Lentiform Loewenfeld,3.3.3,0,h,NA,s,NA,h,NA,865,NA,3892,NA,865,NA,2,legacy,1024,2,48000,-16,experiment,SSHSS,2,even,97443,NA,NA,99185,97948,8359,NA,99289,99179,99289,12253,NA,NA,8352,NA,100157,Flanker Task,40,25000,44,yes,1024
91.11111111,91.11111111,565.9111111,565.9111111,black,legacy,legacy,legacy,0,congruent,uniform,1,undefined,1,h,44,44,0,44,44,0,0,44,44,44,0,0,0,0,0,44,Sun Sep 13 18:27:08 2020,1500,The main experiment item,yes,FlankerTask.osexp,C:/Users/chelsea/OneDrive - Tarleton State University/psych 5316- adv/flanker test,no,mono,no,18,no,white,no,yes,768,legacy,44,44,C:/Users/chelsea/OneDrive - Tarleton State University/psych 5316- adv/flanker test/vgsubject-2.csv,legacy,Lentiform Loewenfeld,3.3.3,0,h,NA,s,NA,h,NA,466,NA,3892,NA,466,NA,2,legacy,1024,2,48000,-16,experiment,HHHHH,2,even,97443,NA,NA,101431,100199,8359,NA,101536,101426,101535,12253,NA,NA,8352,NA,102005,Flanker Task,41,25466,45,yes,1024
91.30434783,91.30434783,565.826087,565.826087,black,legacy,legacy,legacy,0,incongruent,uniform,1,undefined,1,s,45,45,0,45,45,0,0,45,45,45,0,0,0,0,0,45,Sun Sep 13 18:27:08 2020,1500,The main experiment item,yes,FlankerTask.osexp,C:/Users/chelsea/OneDrive - Tarleton State University/psych 5316- adv/flanker test,no,mono,no,18,no,white,no,yes,768,legacy,45,45,C:/Users/chelsea/OneDrive - Tarleton State University/psych 5316- adv/flanker test/vgsubject-2.csv,legacy,Lentiform Loewenfeld,3.3.3,0,s,NA,s,NA,s,NA,562,NA,3892,NA,562,NA,2,legacy,1024,2,48000,-16,experiment,HHSHH,2,even,97443,NA,NA,103296,102066,8359,NA,103400,103291,103400,12253,NA,NA,8352,NA,103965,Flanker Task,42,26028,46,yes,1024
91.4893617,91.4893617,564.5957447,564.5957447,black,legacy,legacy,legacy,0,incongruent,uniform,1,undefined,1,s,46,46,0,46,46,0,0,46,46,46,0,0,0,0,0,46,Sun Sep 13 18:27:08 2020,1500,The main experiment item,yes,FlankerTask.osexp,C:/Users/chelsea/OneDrive - Tarleton State University/psych 5316- adv/flanker test,no,mono,no,18,no,white,no,yes,768,legacy,46,46,C:/Users/chelsea/OneDrive - Tarleton State University/psych 5316- adv/flanker test/vgsubject-2.csv,legacy,Lentiform Loewenfeld,3.3.3,0,s,NA,s,NA,s,NA,508,NA,3892,NA,508,NA,2,legacy,1024,2,48000,-16,experiment,HHSHH,2,even,97443,NA,NA,105238,104010,8359,NA,105342,105232,105342,12253,NA,NA,8352,NA,105853,Flanker Task,43,26536,47,yes,1024
91.66666667,91.66666667,564.0208333,564.0208333,black,legacy,legacy,legacy,0,incongruent,uniform,1,undefined,1,h,47,47,0,47,47,0,0,47,47,47,0,0,0,0,0,47,Sun Sep 13 18:27:08 2020,1500,The main experiment item,yes,FlankerTask.osexp,C:/Users/chelsea/OneDrive - Tarleton State University/psych 5316- adv/flanker test,no,mono,no,18,no,white,no,yes,768,legacy,47,47,C:/Users/chelsea/OneDrive - Tarleton State University/psych 5316- adv/flanker test/vgsubject-2.csv,legacy,Lentiform Loewenfeld,3.3.3,0,h,NA,s,NA,h,NA,537,NA,3892,NA,537,NA,2,legacy,1024,2,48000,-16,experiment,SSHSS,2,even,97443,NA,NA,107240,106013,8359,NA,107345,107235,107345,12253,NA,NA,8352,NA,107886,Flanker Task,44,27073,48,yes,1024
91.83673469,91.83673469,564.4489796,564.4489796,black,legacy,legacy,legacy,0,incongruent,uniform,1,undefined,1,h,48,48,0,48,48,0,0,48,48,48,0,0,0,0,0,48,Sun Sep 13 18:27:08 2020,1500,The main experiment item,yes,FlankerTask.osexp,C:/Users/chelsea/OneDrive - Tarleton State University/psych 5316- adv/flanker test,no,mono,no,18,no,white,no,yes,768,legacy,48,48,C:/Users/chelsea/OneDrive - Tarleton State University/psych 5316- adv/flanker test/vgsubject-2.csv,legacy,Lentiform Loewenfeld,3.3.3,0,h,NA,s,NA,h,NA,585,NA,3892,NA,585,NA,2,legacy,1024,2,48000,-16,experiment,SSHSS,2,even,97443,NA,NA,109225,108001,8359,NA,109330,109220,109330,12253,NA,NA,8352,NA,109918,Flanker Task,45,27658,49,yes,1024
92,92,562.02,562.02,black,legacy,legacy,legacy,0,incongruent,uniform,1,undefined,1,h,49,49,0,49,49,0,0,49,49,49,0,0,0,0,0,49,Sun Sep 13 18:27:08 2020,1500,The main experiment item,yes,FlankerTask.osexp,C:/Users/chelsea/OneDrive - Tarleton State University/psych 5316- adv/flanker test,no,mono,no,18,no,white,no,yes,768,legacy,49,49,C:/Users/chelsea/OneDrive - Tarleton State University/psych 5316- adv/flanker test/vgsubject-2.csv,legacy,Lentiform Loewenfeld,3.3.3,0,h,NA,s,NA,h,NA,443,NA,3892,NA,443,NA,2,legacy,1024,2,48000,-16,experiment,SSHSS,2,even,97443,NA,NA,111351,110114,8359,NA,111455,111346,111455,12253,NA,NA,8352,NA,111901,Flanker Task,46,28101,50,yes,1024
92.15686275,92.15686275,560.4117647,560.4117647,black,legacy,legacy,legacy,0,congruent,uniform,1,undefined,1,s,50,50,0,50,50,0,0,50,50,50,0,0,0,0,0,50,Sun Sep 13 18:27:08 2020,1500,The main experiment item,yes,FlankerTask.osexp,C:/Users/chelsea/OneDrive - Tarleton State University/psych 5316- adv/flanker test,no,mono,no,18,no,white,no,yes,768,legacy,50,50,C:/Users/chelsea/OneDrive - Tarleton State University/psych 5316- adv/flanker test/vgsubject-2.csv,legacy,Lentiform Loewenfeld,3.3.3,0,s,NA,s,NA,s,NA,480,NA,3892,NA,480,NA,2,legacy,1024,2,48000,-16,experiment,SSSSS,2,even,97443,NA,NA,113154,111931,8359,NA,113258,113148,113258,12253,NA,NA,8352,NA,113741,Flanker Task,47,28581,51,yes,1024
92.30769231,92.30769231,559.3461538,559.3461538,black,legacy,legacy,legacy,0,incongruent,uniform,1,undefined,1,s,51,51,0,51,51,0,0,51,51,51,0,0,0,0,0,51,Sun Sep 13 18:27:08 2020,1500,The main experiment item,yes,FlankerTask.osexp,C:/Users/chelsea/OneDrive - Tarleton State University/psych 5316- adv/flanker test,no,mono,no,18,no,white,no,yes,768,legacy,51,51,C:/Users/chelsea/OneDrive - Tarleton State University/psych 5316- adv/flanker test/vgsubject-2.csv,legacy,Lentiform Loewenfeld,3.3.3,0,s,NA,s,NA,s,NA,505,NA,3892,NA,505,NA,2,legacy,1024,2,48000,-16,experiment,HHSHH,2,even,97443,NA,NA,115031,113800,8359,NA,115137,115026,115136,12253,NA,NA,8352,NA,115645,Flanker Task,48,29086,52,yes,1024
92.45283019,92.45283019,556.9056604,556.9056604,black,legacy,legacy,legacy,0,incongruent,uniform,1,undefined,1,s,52,52,0,52,52,0,0,52,52,52,0,0,0,0,0,52,Sun Sep 13 18:27:08 2020,1500,The main experiment item,yes,FlankerTask.osexp,C:/Users/chelsea/OneDrive - Tarleton State University/psych 5316- adv/flanker test,no,mono,no,18,no,white,no,yes,768,legacy,52,52,C:/Users/chelsea/OneDrive - Tarleton State University/psych 5316- adv/flanker test/vgsubject-2.csv,legacy,Lentiform Loewenfeld,3.3.3,0,s,NA,s,NA,s,NA,430,NA,3892,NA,430,NA,2,legacy,1024,2,48000,-16,experiment,HHSHH,2,even,97443,NA,NA,117036,115797,8359,NA,117140,117030,117140,12253,NA,NA,8352,NA,117573,Flanker Task,49,29516,53,yes,1024
92.59259259,92.59259259,554.0185185,554.0185185,black,legacy,legacy,legacy,0,congruent,uniform,1,undefined,1,s,53,53,0,53,53,0,0,53,53,53,0,0,0,0,0,53,Sun Sep 13 18:27:08 2020,1500,The main experiment item,yes,FlankerTask.osexp,C:/Users/chelsea/OneDrive - Tarleton State University/psych 5316- adv/flanker test,no,mono,no,18,no,white,no,yes,768,legacy,53,53,C:/Users/chelsea/OneDrive - Tarleton State University/psych 5316- adv/flanker test/vgsubject-2.csv,legacy,Lentiform Loewenfeld,3.3.3,0,s,NA,s,NA,s,NA,401,NA,3892,NA,401,NA,2,legacy,1024,2,48000,-16,experiment,SSSSS,2,even,97443,NA,NA,119177,117945,8359,NA,119281,119171,119281,12253,NA,NA,8352,NA,119686,Flanker Task,50,29917,54,yes,1024
92.72727273,92.72727273,551.2363636,551.2363636,black,legacy,legacy,legacy,0,congruent,uniform,1,undefined,1,s,54,54,0,54,54,0,0,54,54,54,0,0,0,0,0,54,Sun Sep 13 18:27:08 2020,1500,The main experiment item,yes,FlankerTask.osexp,C:/Users/chelsea/OneDrive - Tarleton State University/psych 5316- adv/flanker test,no,mono,no,18,no,white,no,yes,768,legacy,54,54,C:/Users/chelsea/OneDrive - Tarleton State University/psych 5316- adv/flanker test/vgsubject-2.csv,legacy,Lentiform Loewenfeld,3.3.3,0,s,NA,s,NA,s,NA,401,NA,3892,NA,401,NA,2,legacy,1024,2,48000,-16,experiment,SSSSS,2,even,97443,NA,NA,120992,119764,8359,NA,121097,120987,121097,12253,NA,NA,8352,NA,121502,Flanker Task,51,30318,55,yes,1024
92.85714286,92.85714286,549.1607143,549.1607143,black,legacy,legacy,legacy,0,congruent,uniform,1,undefined,1,s,55,55,0,55,55,0,0,55,55,55,0,0,0,0,0,55,Sun Sep 13 18:27:08 2020,1500,The main experiment item,yes,FlankerTask.osexp,C:/Users/chelsea/OneDrive - Tarleton State University/psych 5316- adv/flanker test,no,mono,no,18,no,white,no,yes,768,legacy,55,55,C:/Users/chelsea/OneDrive - Tarleton State University/psych 5316- adv/flanker test/vgsubject-2.csv,legacy,Lentiform Loewenfeld,3.3.3,0,s,NA,s,NA,s,NA,435,NA,3892,NA,435,NA,2,legacy,1024,2,48000,-16,experiment,SSSSS,2,even,97443,NA,NA,122791,121556,8359,NA,122895,122785,122895,12253,NA,NA,8352,NA,123334,Flanker Task,52,30753,56,yes,1024
92.98245614,92.98245614,547.9122807,547.9122807,black,legacy,legacy,legacy,0,incongruent,uniform,1,undefined,1,h,56,56,0,56,56,0,0,56,56,56,0,0,0,0,0,56,Sun Sep 13 18:27:08 2020,1500,The main experiment item,yes,FlankerTask.osexp,C:/Users/chelsea/OneDrive - Tarleton State University/psych 5316- adv/flanker test,no,mono,no,18,no,white,no,yes,768,legacy,56,56,C:/Users/chelsea/OneDrive - Tarleton State University/psych 5316- adv/flanker test/vgsubject-2.csv,legacy,Lentiform Loewenfeld,3.3.3,0,h,NA,s,NA,h,NA,478,NA,3892,NA,478,NA,2,legacy,1024,2,48000,-16,experiment,SSHSS,2,even,97443,NA,NA,124620,123389,8359,NA,124724,124614,124724,12253,NA,NA,8352,NA,125206,Flanker Task,53,31231,57,yes,1024
93.10344828,93.10344828,547.9655172,547.9655172,black,legacy,legacy,legacy,0,incongruent,uniform,1,undefined,1,h,57,57,0,57,57,0,0,57,57,57,0,0,0,0,0,57,Sun Sep 13 18:27:08 2020,1500,The main experiment item,yes,FlankerTask.osexp,C:/Users/chelsea/OneDrive - Tarleton State University/psych 5316- adv/flanker test,no,mono,no,18,no,white,no,yes,768,legacy,57,57,C:/Users/chelsea/OneDrive - Tarleton State University/psych 5316- adv/flanker test/vgsubject-2.csv,legacy,Lentiform Loewenfeld,3.3.3,0,h,NA,s,NA,h,NA,551,NA,3892,NA,551,NA,2,legacy,1024,2,48000,-16,experiment,SSHSS,2,even,97443,NA,NA,126498,125267,8359,NA,126603,126493,126603,12253,NA,NA,8352,NA,127158,Flanker Task,54,31782,58,yes,1024
93.22033898,93.22033898,546.3898305,546.3898305,black,legacy,legacy,legacy,0,congruent,uniform,1,undefined,1,s,58,58,0,58,58,0,0,58,58,58,0,0,0,0,0,58,Sun Sep 13 18:27:08 2020,1500,The main experiment item,yes,FlankerTask.osexp,C:/Users/chelsea/OneDrive - Tarleton State University/psych 5316- adv/flanker test,no,mono,no,18,no,white,no,yes,768,legacy,58,58,C:/Users/chelsea/OneDrive - Tarleton State University/psych 5316- adv/flanker test/vgsubject-2.csv,legacy,Lentiform Loewenfeld,3.3.3,0,s,NA,s,NA,s,NA,455,NA,3892,NA,455,NA,2,legacy,1024,2,48000,-16,experiment,SSSSS,2,even,97443,NA,NA,128611,127375,8359,NA,128715,128606,128715,12253,NA,NA,8352,NA,129174,Flanker Task,55,32237,59,yes,1024
93.33333333,93.33333333,545.4333333,545.4333333,black,legacy,legacy,legacy,0,incongruent,uniform,1,undefined,1,h,59,59,0,59,59,0,0,59,59,59,0,0,0,0,0,59,Sun Sep 13 18:27:08 2020,1500,The main experiment item,yes,FlankerTask.osexp,C:/Users/chelsea/OneDrive - Tarleton State University/psych 5316- adv/flanker test,no,mono,no,18,no,white,no,yes,768,legacy,59,59,C:/Users/chelsea/OneDrive - Tarleton State University/psych 5316- adv/flanker test/vgsubject-2.csv,legacy,Lentiform Loewenfeld,3.3.3,0,h,NA,s,NA,h,NA,489,NA,3892,NA,489,NA,2,legacy,1024,2,48000,-16,experiment,SSHSS,2,even,97443,NA,NA,130521,129290,8359,NA,130625,130516,130625,12253,NA,NA,8352,NA,131118,Flanker Task,56,32726,60,yes,1024
93.44262295,93.44262295,544.0819672,544.0819672,black,legacy,legacy,legacy,0,congruent,uniform,1,undefined,1,h,60,60,0,60,60,0,0,60,60,60,0,0,0,0,0,60,Sun Sep 13 18:27:08 2020,1500,The main experiment item,yes,FlankerTask.osexp,C:/Users/chelsea/OneDrive - Tarleton State University/psych 5316- adv/flanker test,no,mono,no,18,no,white,no,yes,768,legacy,60,60,C:/Users/chelsea/OneDrive - Tarleton State University/psych 5316- adv/flanker test/vgsubject-2.csv,legacy,Lentiform Loewenfeld,3.3.3,0,h,NA,s,NA,h,NA,463,NA,3892,NA,463,NA,2,legacy,1024,2,48000,-16,experiment,HHHHH,2,even,97443,NA,NA,132411,131175,8359,NA,132515,132405,132515,12253,NA,NA,8352,NA,132982,Flanker Task,57,33189,61,yes,1024
93.5483871,93.5483871,544.0806452,544.0806452,black,legacy,legacy,legacy,0,incongruent,uniform,1,undefined,1,h,61,61,0,61,61,0,0,61,61,61,0,0,0,0,0,61,Sun Sep 13 18:27:08 2020,1500,The main experiment item,yes,FlankerTask.osexp,C:/Users/chelsea/OneDrive - Tarleton State University/psych 5316- adv/flanker test,no,mono,no,18,no,white,no,yes,768,legacy,61,61,C:/Users/chelsea/OneDrive - Tarleton State University/psych 5316- adv/flanker test/vgsubject-2.csv,legacy,Lentiform Loewenfeld,3.3.3,0,h,NA,s,NA,h,NA,544,NA,3892,NA,544,NA,2,legacy,1024,2,48000,-16,experiment,SSHSS,2,even,97443,NA,NA,134441,133219,8359,NA,134546,134436,134546,12253,NA,NA,8352,NA,135094,Flanker Task,58,33733,62,yes,1024
93.65079365,93.65079365,544.015873,544.015873,black,legacy,legacy,legacy,0,incongruent,uniform,1,undefined,1,s,62,62,0,62,62,0,0,62,62,62,0,0,0,0,0,62,Sun Sep 13 18:27:08 2020,1500,The main experiment item,yes,FlankerTask.osexp,C:/Users/chelsea/OneDrive - Tarleton State University/psych 5316- adv/flanker test,no,mono,no,18,no,white,no,yes,768,legacy,62,62,C:/Users/chelsea/OneDrive - Tarleton State University/psych 5316- adv/flanker test/vgsubject-2.csv,legacy,Lentiform Loewenfeld,3.3.3,0,s,NA,s,NA,s,NA,540,NA,3892,NA,540,NA,2,legacy,1024,2,48000,-16,experiment,HHSHH,2,even,97443,NA,NA,136374,135138,8359,NA,136479,136369,136479,12253,NA,NA,8352,NA,137022,Flanker Task,59,34273,63,yes,1024
93.75,93.75,540.546875,540.546875,black,legacy,legacy,legacy,0,incongruent,uniform,1,undefined,1,h,63,63,0,63,63,0,0,63,63,63,0,0,0,0,0,63,Sun Sep 13 18:27:08 2020,1500,The main experiment item,yes,FlankerTask.osexp,C:/Users/chelsea/OneDrive - Tarleton State University/psych 5316- adv/flanker test,no,mono,no,18,no,white,no,yes,768,legacy,63,63,C:/Users/chelsea/OneDrive - Tarleton State University/psych 5316- adv/flanker test/vgsubject-2.csv,legacy,Lentiform Loewenfeld,3.3.3,0,h,NA,s,NA,h,NA,322,NA,3892,NA,322,NA,2,legacy,1024,2,48000,-16,experiment,SSHSS,2,even,97443,NA,NA,138344,137117,8359,NA,138449,138339,138449,12253,NA,NA,8352,NA,138774,Flanker Task,60,34595,64,yes,1024
93.84615385,93.84615385,540.4615385,540.4615385,black,legacy,legacy,legacy,0,incongruent,uniform,1,undefined,1,h,64,64,0,64,64,0,0,64,64,64,0,0,0,0,0,64,Sun Sep 13 18:27:08 2020,1500,The main experiment item,yes,FlankerTask.osexp,C:/Users/chelsea/OneDrive - Tarleton State University/psych 5316- adv/flanker test,no,mono,no,18,no,white,no,yes,768,legacy,64,64,C:/Users/chelsea/OneDrive - Tarleton State University/psych 5316- adv/flanker test/vgsubject-2.csv,legacy,Lentiform Loewenfeld,3.3.3,0,h,NA,s,NA,h,NA,535,NA,3892,NA,535,NA,2,legacy,1024,2,48000,-16,experiment,SSHSS,2,even,97443,NA,NA,140050,138819,8359,NA,140155,140045,140155,12253,NA,NA,8352,NA,140694,Flanker Task,61,35130,65,yes,1024
93.93939394,93.93939394,541.3484848,541.3484848,black,legacy,legacy,legacy,0,incongruent,uniform,1,undefined,1,s,65,65,0,65,65,0,0,65,65,65,0,0,0,0,0,65,Sun Sep 13 18:27:08 2020,1500,The main experiment item,yes,FlankerTask.osexp,C:/Users/chelsea/OneDrive - Tarleton State University/psych 5316- adv/flanker test,no,mono,no,18,no,white,no,yes,768,legacy,65,65,C:/Users/chelsea/OneDrive - Tarleton State University/psych 5316- adv/flanker test/vgsubject-2.csv,legacy,Lentiform Loewenfeld,3.3.3,0,s,NA,s,NA,s,NA,599,NA,3892,NA,599,NA,2,legacy,1024,2,48000,-16,experiment,HHSHH,2,even,97443,NA,NA,141985,140751,8359,NA,142091,141980,142091,12253,NA,NA,8352,NA,142694,Flanker Task,62,35729,66,yes,1024
94.02985075,94.02985075,541.8208955,541.8208955,black,legacy,legacy,legacy,0,incongruent,uniform,1,undefined,1,s,66,66,0,66,66,0,0,66,66,66,0,0,0,0,0,66,Sun Sep 13 18:27:08 2020,1500,The main experiment item,yes,FlankerTask.osexp,C:/Users/chelsea/OneDrive - Tarleton State University/psych 5316- adv/flanker test,no,mono,no,18,no,white,no,yes,768,legacy,66,66,C:/Users/chelsea/OneDrive - Tarleton State University/psych 5316- adv/flanker test/vgsubject-2.csv,legacy,Lentiform Loewenfeld,3.3.3,0,s,NA,s,NA,s,NA,573,NA,3892,NA,573,NA,2,legacy,1024,2,48000,-16,experiment,HHSHH,2,even,97443,NA,NA,143965,142741,8359,NA,144069,143959,144069,12253,NA,NA,8352,NA,144646,Flanker Task,63,36302,67,yes,1024
94.11764706,94.11764706,541.9411765,541.9411765,black,legacy,legacy,legacy,0,congruent,uniform,1,undefined,1,s,67,67,0,67,67,0,0,67,67,67,0,0,0,0,0,67,Sun Sep 13 18:27:08 2020,1500,The main experiment item,yes,FlankerTask.osexp,C:/Users/chelsea/OneDrive - Tarleton State University/psych 5316- adv/flanker test,no,mono,no,18,no,white,no,yes,768,legacy,67,67,C:/Users/chelsea/OneDrive - Tarleton State University/psych 5316- adv/flanker test/vgsubject-2.csv,legacy,Lentiform Loewenfeld,3.3.3,0,s,NA,s,NA,s,NA,550,NA,3892,NA,550,NA,2,legacy,1024,2,48000,-16,experiment,SSSSS,2,even,97443,NA,NA,145940,144697,8359,NA,146044,145935,146044,12253,NA,NA,8352,NA,146598,Flanker Task,64,36852,68,yes,1024
94.20289855,94.20289855,540,540,black,legacy,legacy,legacy,0,congruent,uniform,1,undefined,1,s,68,68,0,68,68,0,0,68,68,68,0,0,0,0,0,68,Sun Sep 13 18:27:08 2020,1500,The main experiment item,yes,FlankerTask.osexp,C:/Users/chelsea/OneDrive - Tarleton State University/psych 5316- adv/flanker test,no,mono,no,18,no,white,no,yes,768,legacy,68,68,C:/Users/chelsea/OneDrive - Tarleton State University/psych 5316- adv/flanker test/vgsubject-2.csv,legacy,Lentiform Loewenfeld,3.3.3,0,s,NA,s,NA,s,NA,408,NA,3892,NA,408,NA,2,legacy,1024,2,48000,-16,experiment,SSSSS,2,even,97443,NA,NA,147866,146630,8359,NA,147970,147861,147970,12253,NA,NA,8352,NA,148382,Flanker Task,65,37260,69,yes,1024
94.28571429,94.28571429,539.8,539.8,black,legacy,legacy,legacy,0,congruent,uniform,1,undefined,1,s,69,69,0,69,69,0,0,69,69,69,0,0,0,0,0,69,Sun Sep 13 18:27:08 2020,1500,The main experiment item,yes,FlankerTask.osexp,C:/Users/chelsea/OneDrive - Tarleton State University/psych 5316- adv/flanker test,no,mono,no,18,no,white,no,yes,768,legacy,69,69,C:/Users/chelsea/OneDrive - Tarleton State University/psych 5316- adv/flanker test/vgsubject-2.csv,legacy,Lentiform Loewenfeld,3.3.3,0,s,NA,s,NA,s,NA,526,NA,3892,NA,526,NA,2,legacy,1024,2,48000,-16,experiment,SSSSS,2,even,97443,NA,NA,149676,148438,8359,NA,149780,149671,149780,12253,NA,NA,8352,NA,150310,Flanker Task,66,37786,70,yes,1024
94.36619718,94.36619718,538.943662,538.943662,black,legacy,legacy,legacy,0,congruent,uniform,1,undefined,1,s,70,70,0,70,70,0,0,70,70,70,0,0,0,0,0,70,Sun Sep 13 18:27:08 2020,1500,The main experiment item,yes,FlankerTask.osexp,C:/Users/chelsea/OneDrive - Tarleton State University/psych 5316- adv/flanker test,no,mono,no,18,no,white,no,yes,768,legacy,70,70,C:/Users/chelsea/OneDrive - Tarleton State University/psych 5316- adv/flanker test/vgsubject-2.csv,legacy,Lentiform Loewenfeld,3.3.3,0,s,NA,s,NA,s,NA,479,NA,3892,NA,479,NA,2,legacy,1024,2,48000,-16,experiment,SSSSS,2,even,97443,NA,NA,151571,150338,8359,NA,151675,151565,151675,12253,NA,NA,8352,NA,152158,Flanker Task,67,38265,71,yes,1024
94.44444444,94.44444444,540.3333333,540.3333333,black,legacy,legacy,legacy,0,incongruent,uniform,1,undefined,1,h,71,71,0,71,71,0,0,71,71,71,0,0,0,0,0,71,Sun Sep 13 18:27:08 2020,1500,The main experiment item,yes,FlankerTask.osexp,C:/Users/chelsea/OneDrive - Tarleton State University/psych 5316- adv/flanker test,no,mono,no,18,no,white,no,yes,768,legacy,71,71,C:/Users/chelsea/OneDrive - Tarleton State University/psych 5316- adv/flanker test/vgsubject-2.csv,legacy,Lentiform Loewenfeld,3.3.3,0,h,NA,s,NA,h,NA,639,NA,3892,NA,639,NA,2,legacy,1024,2,48000,-16,experiment,SSHSS,2,even,97443,NA,NA,153466,152230,8359,NA,153571,153461,153571,12253,NA,NA,8352,NA,154214,Flanker Task,68,38904,72,yes,1024
94.52054795,94.52054795,540.6164384,540.6164384,black,legacy,legacy,legacy,0,congruent,uniform,1,undefined,1,h,72,72,0,72,72,0,0,72,72,72,0,0,0,0,0,72,Sun Sep 13 18:27:08 2020,1500,The main experiment item,yes,FlankerTask.osexp,C:/Users/chelsea/OneDrive - Tarleton State University/psych 5316- adv/flanker test,no,mono,no,18,no,white,no,yes,768,legacy,72,72,C:/Users/chelsea/OneDrive - Tarleton State University/psych 5316- adv/flanker test/vgsubject-2.csv,legacy,Lentiform Loewenfeld,3.3.3,0,h,NA,s,NA,h,NA,561,NA,3892,NA,561,NA,2,legacy,1024,2,48000,-16,experiment,HHHHH,2,even,97443,NA,NA,155497,154261,8359,NA,155601,155491,155601,12253,NA,NA,8352,NA,156166,Flanker Task,69,39465,73,yes,1024
94.59459459,94.59459459,539.472973,539.472973,black,legacy,legacy,legacy,0,congruent,uniform,1,undefined,1,h,73,73,0,73,73,0,0,73,73,73,0,0,0,0,0,73,Sun Sep 13 18:27:08 2020,1500,The main experiment item,yes,FlankerTask.osexp,C:/Users/chelsea/OneDrive - Tarleton State University/psych 5316- adv/flanker test,no,mono,no,18,no,white,no,yes,768,legacy,73,73,C:/Users/chelsea/OneDrive - Tarleton State University/psych 5316- adv/flanker test/vgsubject-2.csv,legacy,Lentiform Loewenfeld,3.3.3,0,h,NA,s,NA,h,NA,456,NA,3892,NA,456,NA,2,legacy,1024,2,48000,-16,experiment,HHHHH,2,even,97443,NA,NA,157466,156242,8359,NA,157570,157461,157570,12253,NA,NA,8352,NA,158030,Flanker Task,70,39921,74,yes,1024
94.66666667,94.66666667,540.6266667,540.6266667,black,legacy,legacy,legacy,0,congruent,uniform,1,undefined,1,s,74,74,0,74,74,0,0,74,74,74,0,0,0,0,0,74,Sun Sep 13 18:27:08 2020,1500,The main experiment item,yes,FlankerTask.osexp,C:/Users/chelsea/OneDrive - Tarleton State University/psych 5316- adv/flanker test,no,mono,no,18,no,white,no,yes,768,legacy,74,74,C:/Users/chelsea/OneDrive - Tarleton State University/psych 5316- adv/flanker test/vgsubject-2.csv,legacy,Lentiform Loewenfeld,3.3.3,0,s,NA,s,NA,s,NA,626,NA,3892,NA,626,NA,2,legacy,1024,2,48000,-16,experiment,SSSSS,2,even,97443,NA,NA,159352,158130,8359,NA,159456,159347,159456,12253,NA,NA,8352,NA,160087,Flanker Task,71,40547,75,yes,1024
94.73684211,94.73684211,541.2236842,541.2236842,black,legacy,legacy,legacy,0,congruent,uniform,1,undefined,1,s,75,75,0,75,75,0,0,75,75,75,0,0,0,0,0,75,Sun Sep 13 18:27:08 2020,1500,The main experiment item,yes,FlankerTask.osexp,C:/Users/chelsea/OneDrive - Tarleton State University/psych 5316- adv/flanker test,no,mono,no,18,no,white,no,yes,768,legacy,75,75,C:/Users/chelsea/OneDrive - Tarleton State University/psych 5316- adv/flanker test/vgsubject-2.csv,legacy,Lentiform Loewenfeld,3.3.3,0,s,NA,s,NA,s,NA,586,NA,3892,NA,586,NA,2,legacy,1024,2,48000,-16,experiment,SSSSS,2,even,97443,NA,NA,161384,160153,8359,NA,161488,161379,161488,12253,NA,NA,8352,NA,162078,Flanker Task,72,41133,76,yes,1024
94.80519481,94.80519481,540.025974,540.025974,black,legacy,legacy,legacy,0,congruent,uniform,1,undefined,1,s,76,76,0,76,76,0,0,76,76,76,0,0,0,0,0,76,Sun Sep 13 18:27:08 2020,1500,The main experiment item,yes,FlankerTask.osexp,C:/Users/chelsea/OneDrive - Tarleton State University/psych 5316- adv/flanker test,no,mono,no,18,no,white,no,yes,768,legacy,76,76,C:/Users/chelsea/OneDrive - Tarleton State University/psych 5316- adv/flanker test/vgsubject-2.csv,legacy,Lentiform Loewenfeld,3.3.3,0,s,NA,s,NA,s,NA,449,NA,3892,NA,449,NA,2,legacy,1024,2,48000,-16,experiment,SSSSS,2,even,97443,NA,NA,163416,162187,8359,NA,163521,163411,163521,12253,NA,NA,8352,NA,163974,Flanker Task,73,41582,77,yes,1024
94.87179487,94.87179487,539.8974359,539.8974359,black,legacy,legacy,legacy,0,congruent,uniform,1,undefined,1,h,77,77,0,77,77,0,0,77,77,77,0,0,0,0,0,77,Sun Sep 13 18:27:08 2020,1500,The main experiment item,yes,FlankerTask.osexp,C:/Users/chelsea/OneDrive - Tarleton State University/psych 5316- adv/flanker test,no,mono,no,18,no,white,no,yes,768,legacy,77,77,C:/Users/chelsea/OneDrive - Tarleton State University/psych 5316- adv/flanker test/vgsubject-2.csv,legacy,Lentiform Loewenfeld,3.3.3,0,h,NA,s,NA,h,NA,530,NA,3892,NA,530,NA,2,legacy,1024,2,48000,-16,experiment,HHHHH,2,even,97443,NA,NA,165288,164061,8359,NA,165392,165283,165392,12253,NA,NA,8352,NA,165927,Flanker Task,74,42112,78,yes,1024
94.93670886,94.93670886,539.6708861,539.6708861,black,legacy,legacy,legacy,0,congruent,uniform,1,undefined,1,h,78,78,0,78,78,0,0,78,78,78,0,0,0,0,0,78,Sun Sep 13 18:27:08 2020,1500,The main experiment item,yes,FlankerTask.osexp,C:/Users/chelsea/OneDrive - Tarleton State University/psych 5316- adv/flanker test,no,mono,no,18,no,white,no,yes,768,legacy,78,78,C:/Users/chelsea/OneDrive - Tarleton State University/psych 5316- adv/flanker test/vgsubject-2.csv,legacy,Lentiform Loewenfeld,3.3.3,0,h,NA,s,NA,h,NA,522,NA,3892,NA,522,NA,2,legacy,1024,2,48000,-16,experiment,HHHHH,2,even,97443,NA,NA,167304,166074,8359,NA,167408,167298,167408,12253,NA,NA,8352,NA,167934,Flanker Task,75,42634,79,yes,1024
95,95,538.6875,538.6875,black,legacy,legacy,legacy,0,incongruent,uniform,1,undefined,1,s,79,79,0,79,79,0,0,79,79,79,0,0,0,0,0,79,Sun Sep 13 18:27:08 2020,1500,The main experiment item,yes,FlankerTask.osexp,C:/Users/chelsea/OneDrive - Tarleton State University/psych 5316- adv/flanker test,no,mono,no,18,no,white,no,yes,768,legacy,79,79,C:/Users/chelsea/OneDrive - Tarleton State University/psych 5316- adv/flanker test/vgsubject-2.csv,legacy,Lentiform Loewenfeld,3.3.3,0,s,NA,s,NA,s,NA,461,NA,3892,NA,461,NA,2,legacy,1024,2,48000,-16,experiment,HHSHH,2,even,97443,NA,NA,169276,168052,8359,NA,169381,169271,169381,12253,NA,NA,8352,NA,169846,Flanker Task,76,43095,80,yes,1024
95.0617284,95.0617284,539.3580247,539.3580247,black,legacy,legacy,legacy,0,congruent,uniform,1,undefined,1,s,80,80,0,80,80,0,0,80,80,80,0,0,0,0,0,80,Sun Sep 13 18:27:08 2020,600,The main experiment item,yes,FlankerTask.osexp,C:/Users/chelsea/OneDrive - Tarleton State University/psych 5316- adv/flanker test,no,mono,no,18,no,white,no,yes,768,legacy,0,79,C:/Users/chelsea/OneDrive - Tarleton State University/psych 5316- adv/flanker test/vgsubject-2.csv,legacy,Lentiform Loewenfeld,3.3.3,0,s,NA,s,NA,s,s,593,NA,3892,NA,593,5496,2,legacy,1024,2,48000,-16,experiment,SSSSS,2,even,97443,NA,NA,176697,169931,8359,NA,176801,176692,176801,12253,176519,NA,8352,171018,177398,Flanker Task,77,43688,81,yes,1024
95.12195122,95.12195122,542.402439,542.402439,black,legacy,legacy,legacy,0,congruent,uniform,1,undefined,1,s,81,81,0,81,81,0,0,81,81,81,0,0,0,0,0,81,Sun Sep 13 18:27:08 2020,600,The main experiment item,yes,FlankerTask.osexp,C:/Users/chelsea/OneDrive - Tarleton State University/psych 5316- adv/flanker test,no,mono,no,18,no,white,no,yes,768,legacy,1,79,C:/Users/chelsea/OneDrive - Tarleton State University/psych 5316- adv/flanker test/vgsubject-2.csv,legacy,Lentiform Loewenfeld,3.3.3,0,s,NA,s,NA,s,s,789,NA,3892,NA,789,5496,2,legacy,1024,2,48000,-16,experiment,SSSSS,2,even,97443,NA,NA,178669,177441,8359,NA,178773,178663,178773,12253,176519,NA,8352,171018,179566,Flanker Task,78,44477,82,yes,1024
95.18072289,95.18072289,539.7710843,539.7710843,black,legacy,legacy,legacy,0,congruent,uniform,1,undefined,1,h,82,82,0,82,82,0,0,82,82,82,0,0,0,0,0,82,Sun Sep 13 18:27:08 2020,600,The main experiment item,yes,FlankerTask.osexp,C:/Users/chelsea/OneDrive - Tarleton State University/psych 5316- adv/flanker test,no,mono,no,18,no,white,no,yes,768,legacy,2,79,C:/Users/chelsea/OneDrive - Tarleton State University/psych 5316- adv/flanker test/vgsubject-2.csv,legacy,Lentiform Loewenfeld,3.3.3,0,h,NA,s,NA,h,s,324,NA,3892,NA,324,5496,2,legacy,1024,2,48000,-16,experiment,HHHHH,2,even,97443,179616,NA,181350,180121,8359,NA,181454,181345,181454,12253,176519,NA,8352,171018,181782,Flanker Task,79,44801,83,yes,1024
95.23809524,95.23809524,537.8214286,537.8214286,black,legacy,legacy,legacy,0,congruent,uniform,1,undefined,1,h,83,83,0,83,83,0,0,83,83,83,0,0,0,0,0,83,Sun Sep 13 18:27:08 2020,600,The main experiment item,yes,FlankerTask.osexp,C:/Users/chelsea/OneDrive - Tarleton State University/psych 5316- adv/flanker test,no,mono,no,18,no,white,no,yes,768,legacy,3,79,C:/Users/chelsea/OneDrive - Tarleton State University/psych 5316- adv/flanker test/vgsubject-2.csv,legacy,Lentiform Loewenfeld,3.3.3,0,h,NA,s,NA,h,s,376,NA,3892,NA,376,5496,2,legacy,1024,2,48000,-16,experiment,HHHHH,2,even,97443,179616,NA,183049,181828,8359,NA,183154,183044,183153,12253,176519,NA,8352,171018,183535,Flanker Task,80,45177,84,yes,1024
94.11764706,94.11764706,536.8,536.8,black,legacy,legacy,legacy,0,incongruent,uniform,0,undefined,0,s,84,84,0,84,84,0,0,84,84,84,0,0,0,0,0,84,Sun Sep 13 18:27:08 2020,600,The main experiment item,yes,FlankerTask.osexp,C:/Users/chelsea/OneDrive - Tarleton State University/psych 5316- adv/flanker test,no,mono,no,18,no,white,no,yes,768,legacy,4,79,C:/Users/chelsea/OneDrive - Tarleton State University/psych 5316- adv/flanker test/vgsubject-2.csv,legacy,Lentiform Loewenfeld,3.3.3,0,h,NA,s,NA,h,s,451,NA,3892,NA,451,5496,2,legacy,1024,2,48000,-16,experiment,HHSHH,2,even,97443,179616,NA,184887,183653,8359,NA,184991,184882,184991,12253,176519,NA,8352,171018,185447,Flanker Task,80,45628,85,yes,1024
94.18604651,94.18604651,535.5581395,535.5581395,black,legacy,legacy,legacy,0,congruent,uniform,1,undefined,1,s,85,85,0,85,85,0,0,85,85,85,0,0,0,0,0,85,Sun Sep 13 18:27:08 2020,600,The main experiment item,yes,FlankerTask.osexp,C:/Users/chelsea/OneDrive - Tarleton State University/psych 5316- adv/flanker test,no,mono,no,18,no,white,no,yes,768,legacy,5,79,C:/Users/chelsea/OneDrive - Tarleton State University/psych 5316- adv/flanker test/vgsubject-2.csv,legacy,Lentiform Loewenfeld,3.3.3,0,s,NA,s,NA,s,s,430,NA,3892,NA,430,5496,2,legacy,1024,2,48000,-16,experiment,SSSSS,2,even,185484,179616,NA,187213,185988,8359,NA,187317,187208,187317,12253,176519,NA,8352,171018,187751,Flanker Task,81,46058,86,yes,1024
94.25287356,94.25287356,534.6896552,534.6896552,black,legacy,legacy,legacy,0,incongruent,uniform,1,undefined,1,s,86,86,0,86,86,0,0,86,86,86,0,0,0,0,0,86,Sun Sep 13 18:27:08 2020,600,The main experiment item,yes,FlankerTask.osexp,C:/Users/chelsea/OneDrive - Tarleton State University/psych 5316- adv/flanker test,no,mono,no,18,no,white,no,yes,768,legacy,6,79,C:/Users/chelsea/OneDrive - Tarleton State University/psych 5316- adv/flanker test/vgsubject-2.csv,legacy,Lentiform Loewenfeld,3.3.3,0,s,NA,s,NA,s,s,460,NA,3892,NA,460,5496,2,legacy,1024,2,48000,-16,experiment,HHSHH,2,even,185484,179616,NA,189085,187854,8359,NA,189190,189080,189190,12253,176519,NA,8352,171018,189655,Flanker Task,82,46518,87,yes,1024
94.31818182,94.31818182,534.3181818,534.3181818,black,legacy,legacy,legacy,0,congruent,uniform,1,undefined,1,h,87,87,0,87,87,0,0,87,87,87,0,0,0,0,0,87,Sun Sep 13 18:27:08 2020,600,The main experiment item,yes,FlankerTask.osexp,C:/Users/chelsea/OneDrive - Tarleton State University/psych 5316- adv/flanker test,no,mono,no,18,no,white,no,yes,768,legacy,7,79,C:/Users/chelsea/OneDrive - Tarleton State University/psych 5316- adv/flanker test/vgsubject-2.csv,legacy,Lentiform Loewenfeld,3.3.3,0,h,NA,s,NA,h,s,502,NA,3892,NA,502,5496,2,legacy,1024,2,48000,-16,experiment,HHHHH,2,even,185484,179616,NA,190940,189708,8359,NA,191044,190934,191044,12253,176519,NA,8352,171018,191551,Flanker Task,83,47020,88,yes,1024
94.38202247,94.38202247,533.9101124,533.9101124,black,legacy,legacy,legacy,0,congruent,uniform,1,undefined,1,h,88,88,0,88,88,0,0,88,88,88,0,0,0,0,0,88,Sun Sep 13 18:27:08 2020,600,The main experiment item,yes,FlankerTask.osexp,C:/Users/chelsea/OneDrive - Tarleton State University/psych 5316- adv/flanker test,no,mono,no,18,no,white,no,yes,768,legacy,8,79,C:/Users/chelsea/OneDrive - Tarleton State University/psych 5316- adv/flanker test/vgsubject-2.csv,legacy,Lentiform Loewenfeld,3.3.3,0,h,NA,s,NA,h,s,498,NA,3892,NA,498,5496,2,legacy,1024,2,48000,-16,experiment,HHHHH,2,even,185484,179616,NA,192840,191608,8359,NA,192945,192835,192945,12253,176519,NA,8352,171018,193447,Flanker Task,84,47518,89,yes,1024
94.44444444,94.44444444,532.8666667,532.8666667,black,legacy,legacy,legacy,0,congruent,uniform,1,undefined,1,h,89,89,0,89,89,0,0,89,89,89,0,0,0,0,0,89,Sun Sep 13 18:27:08 2020,600,The main experiment item,yes,FlankerTask.osexp,C:/Users/chelsea/OneDrive - Tarleton State University/psych 5316- adv/flanker test,no,mono,no,18,no,white,no,yes,768,legacy,9,79,C:/Users/chelsea/OneDrive - Tarleton State University/psych 5316- adv/flanker test/vgsubject-2.csv,legacy,Lentiform Loewenfeld,3.3.3,0,h,NA,s,NA,h,s,440,NA,3892,NA,440,5496,2,legacy,1024,2,48000,-16,experiment,HHHHH,2,even,185484,179616,NA,194721,193495,8359,NA,194826,194716,194826,12253,176519,NA,8352,171018,195272,Flanker Task,85,47958,90,yes,1024
94.50549451,94.50549451,532.0659341,532.0659341,black,legacy,legacy,legacy,0,incongruent,uniform,1,undefined,1,s,90,90,0,90,90,0,0,90,90,90,0,0,0,0,0,90,Sun Sep 13 18:27:08 2020,600,The main experiment item,yes,FlankerTask.osexp,C:/Users/chelsea/OneDrive - Tarleton State University/psych 5316- adv/flanker test,no,mono,no,18,no,white,no,yes,768,legacy,10,79,C:/Users/chelsea/OneDrive - Tarleton State University/psych 5316- adv/flanker test/vgsubject-2.csv,legacy,Lentiform Loewenfeld,3.3.3,0,s,NA,s,NA,s,s,460,NA,3892,NA,460,5496,2,legacy,1024,2,48000,-16,experiment,HHSHH,2,even,185484,179616,NA,196534,195306,8359,NA,196638,196529,196638,12253,176519,NA,8352,171018,197103,Flanker Task,86,48418,91,yes,1024
93.47826087,93.47826087,529.9347826,529.9347826,black,legacy,legacy,legacy,0,congruent,uniform,0,undefined,0,s,91,91,0,91,91,0,0,91,91,91,0,0,0,0,0,91,Sun Sep 13 18:27:08 2020,600,The main experiment item,yes,FlankerTask.osexp,C:/Users/chelsea/OneDrive - Tarleton State University/psych 5316- adv/flanker test,no,mono,no,18,no,white,no,yes,768,legacy,11,79,C:/Users/chelsea/OneDrive - Tarleton State University/psych 5316- adv/flanker test/vgsubject-2.csv,legacy,Lentiform Loewenfeld,3.3.3,0,h,NA,s,NA,h,s,336,NA,3892,NA,336,5496,2,legacy,1024,2,48000,-16,experiment,SSSSS,2,even,185484,179616,NA,198394,197164,8359,NA,198498,198388,198498,12253,176519,NA,8352,171018,198839,Flanker Task,86,48754,92,yes,1024
93.5483871,93.5483871,529.0537634,529.0537634,black,legacy,legacy,legacy,0,congruent,uniform,1,undefined,1,s,92,92,0,92,92,0,0,92,92,92,0,0,0,0,0,92,Sun Sep 13 18:27:08 2020,600,The main experiment item,yes,FlankerTask.osexp,C:/Users/chelsea/OneDrive - Tarleton State University/psych 5316- adv/flanker test,no,mono,no,18,no,white,no,yes,768,legacy,12,79,C:/Users/chelsea/OneDrive - Tarleton State University/psych 5316- adv/flanker test/vgsubject-2.csv,legacy,Lentiform Loewenfeld,3.3.3,0,s,NA,s,NA,s,s,448,NA,3892,NA,448,5496,2,legacy,1024,2,48000,-16,experiment,SSSSS,2,even,198931,179616,NA,200666,199435,8359,NA,200770,200661,200770,12253,176519,NA,8352,171018,201224,Flanker Task,87,49202,93,yes,1024
93.61702128,93.61702128,528.7659574,528.7659574,black,legacy,legacy,legacy,0,congruent,uniform,1,undefined,1,h,93,93,0,93,93,0,0,93,93,93,0,0,0,0,0,93,Sun Sep 13 18:27:08 2020,600,The main experiment item,yes,FlankerTask.osexp,C:/Users/chelsea/OneDrive - Tarleton State University/psych 5316- adv/flanker test,no,mono,no,18,no,white,no,yes,768,legacy,13,79,C:/Users/chelsea/OneDrive - Tarleton State University/psych 5316- adv/flanker test/vgsubject-2.csv,legacy,Lentiform Loewenfeld,3.3.3,0,h,NA,s,NA,h,s,502,NA,3892,NA,502,5496,2,legacy,1024,2,48000,-16,experiment,HHHHH,2,even,198931,179616,NA,202524,201276,8359,NA,202628,202518,202628,12253,176519,NA,8352,171018,203136,Flanker Task,88,49704,94,yes,1024
93.68421053,93.68421053,528.9473684,528.9473684,black,legacy,legacy,legacy,0,congruent,uniform,1,undefined,1,s,94,94,0,94,94,0,0,94,94,94,0,0,0,0,0,94,Sun Sep 13 18:27:08 2020,600,The main experiment item,yes,FlankerTask.osexp,C:/Users/chelsea/OneDrive - Tarleton State University/psych 5316- adv/flanker test,no,mono,no,18,no,white,no,yes,768,legacy,14,79,C:/Users/chelsea/OneDrive - Tarleton State University/psych 5316- adv/flanker test/vgsubject-2.csv,legacy,Lentiform Loewenfeld,3.3.3,0,s,NA,s,NA,s,s,546,NA,3892,NA,546,5496,2,legacy,1024,2,48000,-16,experiment,SSSSS,2,even,198931,179616,NA,204425,203176,8359,NA,204529,204419,204529,12253,176519,NA,8352,171018,205080,Flanker Task,89,50250,95,yes,1024
93.75,93.75,527.875,527.875,black,legacy,legacy,legacy,0,congruent,uniform,1,undefined,1,s,95,95,0,95,95,0,0,95,95,95,0,0,0,0,0,95,Sun Sep 13 18:27:08 2020,600,The main experiment item,yes,FlankerTask.osexp,C:/Users/chelsea/OneDrive - Tarleton State University/psych 5316- adv/flanker test,no,mono,no,18,no,white,no,yes,768,legacy,15,79,C:/Users/chelsea/OneDrive - Tarleton State University/psych 5316- adv/flanker test/vgsubject-2.csv,legacy,Lentiform Loewenfeld,3.3.3,0,s,NA,s,NA,s,s,426,NA,3892,NA,426,5496,2,legacy,1024,2,48000,-16,experiment,SSSSS,2,even,198931,179616,NA,206369,205144,8359,NA,206473,206364,206473,12253,176519,NA,8352,171018,206904,Flanker Task,90,50676,96,yes,1024
92.78350515,92.78350515,528.1752577,528.1752577,black,legacy,legacy,legacy,0,incongruent,uniform,0,undefined,0,s,96,96,0,96,96,0,0,96,96,96,0,0,0,0,0,96,Sun Sep 13 18:27:08 2020,600,The main experiment item,yes,FlankerTask.osexp,C:/Users/chelsea/OneDrive - Tarleton State University/psych 5316- adv/flanker test,no,mono,no,18,no,white,no,yes,768,legacy,16,79,C:/Users/chelsea/OneDrive - Tarleton State University/psych 5316- adv/flanker test/vgsubject-2.csv,legacy,Lentiform Loewenfeld,3.3.3,0,h,NA,s,NA,h,s,557,NA,3892,NA,557,5496,2,legacy,1024,2,48000,-16,experiment,HHSHH,2,even,198931,179616,NA,208268,207043,8359,NA,208373,208263,208373,12253,176519,NA,8352,171018,208936,Flanker Task,90,51233,97,yes,1024
92.85714286,92.85714286,530.3061224,530.3061224,black,legacy,legacy,legacy,0,incongruent,uniform,1,undefined,1,h,97,97,0,97,97,0,0,97,97,97,0,0,0,0,0,97,Sun Sep 13 18:27:08 2020,600,The main experiment item,yes,FlankerTask.osexp,C:/Users/chelsea/OneDrive - Tarleton State University/psych 5316- adv/flanker test,no,mono,no,18,no,white,no,yes,768,legacy,17,79,C:/Users/chelsea/OneDrive - Tarleton State University/psych 5316- adv/flanker test/vgsubject-2.csv,legacy,Lentiform Loewenfeld,3.3.3,0,h,NA,s,NA,h,s,737,NA,3892,NA,737,5496,2,legacy,1024,2,48000,-16,experiment,SSHSS,2,even,208975,179616,NA,210714,209479,8359,NA,210818,210708,210818,12253,176519,NA,8352,171018,211560,Flanker Task,91,51970,98,yes,1024
92.92929293,92.92929293,529.7777778,529.7777778,black,legacy,legacy,legacy,0,incongruent,uniform,1,undefined,1,h,98,98,0,98,98,0,0,98,98,98,0,0,0,0,0,98,Sun Sep 13 18:27:08 2020,600,The main experiment item,yes,FlankerTask.osexp,C:/Users/chelsea/OneDrive - Tarleton State University/psych 5316- adv/flanker test,no,mono,no,18,no,white,no,yes,768,legacy,18,79,C:/Users/chelsea/OneDrive - Tarleton State University/psych 5316- adv/flanker test/vgsubject-2.csv,legacy,Lentiform Loewenfeld,3.3.3,0,h,NA,s,NA,h,s,478,NA,3892,NA,478,5496,2,legacy,1024,2,48000,-16,experiment,SSHSS,2,even,208975,211614,NA,213364,212119,8359,NA,213468,213358,213468,12253,176519,NA,8352,171018,213952,Flanker Task,92,52448,99,yes,1024
93,93,529.47,529.47,black,legacy,legacy,legacy,0,congruent,uniform,1,undefined,1,h,99,99,0,99,99,0,0,99,99,99,0,0,0,0,0,99,Sun Sep 13 18:27:08 2020,600,The main experiment item,yes,FlankerTask.osexp,C:/Users/chelsea/OneDrive - Tarleton State University/psych 5316- adv/flanker test,no,mono,no,18,no,white,no,yes,768,legacy,19,79,C:/Users/chelsea/OneDrive - Tarleton State University/psych 5316- adv/flanker test/vgsubject-2.csv,legacy,Lentiform Loewenfeld,3.3.3,0,h,NA,s,NA,h,s,499,NA,3892,NA,499,5496,2,legacy,1024,2,48000,-16,experiment,HHHHH,2,even,208975,211614,NA,215224,213987,8359,NA,215328,215219,215328,12253,176519,NA,8352,171018,215832,Flanker Task,93,52947,100,yes,1024
93.06930693,93.06930693,529.960396,529.960396,black,legacy,legacy,legacy,0,incongruent,uniform,1,undefined,1,h,100,100,0,100,100,0,0,100,100,100,0,0,0,0,0,100,Sun Sep 13 18:27:08 2020,600,The main experiment item,yes,FlankerTask.osexp,C:/Users/chelsea/OneDrive - Tarleton State University/psych 5316- adv/flanker test,no,mono,no,18,no,white,no,yes,768,legacy,20,79,C:/Users/chelsea/OneDrive - Tarleton State University/psych 5316- adv/flanker test/vgsubject-2.csv,legacy,Lentiform Loewenfeld,3.3.3,0,h,NA,s,NA,h,s,579,NA,3892,NA,579,5496,2,legacy,1024,2,48000,-16,experiment,SSHSS,2,even,208975,211614,NA,217128,215884,8359,NA,217232,217123,217232,12253,176519,NA,8352,171018,217816,Flanker Task,94,53526,101,yes,1024
93.1372549,93.1372549,530.1960784,530.1960784,black,legacy,legacy,legacy,0,congruent,uniform,1,undefined,1,s,101,101,0,101,101,0,0,101,101,101,0,0,0,0,0,101,Sun Sep 13 18:27:08 2020,600,The main experiment item,yes,FlankerTask.osexp,C:/Users/chelsea/OneDrive - Tarleton State University/psych 5316- adv/flanker test,no,mono,no,18,no,white,no,yes,768,legacy,21,79,C:/Users/chelsea/OneDrive - Tarleton State University/psych 5316- adv/flanker test/vgsubject-2.csv,legacy,Lentiform Loewenfeld,3.3.3,0,s,NA,s,NA,s,s,554,NA,3892,NA,554,5496,2,legacy,1024,2,48000,-16,experiment,SSSSS,2,even,208975,211614,NA,219088,217865,8359,NA,219193,219083,219193,12253,176519,NA,8352,171018,219752,Flanker Task,95,54080,102,yes,1024
93.2038835,93.2038835,532.3592233,532.3592233,black,legacy,legacy,legacy,0,congruent,uniform,1,undefined,1,s,102,102,0,102,102,0,0,102,102,102,0,0,0,0,0,102,Sun Sep 13 18:27:08 2020,600,The main experiment item,yes,FlankerTask.osexp,C:/Users/chelsea/OneDrive - Tarleton State University/psych 5316- adv/flanker test,no,mono,no,18,no,white,no,yes,768,legacy,22,79,C:/Users/chelsea/OneDrive - Tarleton State University/psych 5316- adv/flanker test/vgsubject-2.csv,legacy,Lentiform Loewenfeld,3.3.3,0,s,NA,s,NA,s,s,753,NA,3892,NA,753,5496,2,legacy,1024,2,48000,-16,experiment,SSSSS,2,even,208975,211614,NA,221042,219798,8359,NA,221146,221037,221146,12253,176519,NA,8352,171018,221904,Flanker Task,96,54833,103,yes,1024
93.26923077,93.26923077,532.6057692,532.6057692,black,legacy,legacy,legacy,0,incongruent,uniform,1,undefined,1,h,103,103,0,103,103,0,0,103,103,103,0,0,0,0,0,103,Sun Sep 13 18:27:08 2020,600,The main experiment item,yes,FlankerTask.osexp,C:/Users/chelsea/OneDrive - Tarleton State University/psych 5316- adv/flanker test,no,mono,no,18,no,white,no,yes,768,legacy,23,79,C:/Users/chelsea/OneDrive - Tarleton State University/psych 5316- adv/flanker test/vgsubject-2.csv,legacy,Lentiform Loewenfeld,3.3.3,0,h,NA,s,NA,h,s,558,NA,3892,NA,558,5496,2,legacy,1024,2,48000,-16,experiment,SSHSS,2,even,208975,221942,NA,223676,222447,8359,NA,223780,223670,223780,12253,176519,NA,8352,171018,224344,Flanker Task,97,55391,104,yes,1024
93.33333333,93.33333333,533.1428571,533.1428571,black,legacy,legacy,legacy,0,incongruent,uniform,1,undefined,1,s,104,104,0,104,104,0,0,104,104,104,0,0,0,0,0,104,Sun Sep 13 18:27:08 2020,600,The main experiment item,yes,FlankerTask.osexp,C:/Users/chelsea/OneDrive - Tarleton State University/psych 5316- adv/flanker test,no,mono,no,18,no,white,no,yes,768,legacy,24,79,C:/Users/chelsea/OneDrive - Tarleton State University/psych 5316- adv/flanker test/vgsubject-2.csv,legacy,Lentiform Loewenfeld,3.3.3,0,s,NA,s,NA,s,s,589,NA,3892,NA,589,5496,2,legacy,1024,2,48000,-16,experiment,HHSHH,2,even,208975,221942,NA,225614,224376,8359,NA,225718,225608,225718,12253,176519,NA,8352,171018,226312,Flanker Task,98,55980,105,yes,1024
93.39622642,93.39622642,532.490566,532.490566,black,legacy,legacy,legacy,0,congruent,uniform,1,undefined,1,h,105,105,0,105,105,0,0,105,105,105,0,0,0,0,0,105,Sun Sep 13 18:27:08 2020,600,The main experiment item,yes,FlankerTask.osexp,C:/Users/chelsea/OneDrive - Tarleton State University/psych 5316- adv/flanker test,no,mono,no,18,no,white,no,yes,768,legacy,25,79,C:/Users/chelsea/OneDrive - Tarleton State University/psych 5316- adv/flanker test/vgsubject-2.csv,legacy,Lentiform Loewenfeld,3.3.3,0,h,NA,s,NA,h,s,464,NA,3892,NA,464,5496,2,legacy,1024,2,48000,-16,experiment,HHHHH,2,even,208975,221942,NA,227578,226353,8359,NA,227682,227573,227682,12253,176519,NA,8352,171018,228152,Flanker Task,99,56444,106,yes,1024
93.45794393,93.45794393,532.8878505,532.8878505,black,legacy,legacy,legacy,0,incongruent,uniform,1,undefined,1,s,106,106,0,106,106,0,0,106,106,106,0,0,0,0,0,106,Sun Sep 13 18:27:08 2020,600,The main experiment item,yes,FlankerTask.osexp,C:/Users/chelsea/OneDrive - Tarleton State University/psych 5316- adv/flanker test,no,mono,no,18,no,white,no,yes,768,legacy,26,79,C:/Users/chelsea/OneDrive - Tarleton State University/psych 5316- adv/flanker test/vgsubject-2.csv,legacy,Lentiform Loewenfeld,3.3.3,0,s,NA,s,NA,s,s,575,NA,3892,NA,575,5496,2,legacy,1024,2,48000,-16,experiment,HHSHH,2,even,208975,221942,NA,229412,228188,8359,NA,229516,229407,229516,12253,176519,NA,8352,171018,230096,Flanker Task,100,57019,107,yes,1024
93.51851852,93.51851852,532.5833333,532.5833333,black,legacy,legacy,legacy,0,incongruent,uniform,1,undefined,1,s,107,107,0,107,107,0,0,107,107,107,0,0,0,0,0,107,Sun Sep 13 18:27:08 2020,600,The main experiment item,yes,FlankerTask.osexp,C:/Users/chelsea/OneDrive - Tarleton State University/psych 5316- adv/flanker test,no,mono,no,18,no,white,no,yes,768,legacy,27,79,C:/Users/chelsea/OneDrive - Tarleton State University/psych 5316- adv/flanker test/vgsubject-2.csv,legacy,Lentiform Loewenfeld,3.3.3,0,s,NA,s,NA,s,s,500,NA,3892,NA,500,5496,2,legacy,1024,2,48000,-16,experiment,HHSHH,2,even,208975,221942,NA,231373,230132,8359,NA,231478,231368,231478,12253,176519,NA,8352,171018,231984,Flanker Task,101,57519,108,yes,1024
93.57798165,93.57798165,532.266055,532.266055,black,legacy,legacy,legacy,0,congruent,uniform,1,undefined,1,h,108,108,0,108,108,0,0,108,108,108,0,0,0,0,0,108,Sun Sep 13 18:27:08 2020,600,The main experiment item,yes,FlankerTask.osexp,C:/Users/chelsea/OneDrive - Tarleton State University/psych 5316- adv/flanker test,no,mono,no,18,no,white,no,yes,768,legacy,28,79,C:/Users/chelsea/OneDrive - Tarleton State University/psych 5316- adv/flanker test/vgsubject-2.csv,legacy,Lentiform Loewenfeld,3.3.3,0,h,NA,s,NA,h,s,498,NA,3892,NA,498,5496,2,legacy,1024,2,48000,-16,experiment,HHHHH,2,even,208975,221942,NA,233263,232020,8359,NA,233368,233258,233368,12253,176519,NA,8352,171018,233872,Flanker Task,102,58017,109,yes,1024
93.63636364,93.63636364,533.3090909,533.3090909,black,legacy,legacy,legacy,0,congruent,uniform,1,undefined,1,h,109,109,0,109,109,0,0,109,109,109,0,0,0,0,0,109,Sun Sep 13 18:27:08 2020,600,The main experiment item,yes,FlankerTask.osexp,C:/Users/chelsea/OneDrive - Tarleton State University/psych 5316- adv/flanker test,no,mono,no,18,no,white,no,yes,768,legacy,29,79,C:/Users/chelsea/OneDrive - Tarleton State University/psych 5316- adv/flanker test/vgsubject-2.csv,legacy,Lentiform Loewenfeld,3.3.3,0,h,NA,s,NA,h,s,647,NA,3892,NA,647,5496,2,legacy,1024,2,48000,-16,experiment,HHHHH,2,even,208975,221942,NA,235154,233910,8359,NA,235259,235149,235259,12253,176519,NA,8352,171018,235912,Flanker Task,103,58664,110,yes,1024
93.69369369,93.69369369,533.8378378,533.8378378,black,legacy,legacy,legacy,0,incongruent,uniform,1,undefined,1,h,110,110,0,110,110,0,0,110,110,110,0,0,0,0,0,110,Sun Sep 13 18:27:08 2020,600,The main experiment item,yes,FlankerTask.osexp,C:/Users/chelsea/OneDrive - Tarleton State University/psych 5316- adv/flanker test,no,mono,no,18,no,white,no,yes,768,legacy,30,79,C:/Users/chelsea/OneDrive - Tarleton State University/psych 5316- adv/flanker test/vgsubject-2.csv,legacy,Lentiform Loewenfeld,3.3.3,0,h,NA,s,NA,h,s,592,NA,3892,NA,592,5496,2,legacy,1024,2,48000,-16,experiment,SSHSS,2,even,208975,235965,NA,237698,236469,8359,NA,237802,237692,237802,12253,176519,NA,8352,171018,238400,Flanker Task,104,59256,111,yes,1024
93.75,93.75,532.9107143,532.9107143,black,legacy,legacy,legacy,0,incongruent,uniform,1,undefined,1,s,111,111,0,111,111,0,0,111,111,111,0,0,0,0,0,111,Sun Sep 13 18:27:08 2020,600,The main experiment item,yes,FlankerTask.osexp,C:/Users/chelsea/OneDrive - Tarleton State University/psych 5316- adv/flanker test,no,mono,no,18,no,white,no,yes,768,legacy,31,79,C:/Users/chelsea/OneDrive - Tarleton State University/psych 5316- adv/flanker test/vgsubject-2.csv,legacy,Lentiform Loewenfeld,3.3.3,0,s,NA,s,NA,s,s,430,NA,3892,NA,430,5496,2,legacy,1024,2,48000,-16,experiment,HHSHH,2,even,208975,235965,NA,239660,238432,8359,NA,239764,239654,239764,12253,176519,NA,8352,171018,240201,Flanker Task,105,59686,112,yes,1024
93.80530973,93.80530973,532.7876106,532.7876106,black,legacy,legacy,legacy,0,incongruent,uniform,1,undefined,1,s,112,112,0,112,112,0,0,112,112,112,0,0,0,0,0,112,Sun Sep 13 18:27:08 2020,600,The main experiment item,yes,FlankerTask.osexp,C:/Users/chelsea/OneDrive - Tarleton State University/psych 5316- adv/flanker test,no,mono,no,18,no,white,no,yes,768,legacy,32,79,C:/Users/chelsea/OneDrive - Tarleton State University/psych 5316- adv/flanker test/vgsubject-2.csv,legacy,Lentiform Loewenfeld,3.3.3,0,s,NA,s,NA,s,s,519,NA,3892,NA,519,5496,2,legacy,1024,2,48000,-16,experiment,HHSHH,2,even,208975,235965,NA,241475,240242,8359,NA,241579,241470,241579,12253,176519,NA,8352,171018,242104,Flanker Task,106,60205,113,yes,1024
93.85964912,93.85964912,536.245614,536.245614,black,legacy,legacy,legacy,0,congruent,uniform,1,undefined,1,h,113,113,0,113,113,0,0,113,113,113,0,0,0,0,0,113,Sun Sep 13 18:27:08 2020,600,The main experiment item,yes,FlankerTask.osexp,C:/Users/chelsea/OneDrive - Tarleton State University/psych 5316- adv/flanker test,no,mono,no,18,no,white,no,yes,768,legacy,33,79,C:/Users/chelsea/OneDrive - Tarleton State University/psych 5316- adv/flanker test/vgsubject-2.csv,legacy,Lentiform Loewenfeld,3.3.3,0,h,NA,s,NA,h,s,927,NA,3892,NA,927,5496,2,legacy,1024,2,48000,-16,experiment,HHHHH,2,even,208975,235965,NA,243379,242143,8359,NA,243483,243373,243483,12253,176519,NA,8352,171018,244416,Flanker Task,107,61132,114,yes,1024
93.91304348,93.91304348,536.3217391,536.3217391,black,legacy,legacy,legacy,0,incongruent,uniform,1,undefined,1,s,114,114,0,114,114,0,0,114,114,114,0,0,0,0,0,114,Sun Sep 13 18:27:08 2020,600,The main experiment item,yes,FlankerTask.osexp,C:/Users/chelsea/OneDrive - Tarleton State University/psych 5316- adv/flanker test,no,mono,no,18,no,white,no,yes,768,legacy,34,79,C:/Users/chelsea/OneDrive - Tarleton State University/psych 5316- adv/flanker test/vgsubject-2.csv,legacy,Lentiform Loewenfeld,3.3.3,0,s,NA,s,NA,s,s,545,NA,3892,NA,545,5496,2,legacy,1024,2,48000,-16,experiment,HHSHH,2,even,208975,244453,NA,246209,244958,8359,NA,246313,246204,246313,12253,176519,NA,8352,171018,246864,Flanker Task,108,61677,115,yes,1024
93.10344828,93.10344828,535.5,535.5,black,legacy,legacy,legacy,0,incongruent,uniform,0,undefined,0,h,115,115,0,115,115,0,0,115,115,115,0,0,0,0,0,115,Sun Sep 13 18:27:08 2020,600,The main experiment item,yes,FlankerTask.osexp,C:/Users/chelsea/OneDrive - Tarleton State University/psych 5316- adv/flanker test,no,mono,no,18,no,white,no,yes,768,legacy,35,79,C:/Users/chelsea/OneDrive - Tarleton State University/psych 5316- adv/flanker test/vgsubject-2.csv,legacy,Lentiform Loewenfeld,3.3.3,0,s,NA,s,NA,s,s,441,NA,3892,NA,441,5496,2,legacy,1024,2,48000,-16,experiment,SSHSS,2,even,208975,244453,NA,248136,246898,8359,NA,248241,248131,248241,12253,176519,NA,8352,171018,248688,Flanker Task,108,62118,116,yes,1024
93.16239316,93.16239316,535.6837607,535.6837607,black,legacy,legacy,legacy,0,congruent,uniform,1,undefined,1,h,116,116,0,116,116,0,0,116,116,116,0,0,0,0,0,116,Sun Sep 13 18:27:08 2020,600,The main experiment item,yes,FlankerTask.osexp,C:/Users/chelsea/OneDrive - Tarleton State University/psych 5316- adv/flanker test,no,mono,no,18,no,white,no,yes,768,legacy,36,79,C:/Users/chelsea/OneDrive - Tarleton State University/psych 5316- adv/flanker test/vgsubject-2.csv,legacy,Lentiform Loewenfeld,3.3.3,0,h,NA,s,NA,h,s,557,NA,3892,NA,557,5496,2,legacy,1024,2,48000,-16,experiment,HHHHH,2,even,248721,244453,NA,250451,249225,8359,NA,250557,250446,250557,12253,176519,NA,8352,171018,251123,Flanker Task,109,62675,117,yes,1024
93.22033898,93.22033898,536.2711864,536.2711864,black,legacy,legacy,legacy,0,congruent,uniform,1,undefined,1,s,117,117,0,117,117,0,0,117,117,117,0,0,0,0,0,117,Sun Sep 13 18:27:08 2020,600,The main experiment item,yes,FlankerTask.osexp,C:/Users/chelsea/OneDrive - Tarleton State University/psych 5316- adv/flanker test,no,mono,no,18,no,white,no,yes,768,legacy,37,79,C:/Users/chelsea/OneDrive - Tarleton State University/psych 5316- adv/flanker test/vgsubject-2.csv,legacy,Lentiform Loewenfeld,3.3.3,0,s,NA,s,NA,s,s,605,NA,3892,NA,605,5496,2,legacy,1024,2,48000,-16,experiment,SSSSS,2,even,248721,244453,NA,252429,251187,8359,NA,252533,252423,252533,12253,176519,NA,8352,171018,253145,Flanker Task,110,63280,118,yes,1024
93.27731092,93.27731092,535.6134454,535.6134454,black,legacy,legacy,legacy,0,incongruent,uniform,1,undefined,1,h,118,118,0,118,118,0,0,118,118,118,0,0,0,0,0,118,Sun Sep 13 18:27:08 2020,600,The main experiment item,yes,FlankerTask.osexp,C:/Users/chelsea/OneDrive - Tarleton State University/psych 5316- adv/flanker test,no,mono,no,18,no,white,no,yes,768,legacy,38,79,C:/Users/chelsea/OneDrive - Tarleton State University/psych 5316- adv/flanker test/vgsubject-2.csv,legacy,Lentiform Loewenfeld,3.3.3,0,h,NA,s,NA,h,s,458,NA,3892,NA,458,5496,2,legacy,1024,2,48000,-16,experiment,SSHSS,2,even,248721,253198,NA,254935,253702,8359,NA,255040,254930,255040,12253,176519,NA,8352,171018,255504,Flanker Task,111,63738,119,yes,1024
93.33333333,93.33333333,534.9333333,534.9333333,black,legacy,legacy,legacy,0,incongruent,uniform,1,undefined,1,s,119,119,0,119,119,0,0,119,119,119,0,0,0,0,0,119,Sun Sep 13 18:27:08 2020,600,The main experiment item,yes,FlankerTask.osexp,C:/Users/chelsea/OneDrive - Tarleton State University/psych 5316- adv/flanker test,no,mono,no,18,no,white,no,yes,768,legacy,39,79,C:/Users/chelsea/OneDrive - Tarleton State University/psych 5316- adv/flanker test/vgsubject-2.csv,legacy,Lentiform Loewenfeld,3.3.3,0,s,NA,s,NA,s,s,454,NA,3892,NA,454,5496,2,legacy,1024,2,48000,-16,experiment,HHSHH,2,even,248721,253198,NA,256764,255543,8359,NA,256868,256759,256868,12253,176519,NA,8352,171018,257328,Flanker Task,112,64192,120,yes,1024
93.38842975,93.38842975,533.5619835,533.5619835,black,legacy,legacy,legacy,0,incongruent,uniform,1,undefined,1,h,120,120,0,120,120,0,0,120,120,120,0,0,0,0,0,120,Sun Sep 13 18:27:08 2020,600,The main experiment item,yes,FlankerTask.osexp,C:/Users/chelsea/OneDrive - Tarleton State University/psych 5316- adv/flanker test,no,mono,no,18,no,white,no,yes,768,legacy,40,79,C:/Users/chelsea/OneDrive - Tarleton State University/psych 5316- adv/flanker test/vgsubject-2.csv,legacy,Lentiform Loewenfeld,3.3.3,0,h,NA,s,NA,h,s,369,NA,3892,NA,369,5496,2,legacy,1024,2,48000,-16,experiment,SSHSS,2,even,248721,253198,NA,258593,257365,8359,NA,258697,258587,258697,12253,176519,NA,8352,171018,259072,Flanker Task,113,64561,121,yes,1024
93.44262295,93.44262295,532.9754098,532.9754098,black,legacy,legacy,legacy,0,congruent,uniform,1,undefined,1,s,121,121,0,121,121,0,0,121,121,121,0,0,0,0,0,121,Sun Sep 13 18:27:08 2020,600,The main experiment item,yes,FlankerTask.osexp,C:/Users/chelsea/OneDrive - Tarleton State University/psych 5316- adv/flanker test,no,mono,no,18,no,white,no,yes,768,legacy,41,79,C:/Users/chelsea/OneDrive - Tarleton State University/psych 5316- adv/flanker test/vgsubject-2.csv,legacy,Lentiform Loewenfeld,3.3.3,0,s,NA,s,NA,s,s,462,NA,3892,NA,462,5496,2,legacy,1024,2,48000,-16,experiment,SSSSS,2,even,248721,253198,NA,260347,259110,8359,NA,260452,260342,260452,12253,176519,NA,8352,171018,260922,Flanker Task,114,65023,122,yes,1024
93.49593496,93.49593496,532.6260163,532.6260163,black,legacy,legacy,legacy,0,incongruent,uniform,1,undefined,1,s,122,122,0,122,122,0,0,122,122,122,0,0,0,0,0,122,Sun Sep 13 18:27:08 2020,600,The main experiment item,yes,FlankerTask.osexp,C:/Users/chelsea/OneDrive - Tarleton State University/psych 5316- adv/flanker test,no,mono,no,18,no,white,no,yes,768,legacy,42,79,C:/Users/chelsea/OneDrive - Tarleton State University/psych 5316- adv/flanker test/vgsubject-2.csv,legacy,Lentiform Loewenfeld,3.3.3,0,s,NA,s,NA,s,s,490,NA,3892,NA,490,5496,2,legacy,1024,2,48000,-16,experiment,HHSHH,2,even,248721,253198,NA,262192,260954,8359,NA,262296,262186,262296,12253,176519,NA,8352,171018,262794,Flanker Task,115,65513,123,yes,1024
93.5483871,93.5483871,532.7016129,532.7016129,black,legacy,legacy,legacy,0,incongruent,uniform,1,undefined,1,s,123,123,0,123,123,0,0,123,123,123,0,0,0,0,0,123,Sun Sep 13 18:27:08 2020,600,The main experiment item,yes,FlankerTask.osexp,C:/Users/chelsea/OneDrive - Tarleton State University/psych 5316- adv/flanker test,no,mono,no,18,no,white,no,yes,768,legacy,43,79,C:/Users/chelsea/OneDrive - Tarleton State University/psych 5316- adv/flanker test/vgsubject-2.csv,legacy,Lentiform Loewenfeld,3.3.3,0,s,NA,s,NA,s,s,542,NA,3892,NA,542,5496,2,legacy,1024,2,48000,-16,experiment,HHSHH,2,even,248721,253198,NA,264068,262832,8359,NA,264172,264063,264171,12253,176519,NA,8352,171018,264720,Flanker Task,116,66055,124,yes,1024
93.6,93.6,532.016,532.016,black,legacy,legacy,legacy,0,congruent,uniform,1,undefined,1,s,124,124,0,124,124,0,0,124,124,124,0,0,0,0,0,124,Sun Sep 13 18:27:08 2020,600,The main experiment item,yes,FlankerTask.osexp,C:/Users/chelsea/OneDrive - Tarleton State University/psych 5316- adv/flanker test,no,mono,no,18,no,white,no,yes,768,legacy,44,79,C:/Users/chelsea/OneDrive - Tarleton State University/psych 5316- adv/flanker test/vgsubject-2.csv,legacy,Lentiform Loewenfeld,3.3.3,0,s,NA,s,NA,s,s,447,NA,3892,NA,447,5496,2,legacy,1024,2,48000,-16,experiment,SSSSS,2,even,248721,253198,NA,266011,264776,8359,NA,266115,266005,266115,12253,176519,NA,8352,171018,266569,Flanker Task,117,66502,125,yes,1024
93.65079365,93.65079365,530.6507937,530.6507937,black,legacy,legacy,legacy,0,congruent,uniform,1,undefined,1,h,125,125,0,125,125,0,0,125,125,125,0,0,0,0,0,125,Sun Sep 13 18:27:08 2020,600,The main experiment item,yes,FlankerTask.osexp,C:/Users/chelsea/OneDrive - Tarleton State University/psych 5316- adv/flanker test,no,mono,no,18,no,white,no,yes,768,legacy,45,79,C:/Users/chelsea/OneDrive - Tarleton State University/psych 5316- adv/flanker test/vgsubject-2.csv,legacy,Lentiform Loewenfeld,3.3.3,0,h,NA,s,NA,h,s,360,NA,3892,NA,360,5496,2,legacy,1024,2,48000,-16,experiment,HHHHH,2,even,248721,253198,NA,267833,266598,8359,NA,267938,267828,267938,12253,176519,NA,8352,171018,268304,Flanker Task,118,66862,126,yes,1024
93.7007874,93.7007874,530.3700787,530.3700787,black,legacy,legacy,legacy,0,congruent,uniform,1,undefined,1,h,126,126,0,126,126,0,0,126,126,126,0,0,0,0,0,126,Sun Sep 13 18:27:08 2020,600,The main experiment item,yes,FlankerTask.osexp,C:/Users/chelsea/OneDrive - Tarleton State University/psych 5316- adv/flanker test,no,mono,no,18,no,white,no,yes,768,legacy,46,79,C:/Users/chelsea/OneDrive - Tarleton State University/psych 5316- adv/flanker test/vgsubject-2.csv,legacy,Lentiform Loewenfeld,3.3.3,0,h,NA,s,NA,h,s,495,NA,3892,NA,495,5496,2,legacy,1024,2,48000,-16,experiment,HHHHH,2,even,248721,253198,NA,269570,268343,8359,NA,269675,269565,269675,12253,176519,NA,8352,171018,270178,Flanker Task,119,67357,127,yes,1024
92.96875,92.96875,528.9296875,528.9296875,black,legacy,legacy,legacy,0,incongruent,uniform,0,undefined,0,h,127,127,0,127,127,0,0,127,127,127,0,0,0,0,0,127,Sun Sep 13 18:27:08 2020,600,The main experiment item,yes,FlankerTask.osexp,C:/Users/chelsea/OneDrive - Tarleton State University/psych 5316- adv/flanker test,no,mono,no,18,no,white,no,yes,768,legacy,47,79,C:/Users/chelsea/OneDrive - Tarleton State University/psych 5316- adv/flanker test/vgsubject-2.csv,legacy,Lentiform Loewenfeld,3.3.3,0,s,NA,s,NA,s,s,346,NA,3892,NA,346,5496,2,legacy,1024,2,48000,-16,experiment,SSHSS,2,even,248721,253198,NA,271431,270210,8359,NA,271536,271426,271536,12253,176519,NA,8352,171018,271890,Flanker Task,119,67703,128,yes,1024
93.02325581,93.02325581,529.0232558,529.0232558,black,legacy,legacy,legacy,0,incongruent,uniform,1,undefined,1,h,128,128,0,128,128,0,0,128,128,128,0,0,0,0,0,128,Sun Sep 13 18:27:08 2020,600,The main experiment item,yes,FlankerTask.osexp,C:/Users/chelsea/OneDrive - Tarleton State University/psych 5316- adv/flanker test,no,mono,no,18,no,white,no,yes,768,legacy,48,79,C:/Users/chelsea/OneDrive - Tarleton State University/psych 5316- adv/flanker test/vgsubject-2.csv,legacy,Lentiform Loewenfeld,3.3.3,0,h,NA,s,NA,h,s,541,NA,3892,NA,541,5496,2,legacy,1024,2,48000,-16,experiment,SSHSS,2,even,271931,253198,NA,273660,272435,8359,NA,273765,273655,273765,12253,176519,NA,8352,171018,274312,Flanker Task,120,68244,129,yes,1024
93.07692308,93.07692308,528.4769231,528.4769231,black,legacy,legacy,legacy,0,incongruent,uniform,1,undefined,1,h,129,129,0,129,129,0,0,129,129,129,0,0,0,0,0,129,Sun Sep 13 18:27:08 2020,600,The main experiment item,yes,FlankerTask.osexp,C:/Users/chelsea/OneDrive - Tarleton State University/psych 5316- adv/flanker test,no,mono,no,18,no,white,no,yes,768,legacy,49,79,C:/Users/chelsea/OneDrive - Tarleton State University/psych 5316- adv/flanker test/vgsubject-2.csv,legacy,Lentiform Loewenfeld,3.3.3,0,h,NA,s,NA,h,s,458,NA,3892,NA,458,5496,2,legacy,1024,2,48000,-16,experiment,SSHSS,2,even,271931,253198,NA,275568,274343,8359,NA,275672,275562,275672,12253,176519,NA,8352,171018,276137,Flanker Task,121,68702,130,yes,1024
93.12977099,93.12977099,527.5572519,527.5572519,black,legacy,legacy,legacy,0,congruent,uniform,1,undefined,1,h,130,130,0,130,130,0,0,130,130,130,0,0,0,0,0,130,Sun Sep 13 18:27:08 2020,600,The main experiment item,yes,FlankerTask.osexp,C:/Users/chelsea/OneDrive - Tarleton State University/psych 5316- adv/flanker test,no,mono,no,18,no,white,no,yes,768,legacy,50,79,C:/Users/chelsea/OneDrive - Tarleton State University/psych 5316- adv/flanker test/vgsubject-2.csv,legacy,Lentiform Loewenfeld,3.3.3,0,h,NA,s,NA,h,s,408,NA,3892,NA,408,5496,2,legacy,1024,2,48000,-16,experiment,HHHHH,2,even,271931,253198,NA,277409,276177,8359,NA,277514,277404,277514,12253,176519,NA,8352,171018,277929,Flanker Task,122,69110,131,yes,1024
93.18181818,93.18181818,526.4393939,526.4393939,black,legacy,legacy,legacy,0,congruent,uniform,1,undefined,1,h,131,131,0,131,131,0,0,131,131,131,0,0,0,0,0,131,Sun Sep 13 18:27:08 2020,600,The main experiment item,yes,FlankerTask.osexp,C:/Users/chelsea/OneDrive - Tarleton State University/psych 5316- adv/flanker test,no,mono,no,18,no,white,no,yes,768,legacy,51,79,C:/Users/chelsea/OneDrive - Tarleton State University/psych 5316- adv/flanker test/vgsubject-2.csv,legacy,Lentiform Loewenfeld,3.3.3,0,h,NA,s,NA,h,s,380,NA,3892,NA,380,5496,2,legacy,1024,2,48000,-16,experiment,HHHHH,2,even,271931,253198,NA,279189,277965,8359,NA,279294,279184,279294,12253,176519,NA,8352,171018,279680,Flanker Task,123,69490,132,yes,1024
93.23308271,93.23308271,525.3157895,525.3157895,black,legacy,legacy,legacy,0,congruent,uniform,1,undefined,1,h,132,132,0,132,132,0,0,132,132,132,0,0,0,0,0,132,Sun Sep 13 18:27:08 2020,600,The main experiment item,yes,FlankerTask.osexp,C:/Users/chelsea/OneDrive - Tarleton State University/psych 5316- adv/flanker test,no,mono,no,18,no,white,no,yes,768,legacy,52,79,C:/Users/chelsea/OneDrive - Tarleton State University/psych 5316- adv/flanker test/vgsubject-2.csv,legacy,Lentiform Loewenfeld,3.3.3,0,h,NA,s,NA,h,s,377,NA,3892,NA,377,5496,2,legacy,1024,2,48000,-16,experiment,HHHHH,2,even,271931,253198,NA,280944,279721,8359,NA,281049,280939,281048,12253,176519,NA,8352,171018,281432,Flanker Task,124,69867,133,yes,1024
93.28358209,93.28358209,525.0671642,525.0671642,black,legacy,legacy,legacy,0,congruent,uniform,1,undefined,1,s,133,133,0,133,133,0,0,133,133,133,0,0,0,0,0,133,Sun Sep 13 18:27:08 2020,600,The main experiment item,yes,FlankerTask.osexp,C:/Users/chelsea/OneDrive - Tarleton State University/psych 5316- adv/flanker test,no,mono,no,18,no,white,no,yes,768,legacy,53,79,C:/Users/chelsea/OneDrive - Tarleton State University/psych 5316- adv/flanker test/vgsubject-2.csv,legacy,Lentiform Loewenfeld,3.3.3,0,s,NA,s,NA,s,s,492,NA,3892,NA,492,5496,2,legacy,1024,2,48000,-16,experiment,SSSSS,2,even,271931,253198,NA,282702,281465,8359,NA,282806,282696,282806,12253,176519,NA,8352,171018,283304,Flanker Task,125,70359,134,yes,1024
93.33333333,93.33333333,524.4740741,524.4740741,black,legacy,legacy,legacy,0,incongruent,uniform,1,undefined,1,s,134,134,0,134,134,0,0,134,134,134,0,0,0,0,0,134,Sun Sep 13 18:27:08 2020,600,The main experiment item,yes,FlankerTask.osexp,C:/Users/chelsea/OneDrive - Tarleton State University/psych 5316- adv/flanker test,no,mono,no,18,no,white,no,yes,768,legacy,54,79,C:/Users/chelsea/OneDrive - Tarleton State University/psych 5316- adv/flanker test/vgsubject-2.csv,legacy,Lentiform Loewenfeld,3.3.3,0,s,NA,s,NA,s,s,445,NA,3892,NA,445,5496,2,legacy,1024,2,48000,-16,experiment,HHSHH,2,even,271931,253198,NA,284579,283354,8359,NA,284685,284573,284685,12253,176519,NA,8352,171018,285137,Flanker Task,126,70804,135,yes,1024
93.38235294,93.38235294,523.8014706,523.8014706,black,legacy,legacy,legacy,0,congruent,uniform,1,undefined,1,s,135,135,0,135,135,0,0,135,135,135,0,0,0,0,0,135,Sun Sep 13 18:27:08 2020,600,The main experiment item,yes,FlankerTask.osexp,C:/Users/chelsea/OneDrive - Tarleton State University/psych 5316- adv/flanker test,no,mono,no,18,no,white,no,yes,768,legacy,55,79,C:/Users/chelsea/OneDrive - Tarleton State University/psych 5316- adv/flanker test/vgsubject-2.csv,legacy,Lentiform Loewenfeld,3.3.3,0,s,NA,s,NA,s,s,433,NA,3892,NA,433,5496,2,legacy,1024,2,48000,-16,experiment,SSSSS,2,even,271931,253198,NA,286408,285177,8359,NA,286512,286403,286512,12253,176519,NA,8352,171018,286952,Flanker Task,127,71237,136,yes,1024
93.43065693,93.43065693,523.8832117,523.8832117,black,legacy,legacy,legacy,0,incongruent,uniform,1,undefined,1,h,136,136,0,136,136,0,0,136,136,136,0,0,0,0,0,136,Sun Sep 13 18:27:08 2020,600,The main experiment item,yes,FlankerTask.osexp,C:/Users/chelsea/OneDrive - Tarleton State University/psych 5316- adv/flanker test,no,mono,no,18,no,white,no,yes,768,legacy,56,79,C:/Users/chelsea/OneDrive - Tarleton State University/psych 5316- adv/flanker test/vgsubject-2.csv,legacy,Lentiform Loewenfeld,3.3.3,0,h,NA,s,NA,h,s,535,NA,3892,NA,535,5496,2,legacy,1024,2,48000,-16,experiment,SSHSS,2,even,271931,253198,NA,288225,286996,8359,NA,288330,288219,288330,12253,176519,NA,8352,171018,288873,Flanker Task,128,71772,137,yes,1024
93.47826087,93.47826087,524.5289855,524.5289855,black,legacy,legacy,legacy,0,incongruent,uniform,1,undefined,1,s,137,137,0,137,137,0,0,137,137,137,0,0,0,0,0,137,Sun Sep 13 18:27:08 2020,600,The main experiment item,yes,FlankerTask.osexp,C:/Users/chelsea/OneDrive - Tarleton State University/psych 5316- adv/flanker test,no,mono,no,18,no,white,no,yes,768,legacy,57,79,C:/Users/chelsea/OneDrive - Tarleton State University/psych 5316- adv/flanker test/vgsubject-2.csv,legacy,Lentiform Loewenfeld,3.3.3,0,s,NA,s,NA,s,s,613,NA,3892,NA,613,5496,2,legacy,1024,2,48000,-16,experiment,HHSHH,2,even,271931,253198,NA,290149,288920,8359,NA,290253,290143,290253,12253,176519,NA,8352,171018,290872,Flanker Task,129,72385,138,yes,1024
92.8057554,92.8057554,524.1007194,524.1007194,black,legacy,legacy,legacy,0,congruent,uniform,0,undefined,0,s,138,138,0,138,138,0,0,138,138,138,0,0,0,0,0,138,Sun Sep 13 18:27:08 2020,600,The main experiment item,yes,FlankerTask.osexp,C:/Users/chelsea/OneDrive - Tarleton State University/psych 5316- adv/flanker test,no,mono,no,18,no,white,no,yes,768,legacy,58,79,C:/Users/chelsea/OneDrive - Tarleton State University/psych 5316- adv/flanker test/vgsubject-2.csv,legacy,Lentiform Loewenfeld,3.3.3,0,h,NA,s,NA,h,s,465,NA,3892,NA,465,5496,2,legacy,1024,2,48000,-16,experiment,SSSSS,2,even,271931,290932,NA,292669,291438,8359,NA,292777,292664,292776,12253,176519,NA,8352,171018,293248,Flanker Task,129,72850,139,yes,1024
92.14285714,92.14285714,531.0714286,531.0714286,black,legacy,legacy,legacy,0,incongruent,uniform,0,undefined,0,h,139,139,0,139,139,0,0,139,139,139,0,0,0,0,0,139,Sun Sep 13 18:27:08 2020,600,The main experiment item,yes,FlankerTask.osexp,C:/Users/chelsea/OneDrive - Tarleton State University/psych 5316- adv/flanker test,no,mono,no,18,no,white,no,yes,768,legacy,59,79,C:/Users/chelsea/OneDrive - Tarleton State University/psych 5316- adv/flanker test/vgsubject-2.csv,legacy,Lentiform Loewenfeld,3.3.3,0,None,NA,s,NA,None,s,1500,NA,3892,NA,1500,5496,2,legacy,1024,2,48000,-16,experiment,SSHSS,2,even,293299,290932,NA,295029,293803,8359,NA,295136,295024,295136,12253,176519,NA,8352,171018,296642,Flanker Task,129,74350,140,yes,1024
92.19858156,92.19858156,530.7588652,530.7588652,black,legacy,legacy,legacy,0,congruent,uniform,1,undefined,1,h,140,140,0,140,140,0,0,140,140,140,0,0,0,0,0,140,Sun Sep 13 18:27:08 2020,600,The main experiment item,yes,FlankerTask.osexp,C:/Users/chelsea/OneDrive - Tarleton State University/psych 5316- adv/flanker test,no,mono,no,18,no,white,no,yes,768,legacy,60,79,C:/Users/chelsea/OneDrive - Tarleton State University/psych 5316- adv/flanker test/vgsubject-2.csv,legacy,Lentiform Loewenfeld,3.3.3,0,h,NA,s,NA,h,s,487,NA,3892,NA,487,5496,2,legacy,1024,2,48000,-16,experiment,HHHHH,2,even,296677,297183,NA,298919,297691,8359,NA,299027,298914,299026,12253,176519,NA,8352,171018,299521,Flanker Task,130,74837,141,yes,1024
