acc,accuracy,average_response_time,avg_rt,background,canvas_backend,clock_backend,color_backend,compensation,condition,coordinates,correct,correct_instruction1,correct_keybordresponse,correct_response,count_Block1,count_Block2,count_Block3,count_errorfeedback,count_experiment,count_faster,count_finish,count_fixation,count_instruction1,count_instructions2,count_instructions3,count_isi,count_keybordresponse,count_logger,count_sequence,count_stimulus,datetime,deadline,description,disable_garbage_collection,experiment_file,experiment_path,font_bold,font_family,font_italic,font_size,font_underline,foreground,form_clicks,fullscreen,height,keyboard_backend,live_row,live_row_Block1,logfile,mouse_backend,opensesame_codename,opensesame_version,repeat_cycle,response,response_finish,response_instruction1,response_instructions2,response_instructions3,response_keybordresponse,response_time,response_time_finish,response_time_instruction1,response_time_instructions2,response_time_instructions3,response_time_keybordresponse,round_decimals,sampler_backend,sound_buf_size,sound_channels,sound_freq,sound_sample_size,start,stimulus,subject_nr,subject_parity,time_Block1,time_Block2,time_Block3,time_errorfeedback,time_experiment,time_faster,time_finish,time_fixation,time_instruction1,time_instructions2,time_instructions3,time_isi,time_keybordresponse,time_logger,time_sequence,time_stimulus,title,total_correct,total_response_time,total_responses,uniform_coordinates,width
0,0,1500,1500,black,legacy,legacy,legacy,0,congruent,uniform,0,undefined,0,h,0,0,0,0,0,0,0,0,0,0,0,0,0,0,0,0,Sat Sep 19 20:28:53 2020,1500,The main experiment item,yes,FlankerTask.osexp,C:\Users\katri\OneDrive\Documents,no,mono,no,18,no,white,no,no,768,legacy,0,0,C:/Users/katri/OneDrive/Documents/krsubject-0.csv,legacy,Lentiform Loewenfeld,3.3.3,0,None,NA,k,NA,NA,None,1500,NA,8462,NA,NA,1500,2,legacy,1024,2,48000,-16,experiment,HHHHH,0,even,9956,NA,NA,NA,1490,NA,NA,10010,1493,NA,NA,NA,10122,11622,10009,10121,Flanker Task,0,1500,1,yes,1024
50,50,1369,1369,black,legacy,legacy,legacy,0,congruent,uniform,1,undefined,1,s,0,0,0,1,0,1,0,1,0,0,0,1,1,1,1,1,Sat Sep 19 20:28:53 2020,1500,The main experiment item,yes,FlankerTask.osexp,C:\Users\katri\OneDrive\Documents,no,mono,no,18,no,white,no,no,768,legacy,1,1,C:/Users/katri/OneDrive/Documents/krsubject-0.csv,legacy,Lentiform Loewenfeld,3.3.3,0,s,NA,k,NA,NA,s,1238,NA,8462,NA,NA,1238,2,legacy,1024,2,48000,-16,experiment,SSSSS,0,even,9956,NA,NA,12656,1490,NA,NA,13297,1493,NA,NA,11652,13402,14641,13294,13402,Flanker Task,1,2738,2,yes,1024
66.66666667,66.66666667,1302,1302,black,legacy,legacy,legacy,0,incongrunet,uniform,1,undefined,1,h,0,0,0,2,0,2,0,2,0,0,0,2,2,2,2,2,Sat Sep 19 20:28:53 2020,1500,The main experiment item,yes,FlankerTask.osexp,C:\Users\katri\OneDrive\Documents,no,mono,no,18,no,white,no,no,768,legacy,2,2,C:/Users/katri/OneDrive/Documents/krsubject-0.csv,legacy,Lentiform Loewenfeld,3.3.3,0,h,NA,k,NA,NA,h,1168,NA,8462,NA,NA,1168,2,legacy,1024,2,48000,-16,experiment,SSHSS,0,even,9956,NA,NA,12656,1490,NA,NA,15747,1493,NA,NA,14648,15852,17021,15744,15852,Flanker Task,2,3906,3,yes,1024
75,75,1109.75,1109.75,black,legacy,legacy,legacy,0,congruent,uniform,1,undefined,1,s,0,0,0,3,0,3,0,3,0,0,0,3,3,3,3,3,Sat Sep 19 20:28:53 2020,1500,The main experiment item,yes,FlankerTask.osexp,C:\Users\katri\OneDrive\Documents,no,mono,no,18,no,white,no,no,768,legacy,3,3,C:/Users/katri/OneDrive/Documents/krsubject-0.csv,legacy,Lentiform Loewenfeld,3.3.3,0,s,NA,k,NA,NA,s,533,NA,8462,NA,NA,533,2,legacy,1024,2,48000,-16,experiment,SSSSS,0,even,9956,NA,NA,12656,1490,NA,NA,18111,1493,NA,NA,17045,18215,18749,18109,18215,Flanker Task,3,4439,4,yes,1024
60,60,1045.4,1045.4,black,legacy,legacy,legacy,0,congruent,uniform,0,undefined,0,s,0,0,0,4,0,4,0,4,0,0,0,4,4,4,4,4,Sat Sep 19 20:28:53 2020,1500,The main experiment item,yes,FlankerTask.osexp,C:\Users\katri\OneDrive\Documents,no,mono,no,18,no,white,no,no,768,legacy,4,4,C:/Users/katri/OneDrive/Documents/krsubject-0.csv,legacy,Lentiform Loewenfeld,3.3.3,0,h,NA,k,NA,NA,h,788,NA,8462,NA,NA,788,2,legacy,1024,2,48000,-16,experiment,SSSSS,0,even,9956,NA,NA,12656,1490,NA,NA,19846,1493,NA,NA,18752,19948,20736,19845,19947,Flanker Task,3,5227,5,yes,1024
66.66666667,66.66666667,1116.166667,1116.166667,black,legacy,legacy,legacy,0,incongruent,uniform,1,undefined,1,s,0,0,0,5,0,5,0,5,0,0,0,5,5,5,5,5,Sat Sep 19 20:28:53 2020,1500,The main experiment item,yes,FlankerTask.osexp,C:\Users\katri\OneDrive\Documents,no,mono,no,18,no,white,no,no,768,legacy,5,5,C:/Users/katri/OneDrive/Documents/krsubject-0.csv,legacy,Lentiform Loewenfeld,3.3.3,0,s,NA,k,NA,NA,s,1470,NA,8462,NA,NA,1470,2,legacy,1024,2,48000,-16,experiment,HHSHH,0,even,9956,NA,NA,21764,1490,NA,NA,22352,1493,NA,NA,20762,22454,23924,22351,22454,Flanker Task,4,6697,6,yes,1024
71.42857143,71.42857143,1133.428571,1133.428571,black,legacy,legacy,legacy,0,congruent,uniform,1,undefined,1,h,0,0,0,6,0,6,0,6,0,0,0,6,6,6,6,6,Sat Sep 19 20:28:53 2020,1500,The main experiment item,yes,FlankerTask.osexp,C:\Users\katri\OneDrive\Documents,no,mono,no,18,no,white,no,no,768,legacy,6,6,C:/Users/katri/OneDrive/Documents/krsubject-0.csv,legacy,Lentiform Loewenfeld,3.3.3,0,h,NA,k,NA,NA,h,1237,NA,8462,NA,NA,1237,2,legacy,1024,2,48000,-16,experiment,HHHHH,0,even,9956,NA,NA,21764,1490,NA,NA,25024,1493,NA,NA,23927,25126,26364,25023,25126,Flanker Task,5,7934,7,yes,1024
75,75,1054.125,1054.125,black,legacy,legacy,legacy,0,congruent,uniform,1,undefined,1,s,0,0,0,7,0,7,0,7,0,0,0,7,7,7,7,7,Sat Sep 19 20:28:53 2020,1500,The main experiment item,yes,FlankerTask.osexp,C:\Users\katri\OneDrive\Documents,no,mono,no,18,no,white,no,no,768,legacy,7,7,C:/Users/katri/OneDrive/Documents/krsubject-0.csv,legacy,Lentiform Loewenfeld,3.3.3,0,s,NA,k,NA,NA,s,499,NA,8462,NA,NA,499,2,legacy,1024,2,48000,-16,experiment,SSSSS,0,even,9956,NA,NA,21764,1490,NA,NA,27448,1493,NA,NA,26367,27551,28050,27446,27551,Flanker Task,6,8433,8,yes,1024
77.77777778,77.77777778,1009.777778,1009.777778,black,legacy,legacy,legacy,0,congruent,uniform,1,undefined,1,s,0,0,0,8,0,8,0,8,0,0,0,8,8,8,8,8,Sat Sep 19 20:28:53 2020,1500,The main experiment item,yes,FlankerTask.osexp,C:\Users\katri\OneDrive\Documents,no,mono,no,18,no,white,no,no,768,legacy,8,8,C:/Users/katri/OneDrive/Documents/krsubject-0.csv,legacy,Lentiform Loewenfeld,3.3.3,0,s,NA,k,NA,NA,s,655,NA,8462,NA,NA,655,2,legacy,1024,2,48000,-16,experiment,SSSSS,0,even,9956,NA,NA,21764,1490,NA,NA,29145,1493,NA,NA,28053,29246,29901,29143,29246,Flanker Task,7,9088,9,yes,1024
80,80,958,958,black,legacy,legacy,legacy,0,congruent,uniform,1,undefined,1,h,0,0,0,9,0,9,0,9,0,0,0,9,9,9,9,9,Sat Sep 19 20:28:53 2020,1500,The main experiment item,yes,FlankerTask.osexp,C:\Users\katri\OneDrive\Documents,no,mono,no,18,no,white,no,no,768,legacy,9,9,C:/Users/katri/OneDrive/Documents/krsubject-0.csv,legacy,Lentiform Loewenfeld,3.3.3,0,h,NA,k,NA,NA,h,492,NA,8462,NA,NA,492,2,legacy,1024,2,48000,-16,experiment,HHHHH,0,even,9956,NA,NA,21764,1490,NA,NA,30992,1493,NA,NA,29910,31096,31588,30990,31096,Flanker Task,8,9580,10,yes,1024
81.81818182,81.81818182,937.3636364,937.3636364,black,legacy,legacy,legacy,0,congruent,uniform,1,undefined,1,h,0,0,0,10,0,10,0,10,0,0,0,10,10,10,10,10,Sat Sep 19 20:28:53 2020,1500,The main experiment item,yes,FlankerTask.osexp,C:\Users\katri\OneDrive\Documents,no,mono,no,18,no,white,no,no,768,legacy,10,10,C:/Users/katri/OneDrive/Documents/krsubject-0.csv,legacy,Lentiform Loewenfeld,3.3.3,0,h,NA,k,NA,NA,h,731,NA,8462,NA,NA,731,2,legacy,1024,2,48000,-16,experiment,HHHHH,0,even,9956,NA,NA,21764,1490,NA,NA,32744,1493,NA,NA,31597,32849,33580,32742,32849,Flanker Task,9,10311,11,yes,1024
83.33333333,83.33333333,903.1666667,903.1666667,black,legacy,legacy,legacy,0,congruent,uniform,1,undefined,1,h,0,0,0,11,0,11,0,11,0,0,0,11,11,11,11,11,Sat Sep 19 20:28:53 2020,1500,The main experiment item,yes,FlankerTask.osexp,C:\Users\katri\OneDrive\Documents,no,mono,no,18,no,white,no,no,768,legacy,11,11,C:/Users/katri/OneDrive/Documents/krsubject-0.csv,legacy,Lentiform Loewenfeld,3.3.3,0,h,NA,k,NA,NA,h,527,NA,8462,NA,NA,527,2,legacy,1024,2,48000,-16,experiment,HHHHH,0,even,9956,NA,NA,21764,1490,NA,NA,34679,1493,NA,NA,33587,34784,35311,34677,34783,Flanker Task,10,10838,12,yes,1024
84.61538462,84.61538462,865.1538462,865.1538462,black,legacy,legacy,legacy,0,congruent,uniform,1,undefined,1,h,0,0,0,12,0,12,0,12,0,0,0,12,12,12,12,12,Sat Sep 19 20:28:53 2020,1500,The main experiment item,yes,FlankerTask.osexp,C:\Users\katri\OneDrive\Documents,no,mono,no,18,no,white,no,no,768,legacy,12,12,C:/Users/katri/OneDrive/Documents/krsubject-0.csv,legacy,Lentiform Loewenfeld,3.3.3,0,h,NA,k,NA,NA,h,409,NA,8462,NA,NA,409,2,legacy,1024,2,48000,-16,experiment,HHHHH,0,even,9956,NA,NA,21764,1490,NA,NA,36387,1493,NA,NA,35318,36492,36902,36385,36492,Flanker Task,11,11247,13,yes,1024
85.71428571,85.71428571,830.9285714,830.9285714,black,legacy,legacy,legacy,0,congruent,uniform,1,undefined,1,h,0,0,0,13,0,13,0,13,0,0,0,13,13,13,13,13,Sat Sep 19 20:28:53 2020,1500,The main experiment item,yes,FlankerTask.osexp,C:\Users\katri\OneDrive\Documents,no,mono,no,18,no,white,no,no,768,legacy,13,13,C:/Users/katri/OneDrive/Documents/krsubject-0.csv,legacy,Lentiform Loewenfeld,3.3.3,0,h,NA,k,NA,NA,h,386,NA,8462,NA,NA,386,2,legacy,1024,2,48000,-16,experiment,HHHHH,0,even,9956,NA,NA,21764,1490,NA,NA,38009,1493,NA,NA,36909,38114,38500,38007,38114,Flanker Task,12,11633,14,yes,1024
80,80,806.4,806.4,black,legacy,legacy,legacy,0,incongruent,uniform,0,undefined,0,s,0,0,0,14,0,14,0,14,0,0,0,14,14,14,14,14,Sat Sep 19 20:28:53 2020,1500,The main experiment item,yes,FlankerTask.osexp,C:\Users\katri\OneDrive\Documents,no,mono,no,18,no,white,no,no,768,legacy,14,14,C:/Users/katri/OneDrive/Documents/krsubject-0.csv,legacy,Lentiform Loewenfeld,3.3.3,0,h,NA,k,NA,NA,h,463,NA,8462,NA,NA,463,2,legacy,1024,2,48000,-16,experiment,HHSHH,0,even,9956,NA,NA,21764,1490,NA,NA,39605,1493,NA,NA,38507,39710,40173,39603,39710,Flanker Task,12,12096,15,yes,1024
81.25,81.25,804.875,804.875,black,legacy,legacy,legacy,0,incongrunet,uniform,1,undefined,1,h,0,0,0,15,0,15,0,15,0,0,0,15,15,15,15,15,Sat Sep 19 20:28:53 2020,1500,The main experiment item,yes,FlankerTask.osexp,C:\Users\katri\OneDrive\Documents,no,mono,no,18,no,white,no,no,768,legacy,15,15,C:/Users/katri/OneDrive/Documents/krsubject-0.csv,legacy,Lentiform Loewenfeld,3.3.3,0,h,NA,k,NA,NA,h,782,NA,8462,NA,NA,782,2,legacy,1024,2,48000,-16,experiment,SSHSS,0,even,9956,NA,NA,41204,1490,NA,NA,41804,1493,NA,NA,40199,41907,42690,41802,41906,Flanker Task,13,12878,16,yes,1024
82.35294118,82.35294118,796.7647059,796.7647059,black,legacy,legacy,legacy,0,congruent,uniform,1,undefined,1,h,0,0,0,16,0,16,0,16,0,0,0,16,16,16,16,16,Sat Sep 19 20:28:53 2020,1500,The main experiment item,yes,FlankerTask.osexp,C:\Users\katri\OneDrive\Documents,no,mono,no,18,no,white,no,no,768,legacy,16,16,C:/Users/katri/OneDrive/Documents/krsubject-0.csv,legacy,Lentiform Loewenfeld,3.3.3,0,h,NA,k,NA,NA,h,667,NA,8462,NA,NA,667,2,legacy,1024,2,48000,-16,experiment,HHHHH,0,even,9956,NA,NA,41204,1490,NA,NA,43794,1493,NA,NA,42698,43910,44578,43792,43910,Flanker Task,14,13545,17,yes,1024
83.33333333,83.33333333,782.1666667,782.1666667,black,legacy,legacy,legacy,0,congruent,uniform,1,undefined,1,s,0,0,0,17,0,17,0,17,0,0,0,17,17,17,17,17,Sat Sep 19 20:28:53 2020,1500,The main experiment item,yes,FlankerTask.osexp,C:\Users\katri\OneDrive\Documents,no,mono,no,18,no,white,no,no,768,legacy,17,17,C:/Users/katri/OneDrive/Documents/krsubject-0.csv,legacy,Lentiform Loewenfeld,3.3.3,0,s,NA,k,NA,NA,s,534,NA,8462,NA,NA,534,2,legacy,1024,2,48000,-16,experiment,SSSSS,0,even,9956,NA,NA,41204,1490,NA,NA,45667,1493,NA,NA,44584,45769,46304,45665,45769,Flanker Task,15,14079,18,yes,1024
84.21052632,84.21052632,778.5789474,778.5789474,black,legacy,legacy,legacy,0,congruent,uniform,1,undefined,1,h,0,0,0,18,0,18,0,18,0,0,0,18,18,18,18,18,Sat Sep 19 20:28:53 2020,1500,The main experiment item,yes,FlankerTask.osexp,C:\Users\katri\OneDrive\Documents,no,mono,no,18,no,white,no,no,768,legacy,18,18,C:/Users/katri/OneDrive/Documents/krsubject-0.csv,legacy,Lentiform Loewenfeld,3.3.3,0,h,NA,k,NA,NA,h,714,NA,8462,NA,NA,714,2,legacy,1024,2,48000,-16,experiment,HHHHH,0,even,9956,NA,NA,41204,1490,NA,NA,47400,1493,NA,NA,46312,47505,48219,47398,47504,Flanker Task,16,14793,19,yes,1024
85,85,769.15,769.15,black,legacy,legacy,legacy,0,congruent,uniform,1,undefined,1,s,0,0,0,19,0,19,0,19,0,0,0,19,19,19,19,19,Sat Sep 19 20:28:53 2020,1500,The main experiment item,yes,FlankerTask.osexp,C:\Users\katri\OneDrive\Documents,no,mono,no,18,no,white,no,no,768,legacy,19,19,C:/Users/katri/OneDrive/Documents/krsubject-0.csv,legacy,Lentiform Loewenfeld,3.3.3,0,s,NA,k,NA,NA,s,590,NA,8462,NA,NA,590,2,legacy,1024,2,48000,-16,experiment,SSSSS,0,even,9956,NA,NA,41204,1490,NA,NA,49338,1493,NA,NA,48245,49442,50032,49336,49442,Flanker Task,17,15383,20,yes,1024
85.71428571,85.71428571,764.5714286,764.5714286,black,legacy,legacy,legacy,0,incongruent,uniform,1,undefined,1,s,0,0,0,20,0,20,0,20,0,0,0,20,20,20,20,20,Sat Sep 19 20:28:53 2020,1500,The main experiment item,yes,FlankerTask.osexp,C:\Users\katri\OneDrive\Documents,no,mono,no,18,no,white,no,no,768,legacy,20,20,C:/Users/katri/OneDrive/Documents/krsubject-0.csv,legacy,Lentiform Loewenfeld,3.3.3,0,s,NA,k,NA,NA,s,673,NA,8462,NA,NA,673,2,legacy,1024,2,48000,-16,experiment,HHSHH,0,even,9956,NA,NA,41204,1490,NA,NA,51166,1493,NA,NA,50038,51270,51943,51164,51270,Flanker Task,18,16056,21,yes,1024
86.36363636,86.36363636,757.9090909,757.9090909,black,legacy,legacy,legacy,0,incongrunet,uniform,1,undefined,1,h,0,0,0,21,0,21,0,21,0,0,0,21,21,21,21,21,Sat Sep 19 20:28:53 2020,1500,The main experiment item,yes,FlankerTask.osexp,C:\Users\katri\OneDrive\Documents,no,mono,no,18,no,white,no,no,768,legacy,21,21,C:/Users/katri/OneDrive/Documents/krsubject-0.csv,legacy,Lentiform Loewenfeld,3.3.3,0,h,NA,k,NA,NA,h,618,NA,8462,NA,NA,618,2,legacy,1024,2,48000,-16,experiment,SSHSS,0,even,9956,NA,NA,41204,1490,NA,NA,53044,1493,NA,NA,51951,53152,53771,53042,53152,Flanker Task,19,16674,22,yes,1024
86.95652174,86.95652174,750.4347826,750.4347826,black,legacy,legacy,legacy,0,congruent,uniform,1,undefined,1,h,0,0,0,22,0,22,0,22,0,0,0,22,22,22,22,22,Sat Sep 19 20:28:53 2020,1500,The main experiment item,yes,FlankerTask.osexp,C:\Users\katri\OneDrive\Documents,no,mono,no,18,no,white,no,no,768,legacy,22,22,C:/Users/katri/OneDrive/Documents/krsubject-0.csv,legacy,Lentiform Loewenfeld,3.3.3,0,h,NA,k,NA,NA,h,586,NA,8462,NA,NA,586,2,legacy,1024,2,48000,-16,experiment,HHHHH,0,even,9956,NA,NA,41204,1490,NA,NA,54853,1493,NA,NA,53773,54957,55543,54851,54957,Flanker Task,20,17260,23,yes,1024
87.5,87.5,745.25,745.25,black,legacy,legacy,legacy,0,incongrunet,uniform,1,undefined,1,h,0,0,0,23,0,23,0,23,0,0,0,23,23,23,23,23,Sat Sep 19 20:28:53 2020,1500,The main experiment item,yes,FlankerTask.osexp,C:\Users\katri\OneDrive\Documents,no,mono,no,18,no,white,no,no,768,legacy,23,23,C:/Users/katri/OneDrive/Documents/krsubject-0.csv,legacy,Lentiform Loewenfeld,3.3.3,0,h,NA,k,NA,NA,h,626,NA,8462,NA,NA,626,2,legacy,1024,2,48000,-16,experiment,SSHSS,0,even,9956,NA,NA,41204,1490,NA,NA,56645,1493,NA,NA,55551,56749,57376,56643,56749,Flanker Task,21,17886,24,yes,1024
88,88,741.76,741.76,black,legacy,legacy,legacy,0,incongruent,uniform,1,undefined,1,s,0,0,0,24,0,24,0,24,0,0,0,24,24,24,24,24,Sat Sep 19 20:28:53 2020,1500,The main experiment item,yes,FlankerTask.osexp,C:\Users\katri\OneDrive\Documents,no,mono,no,18,no,white,no,no,768,legacy,24,24,C:/Users/katri/OneDrive/Documents/krsubject-0.csv,legacy,Lentiform Loewenfeld,3.3.3,0,s,NA,k,NA,NA,s,658,NA,8462,NA,NA,658,2,legacy,1024,2,48000,-16,experiment,HHSHH,0,even,9956,NA,NA,41204,1490,NA,NA,58458,1493,NA,NA,57385,58562,59220,58457,58562,Flanker Task,22,18544,25,yes,1024
88.46153846,88.46153846,736.1538462,736.1538462,black,legacy,legacy,legacy,0,incongruent,uniform,1,undefined,1,s,0,0,0,25,0,25,0,25,0,0,0,25,25,25,25,25,Sat Sep 19 20:28:53 2020,1500,The main experiment item,yes,FlankerTask.osexp,C:\Users\katri\OneDrive\Documents,no,mono,no,18,no,white,no,no,768,legacy,25,25,C:/Users/katri/OneDrive/Documents/krsubject-0.csv,legacy,Lentiform Loewenfeld,3.3.3,0,s,NA,k,NA,NA,s,596,NA,8462,NA,NA,596,2,legacy,1024,2,48000,-16,experiment,HHSHH,0,even,9956,NA,NA,41204,1490,NA,NA,60356,1493,NA,NA,59245,60461,61058,60354,60461,Flanker Task,23,19140,26,yes,1024
88.88888889,88.88888889,731.9259259,731.9259259,black,legacy,legacy,legacy,0,incongrunet,uniform,1,undefined,1,h,0,0,0,26,0,26,0,26,0,0,0,26,26,26,26,26,Sat Sep 19 20:28:53 2020,1500,The main experiment item,yes,FlankerTask.osexp,C:\Users\katri\OneDrive\Documents,no,mono,no,18,no,white,no,no,768,legacy,26,26,C:/Users/katri/OneDrive/Documents/krsubject-0.csv,legacy,Lentiform Loewenfeld,3.3.3,0,h,NA,k,NA,NA,h,622,NA,8462,NA,NA,622,2,legacy,1024,2,48000,-16,experiment,SSHSS,0,even,9956,NA,NA,41204,1490,NA,NA,62157,1493,NA,NA,61064,62261,62884,62155,62261,Flanker Task,24,19762,27,yes,1024
89.28571429,89.28571429,724.7857143,724.7857143,black,legacy,legacy,legacy,0,incongrunet,uniform,1,undefined,1,h,0,0,0,27,0,27,0,27,0,0,0,27,27,27,27,27,Sat Sep 19 20:28:53 2020,1500,The main experiment item,yes,FlankerTask.osexp,C:\Users\katri\OneDrive\Documents,no,mono,no,18,no,white,no,no,768,legacy,27,27,C:/Users/katri/OneDrive/Documents/krsubject-0.csv,legacy,Lentiform Loewenfeld,3.3.3,0,h,NA,k,NA,NA,h,532,NA,8462,NA,NA,532,2,legacy,1024,2,48000,-16,experiment,SSHSS,0,even,9956,NA,NA,41204,1490,NA,NA,63988,1493,NA,NA,62893,64092,64624,63985,64092,Flanker Task,25,20294,28,yes,1024
89.65517241,89.65517241,720.137931,720.137931,black,legacy,legacy,legacy,0,incongrunet,uniform,1,undefined,1,h,0,0,0,28,0,28,0,28,0,0,0,28,28,28,28,28,Sat Sep 19 20:28:53 2020,1500,The main experiment item,yes,FlankerTask.osexp,C:\Users\katri\OneDrive\Documents,no,mono,no,18,no,white,no,no,768,legacy,28,28,C:/Users/katri/OneDrive/Documents/krsubject-0.csv,legacy,Lentiform Loewenfeld,3.3.3,0,h,NA,k,NA,NA,h,590,NA,8462,NA,NA,590,2,legacy,1024,2,48000,-16,experiment,SSHSS,0,even,9956,NA,NA,41204,1490,NA,NA,65743,1493,NA,NA,64650,65847,66438,65741,65847,Flanker Task,26,20884,29,yes,1024
86.66666667,86.66666667,713.6333333,713.6333333,black,legacy,legacy,legacy,0,incongruent,uniform,0,undefined,0,s,0,0,0,29,0,29,0,29,0,0,0,29,29,29,29,29,Sat Sep 19 20:28:53 2020,1500,The main experiment item,yes,FlankerTask.osexp,C:\Users\katri\OneDrive\Documents,no,mono,no,18,no,white,no,no,768,legacy,29,29,C:/Users/katri/OneDrive/Documents/krsubject-0.csv,legacy,Lentiform Loewenfeld,3.3.3,0,h,NA,k,NA,NA,h,525,NA,8462,NA,NA,525,2,legacy,1024,2,48000,-16,experiment,HHSHH,0,even,9956,NA,NA,41204,1490,NA,NA,67567,1493,NA,NA,66441,67672,68198,67565,67672,Flanker Task,26,21409,30,yes,1024
87.09677419,87.09677419,712.8709677,712.8709677,black,legacy,legacy,legacy,0,incongrunet,uniform,1,undefined,1,h,0,0,0,30,0,30,0,30,0,0,0,30,30,30,30,30,Sat Sep 19 20:28:53 2020,1500,The main experiment item,yes,FlankerTask.osexp,C:\Users\katri\OneDrive\Documents,no,mono,no,18,no,white,no,no,768,legacy,30,30,C:/Users/katri/OneDrive/Documents/krsubject-0.csv,legacy,Lentiform Loewenfeld,3.3.3,0,h,NA,k,NA,NA,h,690,NA,8462,NA,NA,690,2,legacy,1024,2,48000,-16,experiment,SSHSS,0,even,9956,NA,NA,69210,1490,NA,NA,69805,1493,NA,NA,68205,69908,70599,69804,69907,Flanker Task,27,22099,31,yes,1024
87.5,87.5,708.46875,708.46875,black,legacy,legacy,legacy,0,incongruent,uniform,1,undefined,1,s,0,0,0,31,0,31,0,31,0,0,0,31,31,31,31,31,Sat Sep 19 20:28:53 2020,1500,The main experiment item,yes,FlankerTask.osexp,C:\Users\katri\OneDrive\Documents,no,mono,no,18,no,white,no,no,768,legacy,31,31,C:/Users/katri/OneDrive/Documents/krsubject-0.csv,legacy,Lentiform Loewenfeld,3.3.3,0,s,NA,k,NA,NA,s,572,NA,8462,NA,NA,572,2,legacy,1024,2,48000,-16,experiment,HHSHH,0,even,9956,NA,NA,69210,1490,NA,NA,71712,1493,NA,NA,70607,71817,72389,71710,71817,Flanker Task,28,22671,32,yes,1024
87.87878788,87.87878788,704.5454545,704.5454545,black,legacy,legacy,legacy,0,incongruent,uniform,1,undefined,1,s,0,0,0,32,0,32,0,32,0,0,0,32,32,32,32,32,Sat Sep 19 20:28:53 2020,1500,The main experiment item,yes,FlankerTask.osexp,C:\Users\katri\OneDrive\Documents,no,mono,no,18,no,white,no,no,768,legacy,32,32,C:/Users/katri/OneDrive/Documents/krsubject-0.csv,legacy,Lentiform Loewenfeld,3.3.3,0,s,NA,k,NA,NA,s,579,NA,8462,NA,NA,579,2,legacy,1024,2,48000,-16,experiment,HHSHH,0,even,9956,NA,NA,69210,1490,NA,NA,73478,1493,NA,NA,72392,73582,74162,73476,73582,Flanker Task,29,23250,33,yes,1024
88.23529412,88.23529412,711.1764706,711.1764706,black,legacy,legacy,legacy,0,congruent,uniform,1,undefined,1,h,0,0,0,33,0,33,0,33,0,0,0,33,33,33,33,33,Sat Sep 19 20:28:53 2020,1500,The main experiment item,yes,FlankerTask.osexp,C:\Users\katri\OneDrive\Documents,no,mono,no,18,no,white,no,no,768,legacy,33,33,C:/Users/katri/OneDrive/Documents/krsubject-0.csv,legacy,Lentiform Loewenfeld,3.3.3,0,h,NA,k,NA,NA,h,930,NA,8462,NA,NA,930,2,legacy,1024,2,48000,-16,experiment,HHHHH,0,even,9956,NA,NA,69210,1490,NA,NA,75284,1493,NA,NA,74188,75385,76315,75282,75385,Flanker Task,30,24180,34,yes,1024
88.57142857,88.57142857,706.8,706.8,black,legacy,legacy,legacy,0,congruent,uniform,1,undefined,1,h,0,0,0,34,0,34,0,34,0,0,0,34,34,34,34,34,Sat Sep 19 20:28:53 2020,1500,The main experiment item,yes,FlankerTask.osexp,C:\Users\katri\OneDrive\Documents,no,mono,no,18,no,white,no,no,768,legacy,34,34,C:/Users/katri/OneDrive/Documents/krsubject-0.csv,legacy,Lentiform Loewenfeld,3.3.3,0,h,NA,k,NA,NA,h,558,NA,8462,NA,NA,558,2,legacy,1024,2,48000,-16,experiment,HHHHH,0,even,9956,NA,NA,69210,1490,NA,NA,77423,1493,NA,NA,76324,77527,78085,77421,77527,Flanker Task,31,24738,35,yes,1024
88.88888889,88.88888889,704.2777778,704.2777778,black,legacy,legacy,legacy,0,incongrunet,uniform,1,undefined,1,h,0,0,0,35,0,35,0,35,0,0,0,35,35,35,35,35,Sat Sep 19 20:28:53 2020,1500,The main experiment item,yes,FlankerTask.osexp,C:\Users\katri\OneDrive\Documents,no,mono,no,18,no,white,no,no,768,legacy,35,35,C:/Users/katri/OneDrive/Documents/krsubject-0.csv,legacy,Lentiform Loewenfeld,3.3.3,0,h,NA,k,NA,NA,h,616,NA,8462,NA,NA,616,2,legacy,1024,2,48000,-16,experiment,SSHSS,0,even,9956,NA,NA,69210,1490,NA,NA,79205,1493,NA,NA,78110,79309,79926,79203,79309,Flanker Task,32,25354,36,yes,1024
89.18918919,89.18918919,698.4594595,698.4594595,black,legacy,legacy,legacy,0,congruent,uniform,1,undefined,1,h,0,0,0,36,0,36,0,36,0,0,0,36,36,36,36,36,Sat Sep 19 20:28:53 2020,1500,The main experiment item,yes,FlankerTask.osexp,C:\Users\katri\OneDrive\Documents,no,mono,no,18,no,white,no,no,768,legacy,36,36,C:/Users/katri/OneDrive/Documents/krsubject-0.csv,legacy,Lentiform Loewenfeld,3.3.3,0,h,NA,k,NA,NA,h,489,NA,8462,NA,NA,489,2,legacy,1024,2,48000,-16,experiment,HHHHH,0,even,9956,NA,NA,69210,1490,NA,NA,81019,1493,NA,NA,79933,81123,81613,81017,81123,Flanker Task,33,25843,37,yes,1024
89.47368421,89.47368421,695.5526316,695.5526316,black,legacy,legacy,legacy,0,incongrunet,uniform,1,undefined,1,h,0,0,0,37,0,37,0,37,0,0,0,37,37,37,37,37,Sat Sep 19 20:28:53 2020,1500,The main experiment item,yes,FlankerTask.osexp,C:\Users\katri\OneDrive\Documents,no,mono,no,18,no,white,no,no,768,legacy,37,37,C:/Users/katri/OneDrive/Documents/krsubject-0.csv,legacy,Lentiform Loewenfeld,3.3.3,0,h,NA,k,NA,NA,h,588,NA,8462,NA,NA,588,2,legacy,1024,2,48000,-16,experiment,SSHSS,0,even,9956,NA,NA,69210,1490,NA,NA,82720,1493,NA,NA,81619,82824,83412,82718,82824,Flanker Task,34,26431,38,yes,1024
89.74358974,89.74358974,691.1794872,691.1794872,black,legacy,legacy,legacy,0,congruent,uniform,1,undefined,1,s,0,0,0,38,0,38,0,38,0,0,0,38,38,38,38,38,Sat Sep 19 20:28:53 2020,1500,The main experiment item,yes,FlankerTask.osexp,C:\Users\katri\OneDrive\Documents,no,mono,no,18,no,white,no,no,768,legacy,38,38,C:/Users/katri/OneDrive/Documents/krsubject-0.csv,legacy,Lentiform Loewenfeld,3.3.3,0,s,NA,k,NA,NA,s,525,NA,8462,NA,NA,525,2,legacy,1024,2,48000,-16,experiment,SSSSS,0,even,9956,NA,NA,69210,1490,NA,NA,84497,1493,NA,NA,83419,84601,85127,84495,84601,Flanker Task,35,26956,39,yes,1024
90,90,687.85,687.85,black,legacy,legacy,legacy,0,incongrunet,uniform,1,undefined,1,h,0,0,0,39,0,39,0,39,0,0,0,39,39,39,39,39,Sat Sep 19 20:28:53 2020,1500,The main experiment item,yes,FlankerTask.osexp,C:\Users\katri\OneDrive\Documents,no,mono,no,18,no,white,no,no,768,legacy,39,39,C:/Users/katri/OneDrive/Documents/krsubject-0.csv,legacy,Lentiform Loewenfeld,3.3.3,0,h,NA,k,NA,NA,h,558,NA,8462,NA,NA,558,2,legacy,1024,2,48000,-16,experiment,SSHSS,0,even,9956,NA,NA,69210,1490,NA,NA,86246,1493,NA,NA,85151,86351,86909,86245,86350,Flanker Task,36,27514,40,yes,1024
90.24390244,90.24390244,683,683,black,legacy,legacy,legacy,0,incongrunet,uniform,1,undefined,1,h,0,0,0,40,0,40,0,40,0,0,0,40,40,40,40,40,Sat Sep 19 20:28:53 2020,1500,The main experiment item,yes,FlankerTask.osexp,C:\Users\katri\OneDrive\Documents,no,mono,no,18,no,white,no,no,768,legacy,40,40,C:/Users/katri/OneDrive/Documents/krsubject-0.csv,legacy,Lentiform Loewenfeld,3.3.3,0,h,NA,k,NA,NA,h,489,NA,8462,NA,NA,489,2,legacy,1024,2,48000,-16,experiment,SSHSS,0,even,9956,NA,NA,69210,1490,NA,NA,88010,1493,NA,NA,86916,88114,88603,88008,88113,Flanker Task,37,28003,41,yes,1024
90.47619048,90.47619048,680.7619048,680.7619048,black,legacy,legacy,legacy,0,incongrunet,uniform,1,undefined,1,h,0,0,0,41,0,41,0,41,0,0,0,41,41,41,41,41,Sat Sep 19 20:28:53 2020,1500,The main experiment item,yes,FlankerTask.osexp,C:\Users\katri\OneDrive\Documents,no,mono,no,18,no,white,no,no,768,legacy,41,41,C:/Users/katri/OneDrive/Documents/krsubject-0.csv,legacy,Lentiform Loewenfeld,3.3.3,0,h,NA,k,NA,NA,h,589,NA,8462,NA,NA,589,2,legacy,1024,2,48000,-16,experiment,SSHSS,0,even,9956,NA,NA,69210,1490,NA,NA,89713,1493,NA,NA,88612,89817,90406,89711,89817,Flanker Task,38,28592,42,yes,1024
88.37209302,88.37209302,680.8372093,680.8372093,black,legacy,legacy,legacy,0,congruent,uniform,0,undefined,0,h,0,0,0,42,0,42,0,42,0,0,0,42,42,42,42,42,Sat Sep 19 20:28:53 2020,1500,The main experiment item,yes,FlankerTask.osexp,C:\Users\katri\OneDrive\Documents,no,mono,no,18,no,white,no,no,768,legacy,42,42,C:/Users/katri/OneDrive/Documents/krsubject-0.csv,legacy,Lentiform Loewenfeld,3.3.3,0,s,NA,k,NA,NA,s,684,NA,8462,NA,NA,684,2,legacy,1024,2,48000,-16,experiment,HHHHH,0,even,9956,NA,NA,69210,1490,NA,NA,91497,1493,NA,NA,90415,91602,92287,91495,91602,Flanker Task,38,29276,43,yes,1024
88.63636364,88.63636364,682.3409091,682.3409091,black,legacy,legacy,legacy,0,incongrunet,uniform,1,undefined,1,h,0,0,0,43,0,43,0,43,0,0,0,43,43,43,43,43,Sat Sep 19 20:28:53 2020,1500,The main experiment item,yes,FlankerTask.osexp,C:\Users\katri\OneDrive\Documents,no,mono,no,18,no,white,no,no,768,legacy,43,43,C:/Users/katri/OneDrive/Documents/krsubject-0.csv,legacy,Lentiform Loewenfeld,3.3.3,0,h,NA,k,NA,NA,h,747,NA,8462,NA,NA,747,2,legacy,1024,2,48000,-16,experiment,SSHSS,0,even,9956,NA,NA,93300,1490,NA,NA,93891,1493,NA,NA,92296,93995,94742,93889,93995,Flanker Task,39,30023,44,yes,1024
88.88888889,88.88888889,677.5111111,677.5111111,black,legacy,legacy,legacy,0,congruent,uniform,1,undefined,1,s,0,0,0,44,0,44,0,44,0,0,0,44,44,44,44,44,Sat Sep 19 20:28:53 2020,1500,The main experiment item,yes,FlankerTask.osexp,C:\Users\katri\OneDrive\Documents,no,mono,no,18,no,white,no,no,768,legacy,44,44,C:/Users/katri/OneDrive/Documents/krsubject-0.csv,legacy,Lentiform Loewenfeld,3.3.3,0,s,NA,k,NA,NA,s,465,NA,8462,NA,NA,465,2,legacy,1024,2,48000,-16,experiment,SSSSS,0,even,9956,NA,NA,93300,1490,NA,NA,95812,1493,NA,NA,94745,95914,96380,95811,95914,Flanker Task,40,30488,45,yes,1024
89.13043478,89.13043478,676.0434783,676.0434783,black,legacy,legacy,legacy,0,congruent,uniform,1,undefined,1,s,0,0,0,45,0,45,0,45,0,0,0,45,45,45,45,45,Sat Sep 19 20:28:53 2020,1500,The main experiment item,yes,FlankerTask.osexp,C:\Users\katri\OneDrive\Documents,no,mono,no,18,no,white,no,no,768,legacy,45,45,C:/Users/katri/OneDrive/Documents/krsubject-0.csv,legacy,Lentiform Loewenfeld,3.3.3,0,s,NA,k,NA,NA,s,610,NA,8462,NA,NA,610,2,legacy,1024,2,48000,-16,experiment,SSSSS,0,even,9956,NA,NA,93300,1490,NA,NA,97488,1493,NA,NA,96389,97590,98200,97486,97589,Flanker Task,41,31098,46,yes,1024
89.36170213,89.36170213,671.4468085,671.4468085,black,legacy,legacy,legacy,0,congruent,uniform,1,undefined,1,h,0,0,0,46,0,46,0,46,0,0,0,46,46,46,46,46,Sat Sep 19 20:28:53 2020,1500,The main experiment item,yes,FlankerTask.osexp,C:\Users\katri\OneDrive\Documents,no,mono,no,18,no,white,no,no,768,legacy,46,46,C:/Users/katri/OneDrive/Documents/krsubject-0.csv,legacy,Lentiform Loewenfeld,3.3.3,0,h,NA,k,NA,NA,h,460,NA,8462,NA,NA,460,2,legacy,1024,2,48000,-16,experiment,HHHHH,0,even,9956,NA,NA,93300,1490,NA,NA,99295,1493,NA,NA,98207,99398,99859,99290,99398,Flanker Task,42,31558,47,yes,1024
89.58333333,89.58333333,672.3958333,672.3958333,black,legacy,legacy,legacy,0,incongrunet,uniform,1,undefined,1,h,0,0,0,47,0,47,0,47,0,0,0,47,47,47,47,47,Sat Sep 19 20:28:53 2020,1500,The main experiment item,yes,FlankerTask.osexp,C:\Users\katri\OneDrive\Documents,no,mono,no,18,no,white,no,no,768,legacy,47,47,C:/Users/katri/OneDrive/Documents/krsubject-0.csv,legacy,Lentiform Loewenfeld,3.3.3,0,h,NA,k,NA,NA,h,717,NA,8462,NA,NA,717,2,legacy,1024,2,48000,-16,experiment,SSHSS,0,even,9956,NA,NA,93300,1490,NA,NA,100961,1493,NA,NA,99866,101065,101783,100959,101064,Flanker Task,43,32275,48,yes,1024
89.79591837,89.79591837,669.0612245,669.0612245,black,legacy,legacy,legacy,0,incongrunet,uniform,1,undefined,1,h,0,0,0,48,0,48,0,48,0,0,0,48,48,48,48,48,Sat Sep 19 20:28:53 2020,1500,The main experiment item,yes,FlankerTask.osexp,C:\Users\katri\OneDrive\Documents,no,mono,no,18,no,white,no,no,768,legacy,48,48,C:/Users/katri/OneDrive/Documents/krsubject-0.csv,legacy,Lentiform Loewenfeld,3.3.3,0,h,NA,k,NA,NA,h,509,NA,8462,NA,NA,509,2,legacy,1024,2,48000,-16,experiment,SSHSS,0,even,9956,NA,NA,93300,1490,NA,NA,102871,1493,NA,NA,101791,102975,103484,102870,102975,Flanker Task,44,32784,49,yes,1024
90,90,666.12,666.12,black,legacy,legacy,legacy,0,congruent,uniform,1,undefined,1,s,0,0,0,49,0,49,0,49,0,0,0,49,49,49,49,49,Sat Sep 19 20:28:53 2020,1500,The main experiment item,yes,FlankerTask.osexp,C:\Users\katri\OneDrive\Documents,no,mono,no,18,no,white,no,no,768,legacy,49,49,C:/Users/katri/OneDrive/Documents/krsubject-0.csv,legacy,Lentiform Loewenfeld,3.3.3,0,s,NA,k,NA,NA,s,522,NA,8462,NA,NA,522,2,legacy,1024,2,48000,-16,experiment,SSSSS,0,even,9956,NA,NA,93300,1490,NA,NA,104591,1493,NA,NA,103491,104696,105219,104589,104695,Flanker Task,45,33306,50,yes,1024
90.19607843,90.19607843,664.2745098,664.2745098,black,legacy,legacy,legacy,0,incongrunet,uniform,1,undefined,1,h,0,0,0,50,0,50,0,50,0,0,0,50,50,50,50,50,Sat Sep 19 20:28:53 2020,1500,The main experiment item,yes,FlankerTask.osexp,C:\Users\katri\OneDrive\Documents,no,mono,no,18,no,white,no,no,768,legacy,50,50,C:/Users/katri/OneDrive/Documents/krsubject-0.csv,legacy,Lentiform Loewenfeld,3.3.3,0,h,NA,k,NA,NA,h,572,NA,8462,NA,NA,572,2,legacy,1024,2,48000,-16,experiment,SSHSS,0,even,9956,NA,NA,93300,1490,NA,NA,106327,1493,NA,NA,105226,106432,107005,106326,106432,Flanker Task,46,33878,51,yes,1024
90.38461538,90.38461538,662.6538462,662.6538462,black,legacy,legacy,legacy,0,incongruent,uniform,1,undefined,1,s,0,0,0,51,0,51,0,51,0,0,0,51,51,51,51,51,Sat Sep 19 20:28:53 2020,1500,The main experiment item,yes,FlankerTask.osexp,C:\Users\katri\OneDrive\Documents,no,mono,no,18,no,white,no,no,768,legacy,51,51,C:/Users/katri/OneDrive/Documents/krsubject-0.csv,legacy,Lentiform Loewenfeld,3.3.3,0,s,NA,k,NA,NA,s,580,NA,8462,NA,NA,580,2,legacy,1024,2,48000,-16,experiment,HHSHH,0,even,9956,NA,NA,93300,1490,NA,NA,108115,1493,NA,NA,107014,108216,108797,108114,108216,Flanker Task,47,34458,52,yes,1024
90.56603774,90.56603774,662.8301887,662.8301887,black,legacy,legacy,legacy,0,incongrunet,uniform,1,undefined,1,h,0,0,0,52,0,52,0,52,0,0,0,52,52,52,52,52,Sat Sep 19 20:28:53 2020,1500,The main experiment item,yes,FlankerTask.osexp,C:\Users\katri\OneDrive\Documents,no,mono,no,18,no,white,no,no,768,legacy,52,52,C:/Users/katri/OneDrive/Documents/krsubject-0.csv,legacy,Lentiform Loewenfeld,3.3.3,0,h,NA,k,NA,NA,h,672,NA,8462,NA,NA,672,2,legacy,1024,2,48000,-16,experiment,SSHSS,0,even,9956,NA,NA,93300,1490,NA,NA,109881,1493,NA,NA,108805,109982,110655,109879,109982,Flanker Task,48,35130,53,yes,1024
90.74074074,90.74074074,660.1666667,660.1666667,black,legacy,legacy,legacy,0,congruent,uniform,1,undefined,1,h,0,0,0,53,0,53,0,53,0,0,0,53,53,53,53,53,Sat Sep 19 20:28:53 2020,1500,The main experiment item,yes,FlankerTask.osexp,C:\Users\katri\OneDrive\Documents,no,mono,no,18,no,white,no,no,768,legacy,53,53,C:/Users/katri/OneDrive/Documents/krsubject-0.csv,legacy,Lentiform Loewenfeld,3.3.3,0,h,NA,k,NA,NA,h,519,NA,8462,NA,NA,519,2,legacy,1024,2,48000,-16,experiment,HHHHH,0,even,9956,NA,NA,93300,1490,NA,NA,111754,1493,NA,NA,110662,111858,112377,111752,111858,Flanker Task,49,35649,54,yes,1024
90.90909091,90.90909091,656.7818182,656.7818182,black,legacy,legacy,legacy,0,congruent,uniform,1,undefined,1,h,0,0,0,54,0,54,0,54,0,0,0,54,54,54,54,54,Sat Sep 19 20:28:53 2020,1500,The main experiment item,yes,FlankerTask.osexp,C:\Users\katri\OneDrive\Documents,no,mono,no,18,no,white,no,no,768,legacy,54,54,C:/Users/katri/OneDrive/Documents/krsubject-0.csv,legacy,Lentiform Loewenfeld,3.3.3,0,h,NA,k,NA,NA,h,474,NA,8462,NA,NA,474,2,legacy,1024,2,48000,-16,experiment,HHHHH,0,even,9956,NA,NA,93300,1490,NA,NA,113496,1493,NA,NA,112401,113597,114072,113494,113597,Flanker Task,50,36123,55,yes,1024
91.07142857,91.07142857,656.2142857,656.2142857,black,legacy,legacy,legacy,0,incongruent,uniform,1,undefined,1,s,0,0,0,55,0,55,0,55,0,0,0,55,55,55,55,55,Sat Sep 19 20:28:53 2020,1500,The main experiment item,yes,FlankerTask.osexp,C:\Users\katri\OneDrive\Documents,no,mono,no,18,no,white,no,no,768,legacy,55,55,C:/Users/katri/OneDrive/Documents/krsubject-0.csv,legacy,Lentiform Loewenfeld,3.3.3,0,s,NA,k,NA,NA,s,625,NA,8462,NA,NA,625,2,legacy,1024,2,48000,-16,experiment,HHSHH,0,even,9956,NA,NA,93300,1490,NA,NA,115177,1493,NA,NA,114080,115281,115907,115175,115281,Flanker Task,51,36748,56,yes,1024
91.22807018,91.22807018,654.5614035,654.5614035,black,legacy,legacy,legacy,0,congruent,uniform,1,undefined,1,s,0,0,0,56,0,56,0,56,0,0,0,56,56,56,56,56,Sat Sep 19 20:28:53 2020,1500,The main experiment item,yes,FlankerTask.osexp,C:\Users\katri\OneDrive\Documents,no,mono,no,18,no,white,no,no,768,legacy,56,56,C:/Users/katri/OneDrive/Documents/krsubject-0.csv,legacy,Lentiform Loewenfeld,3.3.3,0,s,NA,k,NA,NA,s,562,NA,8462,NA,NA,562,2,legacy,1024,2,48000,-16,experiment,SSSSS,0,even,9956,NA,NA,93300,1490,NA,NA,117013,1493,NA,NA,115917,117117,117679,117011,117117,Flanker Task,52,37310,57,yes,1024
91.37931034,91.37931034,660.5172414,660.5172414,black,legacy,legacy,legacy,0,congruent,uniform,1,undefined,1,s,0,0,0,57,0,57,0,57,0,0,0,57,57,57,57,57,Sat Sep 19 20:28:53 2020,1500,The main experiment item,yes,FlankerTask.osexp,C:\Users\katri\OneDrive\Documents,no,mono,no,18,no,white,no,no,768,legacy,57,57,C:/Users/katri/OneDrive/Documents/krsubject-0.csv,legacy,Lentiform Loewenfeld,3.3.3,0,s,NA,k,NA,NA,s,1000,NA,8462,NA,NA,1000,2,legacy,1024,2,48000,-16,experiment,SSSSS,0,even,9956,NA,NA,93300,1490,NA,NA,118807,1493,NA,NA,117685,118909,119910,118805,118909,Flanker Task,53,38310,58,yes,1024
91.52542373,91.52542373,661.2033898,661.2033898,black,legacy,legacy,legacy,0,incongruent,uniform,1,undefined,1,s,0,0,0,58,0,58,0,58,0,0,0,58,58,58,58,58,Sat Sep 19 20:28:53 2020,1500,The main experiment item,yes,FlankerTask.osexp,C:\Users\katri\OneDrive\Documents,no,mono,no,18,no,white,no,no,768,legacy,58,58,C:/Users/katri/OneDrive/Documents/krsubject-0.csv,legacy,Lentiform Loewenfeld,3.3.3,0,s,NA,k,NA,NA,s,701,NA,8462,NA,NA,701,2,legacy,1024,2,48000,-16,experiment,HHSHH,0,even,9956,NA,NA,93300,1490,NA,NA,121003,1493,NA,NA,119918,121108,121810,121001,121108,Flanker Task,54,39011,59,yes,1024
91.66666667,91.66666667,659.6833333,659.6833333,black,legacy,legacy,legacy,0,incongruent,uniform,1,undefined,1,s,0,0,0,59,0,59,0,59,0,0,0,59,59,59,59,59,Sat Sep 19 20:28:53 2020,1500,The main experiment item,yes,FlankerTask.osexp,C:\Users\katri\OneDrive\Documents,no,mono,no,18,no,white,no,no,768,legacy,59,59,C:/Users/katri/OneDrive/Documents/krsubject-0.csv,legacy,Lentiform Loewenfeld,3.3.3,0,s,NA,k,NA,NA,s,570,NA,8462,NA,NA,570,2,legacy,1024,2,48000,-16,experiment,HHSHH,0,even,9956,NA,NA,93300,1490,NA,NA,122949,1493,NA,NA,121846,123054,123624,122948,123054,Flanker Task,55,39581,60,yes,1024
91.80327869,91.80327869,656.9016393,656.9016393,black,legacy,legacy,legacy,0,congruent,uniform,1,undefined,1,s,0,0,0,60,0,60,0,60,0,0,0,60,60,60,60,60,Sat Sep 19 20:28:53 2020,1500,The main experiment item,yes,FlankerTask.osexp,C:\Users\katri\OneDrive\Documents,no,mono,no,18,no,white,no,no,768,legacy,60,60,C:/Users/katri/OneDrive/Documents/krsubject-0.csv,legacy,Lentiform Loewenfeld,3.3.3,0,s,NA,k,NA,NA,s,490,NA,8462,NA,NA,490,2,legacy,1024,2,48000,-16,experiment,SSSSS,0,even,9956,NA,NA,93300,1490,NA,NA,124721,1493,NA,NA,123632,124823,125313,124720,124823,Flanker Task,56,40071,61,yes,1024
91.93548387,91.93548387,653.1451613,653.1451613,black,legacy,legacy,legacy,0,congruent,uniform,1,undefined,1,h,0,0,0,61,0,61,0,61,0,0,0,61,61,61,61,61,Sat Sep 19 20:28:53 2020,1500,The main experiment item,yes,FlankerTask.osexp,C:\Users\katri\OneDrive\Documents,no,mono,no,18,no,white,no,no,768,legacy,61,61,C:/Users/katri/OneDrive/Documents/krsubject-0.csv,legacy,Lentiform Loewenfeld,3.3.3,0,h,NA,k,NA,NA,h,424,NA,8462,NA,NA,424,2,legacy,1024,2,48000,-16,experiment,HHHHH,0,even,9956,NA,NA,93300,1490,NA,NA,126413,1493,NA,NA,125320,126515,126940,126412,126515,Flanker Task,57,40495,62,yes,1024
92.06349206,92.06349206,652.1428571,652.1428571,black,legacy,legacy,legacy,0,incongruent,uniform,1,undefined,1,s,0,0,0,62,0,62,0,62,0,0,0,62,62,62,62,62,Sat Sep 19 20:28:53 2020,1500,The main experiment item,yes,FlankerTask.osexp,C:\Users\katri\OneDrive\Documents,no,mono,no,18,no,white,no,no,768,legacy,62,62,C:/Users/katri/OneDrive/Documents/krsubject-0.csv,legacy,Lentiform Loewenfeld,3.3.3,0,s,NA,k,NA,NA,s,590,NA,8462,NA,NA,590,2,legacy,1024,2,48000,-16,experiment,HHSHH,0,even,9956,NA,NA,93300,1490,NA,NA,128070,1493,NA,NA,126944,128175,128766,128068,128175,Flanker Task,58,41085,63,yes,1024
92.1875,92.1875,653.265625,653.265625,black,legacy,legacy,legacy,0,congruent,uniform,1,undefined,1,s,0,0,0,63,0,63,0,63,0,0,0,63,63,63,63,63,Sat Sep 19 20:28:53 2020,1500,The main experiment item,yes,FlankerTask.osexp,C:\Users\katri\OneDrive\Documents,no,mono,no,18,no,white,no,no,768,legacy,63,63,C:/Users/katri/OneDrive/Documents/krsubject-0.csv,legacy,Lentiform Loewenfeld,3.3.3,0,s,NA,k,NA,NA,s,724,NA,8462,NA,NA,724,2,legacy,1024,2,48000,-16,experiment,SSSSS,0,even,9956,NA,NA,93300,1490,NA,NA,129888,1493,NA,NA,128790,129993,130718,129886,129993,Flanker Task,59,41809,64,yes,1024
92.30769231,92.30769231,651.7230769,651.7230769,black,legacy,legacy,legacy,0,incongruent,uniform,1,undefined,1,s,0,0,0,64,0,64,0,64,0,0,0,64,64,64,64,64,Sat Sep 19 20:28:53 2020,1500,The main experiment item,yes,FlankerTask.osexp,C:\Users\katri\OneDrive\Documents,no,mono,no,18,no,white,no,no,768,legacy,64,64,C:/Users/katri/OneDrive/Documents/krsubject-0.csv,legacy,Lentiform Loewenfeld,3.3.3,0,s,NA,k,NA,NA,s,553,NA,8462,NA,NA,553,2,legacy,1024,2,48000,-16,experiment,HHSHH,0,even,9956,NA,NA,93300,1490,NA,NA,131806,1493,NA,NA,130725,131910,132464,131804,131910,Flanker Task,60,42362,65,yes,1024
92.42424242,92.42424242,650.469697,650.469697,black,legacy,legacy,legacy,0,incongruent,uniform,1,undefined,1,s,0,0,0,65,0,65,0,65,0,0,0,65,65,65,65,65,Sat Sep 19 20:28:53 2020,1500,The main experiment item,yes,FlankerTask.osexp,C:\Users\katri\OneDrive\Documents,no,mono,no,18,no,white,no,no,768,legacy,65,65,C:/Users/katri/OneDrive/Documents/krsubject-0.csv,legacy,Lentiform Loewenfeld,3.3.3,0,s,NA,k,NA,NA,s,569,NA,8462,NA,NA,569,2,legacy,1024,2,48000,-16,experiment,HHSHH,0,even,9956,NA,NA,93300,1490,NA,NA,133571,1493,NA,NA,132472,133675,134244,133569,133674,Flanker Task,61,42931,66,yes,1024
92.53731343,92.53731343,648.0746269,648.0746269,black,legacy,legacy,legacy,0,congruent,uniform,1,undefined,1,s,0,0,0,66,0,66,0,66,0,0,0,66,66,66,66,66,Sat Sep 19 20:28:53 2020,1500,The main experiment item,yes,FlankerTask.osexp,C:\Users\katri\OneDrive\Documents,no,mono,no,18,no,white,no,no,768,legacy,66,66,C:/Users/katri/OneDrive/Documents/krsubject-0.csv,legacy,Lentiform Loewenfeld,3.3.3,0,s,NA,k,NA,NA,s,490,NA,8462,NA,NA,490,2,legacy,1024,2,48000,-16,experiment,SSSSS,0,even,9956,NA,NA,93300,1490,NA,NA,135347,1493,NA,NA,134253,135452,135942,135345,135452,Flanker Task,62,43421,67,yes,1024
92.64705882,92.64705882,646.2941176,646.2941176,black,legacy,legacy,legacy,0,congruent,uniform,1,undefined,1,h,0,0,0,67,0,67,0,67,0,0,0,67,67,67,67,67,Sat Sep 19 20:28:53 2020,1500,The main experiment item,yes,FlankerTask.osexp,C:\Users\katri\OneDrive\Documents,no,mono,no,18,no,white,no,no,768,legacy,67,67,C:/Users/katri/OneDrive/Documents/krsubject-0.csv,legacy,Lentiform Loewenfeld,3.3.3,0,h,NA,k,NA,NA,h,527,NA,8462,NA,NA,527,2,legacy,1024,2,48000,-16,experiment,HHHHH,0,even,9956,NA,NA,93300,1490,NA,NA,137045,1493,NA,NA,135950,137146,137673,137043,137146,Flanker Task,63,43948,68,yes,1024
92.75362319,92.75362319,646.2318841,646.2318841,black,legacy,legacy,legacy,0,incongruent,uniform,1,undefined,1,s,0,0,0,68,0,68,0,68,0,0,0,68,68,68,68,68,Sat Sep 19 20:28:53 2020,1500,The main experiment item,yes,FlankerTask.osexp,C:\Users\katri\OneDrive\Documents,no,mono,no,18,no,white,no,no,768,legacy,68,68,C:/Users/katri/OneDrive/Documents/krsubject-0.csv,legacy,Lentiform Loewenfeld,3.3.3,0,s,NA,k,NA,NA,s,642,NA,8462,NA,NA,642,2,legacy,1024,2,48000,-16,experiment,HHSHH,0,even,9956,NA,NA,93300,1490,NA,NA,138767,1493,NA,NA,137682,138872,139515,138765,138872,Flanker Task,64,44590,69,yes,1024
92.85714286,92.85714286,646.5571429,646.5571429,black,legacy,legacy,legacy,0,congruent,uniform,1,undefined,1,s,0,0,0,69,0,69,0,69,0,0,0,69,69,69,69,69,Sat Sep 19 20:28:53 2020,1500,The main experiment item,yes,FlankerTask.osexp,C:\Users\katri\OneDrive\Documents,no,mono,no,18,no,white,no,no,768,legacy,69,69,C:/Users/katri/OneDrive/Documents/krsubject-0.csv,legacy,Lentiform Loewenfeld,3.3.3,0,s,NA,k,NA,NA,s,669,NA,8462,NA,NA,669,2,legacy,1024,2,48000,-16,experiment,SSSSS,0,even,9956,NA,NA,93300,1490,NA,NA,140634,1493,NA,NA,139541,140739,141409,140632,140738,Flanker Task,65,45259,70,yes,1024
92.95774648,92.95774648,647.5070423,647.5070423,black,legacy,legacy,legacy,0,incongruent,uniform,1,undefined,1,s,0,0,0,70,0,70,0,70,0,0,0,70,70,70,70,70,Sat Sep 19 20:28:53 2020,1500,The main experiment item,yes,FlankerTask.osexp,C:\Users\katri\OneDrive\Documents,no,mono,no,18,no,white,no,no,768,legacy,70,70,C:/Users/katri/OneDrive/Documents/krsubject-0.csv,legacy,Lentiform Loewenfeld,3.3.3,0,s,NA,k,NA,NA,s,714,NA,8462,NA,NA,714,2,legacy,1024,2,48000,-16,experiment,HHSHH,0,even,9956,NA,NA,93300,1490,NA,NA,142510,1493,NA,NA,141416,142615,143329,142508,142614,Flanker Task,66,45973,71,yes,1024
93.05555556,93.05555556,645.5833333,645.5833333,black,legacy,legacy,legacy,0,incongruent,uniform,1,undefined,1,s,0,0,0,71,0,71,0,71,0,0,0,71,71,71,71,71,Sat Sep 19 20:28:53 2020,1500,The main experiment item,yes,FlankerTask.osexp,C:\Users\katri\OneDrive\Documents,no,mono,no,18,no,white,no,no,768,legacy,71,71,C:/Users/katri/OneDrive/Documents/krsubject-0.csv,legacy,Lentiform Loewenfeld,3.3.3,0,s,NA,k,NA,NA,s,509,NA,8462,NA,NA,509,2,legacy,1024,2,48000,-16,experiment,HHSHH,0,even,9956,NA,NA,93300,1490,NA,NA,144474,1493,NA,NA,143343,144578,145087,144472,144578,Flanker Task,67,46482,72,yes,1024
93.15068493,93.15068493,643.9863014,643.9863014,black,legacy,legacy,legacy,0,incongruent,uniform,1,undefined,1,s,0,0,0,72,0,72,0,72,0,0,0,72,72,72,72,72,Sat Sep 19 20:28:53 2020,1500,The main experiment item,yes,FlankerTask.osexp,C:\Users\katri\OneDrive\Documents,no,mono,no,18,no,white,no,no,768,legacy,72,72,C:/Users/katri/OneDrive/Documents/krsubject-0.csv,legacy,Lentiform Loewenfeld,3.3.3,0,s,NA,k,NA,NA,s,529,NA,8462,NA,NA,529,2,legacy,1024,2,48000,-16,experiment,HHSHH,0,even,9956,NA,NA,93300,1490,NA,NA,146196,1493,NA,NA,145113,146301,146830,146194,146300,Flanker Task,68,47011,73,yes,1024
93.24324324,93.24324324,641.8648649,641.8648649,black,legacy,legacy,legacy,0,incongrunet,uniform,1,undefined,1,h,0,0,0,73,0,73,0,73,0,0,0,73,73,73,73,73,Sat Sep 19 20:28:53 2020,1500,The main experiment item,yes,FlankerTask.osexp,C:\Users\katri\OneDrive\Documents,no,mono,no,18,no,white,no,no,768,legacy,73,73,C:/Users/katri/OneDrive/Documents/krsubject-0.csv,legacy,Lentiform Loewenfeld,3.3.3,0,h,NA,k,NA,NA,h,487,NA,8462,NA,NA,487,2,legacy,1024,2,48000,-16,experiment,SSHSS,0,even,9956,NA,NA,93300,1490,NA,NA,147941,1493,NA,NA,146839,148045,148532,147939,148045,Flanker Task,69,47498,74,yes,1024
93.33333333,93.33333333,641.0133333,641.0133333,black,legacy,legacy,legacy,0,congruent,uniform,1,undefined,1,s,0,0,0,74,0,74,0,74,0,0,0,74,74,74,74,74,Sat Sep 19 20:28:53 2020,1500,The main experiment item,yes,FlankerTask.osexp,C:\Users\katri\OneDrive\Documents,no,mono,no,18,no,white,no,no,768,legacy,74,74,C:/Users/katri/OneDrive/Documents/krsubject-0.csv,legacy,Lentiform Loewenfeld,3.3.3,0,s,NA,k,NA,NA,s,578,NA,8462,NA,NA,578,2,legacy,1024,2,48000,-16,experiment,SSSSS,0,even,9956,NA,NA,93300,1490,NA,NA,149618,1493,NA,NA,148540,149723,150301,149617,149722,Flanker Task,70,48076,75,yes,1024
93.42105263,93.42105263,639.8026316,639.8026316,black,legacy,legacy,legacy,0,congruent,uniform,1,undefined,1,h,0,0,0,75,0,75,0,75,0,0,0,75,75,75,75,75,Sat Sep 19 20:28:53 2020,1500,The main experiment item,yes,FlankerTask.osexp,C:\Users\katri\OneDrive\Documents,no,mono,no,18,no,white,no,no,768,legacy,75,75,C:/Users/katri/OneDrive/Documents/krsubject-0.csv,legacy,Lentiform Loewenfeld,3.3.3,0,h,NA,k,NA,NA,h,549,NA,8462,NA,NA,549,2,legacy,1024,2,48000,-16,experiment,HHHHH,0,even,9956,NA,NA,93300,1490,NA,NA,151410,1493,NA,NA,150328,151512,152061,151408,151512,Flanker Task,71,48625,76,yes,1024
93.50649351,93.50649351,638.1038961,638.1038961,black,legacy,legacy,legacy,0,congruent,uniform,1,undefined,1,s,0,0,0,76,0,76,0,76,0,0,0,76,76,76,76,76,Sat Sep 19 20:28:53 2020,1500,The main experiment item,yes,FlankerTask.osexp,C:\Users\katri\OneDrive\Documents,no,mono,no,18,no,white,no,no,768,legacy,76,76,C:/Users/katri/OneDrive/Documents/krsubject-0.csv,legacy,Lentiform Loewenfeld,3.3.3,0,s,NA,k,NA,NA,s,509,NA,8462,NA,NA,509,2,legacy,1024,2,48000,-16,experiment,SSSSS,0,even,9956,NA,NA,93300,1490,NA,NA,153154,1493,NA,NA,152065,153259,153769,153152,153259,Flanker Task,72,49134,77,yes,1024
93.58974359,93.58974359,636.2307692,636.2307692,black,legacy,legacy,legacy,0,incongrunet,uniform,1,undefined,1,h,0,0,0,77,0,77,0,77,0,0,0,77,77,77,77,77,Sat Sep 19 20:28:53 2020,1500,The main experiment item,yes,FlankerTask.osexp,C:\Users\katri\OneDrive\Documents,no,mono,no,18,no,white,no,no,768,legacy,77,77,C:/Users/katri/OneDrive/Documents/krsubject-0.csv,legacy,Lentiform Loewenfeld,3.3.3,0,h,NA,k,NA,NA,h,492,NA,8462,NA,NA,492,2,legacy,1024,2,48000,-16,experiment,SSHSS,0,even,9956,NA,NA,93300,1490,NA,NA,154874,1493,NA,NA,153777,154979,155471,154872,154979,Flanker Task,73,49626,78,yes,1024
93.67088608,93.67088608,635.7594937,635.7594937,black,legacy,legacy,legacy,0,congruent,uniform,1,undefined,1,s,0,0,0,78,0,78,0,78,0,0,0,78,78,78,78,78,Sat Sep 19 20:28:53 2020,1500,The main experiment item,yes,FlankerTask.osexp,C:\Users\katri\OneDrive\Documents,no,mono,no,18,no,white,no,no,768,legacy,78,78,C:/Users/katri/OneDrive/Documents/krsubject-0.csv,legacy,Lentiform Loewenfeld,3.3.3,0,s,NA,k,NA,NA,s,599,NA,8462,NA,NA,599,2,legacy,1024,2,48000,-16,experiment,SSSSS,0,even,9956,NA,NA,93300,1490,NA,NA,156568,1493,NA,NA,155480,156672,157272,156566,156672,Flanker Task,74,50225,79,yes,1024
93.75,93.75,635.725,635.725,black,legacy,legacy,legacy,0,incongruent,uniform,1,undefined,1,s,0,0,0,79,0,79,0,79,0,0,0,79,79,79,79,79,Sat Sep 19 20:28:53 2020,1500,The main experiment item,yes,FlankerTask.osexp,C:\Users\katri\OneDrive\Documents,no,mono,no,18,no,white,no,no,768,legacy,79,79,C:/Users/katri/OneDrive/Documents/krsubject-0.csv,legacy,Lentiform Loewenfeld,3.3.3,0,s,NA,k,NA,NA,s,633,NA,8462,NA,NA,633,2,legacy,1024,2,48000,-16,experiment,HHSHH,0,even,9956,NA,NA,93300,1490,NA,NA,158388,1493,NA,NA,157296,158492,159126,158386,158492,Flanker Task,75,50858,80,yes,1024
93.82716049,93.82716049,635.345679,635.345679,black,legacy,legacy,legacy,0,congruent,uniform,1,undefined,1,s,0,0,0,80,0,80,0,80,0,0,0,80,80,80,80,80,Sat Sep 19 20:28:53 2020,600,The main experiment item,yes,FlankerTask.osexp,C:\Users\katri\OneDrive\Documents,no,mono,no,18,no,white,no,no,768,legacy,0,79,C:/Users/katri/OneDrive/Documents/krsubject-0.csv,legacy,Lentiform Loewenfeld,3.3.3,0,s,NA,k,h,NA,s,605,NA,8462,14888,NA,605,2,legacy,1024,2,48000,-16,experiment,SSSSS,0,even,9956,175065,NA,93300,1490,NA,NA,175124,1493,160177,NA,159134,175229,175835,175123,175228,Flanker Task,76,51463,81,yes,1024
92.68292683,92.68292683,634.902439,634.902439,black,legacy,legacy,legacy,0,congruent,uniform,0,undefined,0,h,0,0,0,81,0,81,0,81,0,0,0,81,81,81,81,81,Sat Sep 19 20:28:53 2020,600,The main experiment item,yes,FlankerTask.osexp,C:\Users\katri\OneDrive\Documents,no,mono,no,18,no,white,no,no,768,legacy,1,79,C:/Users/katri/OneDrive/Documents/krsubject-0.csv,legacy,Lentiform Loewenfeld,3.3.3,0,s,NA,k,h,NA,s,599,NA,8462,14888,NA,599,2,legacy,1024,2,48000,-16,experiment,HHHHH,0,even,9956,175065,NA,93300,1490,176865,NA,177445,1493,160177,NA,175860,177549,178148,177443,177549,Flanker Task,76,52062,82,yes,1024
92.77108434,92.77108434,636.2771084,636.2771084,black,legacy,legacy,legacy,0,incongrunet,uniform,1,undefined,1,h,0,0,0,82,0,82,0,82,0,0,0,82,82,82,82,82,Sat Sep 19 20:28:53 2020,600,The main experiment item,yes,FlankerTask.osexp,C:\Users\katri\OneDrive\Documents,no,mono,no,18,no,white,no,no,768,legacy,2,79,C:/Users/katri/OneDrive/Documents/krsubject-0.csv,legacy,Lentiform Loewenfeld,3.3.3,0,h,NA,k,h,NA,h,749,NA,8462,14888,NA,749,2,legacy,1024,2,48000,-16,experiment,SSHSS,0,even,9956,175065,NA,179177,1490,176865,NA,179754,1493,160177,NA,178174,179858,180607,179752,179858,Flanker Task,77,52811,83,yes,1024
92.85714286,92.85714286,635.9880952,635.9880952,black,legacy,legacy,legacy,0,incongrunet,uniform,1,undefined,1,h,0,0,0,83,0,83,0,83,0,0,0,83,83,83,83,83,Sat Sep 19 20:28:53 2020,600,The main experiment item,yes,FlankerTask.osexp,C:\Users\katri\OneDrive\Documents,no,mono,no,18,no,white,no,no,768,legacy,3,79,C:/Users/katri/OneDrive/Documents/krsubject-0.csv,legacy,Lentiform Loewenfeld,3.3.3,0,h,NA,k,h,NA,h,612,NA,8462,14888,NA,612,2,legacy,1024,2,48000,-16,experiment,SSHSS,0,even,9956,175065,NA,179177,1490,181639,NA,182221,1493,160177,NA,180634,182325,182937,182219,182325,Flanker Task,78,53423,84,yes,1024
92.94117647,92.94117647,634.7647059,634.7647059,black,legacy,legacy,legacy,0,congruent,uniform,1,undefined,1,s,0,0,0,84,0,84,0,84,0,0,0,84,84,84,84,84,Sat Sep 19 20:28:53 2020,600,The main experiment item,yes,FlankerTask.osexp,C:\Users\katri\OneDrive\Documents,no,mono,no,18,no,white,no,no,768,legacy,4,79,C:/Users/katri/OneDrive/Documents/krsubject-0.csv,legacy,Lentiform Loewenfeld,3.3.3,0,s,NA,k,h,NA,s,532,NA,8462,14888,NA,532,2,legacy,1024,2,48000,-16,experiment,SSSSS,0,even,9956,175065,NA,179177,1490,183963,NA,184528,1493,160177,NA,182962,184629,185161,184526,184629,Flanker Task,79,53955,85,yes,1024
91.86046512,91.86046512,634.8488372,634.8488372,black,legacy,legacy,legacy,0,incongruent,uniform,0,undefined,0,s,0,0,0,85,0,85,0,85,0,0,0,85,85,85,85,85,Sat Sep 19 20:28:53 2020,600,The main experiment item,yes,FlankerTask.osexp,C:\Users\katri\OneDrive\Documents,no,mono,no,18,no,white,no,no,768,legacy,5,79,C:/Users/katri/OneDrive/Documents/krsubject-0.csv,legacy,Lentiform Loewenfeld,3.3.3,0,h,NA,k,h,NA,h,642,NA,8462,14888,NA,642,2,legacy,1024,2,48000,-16,experiment,HHSHH,0,even,9956,175065,NA,179177,1490,183963,NA,186261,1493,160177,NA,185169,186365,187008,186258,186365,Flanker Task,79,54597,86,yes,1024
91.95402299,91.95402299,634.137931,634.137931,black,legacy,legacy,legacy,0,congruent,uniform,1,undefined,1,s,0,0,0,86,0,86,0,86,0,0,0,86,86,86,86,86,Sat Sep 19 20:28:53 2020,600,The main experiment item,yes,FlankerTask.osexp,C:\Users\katri\OneDrive\Documents,no,mono,no,18,no,white,no,no,768,legacy,6,79,C:/Users/katri/OneDrive/Documents/krsubject-0.csv,legacy,Lentiform Loewenfeld,3.3.3,0,s,NA,k,h,NA,s,573,NA,8462,14888,NA,573,2,legacy,1024,2,48000,-16,experiment,SSSSS,0,even,9956,175065,NA,188020,1490,188525,NA,189104,1493,160177,NA,187017,189209,189783,189102,189209,Flanker Task,80,55170,87,yes,1024
92.04545455,92.04545455,632.4318182,632.4318182,black,legacy,legacy,legacy,0,congruent,uniform,1,undefined,1,s,0,0,0,87,0,87,0,87,0,0,0,87,87,87,87,87,Sat Sep 19 20:28:53 2020,600,The main experiment item,yes,FlankerTask.osexp,C:\Users\katri\OneDrive\Documents,no,mono,no,18,no,white,no,no,768,legacy,7,79,C:/Users/katri/OneDrive/Documents/krsubject-0.csv,legacy,Lentiform Loewenfeld,3.3.3,0,s,NA,k,h,NA,s,484,NA,8462,14888,NA,484,2,legacy,1024,2,48000,-16,experiment,SSSSS,0,even,9956,175065,NA,188020,1490,188525,NA,190880,1493,160177,NA,189790,190982,191466,190879,190982,Flanker Task,81,55654,88,yes,1024
91.01123596,91.01123596,630.3707865,630.3707865,black,legacy,legacy,legacy,0,incongrunet,uniform,0,undefined,0,h,0,0,0,88,0,88,0,88,0,0,0,88,88,88,88,88,Sat Sep 19 20:28:53 2020,600,The main experiment item,yes,FlankerTask.osexp,C:\Users\katri\OneDrive\Documents,no,mono,no,18,no,white,no,no,768,legacy,8,79,C:/Users/katri/OneDrive/Documents/krsubject-0.csv,legacy,Lentiform Loewenfeld,3.3.3,0,s,NA,k,h,NA,s,449,NA,8462,14888,NA,449,2,legacy,1024,2,48000,-16,experiment,SSHSS,0,even,9956,175065,NA,188020,1490,188525,NA,192572,1493,160177,NA,191493,192674,193124,192571,192674,Flanker Task,81,56103,89,yes,1024
91.11111111,91.11111111,631.0333333,631.0333333,black,legacy,legacy,legacy,0,incongrunet,uniform,1,undefined,1,h,0,0,0,89,0,89,0,89,0,0,0,89,89,89,89,89,Sat Sep 19 20:28:53 2020,600,The main experiment item,yes,FlankerTask.osexp,C:\Users\katri\OneDrive\Documents,no,mono,no,18,no,white,no,no,768,legacy,9,79,C:/Users/katri/OneDrive/Documents/krsubject-0.csv,legacy,Lentiform Loewenfeld,3.3.3,0,h,NA,k,h,NA,h,690,NA,8462,14888,NA,690,2,legacy,1024,2,48000,-16,experiment,SSHSS,0,even,9956,175065,NA,194134,1490,188525,NA,194731,1493,160177,NA,193132,194835,195526,194730,194835,Flanker Task,82,56793,90,yes,1024
91.20879121,91.20879121,630.2967033,630.2967033,black,legacy,legacy,legacy,0,incongrunet,uniform,1,undefined,1,h,0,0,0,90,0,90,0,90,0,0,0,90,90,90,90,90,Sat Sep 19 20:28:53 2020,600,The main experiment item,yes,FlankerTask.osexp,C:\Users\katri\OneDrive\Documents,no,mono,no,18,no,white,no,no,768,legacy,10,79,C:/Users/katri/OneDrive/Documents/krsubject-0.csv,legacy,Lentiform Loewenfeld,3.3.3,0,h,NA,k,h,NA,h,564,NA,8462,14888,NA,564,2,legacy,1024,2,48000,-16,experiment,SSHSS,0,even,9956,175065,NA,194134,1490,196564,NA,197142,1493,160177,NA,195555,197246,197810,197141,197246,Flanker Task,83,57357,91,yes,1024
91.30434783,91.30434783,630.8586957,630.8586957,black,legacy,legacy,legacy,0,incongruent,uniform,1,undefined,1,s,0,0,0,91,0,91,0,91,0,0,0,91,91,91,91,91,Sat Sep 19 20:28:53 2020,600,The main experiment item,yes,FlankerTask.osexp,C:\Users\katri\OneDrive\Documents,no,mono,no,18,no,white,no,no,768,legacy,11,79,C:/Users/katri/OneDrive/Documents/krsubject-0.csv,legacy,Lentiform Loewenfeld,3.3.3,0,s,NA,k,h,NA,s,682,NA,8462,14888,NA,682,2,legacy,1024,2,48000,-16,experiment,HHSHH,0,even,9956,175065,NA,194134,1490,196564,NA,198902,1493,160177,NA,197817,199006,199689,198899,199006,Flanker Task,84,58039,92,yes,1024
91.39784946,91.39784946,630.9462366,630.9462366,black,legacy,legacy,legacy,0,incongrunet,uniform,1,undefined,1,h,0,0,0,92,0,92,0,92,0,0,0,92,92,92,92,92,Sat Sep 19 20:28:53 2020,600,The main experiment item,yes,FlankerTask.osexp,C:\Users\katri\OneDrive\Documents,no,mono,no,18,no,white,no,no,768,legacy,12,79,C:/Users/katri/OneDrive/Documents/krsubject-0.csv,legacy,Lentiform Loewenfeld,3.3.3,0,h,NA,k,h,NA,h,639,NA,8462,14888,NA,639,2,legacy,1024,2,48000,-16,experiment,SSHSS,0,even,9956,175065,NA,194134,1490,200695,NA,201292,1493,160177,NA,199692,201395,202034,201291,201395,Flanker Task,85,58678,93,yes,1024
91.4893617,91.4893617,630.5957447,630.5957447,black,legacy,legacy,legacy,0,congruent,uniform,1,undefined,1,s,0,0,0,93,0,93,0,93,0,0,0,93,93,93,93,93,Sat Sep 19 20:28:53 2020,600,The main experiment item,yes,FlankerTask.osexp,C:\Users\katri\OneDrive\Documents,no,mono,no,18,no,white,no,no,768,legacy,13,79,C:/Users/katri/OneDrive/Documents/krsubject-0.csv,legacy,Lentiform Loewenfeld,3.3.3,0,s,NA,k,h,NA,s,598,NA,8462,14888,NA,598,2,legacy,1024,2,48000,-16,experiment,SSSSS,0,even,9956,175065,NA,194134,1490,203047,NA,203629,1493,160177,NA,202043,203731,204329,203627,203731,Flanker Task,86,59276,94,yes,1024
90.52631579,90.52631579,630.1263158,630.1263158,black,legacy,legacy,legacy,0,incongruent,uniform,0,undefined,0,s,0,0,0,94,0,94,0,94,0,0,0,94,94,94,94,94,Sat Sep 19 20:28:53 2020,600,The main experiment item,yes,FlankerTask.osexp,C:\Users\katri\OneDrive\Documents,no,mono,no,18,no,white,no,no,768,legacy,14,79,C:/Users/katri/OneDrive/Documents/krsubject-0.csv,legacy,Lentiform Loewenfeld,3.3.3,0,h,NA,k,h,NA,h,586,NA,8462,14888,NA,586,2,legacy,1024,2,48000,-16,experiment,HHSHH,0,even,9956,175065,NA,194134,1490,203047,NA,205406,1493,160177,NA,204337,205511,206097,205404,205510,Flanker Task,86,59862,95,yes,1024
90.625,90.625,632.1354167,632.1354167,black,legacy,legacy,legacy,0,incongruent,uniform,1,undefined,1,s,0,0,0,95,0,95,0,95,0,0,0,95,95,95,95,95,Sat Sep 19 20:28:53 2020,600,The main experiment item,yes,FlankerTask.osexp,C:\Users\katri\OneDrive\Documents,no,mono,no,18,no,white,no,no,768,legacy,15,79,C:/Users/katri/OneDrive/Documents/krsubject-0.csv,legacy,Lentiform Loewenfeld,3.3.3,0,s,NA,k,h,NA,s,823,NA,8462,14888,NA,823,2,legacy,1024,2,48000,-16,experiment,HHSHH,0,even,9956,175065,NA,207110,1490,203047,NA,207702,1493,160177,NA,206106,207812,208635,207701,207812,Flanker Task,87,60685,96,yes,1024
90.72164948,90.72164948,631.5360825,631.5360825,black,legacy,legacy,legacy,0,congruent,uniform,1,undefined,1,s,0,0,0,96,0,96,0,96,0,0,0,96,96,96,96,96,Sat Sep 19 20:28:53 2020,600,The main experiment item,yes,FlankerTask.osexp,C:\Users\katri\OneDrive\Documents,no,mono,no,18,no,white,no,no,768,legacy,16,79,C:/Users/katri/OneDrive/Documents/krsubject-0.csv,legacy,Lentiform Loewenfeld,3.3.3,0,s,NA,k,h,NA,s,574,NA,8462,14888,NA,574,2,legacy,1024,2,48000,-16,experiment,SSSSS,0,even,9956,175065,NA,207110,1490,209645,NA,210243,1493,160177,NA,208643,210346,210920,210242,210346,Flanker Task,88,61259,97,yes,1024
90.81632653,90.81632653,630.255102,630.255102,black,legacy,legacy,legacy,0,congruent,uniform,1,undefined,1,h,0,0,0,97,0,97,0,97,0,0,0,97,97,97,97,97,Sat Sep 19 20:28:53 2020,600,The main experiment item,yes,FlankerTask.osexp,C:\Users\katri\OneDrive\Documents,no,mono,no,18,no,white,no,no,768,legacy,17,79,C:/Users/katri/OneDrive/Documents/krsubject-0.csv,legacy,Lentiform Loewenfeld,3.3.3,0,h,NA,k,h,NA,h,506,NA,8462,14888,NA,506,2,legacy,1024,2,48000,-16,experiment,HHHHH,0,even,9956,175065,NA,207110,1490,209645,NA,212060,1493,160177,NA,210929,212166,212673,212058,212166,Flanker Task,89,61765,98,yes,1024
90.90909091,90.90909091,628.2020202,628.2020202,black,legacy,legacy,legacy,0,congruent,uniform,1,undefined,1,h,0,0,0,98,0,98,0,98,0,0,0,98,98,98,98,98,Sat Sep 19 20:28:53 2020,600,The main experiment item,yes,FlankerTask.osexp,C:\Users\katri\OneDrive\Documents,no,mono,no,18,no,white,no,no,768,legacy,18,79,C:/Users/katri/OneDrive/Documents/krsubject-0.csv,legacy,Lentiform Loewenfeld,3.3.3,0,h,NA,k,h,NA,h,427,NA,8462,14888,NA,427,2,legacy,1024,2,48000,-16,experiment,HHHHH,0,even,9956,175065,NA,207110,1490,209645,NA,213780,1493,160177,NA,212681,213884,214312,213778,213884,Flanker Task,90,62192,99,yes,1024
91,91,626.42,626.42,black,legacy,legacy,legacy,0,congruent,uniform,1,undefined,1,s,0,0,0,99,0,99,0,99,0,0,0,99,99,99,99,99,Sat Sep 19 20:28:53 2020,600,The main experiment item,yes,FlankerTask.osexp,C:\Users\katri\OneDrive\Documents,no,mono,no,18,no,white,no,no,768,legacy,19,79,C:/Users/katri/OneDrive/Documents/krsubject-0.csv,legacy,Lentiform Loewenfeld,3.3.3,0,s,NA,k,h,NA,s,450,NA,8462,14888,NA,450,2,legacy,1024,2,48000,-16,experiment,SSSSS,0,even,9956,175065,NA,207110,1490,209645,NA,215417,1493,160177,NA,214322,215522,215973,215416,215521,Flanker Task,91,62642,100,yes,1024
91.08910891,91.08910891,625.019802,625.019802,black,legacy,legacy,legacy,0,incongrunet,uniform,1,undefined,1,h,0,0,0,100,0,100,0,100,0,0,0,100,100,100,100,100,Sat Sep 19 20:28:53 2020,600,The main experiment item,yes,FlankerTask.osexp,C:\Users\katri\OneDrive\Documents,no,mono,no,18,no,white,no,no,768,legacy,20,79,C:/Users/katri/OneDrive/Documents/krsubject-0.csv,legacy,Lentiform Loewenfeld,3.3.3,0,h,NA,k,h,NA,h,485,NA,8462,14888,NA,485,2,legacy,1024,2,48000,-16,experiment,SSHSS,0,even,9956,175065,NA,207110,1490,209645,NA,217098,1493,160177,NA,215998,217202,217688,217096,217202,Flanker Task,92,63127,101,yes,1024
91.17647059,91.17647059,623.6666667,623.6666667,black,legacy,legacy,legacy,0,congruent,uniform,1,undefined,1,s,0,0,0,101,0,101,0,101,0,0,0,101,101,101,101,101,Sat Sep 19 20:28:53 2020,600,The main experiment item,yes,FlankerTask.osexp,C:\Users\katri\OneDrive\Documents,no,mono,no,18,no,white,no,no,768,legacy,21,79,C:/Users/katri/OneDrive/Documents/krsubject-0.csv,legacy,Lentiform Loewenfeld,3.3.3,0,s,NA,k,h,NA,s,487,NA,8462,14888,NA,487,2,legacy,1024,2,48000,-16,experiment,SSSSS,0,even,9956,175065,NA,207110,1490,209645,NA,218793,1493,160177,NA,217696,218897,219385,218791,218897,Flanker Task,93,63614,102,yes,1024
91.26213592,91.26213592,622.4660194,622.4660194,black,legacy,legacy,legacy,0,congruent,uniform,1,undefined,1,s,0,0,0,102,0,102,0,102,0,0,0,102,102,102,102,102,Sat Sep 19 20:28:53 2020,600,The main experiment item,yes,FlankerTask.osexp,C:\Users\katri\OneDrive\Documents,no,mono,no,18,no,white,no,no,768,legacy,22,79,C:/Users/katri/OneDrive/Documents/krsubject-0.csv,legacy,Lentiform Loewenfeld,3.3.3,0,s,NA,k,h,NA,s,500,NA,8462,14888,NA,500,2,legacy,1024,2,48000,-16,experiment,SSSSS,0,even,9956,175065,NA,207110,1490,209645,NA,220491,1493,160177,NA,219394,220596,221096,220491,220596,Flanker Task,94,64114,103,yes,1024
91.34615385,91.34615385,620.4423077,620.4423077,black,legacy,legacy,legacy,0,congruent,uniform,1,undefined,1,h,0,0,0,103,0,103,0,103,0,0,0,103,103,103,103,103,Sat Sep 19 20:28:53 2020,600,The main experiment item,yes,FlankerTask.osexp,C:\Users\katri\OneDrive\Documents,no,mono,no,18,no,white,no,no,768,legacy,23,79,C:/Users/katri/OneDrive/Documents/krsubject-0.csv,legacy,Lentiform Loewenfeld,3.3.3,0,h,NA,k,h,NA,h,412,NA,8462,14888,NA,412,2,legacy,1024,2,48000,-16,experiment,HHHHH,0,even,9956,175065,NA,207110,1490,209645,NA,222206,1493,160177,NA,221105,222310,222723,222205,222310,Flanker Task,95,64526,104,yes,1024
91.42857143,91.42857143,619.6666667,619.6666667,black,legacy,legacy,legacy,0,incongrunet,uniform,1,undefined,1,h,0,0,0,104,0,104,0,104,0,0,0,104,104,104,104,104,Sat Sep 19 20:28:53 2020,600,The main experiment item,yes,FlankerTask.osexp,C:\Users\katri\OneDrive\Documents,no,mono,no,18,no,white,no,no,768,legacy,24,79,C:/Users/katri/OneDrive/Documents/krsubject-0.csv,legacy,Lentiform Loewenfeld,3.3.3,0,h,NA,k,h,NA,h,539,NA,8462,14888,NA,539,2,legacy,1024,2,48000,-16,experiment,SSHSS,0,even,9956,175065,NA,207110,1490,209645,NA,223810,1493,160177,NA,222729,223912,224452,223808,223912,Flanker Task,96,65065,105,yes,1024
91.50943396,91.50943396,618.0849057,618.0849057,black,legacy,legacy,legacy,0,incongrunet,uniform,1,undefined,1,h,0,0,0,105,0,105,0,105,0,0,0,105,105,105,105,105,Sat Sep 19 20:28:53 2020,600,The main experiment item,yes,FlankerTask.osexp,C:\Users\katri\OneDrive\Documents,no,mono,no,18,no,white,no,no,768,legacy,25,79,C:/Users/katri/OneDrive/Documents/krsubject-0.csv,legacy,Lentiform Loewenfeld,3.3.3,0,h,NA,k,h,NA,h,452,NA,8462,14888,NA,452,2,legacy,1024,2,48000,-16,experiment,SSHSS,0,even,9956,175065,NA,207110,1490,209645,NA,225559,1493,160177,NA,224460,225664,226116,225557,225664,Flanker Task,97,65517,106,yes,1024
91.58878505,91.58878505,616.0841121,616.0841121,black,legacy,legacy,legacy,0,incongrunet,uniform,1,undefined,1,h,0,0,0,106,0,106,0,106,0,0,0,106,106,106,106,106,Sat Sep 19 20:28:53 2020,600,The main experiment item,yes,FlankerTask.osexp,C:\Users\katri\OneDrive\Documents,no,mono,no,18,no,white,no,no,768,legacy,26,79,C:/Users/katri/OneDrive/Documents/krsubject-0.csv,legacy,Lentiform Loewenfeld,3.3.3,0,h,NA,k,h,NA,h,404,NA,8462,14888,NA,404,2,legacy,1024,2,48000,-16,experiment,SSHSS,0,even,9956,175065,NA,207110,1490,209645,NA,227226,1493,160177,NA,226124,227331,227736,227225,227330,Flanker Task,98,65921,107,yes,1024
91.66666667,91.66666667,614.9259259,614.9259259,black,legacy,legacy,legacy,0,congruent,uniform,1,undefined,1,s,0,0,0,107,0,107,0,107,0,0,0,107,107,107,107,107,Sat Sep 19 20:28:53 2020,600,The main experiment item,yes,FlankerTask.osexp,C:\Users\katri\OneDrive\Documents,no,mono,no,18,no,white,no,no,768,legacy,27,79,C:/Users/katri/OneDrive/Documents/krsubject-0.csv,legacy,Lentiform Loewenfeld,3.3.3,0,s,NA,k,h,NA,s,491,NA,8462,14888,NA,491,2,legacy,1024,2,48000,-16,experiment,SSSSS,0,even,9956,175065,NA,207110,1490,209645,NA,228833,1493,160177,NA,227744,228938,229430,228830,228937,Flanker Task,99,66412,108,yes,1024
91.74311927,91.74311927,613.4495413,613.4495413,black,legacy,legacy,legacy,0,congruent,uniform,1,undefined,1,s,0,0,0,108,0,108,0,108,0,0,0,108,108,108,108,108,Sat Sep 19 20:28:53 2020,600,The main experiment item,yes,FlankerTask.osexp,C:\Users\katri\OneDrive\Documents,no,mono,no,18,no,white,no,no,768,legacy,28,79,C:/Users/katri/OneDrive/Documents/krsubject-0.csv,legacy,Lentiform Loewenfeld,3.3.3,0,s,NA,k,h,NA,s,454,NA,8462,14888,NA,454,2,legacy,1024,2,48000,-16,experiment,SSSSS,0,even,9956,175065,NA,207110,1490,209645,NA,230574,1493,160177,NA,229454,230679,231134,230572,230679,Flanker Task,100,66866,109,yes,1024
91.81818182,91.81818182,611.9454545,611.9454545,black,legacy,legacy,legacy,0,congruent,uniform,1,undefined,1,h,0,0,0,109,0,109,0,109,0,0,0,109,109,109,109,109,Sat Sep 19 20:28:53 2020,600,The main experiment item,yes,FlankerTask.osexp,C:\Users\katri\OneDrive\Documents,no,mono,no,18,no,white,no,no,768,legacy,29,79,C:/Users/katri/OneDrive/Documents/krsubject-0.csv,legacy,Lentiform Loewenfeld,3.3.3,0,h,NA,k,h,NA,h,448,NA,8462,14888,NA,448,2,legacy,1024,2,48000,-16,experiment,HHHHH,0,even,9956,175065,NA,207110,1490,209645,NA,232233,1493,160177,NA,231137,232337,232786,232231,232337,Flanker Task,101,67314,110,yes,1024
91.89189189,91.89189189,611.3693694,611.3693694,black,legacy,legacy,legacy,0,incongruent,uniform,1,undefined,1,s,0,0,0,110,0,110,0,110,0,0,0,110,110,110,110,110,Sat Sep 19 20:28:53 2020,600,The main experiment item,yes,FlankerTask.osexp,C:\Users\katri\OneDrive\Documents,no,mono,no,18,no,white,no,no,768,legacy,30,79,C:/Users/katri/OneDrive/Documents/krsubject-0.csv,legacy,Lentiform Loewenfeld,3.3.3,0,s,NA,k,h,NA,s,548,NA,8462,14888,NA,548,2,legacy,1024,2,48000,-16,experiment,HHSHH,0,even,9956,175065,NA,207110,1490,209645,NA,233888,1493,160177,NA,232794,233990,234538,233886,233989,Flanker Task,102,67862,111,yes,1024
91.96428571,91.96428571,610.0625,610.0625,black,legacy,legacy,legacy,0,incongrunet,uniform,1,undefined,1,h,0,0,0,111,0,111,0,111,0,0,0,111,111,111,111,111,Sat Sep 19 20:28:53 2020,600,The main experiment item,yes,FlankerTask.osexp,C:\Users\katri\OneDrive\Documents,no,mono,no,18,no,white,no,no,768,legacy,31,79,C:/Users/katri/OneDrive/Documents/krsubject-0.csv,legacy,Lentiform Loewenfeld,3.3.3,0,h,NA,k,h,NA,h,465,NA,8462,14888,NA,465,2,legacy,1024,2,48000,-16,experiment,SSHSS,0,even,9956,175065,NA,207110,1490,209645,NA,235646,1493,160177,NA,234547,235750,236216,235644,235750,Flanker Task,103,68327,112,yes,1024
92.03539823,92.03539823,608.4955752,608.4955752,black,legacy,legacy,legacy,0,congruent,uniform,1,undefined,1,h,0,0,0,112,0,112,0,112,0,0,0,112,112,112,112,112,Sat Sep 19 20:28:53 2020,600,The main experiment item,yes,FlankerTask.osexp,C:\Users\katri\OneDrive\Documents,no,mono,no,18,no,white,no,no,768,legacy,32,79,C:/Users/katri/OneDrive/Documents/krsubject-0.csv,legacy,Lentiform Loewenfeld,3.3.3,0,h,NA,k,h,NA,h,433,NA,8462,14888,NA,433,2,legacy,1024,2,48000,-16,experiment,HHHHH,0,even,9956,175065,NA,207110,1490,209645,NA,237307,1493,160177,NA,236225,237412,237845,237305,237412,Flanker Task,104,68760,113,yes,1024
92.10526316,92.10526316,606.5350877,606.5350877,black,legacy,legacy,legacy,0,incongruent,uniform,1,undefined,1,s,0,0,0,113,0,113,0,113,0,0,0,113,113,113,113,113,Sat Sep 19 20:28:53 2020,600,The main experiment item,yes,FlankerTask.osexp,C:\Users\katri\OneDrive\Documents,no,mono,no,18,no,white,no,no,768,legacy,33,79,C:/Users/katri/OneDrive/Documents/krsubject-0.csv,legacy,Lentiform Loewenfeld,3.3.3,0,s,NA,k,h,NA,s,385,NA,8462,14888,NA,385,2,legacy,1024,2,48000,-16,experiment,HHSHH,0,even,9956,175065,NA,207110,1490,209645,NA,238947,1493,160177,NA,237855,239052,239438,238945,239052,Flanker Task,105,69145,114,yes,1024
92.17391304,92.17391304,605.573913,605.573913,black,legacy,legacy,legacy,0,incongruent,uniform,1,undefined,1,s,0,0,0,114,0,114,0,114,0,0,0,114,114,114,114,114,Sat Sep 19 20:28:53 2020,600,The main experiment item,yes,FlankerTask.osexp,C:\Users\katri\OneDrive\Documents,no,mono,no,18,no,white,no,no,768,legacy,34,79,C:/Users/katri/OneDrive/Documents/krsubject-0.csv,legacy,Lentiform Loewenfeld,3.3.3,0,s,NA,k,h,NA,s,496,NA,8462,14888,NA,496,2,legacy,1024,2,48000,-16,experiment,HHSHH,0,even,9956,175065,NA,207110,1490,209645,NA,240540,1493,160177,NA,239444,240644,241140,240538,240644,Flanker Task,106,69641,115,yes,1024
92.24137931,92.24137931,604.6982759,604.6982759,black,legacy,legacy,legacy,0,incongruent,uniform,1,undefined,1,s,0,0,0,115,0,115,0,115,0,0,0,115,115,115,115,115,Sat Sep 19 20:28:53 2020,600,The main experiment item,yes,FlankerTask.osexp,C:\Users\katri\OneDrive\Documents,no,mono,no,18,no,white,no,no,768,legacy,35,79,C:/Users/katri/OneDrive/Documents/krsubject-0.csv,legacy,Lentiform Loewenfeld,3.3.3,0,s,NA,k,h,NA,s,504,NA,8462,14888,NA,504,2,legacy,1024,2,48000,-16,experiment,HHSHH,0,even,9956,175065,NA,207110,1490,209645,NA,242249,1493,160177,NA,241149,242352,242858,242247,242352,Flanker Task,107,70145,116,yes,1024
92.30769231,92.30769231,603.8803419,603.8803419,black,legacy,legacy,legacy,0,incongruent,uniform,1,undefined,1,s,0,0,0,116,0,116,0,116,0,0,0,116,116,116,116,116,Sat Sep 19 20:28:53 2020,600,The main experiment item,yes,FlankerTask.osexp,C:\Users\katri\OneDrive\Documents,no,mono,no,18,no,white,no,no,768,legacy,36,79,C:/Users/katri/OneDrive/Documents/krsubject-0.csv,legacy,Lentiform Loewenfeld,3.3.3,0,s,NA,k,h,NA,s,509,NA,8462,14888,NA,509,2,legacy,1024,2,48000,-16,experiment,HHSHH,0,even,9956,175065,NA,207110,1490,209645,NA,243984,1493,160177,NA,242864,244088,244597,243980,244088,Flanker Task,108,70654,117,yes,1024
91.52542373,91.52542373,603.4661017,603.4661017,black,legacy,legacy,legacy,0,congruent,uniform,0,undefined,0,s,0,0,0,117,0,117,0,117,0,0,0,117,117,117,117,117,Sat Sep 19 20:28:53 2020,600,The main experiment item,yes,FlankerTask.osexp,C:\Users\katri\OneDrive\Documents,no,mono,no,18,no,white,no,no,768,legacy,37,79,C:/Users/katri/OneDrive/Documents/krsubject-0.csv,legacy,Lentiform Loewenfeld,3.3.3,0,h,NA,k,h,NA,h,555,NA,8462,14888,NA,555,2,legacy,1024,2,48000,-16,experiment,SSSSS,0,even,9956,175065,NA,207110,1490,209645,NA,245703,1493,160177,NA,244623,245807,246362,245701,245807,Flanker Task,108,71209,118,yes,1024
91.59663866,91.59663866,604.6302521,604.6302521,black,legacy,legacy,legacy,0,incongruent,uniform,1,undefined,1,s,0,0,0,118,0,118,0,118,0,0,0,118,118,118,118,118,Sat Sep 19 20:28:53 2020,600,The main experiment item,yes,FlankerTask.osexp,C:\Users\katri\OneDrive\Documents,no,mono,no,18,no,white,no,no,768,legacy,38,79,C:/Users/katri/OneDrive/Documents/krsubject-0.csv,legacy,Lentiform Loewenfeld,3.3.3,0,s,NA,k,h,NA,s,742,NA,8462,14888,NA,742,2,legacy,1024,2,48000,-16,experiment,HHSHH,0,even,9956,175065,NA,247375,1490,209645,NA,247957,1493,160177,NA,246370,248060,248802,247955,248060,Flanker Task,109,71951,119,yes,1024
91.66666667,91.66666667,603.975,603.975,black,legacy,legacy,legacy,0,congruent,uniform,1,undefined,1,s,0,0,0,119,0,119,0,119,0,0,0,119,119,119,119,119,Sat Sep 19 20:28:53 2020,600,The main experiment item,yes,FlankerTask.osexp,C:\Users\katri\OneDrive\Documents,no,mono,no,18,no,white,no,no,768,legacy,39,79,C:/Users/katri/OneDrive/Documents/krsubject-0.csv,legacy,Lentiform Loewenfeld,3.3.3,0,s,NA,k,h,NA,s,526,NA,8462,14888,NA,526,2,legacy,1024,2,48000,-16,experiment,SSSSS,0,even,9956,175065,NA,247375,1490,249810,NA,250390,1493,160177,NA,248806,250494,251021,250389,250494,Flanker Task,110,72477,120,yes,1024
91.73553719,91.73553719,602.322314,602.322314,black,legacy,legacy,legacy,0,congruent,uniform,1,undefined,1,s,0,0,0,120,0,120,0,120,0,0,0,120,120,120,120,120,Sat Sep 19 20:28:53 2020,600,The main experiment item,yes,FlankerTask.osexp,C:\Users\katri\OneDrive\Documents,no,mono,no,18,no,white,no,no,768,legacy,40,79,C:/Users/katri/OneDrive/Documents/krsubject-0.csv,legacy,Lentiform Loewenfeld,3.3.3,0,s,NA,k,h,NA,s,404,NA,8462,14888,NA,404,2,legacy,1024,2,48000,-16,experiment,SSSSS,0,even,9956,175065,NA,247375,1490,249810,NA,252175,1493,160177,NA,251046,252280,252684,252173,252280,Flanker Task,111,72881,121,yes,1024
91.80327869,91.80327869,604.4016393,604.4016393,black,legacy,legacy,legacy,0,congruent,uniform,1,undefined,1,h,0,0,0,121,0,121,0,121,0,0,0,121,121,121,121,121,Sat Sep 19 20:28:53 2020,600,The main experiment item,yes,FlankerTask.osexp,C:\Users\katri\OneDrive\Documents,no,mono,no,18,no,white,no,no,768,legacy,41,79,C:/Users/katri/OneDrive/Documents/krsubject-0.csv,legacy,Lentiform Loewenfeld,3.3.3,0,h,NA,k,h,NA,h,856,NA,8462,14888,NA,856,2,legacy,1024,2,48000,-16,experiment,HHHHH,0,even,9956,175065,NA,247375,1490,249810,NA,253811,1493,160177,NA,252710,253915,254772,253809,253915,Flanker Task,112,73737,122,yes,1024
91.8699187,91.8699187,602.902439,602.902439,black,legacy,legacy,legacy,0,congruent,uniform,1,undefined,1,h,0,0,0,122,0,122,0,122,0,0,0,122,122,122,122,122,Sat Sep 19 20:28:53 2020,600,The main experiment item,yes,FlankerTask.osexp,C:\Users\katri\OneDrive\Documents,no,mono,no,18,no,white,no,no,768,legacy,42,79,C:/Users/katri/OneDrive/Documents/krsubject-0.csv,legacy,Lentiform Loewenfeld,3.3.3,0,h,NA,k,h,NA,h,420,NA,8462,14888,NA,420,2,legacy,1024,2,48000,-16,experiment,HHHHH,0,even,9956,175065,NA,247375,1490,255779,NA,256350,1493,160177,NA,254775,256451,256872,256349,256451,Flanker Task,113,74157,123,yes,1024
91.93548387,91.93548387,601.3387097,601.3387097,black,legacy,legacy,legacy,0,congruent,uniform,1,undefined,1,h,0,0,0,123,0,123,0,123,0,0,0,123,123,123,123,123,Sat Sep 19 20:28:53 2020,600,The main experiment item,yes,FlankerTask.osexp,C:\Users\katri\OneDrive\Documents,no,mono,no,18,no,white,no,no,768,legacy,43,79,C:/Users/katri/OneDrive/Documents/krsubject-0.csv,legacy,Lentiform Loewenfeld,3.3.3,0,h,NA,k,h,NA,h,409,NA,8462,14888,NA,409,2,legacy,1024,2,48000,-16,experiment,HHHHH,0,even,9956,175065,NA,247375,1490,255779,NA,257999,1493,160177,NA,256898,258104,258514,257997,258104,Flanker Task,114,74566,124,yes,1024
92,92,600.32,600.32,black,legacy,legacy,legacy,0,incongruent,uniform,1,undefined,1,s,0,0,0,124,0,124,0,124,0,0,0,124,124,124,124,124,Sat Sep 19 20:28:53 2020,600,The main experiment item,yes,FlankerTask.osexp,C:\Users\katri\OneDrive\Documents,no,mono,no,18,no,white,no,no,768,legacy,44,79,C:/Users/katri/OneDrive/Documents/krsubject-0.csv,legacy,Lentiform Loewenfeld,3.3.3,0,s,NA,k,h,NA,s,474,NA,8462,14888,NA,474,2,legacy,1024,2,48000,-16,experiment,HHSHH,0,even,9956,175065,NA,247375,1490,255779,NA,259621,1493,160177,NA,258521,259722,260197,259619,259722,Flanker Task,115,75040,125,yes,1024
92.06349206,92.06349206,599.1349206,599.1349206,black,legacy,legacy,legacy,0,incongruent,uniform,1,undefined,1,s,0,0,0,125,0,125,0,125,0,0,0,125,125,125,125,125,Sat Sep 19 20:28:53 2020,600,The main experiment item,yes,FlankerTask.osexp,C:\Users\katri\OneDrive\Documents,no,mono,no,18,no,white,no,no,768,legacy,45,79,C:/Users/katri/OneDrive/Documents/krsubject-0.csv,legacy,Lentiform Loewenfeld,3.3.3,0,s,NA,k,h,NA,s,451,NA,8462,14888,NA,451,2,legacy,1024,2,48000,-16,experiment,HHSHH,0,even,9956,175065,NA,247375,1490,255779,NA,261293,1493,160177,NA,260204,261396,261847,261291,261395,Flanker Task,116,75491,126,yes,1024
92.12598425,92.12598425,598,598,black,legacy,legacy,legacy,0,congruent,uniform,1,undefined,1,s,0,0,0,126,0,126,0,126,0,0,0,126,126,126,126,126,Sat Sep 19 20:28:53 2020,600,The main experiment item,yes,FlankerTask.osexp,C:\Users\katri\OneDrive\Documents,no,mono,no,18,no,white,no,no,768,legacy,46,79,C:/Users/katri/OneDrive/Documents/krsubject-0.csv,legacy,Lentiform Loewenfeld,3.3.3,0,s,NA,k,h,NA,s,455,NA,8462,14888,NA,455,2,legacy,1024,2,48000,-16,experiment,SSSSS,0,even,9956,175065,NA,247375,1490,255779,NA,262946,1493,160177,NA,261854,263047,263502,262944,263047,Flanker Task,117,75946,127,yes,1024
92.1875,92.1875,597.15625,597.15625,black,legacy,legacy,legacy,0,congruent,uniform,1,undefined,1,s,0,0,0,127,0,127,0,127,0,0,0,127,127,127,127,127,Sat Sep 19 20:28:53 2020,600,The main experiment item,yes,FlankerTask.osexp,C:\Users\katri\OneDrive\Documents,no,mono,no,18,no,white,no,no,768,legacy,47,79,C:/Users/katri/OneDrive/Documents/krsubject-0.csv,legacy,Lentiform Loewenfeld,3.3.3,0,s,NA,k,h,NA,s,490,NA,8462,14888,NA,490,2,legacy,1024,2,48000,-16,experiment,SSSSS,0,even,9956,175065,NA,247375,1490,255779,NA,264583,1493,160177,NA,263509,264685,265176,264581,264684,Flanker Task,118,76436,128,yes,1024
92.24806202,92.24806202,596.7131783,596.7131783,black,legacy,legacy,legacy,0,incongruent,uniform,1,undefined,1,s,0,0,0,128,0,128,0,128,0,0,0,128,128,128,128,128,Sat Sep 19 20:28:53 2020,600,The main experiment item,yes,FlankerTask.osexp,C:\Users\katri\OneDrive\Documents,no,mono,no,18,no,white,no,no,768,legacy,48,79,C:/Users/katri/OneDrive/Documents/krsubject-0.csv,legacy,Lentiform Loewenfeld,3.3.3,0,s,NA,k,h,NA,s,540,NA,8462,14888,NA,540,2,legacy,1024,2,48000,-16,experiment,HHSHH,0,even,9956,175065,NA,247375,1490,255779,NA,266261,1493,160177,NA,265179,266365,266906,266259,266365,Flanker Task,119,76976,129,yes,1024
92.30769231,92.30769231,596.3230769,596.3230769,black,legacy,legacy,legacy,0,incongruent,uniform,1,undefined,1,s,0,0,0,129,0,129,0,129,0,0,0,129,129,129,129,129,Sat Sep 19 20:28:53 2020,600,The main experiment item,yes,FlankerTask.osexp,C:\Users\katri\OneDrive\Documents,no,mono,no,18,no,white,no,no,768,legacy,49,79,C:/Users/katri/OneDrive/Documents/krsubject-0.csv,legacy,Lentiform Loewenfeld,3.3.3,0,s,NA,k,h,NA,s,546,NA,8462,14888,NA,546,2,legacy,1024,2,48000,-16,experiment,HHSHH,0,even,9956,175065,NA,247375,1490,255779,NA,268004,1493,160177,NA,266916,268109,268657,268003,268108,Flanker Task,120,77522,130,yes,1024
92.36641221,92.36641221,595.6946565,595.6946565,black,legacy,legacy,legacy,0,incongruent,uniform,1,undefined,1,s,0,0,0,130,0,130,0,130,0,0,0,130,130,130,130,130,Sat Sep 19 20:28:53 2020,600,The main experiment item,yes,FlankerTask.osexp,C:\Users\katri\OneDrive\Documents,no,mono,no,18,no,white,no,no,768,legacy,50,79,C:/Users/katri/OneDrive/Documents/krsubject-0.csv,legacy,Lentiform Loewenfeld,3.3.3,0,s,NA,k,h,NA,s,514,NA,8462,14888,NA,514,2,legacy,1024,2,48000,-16,experiment,HHSHH,0,even,9956,175065,NA,247375,1490,255779,NA,269764,1493,160177,NA,268668,269869,270384,269762,269869,Flanker Task,121,78036,131,yes,1024
92.42424242,92.42424242,595.1287879,595.1287879,black,legacy,legacy,legacy,0,incongruent,uniform,1,undefined,1,s,0,0,0,131,0,131,0,131,0,0,0,131,131,131,131,131,Sat Sep 19 20:28:53 2020,600,The main experiment item,yes,FlankerTask.osexp,C:\Users\katri\OneDrive\Documents,no,mono,no,18,no,white,no,no,768,legacy,51,79,C:/Users/katri/OneDrive/Documents/krsubject-0.csv,legacy,Lentiform Loewenfeld,3.3.3,0,s,NA,k,h,NA,s,521,NA,8462,14888,NA,521,2,legacy,1024,2,48000,-16,experiment,HHSHH,0,even,9956,175065,NA,247375,1490,255779,NA,271471,1493,160177,NA,270389,271576,272098,271469,271575,Flanker Task,122,78557,132,yes,1024
92.48120301,92.48120301,594.2631579,594.2631579,black,legacy,legacy,legacy,0,congruent,uniform,1,undefined,1,s,0,0,0,132,0,132,0,132,0,0,0,132,132,132,132,132,Sat Sep 19 20:28:53 2020,600,The main experiment item,yes,FlankerTask.osexp,C:\Users\katri\OneDrive\Documents,no,mono,no,18,no,white,no,no,768,legacy,52,79,C:/Users/katri/OneDrive/Documents/krsubject-0.csv,legacy,Lentiform Loewenfeld,3.3.3,0,s,NA,k,h,NA,s,480,NA,8462,14888,NA,480,2,legacy,1024,2,48000,-16,experiment,SSSSS,0,even,9956,175065,NA,247375,1490,255779,NA,273192,1493,160177,NA,272103,273293,273774,273190,273293,Flanker Task,123,79037,133,yes,1024
92.53731343,92.53731343,593.5223881,593.5223881,black,legacy,legacy,legacy,0,congruent,uniform,1,undefined,1,h,0,0,0,133,0,133,0,133,0,0,0,133,133,133,133,133,Sat Sep 19 20:28:53 2020,600,The main experiment item,yes,FlankerTask.osexp,C:\Users\katri\OneDrive\Documents,no,mono,no,18,no,white,no,no,768,legacy,53,79,C:/Users/katri/OneDrive/Documents/krsubject-0.csv,legacy,Lentiform Loewenfeld,3.3.3,0,h,NA,k,h,NA,h,495,NA,8462,14888,NA,495,2,legacy,1024,2,48000,-16,experiment,HHHHH,0,even,9956,175065,NA,247375,1490,255779,NA,274873,1493,160177,NA,273781,274977,275472,274871,274977,Flanker Task,124,79532,134,yes,1024
92.59259259,92.59259259,591.9481481,591.9481481,black,legacy,legacy,legacy,0,incongrunet,uniform,1,undefined,1,h,0,0,0,134,0,134,0,134,0,0,0,134,134,134,134,134,Sat Sep 19 20:28:53 2020,600,The main experiment item,yes,FlankerTask.osexp,C:\Users\katri\OneDrive\Documents,no,mono,no,18,no,white,no,no,768,legacy,54,79,C:/Users/katri/OneDrive/Documents/krsubject-0.csv,legacy,Lentiform Loewenfeld,3.3.3,0,h,NA,k,h,NA,h,381,NA,8462,14888,NA,381,2,legacy,1024,2,48000,-16,experiment,SSHSS,0,even,9956,175065,NA,247375,1490,255779,NA,276564,1493,160177,NA,275482,276668,277050,276562,276668,Flanker Task,125,79913,135,yes,1024
92.64705882,92.64705882,591.375,591.375,black,legacy,legacy,legacy,0,congruent,uniform,1,undefined,1,s,0,0,0,135,0,135,0,135,0,0,0,135,135,135,135,135,Sat Sep 19 20:28:53 2020,600,The main experiment item,yes,FlankerTask.osexp,C:\Users\katri\OneDrive\Documents,no,mono,no,18,no,white,no,no,768,legacy,55,79,C:/Users/katri/OneDrive/Documents/krsubject-0.csv,legacy,Lentiform Loewenfeld,3.3.3,0,s,NA,k,h,NA,s,514,NA,8462,14888,NA,514,2,legacy,1024,2,48000,-16,experiment,SSSSS,0,even,9956,175065,NA,247375,1490,255779,NA,278155,1493,160177,NA,277057,278257,278772,278153,278257,Flanker Task,126,80427,136,yes,1024
92.70072993,92.70072993,590.7518248,590.7518248,black,legacy,legacy,legacy,0,congruent,uniform,1,undefined,1,s,0,0,0,136,0,136,0,136,0,0,0,136,136,136,136,136,Sat Sep 19 20:28:53 2020,600,The main experiment item,yes,FlankerTask.osexp,C:\Users\katri\OneDrive\Documents,no,mono,no,18,no,white,no,no,768,legacy,56,79,C:/Users/katri/OneDrive/Documents/krsubject-0.csv,legacy,Lentiform Loewenfeld,3.3.3,0,s,NA,k,h,NA,s,506,NA,8462,14888,NA,506,2,legacy,1024,2,48000,-16,experiment,SSSSS,0,even,9956,175065,NA,247375,1490,255779,NA,279886,1493,160177,NA,278788,279991,280498,279884,279990,Flanker Task,127,80933,137,yes,1024
92.75362319,92.75362319,589.4057971,589.4057971,black,legacy,legacy,legacy,0,congruent,uniform,1,undefined,1,h,0,0,0,137,0,137,0,137,0,0,0,137,137,137,137,137,Sat Sep 19 20:28:53 2020,600,The main experiment item,yes,FlankerTask.osexp,C:\Users\katri\OneDrive\Documents,no,mono,no,18,no,white,no,no,768,legacy,57,79,C:/Users/katri/OneDrive/Documents/krsubject-0.csv,legacy,Lentiform Loewenfeld,3.3.3,0,h,NA,k,h,NA,h,405,NA,8462,14888,NA,405,2,legacy,1024,2,48000,-16,experiment,HHHHH,0,even,9956,175065,NA,247375,1490,255779,NA,281586,1493,160177,NA,280506,281687,282093,281584,281687,Flanker Task,128,81338,138,yes,1024
92.8057554,92.8057554,587.8417266,587.8417266,black,legacy,legacy,legacy,0,congruent,uniform,1,undefined,1,h,0,0,0,138,0,138,0,138,0,0,0,138,138,138,138,138,Sat Sep 19 20:28:53 2020,600,The main experiment item,yes,FlankerTask.osexp,C:\Users\katri\OneDrive\Documents,no,mono,no,18,no,white,no,no,768,legacy,58,79,C:/Users/katri/OneDrive/Documents/krsubject-0.csv,legacy,Lentiform Loewenfeld,3.3.3,0,h,NA,k,h,NA,h,372,NA,8462,14888,NA,372,2,legacy,1024,2,48000,-16,experiment,HHHHH,0,even,9956,175065,NA,247375,1490,255779,NA,283199,1493,160177,NA,282102,283300,283673,283197,283300,Flanker Task,129,81710,139,yes,1024
92.85714286,92.85714286,587.1857143,587.1857143,black,legacy,legacy,legacy,0,incongrunet,uniform,1,undefined,1,h,0,0,0,139,0,139,0,139,0,0,0,139,139,139,139,139,Sat Sep 19 20:28:53 2020,600,The main experiment item,yes,FlankerTask.osexp,C:\Users\katri\OneDrive\Documents,no,mono,no,18,no,white,no,no,768,legacy,59,79,C:/Users/katri/OneDrive/Documents/krsubject-0.csv,legacy,Lentiform Loewenfeld,3.3.3,0,h,NA,k,h,NA,h,496,NA,8462,14888,NA,496,2,legacy,1024,2,48000,-16,experiment,SSHSS,0,even,9956,175065,NA,247375,1490,255779,NA,284780,1493,160177,NA,283680,284882,285379,284778,284881,Flanker Task,130,82206,140,yes,1024
92.90780142,92.90780142,585.7092199,585.7092199,black,legacy,legacy,legacy,0,congruent,uniform,1,undefined,1,h,0,0,0,140,0,140,0,140,0,0,0,140,140,140,140,140,Sat Sep 19 20:28:53 2020,600,The main experiment item,yes,FlankerTask.osexp,C:\Users\katri\OneDrive\Documents,no,mono,no,18,no,white,no,no,768,legacy,60,79,C:/Users/katri/OneDrive/Documents/krsubject-0.csv,legacy,Lentiform Loewenfeld,3.3.3,0,h,NA,k,h,NA,h,379,NA,8462,14888,NA,379,2,legacy,1024,2,48000,-16,experiment,HHHHH,0,even,9956,175065,NA,247375,1490,255779,NA,286476,1493,160177,NA,285382,286578,286957,286475,286578,Flanker Task,131,82585,141,yes,1024
92.95774648,92.95774648,585.2887324,585.2887324,black,legacy,legacy,legacy,0,incongrunet,uniform,1,undefined,1,h,0,0,0,141,0,141,0,141,0,0,0,141,141,141,141,141,Sat Sep 19 20:28:53 2020,600,The main experiment item,yes,FlankerTask.osexp,C:\Users\katri\OneDrive\Documents,no,mono,no,18,no,white,no,no,768,legacy,61,79,C:/Users/katri/OneDrive/Documents/krsubject-0.csv,legacy,Lentiform Loewenfeld,3.3.3,0,h,NA,k,h,NA,h,526,NA,8462,14888,NA,526,2,legacy,1024,2,48000,-16,experiment,SSHSS,0,even,9956,175065,NA,247375,1490,255779,NA,288045,1493,160177,NA,286966,288149,288676,288043,288149,Flanker Task,132,83111,142,yes,1024
93.00699301,93.00699301,584.3216783,584.3216783,black,legacy,legacy,legacy,0,congruent,uniform,1,undefined,1,h,0,0,0,142,0,142,0,142,0,0,0,142,142,142,142,142,Sat Sep 19 20:28:53 2020,600,The main experiment item,yes,FlankerTask.osexp,C:\Users\katri\OneDrive\Documents,no,mono,no,18,no,white,no,no,768,legacy,62,79,C:/Users/katri/OneDrive/Documents/krsubject-0.csv,legacy,Lentiform Loewenfeld,3.3.3,0,h,NA,k,h,NA,h,447,NA,8462,14888,NA,447,2,legacy,1024,2,48000,-16,experiment,HHHHH,0,even,9956,175065,NA,247375,1490,255779,NA,289780,1493,160177,NA,288684,289884,290332,289778,289884,Flanker Task,133,83558,143,yes,1024
93.05555556,93.05555556,583.4583333,583.4583333,black,legacy,legacy,legacy,0,congruent,uniform,1,undefined,1,h,0,0,0,143,0,143,0,143,0,0,0,143,143,143,143,143,Sat Sep 19 20:28:53 2020,600,The main experiment item,yes,FlankerTask.osexp,C:\Users\katri\OneDrive\Documents,no,mono,no,18,no,white,no,no,768,legacy,63,79,C:/Users/katri/OneDrive/Documents/krsubject-0.csv,legacy,Lentiform Loewenfeld,3.3.3,0,h,NA,k,h,NA,h,460,NA,8462,14888,NA,460,2,legacy,1024,2,48000,-16,experiment,HHHHH,0,even,9956,175065,NA,247375,1490,255779,NA,291416,1493,160177,NA,290336,291521,291982,291414,291520,Flanker Task,134,84018,144,yes,1024
93.10344828,93.10344828,582.3655172,582.3655172,black,legacy,legacy,legacy,0,incongruent,uniform,1,undefined,1,s,0,0,0,144,0,144,0,144,0,0,0,144,144,144,144,144,Sat Sep 19 20:28:53 2020,600,The main experiment item,yes,FlankerTask.osexp,C:\Users\katri\OneDrive\Documents,no,mono,no,18,no,white,no,no,768,legacy,64,79,C:/Users/katri/OneDrive/Documents/krsubject-0.csv,legacy,Lentiform Loewenfeld,3.3.3,0,s,NA,k,h,NA,s,425,NA,8462,14888,NA,425,2,legacy,1024,2,48000,-16,experiment,HHSHH,0,even,9956,175065,NA,247375,1490,255779,NA,293073,1493,160177,NA,291989,293175,293601,293071,293175,Flanker Task,135,84443,145,yes,1024
93.15068493,93.15068493,581.2191781,581.2191781,black,legacy,legacy,legacy,0,congruent,uniform,1,undefined,1,h,0,0,0,145,0,145,0,145,0,0,0,145,145,145,145,145,Sat Sep 19 20:28:53 2020,600,The main experiment item,yes,FlankerTask.osexp,C:\Users\katri\OneDrive\Documents,no,mono,no,18,no,white,no,no,768,legacy,65,79,C:/Users/katri/OneDrive/Documents/krsubject-0.csv,legacy,Lentiform Loewenfeld,3.3.3,0,h,NA,k,h,NA,h,415,NA,8462,14888,NA,415,2,legacy,1024,2,48000,-16,experiment,HHHHH,0,even,9956,175065,NA,247375,1490,255779,NA,294685,1493,160177,NA,293607,294790,295205,294684,294789,Flanker Task,136,84858,146,yes,1024
92.5170068,92.5170068,579.9727891,579.9727891,black,legacy,legacy,legacy,0,incongruent,uniform,0,undefined,0,s,0,0,0,146,0,146,0,146,0,0,0,146,146,146,146,146,Sat Sep 19 20:28:53 2020,600,The main experiment item,yes,FlankerTask.osexp,C:\Users\katri\OneDrive\Documents,no,mono,no,18,no,white,no,no,768,legacy,66,79,C:/Users/katri/OneDrive/Documents/krsubject-0.csv,legacy,Lentiform Loewenfeld,3.3.3,0,h,NA,k,h,NA,h,398,NA,8462,14888,NA,398,2,legacy,1024,2,48000,-16,experiment,HHSHH,0,even,9956,175065,NA,247375,1490,255779,NA,296360,1493,160177,NA,295215,296465,296864,296358,296465,Flanker Task,136,85256,147,yes,1024
92.56756757,92.56756757,579.7094595,579.7094595,black,legacy,legacy,legacy,0,congruent,uniform,1,undefined,1,h,0,0,0,147,0,147,0,147,0,0,0,147,147,147,147,147,Sat Sep 19 20:28:53 2020,600,The main experiment item,yes,FlankerTask.osexp,C:\Users\katri\OneDrive\Documents,no,mono,no,18,no,white,no,no,768,legacy,67,79,C:/Users/katri/OneDrive/Documents/krsubject-0.csv,legacy,Lentiform Loewenfeld,3.3.3,0,h,NA,k,h,NA,h,541,NA,8462,14888,NA,541,2,legacy,1024,2,48000,-16,experiment,HHHHH,0,even,9956,175065,NA,297873,1490,255779,NA,298460,1493,160177,NA,296871,298565,299108,298459,298565,Flanker Task,137,85797,148,yes,1024
92.61744966,92.61744966,578.4966443,578.4966443,black,legacy,legacy,legacy,0,congruent,uniform,1,undefined,1,h,0,0,0,148,0,148,0,148,0,0,0,148,148,148,148,148,Sat Sep 19 20:28:53 2020,600,The main experiment item,yes,FlankerTask.osexp,C:\Users\katri\OneDrive\Documents,no,mono,no,18,no,white,no,no,768,legacy,68,79,C:/Users/katri/OneDrive/Documents/krsubject-0.csv,legacy,Lentiform Loewenfeld,3.3.3,0,h,NA,k,h,NA,h,399,NA,8462,14888,NA,399,2,legacy,1024,2,48000,-16,experiment,HHHHH,0,even,9956,175065,NA,297873,1490,255779,NA,300215,1493,160177,NA,299134,300319,300719,300213,300319,Flanker Task,138,86196,149,yes,1024
92.66666667,92.66666667,577.62,577.62,black,legacy,legacy,legacy,0,congruent,uniform,1,undefined,1,h,0,0,0,149,0,149,0,149,0,0,0,149,149,149,149,149,Sat Sep 19 20:28:53 2020,600,The main experiment item,yes,FlankerTask.osexp,C:\Users\katri\OneDrive\Documents,no,mono,no,18,no,white,no,no,768,legacy,69,79,C:/Users/katri/OneDrive/Documents/krsubject-0.csv,legacy,Lentiform Loewenfeld,3.3.3,0,h,NA,k,h,NA,h,447,NA,8462,14888,NA,447,2,legacy,1024,2,48000,-16,experiment,HHHHH,0,even,9956,175065,NA,297873,1490,255779,NA,301827,1493,160177,NA,300726,301929,302377,301826,301929,Flanker Task,139,86643,150,yes,1024
92.71523179,92.71523179,576.8675497,576.8675497,black,legacy,legacy,legacy,0,incongruent,uniform,1,undefined,1,s,0,0,0,150,0,150,0,150,0,0,0,150,150,150,150,150,Sat Sep 19 20:28:53 2020,600,The main experiment item,yes,FlankerTask.osexp,C:\Users\katri\OneDrive\Documents,no,mono,no,18,no,white,no,no,768,legacy,70,79,C:/Users/katri/OneDrive/Documents/krsubject-0.csv,legacy,Lentiform Loewenfeld,3.3.3,0,s,NA,k,h,NA,s,464,NA,8462,14888,NA,464,2,legacy,1024,2,48000,-16,experiment,HHSHH,0,even,9956,175065,NA,297873,1490,255779,NA,303468,1493,160177,NA,302385,303573,304037,303466,303573,Flanker Task,140,87107,151,yes,1024
92.76315789,92.76315789,576.6578947,576.6578947,black,legacy,legacy,legacy,0,incongruent,uniform,1,undefined,1,s,0,0,0,151,0,151,0,151,0,0,0,151,151,151,151,151,Sat Sep 19 20:28:53 2020,600,The main experiment item,yes,FlankerTask.osexp,C:\Users\katri\OneDrive\Documents,no,mono,no,18,no,white,no,no,768,legacy,71,79,C:/Users/katri/OneDrive/Documents/krsubject-0.csv,legacy,Lentiform Loewenfeld,3.3.3,0,s,NA,k,h,NA,s,545,NA,8462,14888,NA,545,2,legacy,1024,2,48000,-16,experiment,HHSHH,0,even,9956,175065,NA,297873,1490,255779,NA,305141,1493,160177,NA,304044,305245,305791,305139,305245,Flanker Task,141,87652,152,yes,1024
92.81045752,92.81045752,576.2156863,576.2156863,black,legacy,legacy,legacy,0,incongrunet,uniform,1,undefined,1,h,0,0,0,152,0,152,0,152,0,0,0,152,152,152,152,152,Sat Sep 19 20:28:53 2020,600,The main experiment item,yes,FlankerTask.osexp,C:\Users\katri\OneDrive\Documents,no,mono,no,18,no,white,no,no,768,legacy,72,79,C:/Users/katri/OneDrive/Documents/krsubject-0.csv,legacy,Lentiform Loewenfeld,3.3.3,0,h,NA,k,h,NA,h,509,NA,8462,14888,NA,509,2,legacy,1024,2,48000,-16,experiment,SSHSS,0,even,9956,175065,NA,297873,1490,255779,NA,306907,1493,160177,NA,305816,307012,307522,306906,307012,Flanker Task,142,88161,153,yes,1024
92.85714286,92.85714286,575.3181818,575.3181818,black,legacy,legacy,legacy,0,incongrunet,uniform,1,undefined,1,h,0,0,0,153,0,153,0,153,0,0,0,153,153,153,153,153,Sat Sep 19 20:28:53 2020,600,The main experiment item,yes,FlankerTask.osexp,C:\Users\katri\OneDrive\Documents,no,mono,no,18,no,white,no,no,768,legacy,73,79,C:/Users/katri/OneDrive/Documents/krsubject-0.csv,legacy,Lentiform Loewenfeld,3.3.3,0,h,NA,k,h,NA,h,438,NA,8462,14888,NA,438,2,legacy,1024,2,48000,-16,experiment,SSHSS,0,even,9956,175065,NA,297873,1490,255779,NA,308606,1493,160177,NA,307528,308710,309149,308604,308710,Flanker Task,143,88599,154,yes,1024
92.90322581,92.90322581,575.4064516,575.4064516,black,legacy,legacy,legacy,0,incongrunet,uniform,1,undefined,1,h,0,0,0,154,0,154,0,154,0,0,0,154,154,154,154,154,Sat Sep 19 20:28:53 2020,600,The main experiment item,yes,FlankerTask.osexp,C:\Users\katri\OneDrive\Documents,no,mono,no,18,no,white,no,no,768,legacy,74,79,C:/Users/katri/OneDrive/Documents/krsubject-0.csv,legacy,Lentiform Loewenfeld,3.3.3,0,h,NA,k,h,NA,h,589,NA,8462,14888,NA,589,2,legacy,1024,2,48000,-16,experiment,SSHSS,0,even,9956,175065,NA,297873,1490,255779,NA,310247,1493,160177,NA,309156,310349,310939,310245,310349,Flanker Task,144,89188,155,yes,1024
92.94871795,92.94871795,574.1794872,574.1794872,black,legacy,legacy,legacy,0,congruent,uniform,1,undefined,1,h,0,0,0,155,0,155,0,155,0,0,0,155,155,155,155,155,Sat Sep 19 20:28:53 2020,600,The main experiment item,yes,FlankerTask.osexp,C:\Users\katri\OneDrive\Documents,no,mono,no,18,no,white,no,no,768,legacy,75,79,C:/Users/katri/OneDrive/Documents/krsubject-0.csv,legacy,Lentiform Loewenfeld,3.3.3,0,h,NA,k,h,NA,h,384,NA,8462,14888,NA,384,2,legacy,1024,2,48000,-16,experiment,HHHHH,0,even,9956,175065,NA,297873,1490,255779,NA,312049,1493,160177,NA,310947,312154,312539,312047,312154,Flanker Task,145,89572,156,yes,1024
92.99363057,92.99363057,573.7707006,573.7707006,black,legacy,legacy,legacy,0,incongrunet,uniform,1,undefined,1,h,0,0,0,156,0,156,0,156,0,0,0,156,156,156,156,156,Sat Sep 19 20:28:53 2020,600,The main experiment item,yes,FlankerTask.osexp,C:\Users\katri\OneDrive\Documents,no,mono,no,18,no,white,no,no,768,legacy,76,79,C:/Users/katri/OneDrive/Documents/krsubject-0.csv,legacy,Lentiform Loewenfeld,3.3.3,0,h,NA,k,h,NA,h,510,NA,8462,14888,NA,510,2,legacy,1024,2,48000,-16,experiment,SSHSS,0,even,9956,175065,NA,297873,1490,255779,NA,313633,1493,160177,NA,312545,313737,314248,313631,313737,Flanker Task,146,90082,157,yes,1024
93.03797468,93.03797468,572.6075949,572.6075949,black,legacy,legacy,legacy,0,congruent,uniform,1,undefined,1,s,0,0,0,157,0,157,0,157,0,0,0,157,157,157,157,157,Sat Sep 19 20:28:53 2020,600,The main experiment item,yes,FlankerTask.osexp,C:\Users\katri\OneDrive\Documents,no,mono,no,18,no,white,no,no,768,legacy,77,79,C:/Users/katri/OneDrive/Documents/krsubject-0.csv,legacy,Lentiform Loewenfeld,3.3.3,0,s,NA,k,h,NA,s,390,NA,8462,14888,NA,390,2,legacy,1024,2,48000,-16,experiment,SSSSS,0,even,9956,175065,NA,297873,1490,255779,NA,315347,1493,160177,NA,314251,315452,315845,315346,315451,Flanker Task,147,90472,158,yes,1024
93.08176101,93.08176101,572.3396226,572.3396226,black,legacy,legacy,legacy,0,incongrunet,uniform,1,undefined,1,h,0,0,0,158,0,158,0,158,0,0,0,158,158,158,158,158,Sat Sep 19 20:28:53 2020,600,The main experiment item,yes,FlankerTask.osexp,C:\Users\katri\OneDrive\Documents,no,mono,no,18,no,white,no,no,768,legacy,78,79,C:/Users/katri/OneDrive/Documents/krsubject-0.csv,legacy,Lentiform Loewenfeld,3.3.3,0,h,NA,k,h,NA,h,530,NA,8462,14888,NA,530,2,legacy,1024,2,48000,-16,experiment,SSHSS,0,even,9956,175065,NA,297873,1490,255779,NA,316993,1493,160177,NA,315868,317097,317627,316991,317097,Flanker Task,148,91002,159,yes,1024
93.125,93.125,571.23125,571.23125,black,legacy,legacy,legacy,0,incongrunet,uniform,1,undefined,1,h,0,0,0,159,0,159,0,159,0,0,0,159,159,159,159,159,Sat Sep 19 20:28:53 2020,600,The main experiment item,yes,FlankerTask.osexp,C:\Users\katri\OneDrive\Documents,no,mono,no,18,no,white,no,no,768,legacy,79,79,C:/Users/katri/OneDrive/Documents/krsubject-0.csv,legacy,Lentiform Loewenfeld,3.3.3,0,h,NA,k,h,NA,h,395,NA,8462,14888,NA,395,2,legacy,1024,2,48000,-16,experiment,SSHSS,0,even,9956,175065,NA,297873,1490,255779,NA,318730,1493,160177,NA,317634,318831,319227,318728,318831,Flanker Task,149,91397,160,yes,1024
93.16770186,93.16770186,573.7391304,573.7391304,black,legacy,legacy,legacy,0,congruent,uniform,1,undefined,1,s,0,0,0,160,0,160,0,160,0,0,0,160,160,160,160,160,Sat Sep 19 20:28:53 2020,300,The main experiment item,yes,FlankerTask.osexp,C:\Users\katri\OneDrive\Documents,no,mono,no,18,no,white,no,no,768,legacy,0,79,C:/Users/katri/OneDrive/Documents/krsubject-0.csv,legacy,Lentiform Loewenfeld,3.3.3,0,s,h,k,h,h,s,975,6605,8462,14888,45585,975,2,legacy,1024,2,48000,-16,experiment,SSSSS,0,even,9956,175065,372472,297873,1490,255779,365866,372517,1493,160177,320278,319235,372620,373597,372516,372620,Flanker Task,150,92372,161,yes,1024
92.59259259,92.59259259,573.7407407,573.7407407,black,legacy,legacy,legacy,0,incongrunet,uniform,0,undefined,0,h,0,0,0,161,0,161,0,161,0,0,0,161,161,161,161,161,Sat Sep 19 20:28:53 2020,300,The main experiment item,yes,FlankerTask.osexp,C:\Users\katri\OneDrive\Documents,no,mono,no,18,no,white,no,no,768,legacy,1,79,C:/Users/katri/OneDrive/Documents/krsubject-0.csv,legacy,Lentiform Loewenfeld,3.3.3,0,s,h,k,h,h,s,574,6605,8462,14888,45585,574,2,legacy,1024,2,48000,-16,experiment,SSHSS,0,even,9956,175065,372472,297873,1490,374627,365866,375193,1493,160177,320278,373622,375298,375873,375192,375298,Flanker Task,150,92946,162,yes,1024
92.63803681,92.63803681,573.190184,573.190184,black,legacy,legacy,legacy,0,incongrunet,uniform,1,undefined,1,h,0,0,0,162,0,162,0,162,0,0,0,162,162,162,162,162,Sat Sep 19 20:28:53 2020,300,The main experiment item,yes,FlankerTask.osexp,C:\Users\katri\OneDrive\Documents,no,mono,no,18,no,white,no,no,768,legacy,2,79,C:/Users/katri/OneDrive/Documents/krsubject-0.csv,legacy,Lentiform Loewenfeld,3.3.3,0,h,h,k,h,h,h,484,6605,8462,14888,45585,484,2,legacy,1024,2,48000,-16,experiment,SSHSS,0,even,9956,175065,372472,376882,1490,377386,365866,377965,1493,160177,320278,375880,378069,378553,377963,378069,Flanker Task,151,93430,163,yes,1024
