acc,accuracy,average_response_time,avg_rt,background,canvas_backend,clock_backend,color_backend,compensation,condition,coordinates,correct,correct_instructions1,correct_keyboard_response,correct_response,count_ISI,count_block1,count_block2,count_block3,count_errorFeedback,count_experiment,count_faster,count_fixation,count_instructions1,count_instructions2,count_instructions3,count_keyboard_response,count_logger,count_new_sketchpad,count_sequence,count_stimulus,datetime,deadline,description,disable_garbage_collection,experiment_file,experiment_path,font_bold,font_family,font_italic,font_size,font_underline,foreground,form_clicks,fullscreen,height,keyboard_backend,live_row,live_row_block1,logfile,mouse_backend,opensesame_codename,opensesame_version,repeat_cycle,response,response_instructions1,response_instructions2,response_instructions3,response_keyboard_response,response_new_sketchpad,response_time,response_time_instructions1,response_time_instructions2,response_time_instructions3,response_time_keyboard_response,response_time_new_sketchpad,round_decimals,sampler_backend,sound_buf_size,sound_channels,sound_freq,sound_sample_size,start,stimulus,subject_nr,subject_parity,time_ISI,time_block1,time_block2,time_block3,time_errorFeedback,time_experiment,time_faster,time_fixation,time_instructions1,time_instructions2,time_instructions3,time_keyboard_response,time_logger,time_new_sketchpad,time_sequence,time_stimulus,title,total_correct,total_response_time,total_responses,uniform_coordinates,width
100,100,1481,1481,black,legacy,legacy,legacy,0,congruent,uniform,1,undefined,1,s,0,0,0,0,0,0,0,0,0,0,0,0,0,0,0,0,Sun Sep 20 14:57:29 2020,1500,The main experiment item,yes,FlankerTask.osexp,C:/Users/chris/OneDrive/Desktop,no,mono,no,18,no,white,no,yes,768,legacy,0,0,C:/Users/chris/OneDrive/Desktop/subject-2.csv,legacy,Lentiform Loewenfeld,3.3.3,0,s,return,NA,NA,s,NA,1481,3948,NA,NA,1481,NA,2,legacy,1024,2,48000,-16,experiment,SSSSS,2,even,NA,6534,NA,NA,NA,2581,NA,6622,2585,NA,NA,6728,8210,NA,6620,6727,Flanker Task,1,1481,1,yes,1024
100,100,991.5,991.5,black,legacy,legacy,legacy,0,congruent,uniform,1,undefined,1,h,1,0,0,0,1,0,1,1,0,0,0,1,1,0,1,1,Sun Sep 20 14:57:29 2020,1500,The main experiment item,yes,FlankerTask.osexp,C:/Users/chris/OneDrive/Desktop,no,mono,no,18,no,white,no,yes,768,legacy,1,1,C:/Users/chris/OneDrive/Desktop/subject-2.csv,legacy,Lentiform Loewenfeld,3.3.3,0,h,return,NA,NA,h,NA,502,3948,NA,NA,502,NA,2,legacy,1024,2,48000,-16,experiment,HHHHH,2,even,8218,6534,NA,NA,NA,2581,NA,9331,2585,NA,NA,9436,9938,NA,9329,9436,Flanker Task,2,1983,2,yes,1024
100,100,819.6666667,819.6666667,black,legacy,legacy,legacy,0,congruent,uniform,1,undefined,1,s,2,0,0,0,2,0,2,2,0,0,0,2,2,0,2,2,Sun Sep 20 14:57:29 2020,1500,The main experiment item,yes,FlankerTask.osexp,C:/Users/chris/OneDrive/Desktop,no,mono,no,18,no,white,no,yes,768,legacy,2,2,C:/Users/chris/OneDrive/Desktop/subject-2.csv,legacy,Lentiform Loewenfeld,3.3.3,0,s,return,NA,NA,s,NA,476,3948,NA,NA,476,NA,2,legacy,1024,2,48000,-16,experiment,SSSSS,2,even,9948,6534,NA,NA,NA,2581,NA,11065,2585,NA,NA,11171,11647,NA,11063,11171,Flanker Task,3,2459,3,yes,1024
100,100,724.25,724.25,black,legacy,legacy,legacy,0,congruent,uniform,1,undefined,1,s,3,0,0,0,3,0,3,3,0,0,0,3,3,0,3,3,Sun Sep 20 14:57:29 2020,1500,The main experiment item,yes,FlankerTask.osexp,C:/Users/chris/OneDrive/Desktop,no,mono,no,18,no,white,no,yes,768,legacy,3,3,C:/Users/chris/OneDrive/Desktop/subject-2.csv,legacy,Lentiform Loewenfeld,3.3.3,0,s,return,NA,NA,s,NA,438,3948,NA,NA,438,NA,2,legacy,1024,2,48000,-16,experiment,SSSSS,2,even,11656,6534,NA,NA,NA,2581,NA,12759,2585,NA,NA,12864,13302,NA,12757,12864,Flanker Task,4,2897,4,yes,1024
100,100,657.2,657.2,black,legacy,legacy,legacy,0,incongruent,uniform,1,undefined,1,s,4,0,0,0,4,0,4,4,0,0,0,4,4,0,4,4,Sun Sep 20 14:57:29 2020,1500,The main experiment item,yes,FlankerTask.osexp,C:/Users/chris/OneDrive/Desktop,no,mono,no,18,no,white,no,yes,768,legacy,4,4,C:/Users/chris/OneDrive/Desktop/subject-2.csv,legacy,Lentiform Loewenfeld,3.3.3,0,s,return,NA,NA,s,NA,389,3948,NA,NA,389,NA,2,legacy,1024,2,48000,-16,experiment,HHSHH,2,even,13311,6534,NA,NA,NA,2581,NA,14415,2585,NA,NA,14521,14911,NA,14412,14520,Flanker Task,5,3286,5,yes,1024
100,100,635,635,black,legacy,legacy,legacy,0,incongruent,uniform,1,undefined,1,h,5,0,0,0,5,0,5,5,0,0,0,5,5,0,5,5,Sun Sep 20 14:57:29 2020,1500,The main experiment item,yes,FlankerTask.osexp,C:/Users/chris/OneDrive/Desktop,no,mono,no,18,no,white,no,yes,768,legacy,5,5,C:/Users/chris/OneDrive/Desktop/subject-2.csv,legacy,Lentiform Loewenfeld,3.3.3,0,h,return,NA,NA,h,NA,524,3948,NA,NA,524,NA,2,legacy,1024,2,48000,-16,experiment,SSHSS,2,even,14915,6534,NA,NA,NA,2581,NA,16024,2585,NA,NA,16129,16653,NA,16021,16129,Flanker Task,6,3810,6,yes,1024
100,100,597.5714286,597.5714286,black,legacy,legacy,legacy,0,congruent,uniform,1,undefined,1,h,6,0,0,0,6,0,6,6,0,0,0,6,6,0,6,6,Sun Sep 20 14:57:29 2020,1500,The main experiment item,yes,FlankerTask.osexp,C:/Users/chris/OneDrive/Desktop,no,mono,no,18,no,white,no,yes,768,legacy,6,6,C:/Users/chris/OneDrive/Desktop/subject-2.csv,legacy,Lentiform Loewenfeld,3.3.3,0,h,return,NA,NA,h,NA,373,3948,NA,NA,373,NA,2,legacy,1024,2,48000,-16,experiment,HHHHH,2,even,16662,6534,NA,NA,NA,2581,NA,17782,2585,NA,NA,17887,18261,NA,17780,17887,Flanker Task,7,4183,7,yes,1024
100,100,573.625,573.625,black,legacy,legacy,legacy,0,incongruent,uniform,1,undefined,1,h,7,0,0,0,7,0,7,7,0,0,0,7,7,0,7,7,Sun Sep 20 14:57:29 2020,1500,The main experiment item,yes,FlankerTask.osexp,C:/Users/chris/OneDrive/Desktop,no,mono,no,18,no,white,no,yes,768,legacy,7,7,C:/Users/chris/OneDrive/Desktop/subject-2.csv,legacy,Lentiform Loewenfeld,3.3.3,0,h,return,NA,NA,h,NA,406,3948,NA,NA,406,NA,2,legacy,1024,2,48000,-16,experiment,SSHSS,2,even,18269,6534,NA,NA,NA,2581,NA,19381,2585,NA,NA,19486,19893,NA,19378,19486,Flanker Task,8,4589,8,yes,1024
100,100,550.5555556,550.5555556,black,legacy,legacy,legacy,0,incongruent,uniform,1,undefined,1,h,8,0,0,0,8,0,8,8,0,0,0,8,8,0,8,8,Sun Sep 20 14:57:29 2020,1500,The main experiment item,yes,FlankerTask.osexp,C:/Users/chris/OneDrive/Desktop,no,mono,no,18,no,white,no,yes,768,legacy,8,8,C:/Users/chris/OneDrive/Desktop/subject-2.csv,legacy,Lentiform Loewenfeld,3.3.3,0,h,return,NA,NA,h,NA,366,3948,NA,NA,366,NA,2,legacy,1024,2,48000,-16,experiment,SSHSS,2,even,19902,6534,NA,NA,NA,2581,NA,21005,2585,NA,NA,21110,21476,NA,21003,21110,Flanker Task,9,4955,9,yes,1024
100,100,534.3,534.3,black,legacy,legacy,legacy,0,congruent,uniform,1,undefined,1,h,9,0,0,0,9,0,9,9,0,0,0,9,9,0,9,9,Sun Sep 20 14:57:29 2020,1500,The main experiment item,yes,FlankerTask.osexp,C:/Users/chris/OneDrive/Desktop,no,mono,no,18,no,white,no,yes,768,legacy,9,9,C:/Users/chris/OneDrive/Desktop/subject-2.csv,legacy,Lentiform Loewenfeld,3.3.3,0,h,return,NA,NA,h,NA,388,3948,NA,NA,388,NA,2,legacy,1024,2,48000,-16,experiment,HHHHH,2,even,21485,6534,NA,NA,NA,2581,NA,22591,2585,NA,NA,22696,23084,NA,22588,22696,Flanker Task,10,5343,10,yes,1024
100,100,536.7272727,536.7272727,black,legacy,legacy,legacy,0,congruent,uniform,1,undefined,1,s,10,0,0,0,10,0,10,10,0,0,0,10,10,0,10,10,Sun Sep 20 14:57:29 2020,1500,The main experiment item,yes,FlankerTask.osexp,C:/Users/chris/OneDrive/Desktop,no,mono,no,18,no,white,no,yes,768,legacy,10,10,C:/Users/chris/OneDrive/Desktop/subject-2.csv,legacy,Lentiform Loewenfeld,3.3.3,0,s,return,NA,NA,s,NA,561,3948,NA,NA,561,NA,2,legacy,1024,2,48000,-16,experiment,SSSSS,2,even,23094,6534,NA,NA,NA,2581,NA,24207,2585,NA,NA,24312,24874,NA,24204,24312,Flanker Task,11,5904,11,yes,1024
100,100,536.5833333,536.5833333,black,legacy,legacy,legacy,0,incongruent,uniform,1,undefined,1,h,11,0,0,0,11,0,11,11,0,0,0,11,11,0,11,11,Sun Sep 20 14:57:29 2020,1500,The main experiment item,yes,FlankerTask.osexp,C:/Users/chris/OneDrive/Desktop,no,mono,no,18,no,white,no,yes,768,legacy,11,11,C:/Users/chris/OneDrive/Desktop/subject-2.csv,legacy,Lentiform Loewenfeld,3.3.3,0,h,return,NA,NA,h,NA,535,3948,NA,NA,535,NA,2,legacy,1024,2,48000,-16,experiment,SSHSS,2,even,24883,6534,NA,NA,NA,2581,NA,25985,2585,NA,NA,26090,26626,NA,25983,26090,Flanker Task,12,6439,12,yes,1024
100,100,532.6923077,532.6923077,black,legacy,legacy,legacy,0,incongruent,uniform,1,undefined,1,h,12,0,0,0,12,0,12,12,0,0,0,12,12,0,12,12,Sun Sep 20 14:57:29 2020,1500,The main experiment item,yes,FlankerTask.osexp,C:/Users/chris/OneDrive/Desktop,no,mono,no,18,no,white,no,yes,768,legacy,12,12,C:/Users/chris/OneDrive/Desktop/subject-2.csv,legacy,Lentiform Loewenfeld,3.3.3,0,h,return,NA,NA,h,NA,486,3948,NA,NA,486,NA,2,legacy,1024,2,48000,-16,experiment,SSHSS,2,even,26635,6534,NA,NA,NA,2581,NA,27746,2585,NA,NA,27851,28337,NA,27743,27851,Flanker Task,13,6925,13,yes,1024
100,100,536.2857143,536.2857143,black,legacy,legacy,legacy,0,incongruent,uniform,1,undefined,1,s,13,0,0,0,13,0,13,13,0,0,0,13,13,0,13,13,Sun Sep 20 14:57:29 2020,1500,The main experiment item,yes,FlankerTask.osexp,C:/Users/chris/OneDrive/Desktop,no,mono,no,18,no,white,no,yes,768,legacy,13,13,C:/Users/chris/OneDrive/Desktop/subject-2.csv,legacy,Lentiform Loewenfeld,3.3.3,0,s,return,NA,NA,s,NA,583,3948,NA,NA,583,NA,2,legacy,1024,2,48000,-16,experiment,HHSHH,2,even,28346,6534,NA,NA,NA,2581,NA,29462,2585,NA,NA,29567,30151,NA,29460,29567,Flanker Task,14,7508,14,yes,1024
100,100,535.5333333,535.5333333,black,legacy,legacy,legacy,0,congruent,uniform,1,undefined,1,h,14,0,0,0,14,0,14,14,0,0,0,14,14,0,14,14,Sun Sep 20 14:57:29 2020,1500,The main experiment item,yes,FlankerTask.osexp,C:/Users/chris/OneDrive/Desktop,no,mono,no,18,no,white,no,yes,768,legacy,14,14,C:/Users/chris/OneDrive/Desktop/subject-2.csv,legacy,Lentiform Loewenfeld,3.3.3,0,h,return,NA,NA,h,NA,525,3948,NA,NA,525,NA,2,legacy,1024,2,48000,-16,experiment,HHHHH,2,even,30160,6534,NA,NA,NA,2581,NA,31273,2585,NA,NA,31378,31903,NA,31271,31378,Flanker Task,15,8033,15,yes,1024
100,100,536.6875,536.6875,black,legacy,legacy,legacy,0,incongruent,uniform,1,undefined,1,s,15,0,0,0,15,0,15,15,0,0,0,15,15,0,15,15,Sun Sep 20 14:57:29 2020,1500,The main experiment item,yes,FlankerTask.osexp,C:/Users/chris/OneDrive/Desktop,no,mono,no,18,no,white,no,yes,768,legacy,15,15,C:/Users/chris/OneDrive/Desktop/subject-2.csv,legacy,Lentiform Loewenfeld,3.3.3,0,s,return,NA,NA,s,NA,554,3948,NA,NA,554,NA,2,legacy,1024,2,48000,-16,experiment,HHSHH,2,even,31912,6534,NA,NA,NA,2581,NA,33025,2585,NA,NA,33130,33685,NA,33023,33130,Flanker Task,16,8587,16,yes,1024
100,100,532.2941176,532.2941176,black,legacy,legacy,legacy,0,congruent,uniform,1,undefined,1,s,16,0,0,0,16,0,16,16,0,0,0,16,16,0,16,16,Sun Sep 20 14:57:29 2020,1500,The main experiment item,yes,FlankerTask.osexp,C:/Users/chris/OneDrive/Desktop,no,mono,no,18,no,white,no,yes,768,legacy,16,16,C:/Users/chris/OneDrive/Desktop/subject-2.csv,legacy,Lentiform Loewenfeld,3.3.3,0,s,return,NA,NA,s,NA,462,3948,NA,NA,462,NA,2,legacy,1024,2,48000,-16,experiment,SSSSS,2,even,33689,6534,NA,NA,NA,2581,NA,34821,2585,NA,NA,34926,35388,NA,34817,34926,Flanker Task,17,9049,17,yes,1024
100,100,535.1111111,535.1111111,black,legacy,legacy,legacy,0,congruent,uniform,1,undefined,1,h,17,0,0,0,17,0,17,17,0,0,0,17,17,0,17,17,Sun Sep 20 14:57:29 2020,1500,The main experiment item,yes,FlankerTask.osexp,C:/Users/chris/OneDrive/Desktop,no,mono,no,18,no,white,no,yes,768,legacy,17,17,C:/Users/chris/OneDrive/Desktop/subject-2.csv,legacy,Lentiform Loewenfeld,3.3.3,0,h,return,NA,NA,h,NA,583,3948,NA,NA,583,NA,2,legacy,1024,2,48000,-16,experiment,HHHHH,2,even,35393,6534,NA,NA,NA,2581,NA,36506,2585,NA,NA,36613,37197,NA,36503,36612,Flanker Task,18,9632,18,yes,1024
100,100,538.7368421,538.7368421,black,legacy,legacy,legacy,0,incongruent,uniform,1,undefined,1,h,18,0,0,0,18,0,18,18,0,0,0,18,18,0,18,18,Sun Sep 20 14:57:29 2020,1500,The main experiment item,yes,FlankerTask.osexp,C:/Users/chris/OneDrive/Desktop,no,mono,no,18,no,white,no,yes,768,legacy,18,18,C:/Users/chris/OneDrive/Desktop/subject-2.csv,legacy,Lentiform Loewenfeld,3.3.3,0,h,return,NA,NA,h,NA,604,3948,NA,NA,604,NA,2,legacy,1024,2,48000,-16,experiment,SSHSS,2,even,37206,6534,NA,NA,NA,2581,NA,38309,2585,NA,NA,38415,39020,NA,38307,38415,Flanker Task,19,10236,19,yes,1024
100,100,540.5,540.5,black,legacy,legacy,legacy,0,incongruent,uniform,1,undefined,1,s,19,0,0,0,19,0,19,19,0,0,0,19,19,0,19,19,Sun Sep 20 14:57:29 2020,1500,The main experiment item,yes,FlankerTask.osexp,C:/Users/chris/OneDrive/Desktop,no,mono,no,18,no,white,no,yes,768,legacy,19,19,C:/Users/chris/OneDrive/Desktop/subject-2.csv,legacy,Lentiform Loewenfeld,3.3.3,0,s,return,NA,NA,s,NA,574,3948,NA,NA,574,NA,2,legacy,1024,2,48000,-16,experiment,HHSHH,2,even,39029,6534,NA,NA,NA,2581,NA,40146,2585,NA,NA,40251,40825,NA,40143,40251,Flanker Task,20,10810,20,yes,1024
100,100,538.0952381,538.0952381,black,legacy,legacy,legacy,0,congruent,uniform,1,undefined,1,h,20,0,0,0,20,0,20,20,0,0,0,20,20,0,20,20,Sun Sep 20 14:57:29 2020,1500,The main experiment item,yes,FlankerTask.osexp,C:/Users/chris/OneDrive/Desktop,no,mono,no,18,no,white,no,yes,768,legacy,20,20,C:/Users/chris/OneDrive/Desktop/subject-2.csv,legacy,Lentiform Loewenfeld,3.3.3,0,h,return,NA,NA,h,NA,490,3948,NA,NA,490,NA,2,legacy,1024,2,48000,-16,experiment,HHHHH,2,even,40830,6534,NA,NA,NA,2581,NA,41942,2585,NA,NA,42047,42538,NA,41940,42047,Flanker Task,21,11300,21,yes,1024
100,100,538,538,black,legacy,legacy,legacy,0,incongruent,uniform,1,undefined,1,s,21,0,0,0,21,0,21,21,0,0,0,21,21,0,21,21,Sun Sep 20 14:57:29 2020,1500,The main experiment item,yes,FlankerTask.osexp,C:/Users/chris/OneDrive/Desktop,no,mono,no,18,no,white,no,yes,768,legacy,21,21,C:/Users/chris/OneDrive/Desktop/subject-2.csv,legacy,Lentiform Loewenfeld,3.3.3,0,s,return,NA,NA,s,NA,536,3948,NA,NA,536,NA,2,legacy,1024,2,48000,-16,experiment,HHSHH,2,even,42547,6534,NA,NA,NA,2581,NA,43653,2585,NA,NA,43759,44295,NA,43651,43758,Flanker Task,22,11836,22,yes,1024
100,100,535.4347826,535.4347826,black,legacy,legacy,legacy,0,incongruent,uniform,1,undefined,1,h,22,0,0,0,22,0,22,22,0,0,0,22,22,0,22,22,Sun Sep 20 14:57:29 2020,1500,The main experiment item,yes,FlankerTask.osexp,C:/Users/chris/OneDrive/Desktop,no,mono,no,18,no,white,no,yes,768,legacy,22,22,C:/Users/chris/OneDrive/Desktop/subject-2.csv,legacy,Lentiform Loewenfeld,3.3.3,0,h,return,NA,NA,h,NA,479,3948,NA,NA,479,NA,2,legacy,1024,2,48000,-16,experiment,SSHSS,2,even,44304,6534,NA,NA,NA,2581,NA,45416,2585,NA,NA,45521,46000,NA,45414,45521,Flanker Task,23,12315,23,yes,1024
100,100,538.0416667,538.0416667,black,legacy,legacy,legacy,0,congruent,uniform,1,undefined,1,s,23,0,0,0,23,0,23,23,0,0,0,23,23,0,23,23,Sun Sep 20 14:57:29 2020,1500,The main experiment item,yes,FlankerTask.osexp,C:/Users/chris/OneDrive/Desktop,no,mono,no,18,no,white,no,yes,768,legacy,23,23,C:/Users/chris/OneDrive/Desktop/subject-2.csv,legacy,Lentiform Loewenfeld,3.3.3,0,s,return,NA,NA,s,NA,598,3948,NA,NA,598,NA,2,legacy,1024,2,48000,-16,experiment,SSSSS,2,even,46010,6534,NA,NA,NA,2581,NA,47126,2585,NA,NA,47231,47830,NA,47123,47231,Flanker Task,24,12913,24,yes,1024
100,100,534.44,534.44,black,legacy,legacy,legacy,0,congruent,uniform,1,undefined,1,h,24,0,0,0,24,0,24,24,0,0,0,24,24,0,24,24,Sun Sep 20 14:57:29 2020,1500,The main experiment item,yes,FlankerTask.osexp,C:/Users/chris/OneDrive/Desktop,no,mono,no,18,no,white,no,yes,768,legacy,24,24,C:/Users/chris/OneDrive/Desktop/subject-2.csv,legacy,Lentiform Loewenfeld,3.3.3,0,h,return,NA,NA,h,NA,448,3948,NA,NA,448,NA,2,legacy,1024,2,48000,-16,experiment,HHHHH,2,even,47839,6534,NA,NA,NA,2581,NA,48958,2585,NA,NA,49063,49511,NA,48955,49063,Flanker Task,25,13361,25,yes,1024
100,100,531.9230769,531.9230769,black,legacy,legacy,legacy,0,congruent,uniform,1,undefined,1,s,25,0,0,0,25,0,25,25,0,0,0,25,25,0,25,25,Sun Sep 20 14:57:29 2020,1500,The main experiment item,yes,FlankerTask.osexp,C:/Users/chris/OneDrive/Desktop,no,mono,no,18,no,white,no,yes,768,legacy,25,25,C:/Users/chris/OneDrive/Desktop/subject-2.csv,legacy,Lentiform Loewenfeld,3.3.3,0,s,return,NA,NA,s,NA,469,3948,NA,NA,469,NA,2,legacy,1024,2,48000,-16,experiment,SSSSS,2,even,49520,6534,NA,NA,NA,2581,NA,50636,2585,NA,NA,50743,51213,NA,50633,50742,Flanker Task,26,13830,26,yes,1024
96.2962963,96.2962963,531.4074074,531.4074074,black,legacy,legacy,legacy,0,incongruent,uniform,0,undefined,0,s,26,0,0,0,26,0,26,26,0,0,0,26,26,0,26,26,Sun Sep 20 14:57:29 2020,1500,The main experiment item,yes,FlankerTask.osexp,C:/Users/chris/OneDrive/Desktop,no,mono,no,18,no,white,no,yes,768,legacy,26,26,C:/Users/chris/OneDrive/Desktop/subject-2.csv,legacy,Lentiform Loewenfeld,3.3.3,0,h,return,NA,NA,h,NA,518,3948,NA,NA,518,NA,2,legacy,1024,2,48000,-16,experiment,HHSHH,2,even,51222,6534,NA,NA,NA,2581,NA,52325,2585,NA,NA,52431,52950,NA,52323,52431,Flanker Task,26,14348,27,yes,1024
96.42857143,96.42857143,533.7142857,533.7142857,black,legacy,legacy,legacy,0,congruent,uniform,1,undefined,1,s,27,0,0,0,27,0,27,27,0,0,0,27,27,0,27,27,Sun Sep 20 14:57:29 2020,1500,The main experiment item,yes,FlankerTask.osexp,C:/Users/chris/OneDrive/Desktop,no,mono,no,18,no,white,no,yes,768,legacy,27,27,C:/Users/chris/OneDrive/Desktop/subject-2.csv,legacy,Lentiform Loewenfeld,3.3.3,0,s,return,NA,NA,s,NA,596,3948,NA,NA,596,NA,2,legacy,1024,2,48000,-16,experiment,SSSSS,2,even,53465,6534,NA,NA,52959,2581,NA,54564,2585,NA,NA,54669,55265,NA,54562,54669,Flanker Task,27,14944,28,yes,1024
96.55172414,96.55172414,536.8275862,536.8275862,black,legacy,legacy,legacy,0,incongruent,uniform,1,undefined,1,h,28,0,0,0,28,0,28,28,0,0,0,28,28,0,28,28,Sun Sep 20 14:57:29 2020,1500,The main experiment item,yes,FlankerTask.osexp,C:/Users/chris/OneDrive/Desktop,no,mono,no,18,no,white,no,yes,768,legacy,28,28,C:/Users/chris/OneDrive/Desktop/subject-2.csv,legacy,Lentiform Loewenfeld,3.3.3,0,h,return,NA,NA,h,NA,624,3948,NA,NA,624,NA,2,legacy,1024,2,48000,-16,experiment,SSHSS,2,even,55274,6534,NA,NA,52959,2581,NA,56376,2585,NA,NA,56481,57105,NA,56373,56481,Flanker Task,28,15568,29,yes,1024
96.66666667,96.66666667,531.2666667,531.2666667,black,legacy,legacy,legacy,0,congruent,uniform,1,undefined,1,h,29,0,0,0,29,0,29,29,0,0,0,29,29,0,29,29,Sun Sep 20 14:57:29 2020,1500,The main experiment item,yes,FlankerTask.osexp,C:/Users/chris/OneDrive/Desktop,no,mono,no,18,no,white,no,yes,768,legacy,29,29,C:/Users/chris/OneDrive/Desktop/subject-2.csv,legacy,Lentiform Loewenfeld,3.3.3,0,h,return,NA,NA,h,NA,370,3948,NA,NA,370,NA,2,legacy,1024,2,48000,-16,experiment,HHHHH,2,even,57114,6534,NA,NA,52959,2581,NA,58206,2585,NA,NA,58311,58682,NA,58204,58311,Flanker Task,29,15938,30,yes,1024
96.77419355,96.77419355,552.4516129,552.4516129,black,legacy,legacy,legacy,0,congruent,uniform,1,undefined,1,s,30,0,0,0,30,0,30,30,0,0,0,30,30,0,30,30,Sun Sep 20 14:57:29 2020,1500,The main experiment item,yes,FlankerTask.osexp,C:/Users/chris/OneDrive/Desktop,no,mono,no,18,no,white,no,yes,768,legacy,30,30,C:/Users/chris/OneDrive/Desktop/subject-2.csv,legacy,Lentiform Loewenfeld,3.3.3,0,s,return,NA,NA,s,NA,1188,3948,NA,NA,1188,NA,2,legacy,1024,2,48000,-16,experiment,SSSSS,2,even,58690,6534,NA,NA,52959,2581,NA,59791,2585,NA,NA,59896,61084,NA,59789,59896,Flanker Task,30,17126,31,yes,1024
96.875,96.875,551.71875,551.71875,black,legacy,legacy,legacy,0,incongruent,uniform,1,undefined,1,h,31,0,0,0,31,0,31,31,0,0,0,31,31,0,31,31,Sun Sep 20 14:57:29 2020,1500,The main experiment item,yes,FlankerTask.osexp,C:/Users/chris/OneDrive/Desktop,no,mono,no,18,no,white,no,yes,768,legacy,31,31,C:/Users/chris/OneDrive/Desktop/subject-2.csv,legacy,Lentiform Loewenfeld,3.3.3,0,h,return,NA,NA,h,NA,529,3948,NA,NA,529,NA,2,legacy,1024,2,48000,-16,experiment,SSHSS,2,even,61093,6534,NA,NA,52959,2581,NA,62194,2585,NA,NA,62299,62829,NA,62192,62299,Flanker Task,31,17655,32,yes,1024
96.96969697,96.96969697,548.7878788,548.7878788,black,legacy,legacy,legacy,0,congruent,uniform,1,undefined,1,s,32,0,0,0,32,0,32,32,0,0,0,32,32,0,32,32,Sun Sep 20 14:57:29 2020,1500,The main experiment item,yes,FlankerTask.osexp,C:/Users/chris/OneDrive/Desktop,no,mono,no,18,no,white,no,yes,768,legacy,32,32,C:/Users/chris/OneDrive/Desktop/subject-2.csv,legacy,Lentiform Loewenfeld,3.3.3,0,s,return,NA,NA,s,NA,455,3948,NA,NA,455,NA,2,legacy,1024,2,48000,-16,experiment,SSSSS,2,even,62838,6534,NA,NA,52959,2581,NA,63953,2585,NA,NA,64059,64515,NA,63950,64058,Flanker Task,32,18110,33,yes,1024
97.05882353,97.05882353,547.3823529,547.3823529,black,legacy,legacy,legacy,0,congruent,uniform,1,undefined,1,s,33,0,0,0,33,0,33,33,0,0,0,33,33,0,33,33,Sun Sep 20 14:57:29 2020,1500,The main experiment item,yes,FlankerTask.osexp,C:/Users/chris/OneDrive/Desktop,no,mono,no,18,no,white,no,yes,768,legacy,33,33,C:/Users/chris/OneDrive/Desktop/subject-2.csv,legacy,Lentiform Loewenfeld,3.3.3,0,s,return,NA,NA,s,NA,501,3948,NA,NA,501,NA,2,legacy,1024,2,48000,-16,experiment,SSSSS,2,even,64524,6534,NA,NA,52959,2581,NA,65635,2585,NA,NA,65740,66242,NA,65633,65740,Flanker Task,33,18611,34,yes,1024
94.28571429,94.28571429,545.7714286,545.7714286,black,legacy,legacy,legacy,0,incongruent,uniform,0,undefined,0,s,34,0,0,0,34,0,34,34,0,0,0,34,34,0,34,34,Sun Sep 20 14:57:29 2020,1500,The main experiment item,yes,FlankerTask.osexp,C:/Users/chris/OneDrive/Desktop,no,mono,no,18,no,white,no,yes,768,legacy,34,34,C:/Users/chris/OneDrive/Desktop/subject-2.csv,legacy,Lentiform Loewenfeld,3.3.3,0,h,return,NA,NA,h,NA,491,3948,NA,NA,491,NA,2,legacy,1024,2,48000,-16,experiment,HHSHH,2,even,66251,6534,NA,NA,52959,2581,NA,67355,2585,NA,NA,67463,67955,NA,67353,67462,Flanker Task,33,19102,35,yes,1024
94.44444444,94.44444444,542.6666667,542.6666667,black,legacy,legacy,legacy,0,incongruent,uniform,1,undefined,1,s,35,0,0,0,35,0,35,35,0,0,0,35,35,0,35,35,Sun Sep 20 14:57:29 2020,1500,The main experiment item,yes,FlankerTask.osexp,C:/Users/chris/OneDrive/Desktop,no,mono,no,18,no,white,no,yes,768,legacy,35,35,C:/Users/chris/OneDrive/Desktop/subject-2.csv,legacy,Lentiform Loewenfeld,3.3.3,0,s,return,NA,NA,s,NA,434,3948,NA,NA,434,NA,2,legacy,1024,2,48000,-16,experiment,HHSHH,2,even,68469,6534,NA,NA,67964,2581,NA,69579,2585,NA,NA,69684,70119,NA,69576,69684,Flanker Task,34,19536,36,yes,1024
94.59459459,94.59459459,540.5675676,540.5675676,black,legacy,legacy,legacy,0,congruent,uniform,1,undefined,1,h,36,0,0,0,36,0,36,36,0,0,0,36,36,0,36,36,Sun Sep 20 14:57:29 2020,1500,The main experiment item,yes,FlankerTask.osexp,C:/Users/chris/OneDrive/Desktop,no,mono,no,18,no,white,no,yes,768,legacy,36,36,C:/Users/chris/OneDrive/Desktop/subject-2.csv,legacy,Lentiform Loewenfeld,3.3.3,0,h,return,NA,NA,h,NA,465,3948,NA,NA,465,NA,2,legacy,1024,2,48000,-16,experiment,HHHHH,2,even,70128,6534,NA,NA,67964,2581,NA,71245,2585,NA,NA,71350,71816,NA,71242,71350,Flanker Task,35,20001,37,yes,1024
94.73684211,94.73684211,538.4473684,538.4473684,black,legacy,legacy,legacy,0,congruent,uniform,1,undefined,1,h,37,0,0,0,37,0,37,37,0,0,0,37,37,0,37,37,Sun Sep 20 14:57:29 2020,1500,The main experiment item,yes,FlankerTask.osexp,C:/Users/chris/OneDrive/Desktop,no,mono,no,18,no,white,no,yes,768,legacy,37,37,C:/Users/chris/OneDrive/Desktop/subject-2.csv,legacy,Lentiform Loewenfeld,3.3.3,0,h,return,NA,NA,h,NA,460,3948,NA,NA,460,NA,2,legacy,1024,2,48000,-16,experiment,HHHHH,2,even,71824,6534,NA,NA,67964,2581,NA,72929,2585,NA,NA,73034,73495,NA,72927,73034,Flanker Task,36,20461,38,yes,1024
94.87179487,94.87179487,535.5128205,535.5128205,black,legacy,legacy,legacy,0,congruent,uniform,1,undefined,1,h,38,0,0,0,38,0,38,38,0,0,0,38,38,0,38,38,Sun Sep 20 14:57:29 2020,1500,The main experiment item,yes,FlankerTask.osexp,C:/Users/chris/OneDrive/Desktop,no,mono,no,18,no,white,no,yes,768,legacy,38,38,C:/Users/chris/OneDrive/Desktop/subject-2.csv,legacy,Lentiform Loewenfeld,3.3.3,0,h,return,NA,NA,h,NA,424,3948,NA,NA,424,NA,2,legacy,1024,2,48000,-16,experiment,HHHHH,2,even,73503,6534,NA,NA,67964,2581,NA,74613,2585,NA,NA,74718,75142,NA,74611,74718,Flanker Task,37,20885,39,yes,1024
95,95,534.825,534.825,black,legacy,legacy,legacy,0,incongruent,uniform,1,undefined,1,s,39,0,0,0,39,0,39,39,0,0,0,39,39,0,39,39,Sun Sep 20 14:57:29 2020,1500,The main experiment item,yes,FlankerTask.osexp,C:/Users/chris/OneDrive/Desktop,no,mono,no,18,no,white,no,yes,768,legacy,39,39,C:/Users/chris/OneDrive/Desktop/subject-2.csv,legacy,Lentiform Loewenfeld,3.3.3,0,s,return,NA,NA,s,NA,508,3948,NA,NA,508,NA,2,legacy,1024,2,48000,-16,experiment,HHSHH,2,even,75151,6534,NA,NA,67964,2581,NA,76262,2585,NA,NA,76367,76876,NA,76260,76367,Flanker Task,38,21393,40,yes,1024
92.68292683,92.68292683,530.6585366,530.6585366,black,legacy,legacy,legacy,0,incongruent,uniform,0,undefined,0,s,40,0,0,0,40,0,40,40,0,0,0,40,40,0,40,40,Sun Sep 20 14:57:29 2020,1500,The main experiment item,yes,FlankerTask.osexp,C:/Users/chris/OneDrive/Desktop,no,mono,no,18,no,white,no,yes,768,legacy,40,40,C:/Users/chris/OneDrive/Desktop/subject-2.csv,legacy,Lentiform Loewenfeld,3.3.3,0,h,return,NA,NA,h,NA,364,3948,NA,NA,364,NA,2,legacy,1024,2,48000,-16,experiment,HHSHH,2,even,76885,6534,NA,NA,67964,2581,NA,78000,2585,NA,NA,78105,78469,NA,77998,78105,Flanker Task,38,21757,41,yes,1024
92.85714286,92.85714286,526.952381,526.952381,black,legacy,legacy,legacy,0,congruent,uniform,1,undefined,1,h,41,0,0,0,41,0,41,41,0,0,0,41,41,0,41,41,Sun Sep 20 14:57:29 2020,1500,The main experiment item,yes,FlankerTask.osexp,C:/Users/chris/OneDrive/Desktop,no,mono,no,18,no,white,no,yes,768,legacy,41,41,C:/Users/chris/OneDrive/Desktop/subject-2.csv,legacy,Lentiform Loewenfeld,3.3.3,0,h,return,NA,NA,h,NA,375,3948,NA,NA,375,NA,2,legacy,1024,2,48000,-16,experiment,HHHHH,2,even,78985,6534,NA,NA,78479,2581,NA,80091,2585,NA,NA,80196,80572,NA,80088,80196,Flanker Task,39,22132,42,yes,1024
93.02325581,93.02325581,525.2325581,525.2325581,black,legacy,legacy,legacy,0,congruent,uniform,1,undefined,1,s,42,0,0,0,42,0,42,42,0,0,0,42,42,0,42,42,Sun Sep 20 14:57:29 2020,1500,The main experiment item,yes,FlankerTask.osexp,C:/Users/chris/OneDrive/Desktop,no,mono,no,18,no,white,no,yes,768,legacy,42,42,C:/Users/chris/OneDrive/Desktop/subject-2.csv,legacy,Lentiform Loewenfeld,3.3.3,0,s,return,NA,NA,s,NA,453,3948,NA,NA,453,NA,2,legacy,1024,2,48000,-16,experiment,SSSSS,2,even,80581,6534,NA,NA,78479,2581,NA,81691,2585,NA,NA,81796,82250,NA,81688,81796,Flanker Task,40,22585,43,yes,1024
93.18181818,93.18181818,522.1590909,522.1590909,black,legacy,legacy,legacy,0,congruent,uniform,1,undefined,1,h,43,0,0,0,43,0,43,43,0,0,0,43,43,0,43,43,Sun Sep 20 14:57:29 2020,1500,The main experiment item,yes,FlankerTask.osexp,C:/Users/chris/OneDrive/Desktop,no,mono,no,18,no,white,no,yes,768,legacy,43,43,C:/Users/chris/OneDrive/Desktop/subject-2.csv,legacy,Lentiform Loewenfeld,3.3.3,0,h,return,NA,NA,h,NA,390,3948,NA,NA,390,NA,2,legacy,1024,2,48000,-16,experiment,HHHHH,2,even,82259,6534,NA,NA,78479,2581,NA,83364,2585,NA,NA,83469,83859,NA,83362,83469,Flanker Task,41,22975,44,yes,1024
93.33333333,93.33333333,520.2888889,520.2888889,black,legacy,legacy,legacy,0,congruent,uniform,1,undefined,1,s,44,0,0,0,44,0,44,44,0,0,0,44,44,0,44,44,Sun Sep 20 14:57:29 2020,1500,The main experiment item,yes,FlankerTask.osexp,C:/Users/chris/OneDrive/Desktop,no,mono,no,18,no,white,no,yes,768,legacy,44,44,C:/Users/chris/OneDrive/Desktop/subject-2.csv,legacy,Lentiform Loewenfeld,3.3.3,0,s,return,NA,NA,s,NA,438,3948,NA,NA,438,NA,2,legacy,1024,2,48000,-16,experiment,SSSSS,2,even,83868,6534,NA,NA,78479,2581,NA,84986,2585,NA,NA,85091,85529,NA,84983,85091,Flanker Task,42,23413,45,yes,1024
93.47826087,93.47826087,519,519,black,legacy,legacy,legacy,0,congruent,uniform,1,undefined,1,h,45,0,0,0,45,0,45,45,0,0,0,45,45,0,45,45,Sun Sep 20 14:57:29 2020,1500,The main experiment item,yes,FlankerTask.osexp,C:/Users/chris/OneDrive/Desktop,no,mono,no,18,no,white,no,yes,768,legacy,45,45,C:/Users/chris/OneDrive/Desktop/subject-2.csv,legacy,Lentiform Loewenfeld,3.3.3,0,h,return,NA,NA,h,NA,461,3948,NA,NA,461,NA,2,legacy,1024,2,48000,-16,experiment,HHHHH,2,even,85538,6534,NA,NA,78479,2581,NA,86659,2585,NA,NA,86764,87226,NA,86657,86764,Flanker Task,43,23874,46,yes,1024
93.61702128,93.61702128,518.5957447,518.5957447,black,legacy,legacy,legacy,0,incongruent,uniform,1,undefined,1,s,46,0,0,0,46,0,46,46,0,0,0,46,46,0,46,46,Sun Sep 20 14:57:29 2020,1500,The main experiment item,yes,FlankerTask.osexp,C:/Users/chris/OneDrive/Desktop,no,mono,no,18,no,white,no,yes,768,legacy,46,46,C:/Users/chris/OneDrive/Desktop/subject-2.csv,legacy,Lentiform Loewenfeld,3.3.3,0,s,return,NA,NA,s,NA,500,3948,NA,NA,500,NA,2,legacy,1024,2,48000,-16,experiment,HHSHH,2,even,87235,6534,NA,NA,78479,2581,NA,88355,2585,NA,NA,88460,88960,NA,88353,88460,Flanker Task,44,24374,47,yes,1024
93.75,93.75,523.3125,523.3125,black,legacy,legacy,legacy,0,incongruent,uniform,1,undefined,1,h,47,0,0,0,47,0,47,47,0,0,0,47,47,0,47,47,Sun Sep 20 14:57:29 2020,1500,The main experiment item,yes,FlankerTask.osexp,C:/Users/chris/OneDrive/Desktop,no,mono,no,18,no,white,no,yes,768,legacy,47,47,C:/Users/chris/OneDrive/Desktop/subject-2.csv,legacy,Lentiform Loewenfeld,3.3.3,0,h,return,NA,NA,h,NA,745,3948,NA,NA,745,NA,2,legacy,1024,2,48000,-16,experiment,SSHSS,2,even,88969,6534,NA,NA,78479,2581,NA,90085,2585,NA,NA,90190,90936,NA,90083,90190,Flanker Task,45,25119,48,yes,1024
93.87755102,93.87755102,521.3469388,521.3469388,black,legacy,legacy,legacy,0,congruent,uniform,1,undefined,1,s,48,0,0,0,48,0,48,48,0,0,0,48,48,0,48,48,Sun Sep 20 14:57:29 2020,1500,The main experiment item,yes,FlankerTask.osexp,C:/Users/chris/OneDrive/Desktop,no,mono,no,18,no,white,no,yes,768,legacy,48,48,C:/Users/chris/OneDrive/Desktop/subject-2.csv,legacy,Lentiform Loewenfeld,3.3.3,0,s,return,NA,NA,s,NA,427,3948,NA,NA,427,NA,2,legacy,1024,2,48000,-16,experiment,SSSSS,2,even,90945,6534,NA,NA,78479,2581,NA,92064,2585,NA,NA,92170,92598,NA,92061,92170,Flanker Task,46,25546,49,yes,1024
94,94,521.26,521.26,black,legacy,legacy,legacy,0,congruent,uniform,1,undefined,1,s,49,0,0,0,49,0,49,49,0,0,0,49,49,0,49,49,Sun Sep 20 14:57:29 2020,1500,The main experiment item,yes,FlankerTask.osexp,C:/Users/chris/OneDrive/Desktop,no,mono,no,18,no,white,no,yes,768,legacy,49,49,C:/Users/chris/OneDrive/Desktop/subject-2.csv,legacy,Lentiform Loewenfeld,3.3.3,0,s,return,NA,NA,s,NA,517,3948,NA,NA,517,NA,2,legacy,1024,2,48000,-16,experiment,SSSSS,2,even,92607,6534,NA,NA,78479,2581,NA,93718,2585,NA,NA,93823,94341,NA,93715,93823,Flanker Task,47,26063,50,yes,1024
94.11764706,94.11764706,517.7843137,517.7843137,black,legacy,legacy,legacy,0,congruent,uniform,1,undefined,1,s,50,0,0,0,50,0,50,50,0,0,0,50,50,0,50,50,Sun Sep 20 14:57:29 2020,1500,The main experiment item,yes,FlankerTask.osexp,C:/Users/chris/OneDrive/Desktop,no,mono,no,18,no,white,no,yes,768,legacy,50,50,C:/Users/chris/OneDrive/Desktop/subject-2.csv,legacy,Lentiform Loewenfeld,3.3.3,0,s,return,NA,NA,s,NA,344,3948,NA,NA,344,NA,2,legacy,1024,2,48000,-16,experiment,SSSSS,2,even,94350,6534,NA,NA,78479,2581,NA,95459,2585,NA,NA,95564,95909,NA,95456,95564,Flanker Task,48,26407,51,yes,1024
92.30769231,92.30769231,514.3269231,514.3269231,black,legacy,legacy,legacy,0,incongruent,uniform,0,undefined,0,h,51,0,0,0,51,0,51,51,0,0,0,51,51,0,51,51,Sun Sep 20 14:57:29 2020,1500,The main experiment item,yes,FlankerTask.osexp,C:/Users/chris/OneDrive/Desktop,no,mono,no,18,no,white,no,yes,768,legacy,51,51,C:/Users/chris/OneDrive/Desktop/subject-2.csv,legacy,Lentiform Loewenfeld,3.3.3,0,s,return,NA,NA,s,NA,338,3948,NA,NA,338,NA,2,legacy,1024,2,48000,-16,experiment,SSHSS,2,even,95918,6534,NA,NA,78479,2581,NA,97023,2585,NA,NA,97130,97469,NA,97020,97130,Flanker Task,48,26745,52,yes,1024
92.45283019,92.45283019,515.6226415,515.6226415,black,legacy,legacy,legacy,0,incongruent,uniform,1,undefined,1,s,52,0,0,0,52,0,52,52,0,0,0,52,52,0,52,52,Sun Sep 20 14:57:29 2020,1500,The main experiment item,yes,FlankerTask.osexp,C:/Users/chris/OneDrive/Desktop,no,mono,no,18,no,white,no,yes,768,legacy,52,52,C:/Users/chris/OneDrive/Desktop/subject-2.csv,legacy,Lentiform Loewenfeld,3.3.3,0,s,return,NA,NA,s,NA,583,3948,NA,NA,583,NA,2,legacy,1024,2,48000,-16,experiment,HHSHH,2,even,97983,6534,NA,NA,97478,2581,NA,99096,2585,NA,NA,99202,99786,NA,99093,99201,Flanker Task,49,27328,53,yes,1024
92.59259259,92.59259259,516.537037,516.537037,black,legacy,legacy,legacy,0,incongruent,uniform,1,undefined,1,h,53,0,0,0,53,0,53,53,0,0,0,53,53,0,53,53,Sun Sep 20 14:57:29 2020,1500,The main experiment item,yes,FlankerTask.osexp,C:/Users/chris/OneDrive/Desktop,no,mono,no,18,no,white,no,yes,768,legacy,53,53,C:/Users/chris/OneDrive/Desktop/subject-2.csv,legacy,Lentiform Loewenfeld,3.3.3,0,h,return,NA,NA,h,NA,565,3948,NA,NA,565,NA,2,legacy,1024,2,48000,-16,experiment,SSHSS,2,even,99795,6534,NA,NA,97478,2581,NA,100899,2585,NA,NA,101004,101570,NA,100896,101004,Flanker Task,50,27893,54,yes,1024
92.72727273,92.72727273,519.2909091,519.2909091,black,legacy,legacy,legacy,0,incongruent,uniform,1,undefined,1,s,54,0,0,0,54,0,54,54,0,0,0,54,54,0,54,54,Sun Sep 20 14:57:29 2020,1500,The main experiment item,yes,FlankerTask.osexp,C:/Users/chris/OneDrive/Desktop,no,mono,no,18,no,white,no,yes,768,legacy,54,54,C:/Users/chris/OneDrive/Desktop/subject-2.csv,legacy,Lentiform Loewenfeld,3.3.3,0,s,return,NA,NA,s,NA,668,3948,NA,NA,668,NA,2,legacy,1024,2,48000,-16,experiment,HHSHH,2,even,101579,6534,NA,NA,97478,2581,NA,102689,2585,NA,NA,102794,103463,NA,102686,102794,Flanker Task,51,28561,55,yes,1024
92.85714286,92.85714286,523.0178571,523.0178571,black,legacy,legacy,legacy,0,incongruent,uniform,1,undefined,1,h,55,0,0,0,55,0,55,55,0,0,0,55,55,0,55,55,Sun Sep 20 14:57:29 2020,1500,The main experiment item,yes,FlankerTask.osexp,C:/Users/chris/OneDrive/Desktop,no,mono,no,18,no,white,no,yes,768,legacy,55,55,C:/Users/chris/OneDrive/Desktop/subject-2.csv,legacy,Lentiform Loewenfeld,3.3.3,0,h,return,NA,NA,h,NA,728,3948,NA,NA,728,NA,2,legacy,1024,2,48000,-16,experiment,SSHSS,2,even,103472,6534,NA,NA,97478,2581,NA,104581,2585,NA,NA,104686,105415,NA,104579,104686,Flanker Task,52,29289,56,yes,1024
92.98245614,92.98245614,523.5789474,523.5789474,black,legacy,legacy,legacy,0,congruent,uniform,1,undefined,1,s,56,0,0,0,56,0,56,56,0,0,0,56,56,0,56,56,Sun Sep 20 14:57:29 2020,1500,The main experiment item,yes,FlankerTask.osexp,C:/Users/chris/OneDrive/Desktop,no,mono,no,18,no,white,no,yes,768,legacy,56,56,C:/Users/chris/OneDrive/Desktop/subject-2.csv,legacy,Lentiform Loewenfeld,3.3.3,0,s,return,NA,NA,s,NA,555,3948,NA,NA,555,NA,2,legacy,1024,2,48000,-16,experiment,SSSSS,2,even,105424,6534,NA,NA,97478,2581,NA,106529,2585,NA,NA,106634,107189,NA,106526,106634,Flanker Task,53,29844,57,yes,1024
93.10344828,93.10344828,522.862069,522.862069,black,legacy,legacy,legacy,0,incongruent,uniform,1,undefined,1,s,57,0,0,0,57,0,57,57,0,0,0,57,57,0,57,57,Sun Sep 20 14:57:29 2020,1500,The main experiment item,yes,FlankerTask.osexp,C:/Users/chris/OneDrive/Desktop,no,mono,no,18,no,white,no,yes,768,legacy,57,57,C:/Users/chris/OneDrive/Desktop/subject-2.csv,legacy,Lentiform Loewenfeld,3.3.3,0,s,return,NA,NA,s,NA,482,3948,NA,NA,482,NA,2,legacy,1024,2,48000,-16,experiment,HHSHH,2,even,107198,6534,NA,NA,97478,2581,NA,108305,2585,NA,NA,108410,108893,NA,108302,108410,Flanker Task,54,30326,58,yes,1024
93.22033898,93.22033898,520.2542373,520.2542373,black,legacy,legacy,legacy,0,incongruent,uniform,1,undefined,1,s,58,0,0,0,58,0,58,58,0,0,0,58,58,0,58,58,Sun Sep 20 14:57:29 2020,1500,The main experiment item,yes,FlankerTask.osexp,C:/Users/chris/OneDrive/Desktop,no,mono,no,18,no,white,no,yes,768,legacy,58,58,C:/Users/chris/OneDrive/Desktop/subject-2.csv,legacy,Lentiform Loewenfeld,3.3.3,0,s,return,NA,NA,s,NA,369,3948,NA,NA,369,NA,2,legacy,1024,2,48000,-16,experiment,HHSHH,2,even,108897,6534,NA,NA,97478,2581,NA,110008,2585,NA,NA,110114,110484,NA,110006,110114,Flanker Task,55,30695,59,yes,1024
91.66666667,91.66666667,519.75,519.75,black,legacy,legacy,legacy,0,incongruent,uniform,0,undefined,0,h,59,0,0,0,59,0,59,59,0,0,0,59,59,0,59,59,Sun Sep 20 14:57:29 2020,1500,The main experiment item,yes,FlankerTask.osexp,C:/Users/chris/OneDrive/Desktop,no,mono,no,18,no,white,no,yes,768,legacy,59,59,C:/Users/chris/OneDrive/Desktop/subject-2.csv,legacy,Lentiform Loewenfeld,3.3.3,0,s,return,NA,NA,s,NA,490,3948,NA,NA,490,NA,2,legacy,1024,2,48000,-16,experiment,SSHSS,2,even,110494,6534,NA,NA,97478,2581,NA,111601,2585,NA,NA,111706,112197,NA,111598,111706,Flanker Task,55,31185,60,yes,1024
91.80327869,91.80327869,521.2786885,521.2786885,black,legacy,legacy,legacy,0,incongruent,uniform,1,undefined,1,h,60,0,0,0,60,0,60,60,0,0,0,60,60,0,60,60,Sun Sep 20 14:57:29 2020,1500,The main experiment item,yes,FlankerTask.osexp,C:/Users/chris/OneDrive/Desktop,no,mono,no,18,no,white,no,yes,768,legacy,60,60,C:/Users/chris/OneDrive/Desktop/subject-2.csv,legacy,Lentiform Loewenfeld,3.3.3,0,h,return,NA,NA,h,NA,613,3948,NA,NA,613,NA,2,legacy,1024,2,48000,-16,experiment,SSHSS,2,even,112711,6534,NA,NA,112206,2581,NA,113812,2585,NA,NA,113917,114531,NA,113810,113917,Flanker Task,56,31798,61,yes,1024
91.93548387,91.93548387,521.7419355,521.7419355,black,legacy,legacy,legacy,0,congruent,uniform,1,undefined,1,h,61,0,0,0,61,0,61,61,0,0,0,61,61,0,61,61,Sun Sep 20 14:57:29 2020,1500,The main experiment item,yes,FlankerTask.osexp,C:/Users/chris/OneDrive/Desktop,no,mono,no,18,no,white,no,yes,768,legacy,61,61,C:/Users/chris/OneDrive/Desktop/subject-2.csv,legacy,Lentiform Loewenfeld,3.3.3,0,h,return,NA,NA,h,NA,550,3948,NA,NA,550,NA,2,legacy,1024,2,48000,-16,experiment,HHHHH,2,even,114540,6534,NA,NA,112206,2581,NA,115649,2585,NA,NA,115755,116306,NA,115646,115754,Flanker Task,57,32348,62,yes,1024
92.06349206,92.06349206,520.2698413,520.2698413,black,legacy,legacy,legacy,0,incongruent,uniform,1,undefined,1,h,62,0,0,0,62,0,62,62,0,0,0,62,62,0,62,62,Sun Sep 20 14:57:29 2020,1500,The main experiment item,yes,FlankerTask.osexp,C:/Users/chris/OneDrive/Desktop,no,mono,no,18,no,white,no,yes,768,legacy,62,62,C:/Users/chris/OneDrive/Desktop/subject-2.csv,legacy,Lentiform Loewenfeld,3.3.3,0,h,return,NA,NA,h,NA,429,3948,NA,NA,429,NA,2,legacy,1024,2,48000,-16,experiment,SSHSS,2,even,116315,6534,NA,NA,112206,2581,NA,117427,2585,NA,NA,117532,117962,NA,117425,117532,Flanker Task,58,32777,63,yes,1024
92.1875,92.1875,518.90625,518.90625,black,legacy,legacy,legacy,0,congruent,uniform,1,undefined,1,h,63,0,0,0,63,0,63,63,0,0,0,63,63,0,63,63,Sun Sep 20 14:57:29 2020,1500,The main experiment item,yes,FlankerTask.osexp,C:/Users/chris/OneDrive/Desktop,no,mono,no,18,no,white,no,yes,768,legacy,63,63,C:/Users/chris/OneDrive/Desktop/subject-2.csv,legacy,Lentiform Loewenfeld,3.3.3,0,h,return,NA,NA,h,NA,433,3948,NA,NA,433,NA,2,legacy,1024,2,48000,-16,experiment,HHHHH,2,even,117971,6534,NA,NA,112206,2581,NA,119094,2585,NA,NA,119199,119632,NA,119092,119199,Flanker Task,59,33210,64,yes,1024
92.30769231,92.30769231,517.8307692,517.8307692,black,legacy,legacy,legacy,0,incongruent,uniform,1,undefined,1,s,64,0,0,0,64,0,64,64,0,0,0,64,64,0,64,64,Sun Sep 20 14:57:29 2020,1500,The main experiment item,yes,FlankerTask.osexp,C:/Users/chris/OneDrive/Desktop,no,mono,no,18,no,white,no,yes,768,legacy,64,64,C:/Users/chris/OneDrive/Desktop/subject-2.csv,legacy,Lentiform Loewenfeld,3.3.3,0,s,return,NA,NA,s,NA,449,3948,NA,NA,449,NA,2,legacy,1024,2,48000,-16,experiment,HHSHH,2,even,119641,6534,NA,NA,112206,2581,NA,120755,2585,NA,NA,120861,121311,NA,120753,120861,Flanker Task,60,33659,65,yes,1024
92.42424242,92.42424242,520.530303,520.530303,black,legacy,legacy,legacy,0,incongruent,uniform,1,undefined,1,s,65,0,0,0,65,0,65,65,0,0,0,65,65,0,65,65,Sun Sep 20 14:57:29 2020,1500,The main experiment item,yes,FlankerTask.osexp,C:/Users/chris/OneDrive/Desktop,no,mono,no,18,no,white,no,yes,768,legacy,65,65,C:/Users/chris/OneDrive/Desktop/subject-2.csv,legacy,Lentiform Loewenfeld,3.3.3,0,s,return,NA,NA,s,NA,696,3948,NA,NA,696,NA,2,legacy,1024,2,48000,-16,experiment,HHSHH,2,even,121320,6534,NA,NA,112206,2581,NA,122428,2585,NA,NA,122533,123230,NA,122425,122533,Flanker Task,61,34355,66,yes,1024
92.53731343,92.53731343,521.4925373,521.4925373,black,legacy,legacy,legacy,0,incongruent,uniform,1,undefined,1,h,66,0,0,0,66,0,66,66,0,0,0,66,66,0,66,66,Sun Sep 20 14:57:29 2020,1500,The main experiment item,yes,FlankerTask.osexp,C:/Users/chris/OneDrive/Desktop,no,mono,no,18,no,white,no,yes,768,legacy,66,66,C:/Users/chris/OneDrive/Desktop/subject-2.csv,legacy,Lentiform Loewenfeld,3.3.3,0,h,return,NA,NA,h,NA,585,3948,NA,NA,585,NA,2,legacy,1024,2,48000,-16,experiment,SSHSS,2,even,123239,6534,NA,NA,112206,2581,NA,124348,2585,NA,NA,124453,125038,NA,124345,124453,Flanker Task,62,34940,67,yes,1024
92.64705882,92.64705882,521.5,521.5,black,legacy,legacy,legacy,0,congruent,uniform,1,undefined,1,h,67,0,0,0,67,0,67,67,0,0,0,67,67,0,67,67,Sun Sep 20 14:57:29 2020,1500,The main experiment item,yes,FlankerTask.osexp,C:/Users/chris/OneDrive/Desktop,no,mono,no,18,no,white,no,yes,768,legacy,67,67,C:/Users/chris/OneDrive/Desktop/subject-2.csv,legacy,Lentiform Loewenfeld,3.3.3,0,h,return,NA,NA,h,NA,522,3948,NA,NA,522,NA,2,legacy,1024,2,48000,-16,experiment,HHHHH,2,even,125047,6534,NA,NA,112206,2581,NA,126153,2585,NA,NA,126259,126782,NA,126150,126258,Flanker Task,63,35462,68,yes,1024
92.75362319,92.75362319,520.5942029,520.5942029,black,legacy,legacy,legacy,0,congruent,uniform,1,undefined,1,s,68,0,0,0,68,0,68,68,0,0,0,68,68,0,68,68,Sun Sep 20 14:57:29 2020,1500,The main experiment item,yes,FlankerTask.osexp,C:/Users/chris/OneDrive/Desktop,no,mono,no,18,no,white,no,yes,768,legacy,68,68,C:/Users/chris/OneDrive/Desktop/subject-2.csv,legacy,Lentiform Loewenfeld,3.3.3,0,s,return,NA,NA,s,NA,459,3948,NA,NA,459,NA,2,legacy,1024,2,48000,-16,experiment,SSSSS,2,even,126790,6534,NA,NA,112206,2581,NA,127895,2585,NA,NA,128000,128460,NA,127892,128000,Flanker Task,64,35921,69,yes,1024
92.85714286,92.85714286,519.1142857,519.1142857,black,legacy,legacy,legacy,0,congruent,uniform,1,undefined,1,s,69,0,0,0,69,0,69,69,0,0,0,69,69,0,69,69,Sun Sep 20 14:57:29 2020,1500,The main experiment item,yes,FlankerTask.osexp,C:/Users/chris/OneDrive/Desktop,no,mono,no,18,no,white,no,yes,768,legacy,69,69,C:/Users/chris/OneDrive/Desktop/subject-2.csv,legacy,Lentiform Loewenfeld,3.3.3,0,s,return,NA,NA,s,NA,417,3948,NA,NA,417,NA,2,legacy,1024,2,48000,-16,experiment,SSSSS,2,even,128469,6534,NA,NA,112206,2581,NA,129575,2585,NA,NA,129681,130099,NA,129573,129681,Flanker Task,65,36338,70,yes,1024
92.95774648,92.95774648,518.5492958,518.5492958,black,legacy,legacy,legacy,0,congruent,uniform,1,undefined,1,h,70,0,0,0,70,0,70,70,0,0,0,70,70,0,70,70,Sun Sep 20 14:57:29 2020,1500,The main experiment item,yes,FlankerTask.osexp,C:/Users/chris/OneDrive/Desktop,no,mono,no,18,no,white,no,yes,768,legacy,70,70,C:/Users/chris/OneDrive/Desktop/subject-2.csv,legacy,Lentiform Loewenfeld,3.3.3,0,h,return,NA,NA,h,NA,479,3948,NA,NA,479,NA,2,legacy,1024,2,48000,-16,experiment,HHHHH,2,even,130109,6534,NA,NA,112206,2581,NA,131220,2585,NA,NA,131325,131805,NA,131218,131325,Flanker Task,66,36817,71,yes,1024
93.05555556,93.05555556,517.8055556,517.8055556,black,legacy,legacy,legacy,0,congruent,uniform,1,undefined,1,h,71,0,0,0,71,0,71,71,0,0,0,71,71,0,71,71,Sun Sep 20 14:57:29 2020,1500,The main experiment item,yes,FlankerTask.osexp,C:/Users/chris/OneDrive/Desktop,no,mono,no,18,no,white,no,yes,768,legacy,71,71,C:/Users/chris/OneDrive/Desktop/subject-2.csv,legacy,Lentiform Loewenfeld,3.3.3,0,h,return,NA,NA,h,NA,465,3948,NA,NA,465,NA,2,legacy,1024,2,48000,-16,experiment,HHHHH,2,even,131813,6534,NA,NA,112206,2581,NA,132929,2585,NA,NA,133034,133500,NA,132927,133034,Flanker Task,67,37282,72,yes,1024
91.78082192,91.78082192,515.890411,515.890411,black,legacy,legacy,legacy,0,incongruent,uniform,0,undefined,0,h,72,0,0,0,72,0,72,72,0,0,0,72,72,0,72,72,Sun Sep 20 14:57:29 2020,1500,The main experiment item,yes,FlankerTask.osexp,C:/Users/chris/OneDrive/Desktop,no,mono,no,18,no,white,no,yes,768,legacy,72,72,C:/Users/chris/OneDrive/Desktop/subject-2.csv,legacy,Lentiform Loewenfeld,3.3.3,0,s,return,NA,NA,s,NA,378,3948,NA,NA,378,NA,2,legacy,1024,2,48000,-16,experiment,SSHSS,2,even,133509,6534,NA,NA,112206,2581,NA,134614,2585,NA,NA,134720,135099,NA,134612,134720,Flanker Task,67,37660,73,yes,1024
91.89189189,91.89189189,516.5810811,516.5810811,black,legacy,legacy,legacy,0,incongruent,uniform,1,undefined,1,s,73,0,0,0,73,0,73,73,0,0,0,73,73,0,73,73,Sun Sep 20 14:57:29 2020,1500,The main experiment item,yes,FlankerTask.osexp,C:/Users/chris/OneDrive/Desktop,no,mono,no,18,no,white,no,yes,768,legacy,73,73,C:/Users/chris/OneDrive/Desktop/subject-2.csv,legacy,Lentiform Loewenfeld,3.3.3,0,s,return,NA,NA,s,NA,567,3948,NA,NA,567,NA,2,legacy,1024,2,48000,-16,experiment,HHSHH,2,even,135614,6534,NA,NA,135108,2581,NA,136734,2585,NA,NA,136839,137407,NA,136731,136839,Flanker Task,68,38227,74,yes,1024
92,92,517.56,517.56,black,legacy,legacy,legacy,0,congruent,uniform,1,undefined,1,h,74,0,0,0,74,0,74,74,0,0,0,74,74,0,74,74,Sun Sep 20 14:57:29 2020,1500,The main experiment item,yes,FlankerTask.osexp,C:/Users/chris/OneDrive/Desktop,no,mono,no,18,no,white,no,yes,768,legacy,74,74,C:/Users/chris/OneDrive/Desktop/subject-2.csv,legacy,Lentiform Loewenfeld,3.3.3,0,h,return,NA,NA,h,NA,590,3948,NA,NA,590,NA,2,legacy,1024,2,48000,-16,experiment,HHHHH,2,even,137416,6534,NA,NA,135108,2581,NA,138520,2585,NA,NA,138625,139216,NA,138518,138625,Flanker Task,69,38817,75,yes,1024
90.78947368,90.78947368,517.8157895,517.8157895,black,legacy,legacy,legacy,0,incongruent,uniform,0,undefined,0,h,75,0,0,0,75,0,75,75,0,0,0,75,75,0,75,75,Sun Sep 20 14:57:29 2020,1500,The main experiment item,yes,FlankerTask.osexp,C:/Users/chris/OneDrive/Desktop,no,mono,no,18,no,white,no,yes,768,legacy,75,75,C:/Users/chris/OneDrive/Desktop/subject-2.csv,legacy,Lentiform Loewenfeld,3.3.3,0,s,return,NA,NA,s,NA,537,3948,NA,NA,537,NA,2,legacy,1024,2,48000,-16,experiment,SSHSS,2,even,139225,6534,NA,NA,135108,2581,NA,140338,2585,NA,NA,140444,140982,NA,140335,140443,Flanker Task,69,39354,76,yes,1024
90.90909091,90.90909091,519.0649351,519.0649351,black,legacy,legacy,legacy,0,incongruent,uniform,1,undefined,1,s,76,0,0,0,76,0,76,76,0,0,0,76,76,0,76,76,Sun Sep 20 14:57:29 2020,1500,The main experiment item,yes,FlankerTask.osexp,C:/Users/chris/OneDrive/Desktop,no,mono,no,18,no,white,no,yes,768,legacy,76,76,C:/Users/chris/OneDrive/Desktop/subject-2.csv,legacy,Lentiform Loewenfeld,3.3.3,0,s,return,NA,NA,s,NA,614,3948,NA,NA,614,NA,2,legacy,1024,2,48000,-16,experiment,HHSHH,2,even,141496,6534,NA,NA,140991,2581,NA,142595,2585,NA,NA,142700,143315,NA,142592,142700,Flanker Task,70,39968,77,yes,1024
91.02564103,91.02564103,520.4871795,520.4871795,black,legacy,legacy,legacy,0,incongruent,uniform,1,undefined,1,h,77,0,0,0,77,0,77,77,0,0,0,77,77,0,77,77,Sun Sep 20 14:57:29 2020,1500,The main experiment item,yes,FlankerTask.osexp,C:/Users/chris/OneDrive/Desktop,no,mono,no,18,no,white,no,yes,768,legacy,77,77,C:/Users/chris/OneDrive/Desktop/subject-2.csv,legacy,Lentiform Loewenfeld,3.3.3,0,h,return,NA,NA,h,NA,630,3948,NA,NA,630,NA,2,legacy,1024,2,48000,-16,experiment,SSHSS,2,even,143324,6534,NA,NA,140991,2581,NA,144443,2585,NA,NA,144548,145179,NA,144440,144548,Flanker Task,71,40598,78,yes,1024
91.13924051,91.13924051,520.3291139,520.3291139,black,legacy,legacy,legacy,0,congruent,uniform,1,undefined,1,s,78,0,0,0,78,0,78,78,0,0,0,78,78,0,78,78,Sun Sep 20 14:57:29 2020,1500,The main experiment item,yes,FlankerTask.osexp,C:/Users/chris/OneDrive/Desktop,no,mono,no,18,no,white,no,yes,768,legacy,78,78,C:/Users/chris/OneDrive/Desktop/subject-2.csv,legacy,Lentiform Loewenfeld,3.3.3,0,s,return,NA,NA,s,NA,508,3948,NA,NA,508,NA,2,legacy,1024,2,48000,-16,experiment,SSSSS,2,even,145188,6534,NA,NA,140991,2581,NA,146314,2585,NA,NA,146420,146929,NA,146312,146419,Flanker Task,72,41106,79,yes,1024
91.25,91.25,521.325,521.325,black,legacy,legacy,legacy,0,incongruent,uniform,1,undefined,1,s,79,0,0,0,79,0,79,79,0,0,0,79,79,0,79,79,Sun Sep 20 14:57:29 2020,1500,The main experiment item,yes,FlankerTask.osexp,C:/Users/chris/OneDrive/Desktop,no,mono,no,18,no,white,no,yes,768,legacy,79,79,C:/Users/chris/OneDrive/Desktop/subject-2.csv,legacy,Lentiform Loewenfeld,3.3.3,0,s,return,NA,NA,s,NA,600,3948,NA,NA,600,NA,2,legacy,1024,2,48000,-16,experiment,HHSHH,2,even,146938,6534,NA,NA,140991,2581,NA,148046,2585,NA,NA,148151,148752,NA,148044,148151,Flanker Task,73,41706,80,yes,1024
91.35802469,91.35802469,523.1975309,523.1975309,black,legacy,legacy,legacy,0,congruent,uniform,1,undefined,1,s,80,0,0,0,80,0,80,80,0,0,0,80,80,0,80,80,Sun Sep 20 14:57:29 2020,600,The main experiment item,yes,FlankerTask.osexp,C:/Users/chris/OneDrive/Desktop,no,mono,no,18,no,white,no,yes,768,legacy,0,79,C:/Users/chris/OneDrive/Desktop/subject-2.csv,legacy,Lentiform Loewenfeld,3.3.3,0,s,return,h,NA,s,NA,673,3948,55479,NA,673,NA,2,legacy,1024,2,48000,-16,experiment,SSSSS,2,even,148761,6534,205297,NA,140991,2581,NA,205366,2585,149817,NA,205472,206146,NA,205364,205472,Flanker Task,74,42379,81,yes,1024
91.46341463,91.46341463,523.5,523.5,black,legacy,legacy,legacy,0,incongruent,uniform,1,undefined,1,h,81,0,0,0,81,0,81,81,0,0,0,81,81,0,81,81,Sun Sep 20 14:57:29 2020,600,The main experiment item,yes,FlankerTask.osexp,C:/Users/chris/OneDrive/Desktop,no,mono,no,18,no,white,no,yes,768,legacy,1,79,C:/Users/chris/OneDrive/Desktop/subject-2.csv,legacy,Lentiform Loewenfeld,3.3.3,0,h,return,h,NA,h,NA,548,3948,55479,NA,548,NA,2,legacy,1024,2,48000,-16,experiment,SSHSS,2,even,206661,6534,205297,NA,140991,2581,206155,207770,2585,149817,NA,207876,208425,NA,207768,207876,Flanker Task,75,42927,82,yes,1024
91.56626506,91.56626506,523.9518072,523.9518072,black,legacy,legacy,legacy,0,congruent,uniform,1,undefined,1,s,82,0,0,0,82,0,82,82,0,0,0,82,82,0,82,82,Sun Sep 20 14:57:29 2020,600,The main experiment item,yes,FlankerTask.osexp,C:/Users/chris/OneDrive/Desktop,no,mono,no,18,no,white,no,yes,768,legacy,2,79,C:/Users/chris/OneDrive/Desktop/subject-2.csv,legacy,Lentiform Loewenfeld,3.3.3,0,s,return,h,NA,s,NA,561,3948,55479,NA,561,NA,2,legacy,1024,2,48000,-16,experiment,SSSSS,2,even,208434,6534,205297,NA,140991,2581,206155,209548,2585,149817,NA,209653,210215,NA,209546,209653,Flanker Task,76,43488,83,yes,1024
91.66666667,91.66666667,524.5595238,524.5595238,black,legacy,legacy,legacy,0,incongruent,uniform,1,undefined,1,h,83,0,0,0,83,0,83,83,0,0,0,83,83,0,83,83,Sun Sep 20 14:57:29 2020,600,The main experiment item,yes,FlankerTask.osexp,C:/Users/chris/OneDrive/Desktop,no,mono,no,18,no,white,no,yes,768,legacy,3,79,C:/Users/chris/OneDrive/Desktop/subject-2.csv,legacy,Lentiform Loewenfeld,3.3.3,0,h,return,h,NA,h,NA,575,3948,55479,NA,575,NA,2,legacy,1024,2,48000,-16,experiment,SSHSS,2,even,210224,6534,205297,NA,140991,2581,206155,211327,2585,149817,NA,211432,212008,NA,211324,211432,Flanker Task,77,44063,84,yes,1024
91.76470588,91.76470588,525.8941176,525.8941176,black,legacy,legacy,legacy,0,congruent,uniform,1,undefined,1,h,84,0,0,0,84,0,84,84,0,0,0,84,84,0,84,84,Sun Sep 20 14:57:29 2020,600,The main experiment item,yes,FlankerTask.osexp,C:/Users/chris/OneDrive/Desktop,no,mono,no,18,no,white,no,yes,768,legacy,4,79,C:/Users/chris/OneDrive/Desktop/subject-2.csv,legacy,Lentiform Loewenfeld,3.3.3,0,h,return,h,NA,h,NA,638,3948,55479,NA,638,NA,2,legacy,1024,2,48000,-16,experiment,HHHHH,2,even,212017,6534,205297,NA,140991,2581,206155,213119,2585,149817,NA,213224,213863,NA,213116,213224,Flanker Task,78,44701,85,yes,1024
91.86046512,91.86046512,526.5697674,526.5697674,black,legacy,legacy,legacy,0,incongruent,uniform,1,undefined,1,s,85,0,0,0,85,0,85,85,0,0,0,85,85,0,85,85,Sun Sep 20 14:57:29 2020,600,The main experiment item,yes,FlankerTask.osexp,C:/Users/chris/OneDrive/Desktop,no,mono,no,18,no,white,no,yes,768,legacy,5,79,C:/Users/chris/OneDrive/Desktop/subject-2.csv,legacy,Lentiform Loewenfeld,3.3.3,0,s,return,h,NA,s,NA,584,3948,55479,NA,584,NA,2,legacy,1024,2,48000,-16,experiment,HHSHH,2,even,214377,6534,205297,NA,140991,2581,213872,215480,2585,149817,NA,215586,216171,NA,215477,215585,Flanker Task,79,45285,86,yes,1024
90.8045977,90.8045977,525.4482759,525.4482759,black,legacy,legacy,legacy,0,incongruent,uniform,0,undefined,0,h,86,0,0,0,86,0,86,86,0,0,0,86,86,0,86,86,Sun Sep 20 14:57:29 2020,600,The main experiment item,yes,FlankerTask.osexp,C:/Users/chris/OneDrive/Desktop,no,mono,no,18,no,white,no,yes,768,legacy,6,79,C:/Users/chris/OneDrive/Desktop/subject-2.csv,legacy,Lentiform Loewenfeld,3.3.3,0,s,return,h,NA,s,NA,429,3948,55479,NA,429,NA,2,legacy,1024,2,48000,-16,experiment,SSHSS,2,even,216180,6534,205297,NA,140991,2581,213872,217300,2585,149817,NA,217405,217835,NA,217298,217405,Flanker Task,79,45714,87,yes,1024
90.90909091,90.90909091,525.9431818,525.9431818,black,legacy,legacy,legacy,0,incongruent,uniform,1,undefined,1,s,87,0,0,0,87,0,87,87,0,0,0,87,87,0,87,87,Sun Sep 20 14:57:29 2020,600,The main experiment item,yes,FlankerTask.osexp,C:/Users/chris/OneDrive/Desktop,no,mono,no,18,no,white,no,yes,768,legacy,7,79,C:/Users/chris/OneDrive/Desktop/subject-2.csv,legacy,Lentiform Loewenfeld,3.3.3,0,s,return,h,NA,s,NA,569,3948,55479,NA,569,NA,2,legacy,1024,2,48000,-16,experiment,HHSHH,2,even,218347,6534,205297,NA,217844,2581,213872,219445,2585,149817,NA,219550,220120,NA,219442,219550,Flanker Task,80,46283,88,yes,1024
91.01123596,91.01123596,526.3370787,526.3370787,black,legacy,legacy,legacy,0,incongruent,uniform,1,undefined,1,h,88,0,0,0,88,0,88,88,0,0,0,88,88,0,88,88,Sun Sep 20 14:57:29 2020,600,The main experiment item,yes,FlankerTask.osexp,C:/Users/chris/OneDrive/Desktop,no,mono,no,18,no,white,no,yes,768,legacy,8,79,C:/Users/chris/OneDrive/Desktop/subject-2.csv,legacy,Lentiform Loewenfeld,3.3.3,0,h,return,h,NA,h,NA,561,3948,55479,NA,561,NA,2,legacy,1024,2,48000,-16,experiment,SSHSS,2,even,220129,6534,205297,NA,217844,2581,213872,221245,2585,149817,NA,221351,221913,NA,221243,221351,Flanker Task,81,46844,89,yes,1024
91.11111111,91.11111111,524.6,524.6,black,legacy,legacy,legacy,0,incongruent,uniform,1,undefined,1,h,89,0,0,0,89,0,89,89,0,0,0,89,89,0,89,89,Sun Sep 20 14:57:29 2020,600,The main experiment item,yes,FlankerTask.osexp,C:/Users/chris/OneDrive/Desktop,no,mono,no,18,no,white,no,yes,768,legacy,9,79,C:/Users/chris/OneDrive/Desktop/subject-2.csv,legacy,Lentiform Loewenfeld,3.3.3,0,h,return,h,NA,h,NA,370,3948,55479,NA,370,NA,2,legacy,1024,2,48000,-16,experiment,SSHSS,2,even,221922,6534,205297,NA,217844,2581,213872,223037,2585,149817,NA,223142,223513,NA,223035,223142,Flanker Task,82,47214,90,yes,1024
91.20879121,91.20879121,523.8901099,523.8901099,black,legacy,legacy,legacy,0,congruent,uniform,1,undefined,1,h,90,0,0,0,90,0,90,90,0,0,0,90,90,0,90,90,Sun Sep 20 14:57:29 2020,600,The main experiment item,yes,FlankerTask.osexp,C:/Users/chris/OneDrive/Desktop,no,mono,no,18,no,white,no,yes,768,legacy,10,79,C:/Users/chris/OneDrive/Desktop/subject-2.csv,legacy,Lentiform Loewenfeld,3.3.3,0,h,return,h,NA,h,NA,460,3948,55479,NA,460,NA,2,legacy,1024,2,48000,-16,experiment,HHHHH,2,even,223522,6534,205297,NA,217844,2581,213872,224634,2585,149817,NA,224739,225200,NA,224632,224739,Flanker Task,83,47674,91,yes,1024
91.30434783,91.30434783,522.75,522.75,black,legacy,legacy,legacy,0,incongruent,uniform,1,undefined,1,h,91,0,0,0,91,0,91,91,0,0,0,91,91,0,91,91,Sun Sep 20 14:57:29 2020,600,The main experiment item,yes,FlankerTask.osexp,C:/Users/chris/OneDrive/Desktop,no,mono,no,18,no,white,no,yes,768,legacy,11,79,C:/Users/chris/OneDrive/Desktop/subject-2.csv,legacy,Lentiform Loewenfeld,3.3.3,0,h,return,h,NA,h,NA,419,3948,55479,NA,419,NA,2,legacy,1024,2,48000,-16,experiment,SSHSS,2,even,225204,6534,205297,NA,217844,2581,213872,226316,2585,149817,NA,226421,226841,NA,226314,226421,Flanker Task,84,48093,92,yes,1024
91.39784946,91.39784946,521.9139785,521.9139785,black,legacy,legacy,legacy,0,congruent,uniform,1,undefined,1,s,92,0,0,0,92,0,92,92,0,0,0,92,92,0,92,92,Sun Sep 20 14:57:29 2020,600,The main experiment item,yes,FlankerTask.osexp,C:/Users/chris/OneDrive/Desktop,no,mono,no,18,no,white,no,yes,768,legacy,12,79,C:/Users/chris/OneDrive/Desktop/subject-2.csv,legacy,Lentiform Loewenfeld,3.3.3,0,s,return,h,NA,s,NA,445,3948,55479,NA,445,NA,2,legacy,1024,2,48000,-16,experiment,SSSSS,2,even,226850,6534,205297,NA,217844,2581,213872,227952,2585,149817,NA,228057,228503,NA,227949,228057,Flanker Task,85,48538,93,yes,1024
91.4893617,91.4893617,521.8191489,521.8191489,black,legacy,legacy,legacy,0,incongruent,uniform,1,undefined,1,h,93,0,0,0,93,0,93,93,0,0,0,93,93,0,93,93,Sun Sep 20 14:57:29 2020,600,The main experiment item,yes,FlankerTask.osexp,C:/Users/chris/OneDrive/Desktop,no,mono,no,18,no,white,no,yes,768,legacy,13,79,C:/Users/chris/OneDrive/Desktop/subject-2.csv,legacy,Lentiform Loewenfeld,3.3.3,0,h,return,h,NA,h,NA,513,3948,55479,NA,513,NA,2,legacy,1024,2,48000,-16,experiment,SSHSS,2,even,228512,6534,205297,NA,217844,2581,213872,229619,2585,149817,NA,229726,230240,NA,229617,229725,Flanker Task,86,49051,94,yes,1024
91.57894737,91.57894737,523.4315789,523.4315789,black,legacy,legacy,legacy,0,incongruent,uniform,1,undefined,1,h,94,0,0,0,94,0,94,94,0,0,0,94,94,0,94,94,Sun Sep 20 14:57:29 2020,600,The main experiment item,yes,FlankerTask.osexp,C:/Users/chris/OneDrive/Desktop,no,mono,no,18,no,white,no,yes,768,legacy,14,79,C:/Users/chris/OneDrive/Desktop/subject-2.csv,legacy,Lentiform Loewenfeld,3.3.3,0,h,return,h,NA,h,NA,675,3948,55479,NA,675,NA,2,legacy,1024,2,48000,-16,experiment,SSHSS,2,even,230249,6534,205297,NA,217844,2581,213872,231361,2585,149817,NA,231466,232143,NA,231358,231466,Flanker Task,87,49726,95,yes,1024
91.66666667,91.66666667,523.4479167,523.4479167,black,legacy,legacy,legacy,0,incongruent,uniform,1,undefined,1,s,95,0,0,0,95,0,95,95,0,0,0,95,95,0,95,95,Sun Sep 20 14:57:29 2020,600,The main experiment item,yes,FlankerTask.osexp,C:/Users/chris/OneDrive/Desktop,no,mono,no,18,no,white,no,yes,768,legacy,15,79,C:/Users/chris/OneDrive/Desktop/subject-2.csv,legacy,Lentiform Loewenfeld,3.3.3,0,s,return,h,NA,s,NA,525,3948,55479,NA,525,NA,2,legacy,1024,2,48000,-16,experiment,HHSHH,2,even,232657,6534,205297,NA,217844,2581,232152,233755,2585,149817,NA,233860,234386,NA,233753,233860,Flanker Task,88,50251,96,yes,1024
91.75257732,91.75257732,523.2886598,523.2886598,black,legacy,legacy,legacy,0,congruent,uniform,1,undefined,1,h,96,0,0,0,96,0,96,96,0,0,0,96,96,0,96,96,Sun Sep 20 14:57:29 2020,600,The main experiment item,yes,FlankerTask.osexp,C:/Users/chris/OneDrive/Desktop,no,mono,no,18,no,white,no,yes,768,legacy,16,79,C:/Users/chris/OneDrive/Desktop/subject-2.csv,legacy,Lentiform Loewenfeld,3.3.3,0,h,return,h,NA,h,NA,508,3948,55479,NA,508,NA,2,legacy,1024,2,48000,-16,experiment,HHHHH,2,even,234395,6534,205297,NA,217844,2581,232152,235501,2585,149817,NA,235606,236115,NA,235498,235606,Flanker Task,89,50759,97,yes,1024
91.83673469,91.83673469,522.255102,522.255102,black,legacy,legacy,legacy,0,congruent,uniform,1,undefined,1,s,97,0,0,0,97,0,97,97,0,0,0,97,97,0,97,97,Sun Sep 20 14:57:29 2020,600,The main experiment item,yes,FlankerTask.osexp,C:/Users/chris/OneDrive/Desktop,no,mono,no,18,no,white,no,yes,768,legacy,17,79,C:/Users/chris/OneDrive/Desktop/subject-2.csv,legacy,Lentiform Loewenfeld,3.3.3,0,s,return,h,NA,s,NA,422,3948,55479,NA,422,NA,2,legacy,1024,2,48000,-16,experiment,SSSSS,2,even,236124,6534,205297,NA,217844,2581,232152,237249,2585,149817,NA,237354,237777,NA,237246,237354,Flanker Task,90,51181,98,yes,1024
91.91919192,91.91919192,522.7878788,522.7878788,black,legacy,legacy,legacy,0,incongruent,uniform,1,undefined,1,h,98,0,0,0,98,0,98,98,0,0,0,98,98,0,98,98,Sun Sep 20 14:57:29 2020,600,The main experiment item,yes,FlankerTask.osexp,C:/Users/chris/OneDrive/Desktop,no,mono,no,18,no,white,no,yes,768,legacy,18,79,C:/Users/chris/OneDrive/Desktop/subject-2.csv,legacy,Lentiform Loewenfeld,3.3.3,0,h,return,h,NA,h,NA,575,3948,55479,NA,575,NA,2,legacy,1024,2,48000,-16,experiment,SSHSS,2,even,237786,6534,205297,NA,217844,2581,232152,238889,2585,149817,NA,238994,239570,NA,238887,238994,Flanker Task,91,51756,99,yes,1024
92,92,522.87,522.87,black,legacy,legacy,legacy,0,congruent,uniform,1,undefined,1,h,99,0,0,0,99,0,99,99,0,0,0,99,99,0,99,99,Sun Sep 20 14:57:29 2020,600,The main experiment item,yes,FlankerTask.osexp,C:/Users/chris/OneDrive/Desktop,no,mono,no,18,no,white,no,yes,768,legacy,19,79,C:/Users/chris/OneDrive/Desktop/subject-2.csv,legacy,Lentiform Loewenfeld,3.3.3,0,h,return,h,NA,h,NA,531,3948,55479,NA,531,NA,2,legacy,1024,2,48000,-16,experiment,HHHHH,2,even,239579,6534,205297,NA,217844,2581,232152,240691,2585,149817,NA,240796,241328,NA,240688,240796,Flanker Task,92,52287,100,yes,1024
92.07920792,92.07920792,521.8019802,521.8019802,black,legacy,legacy,legacy,0,incongruent,uniform,1,undefined,1,h,100,0,0,0,100,0,100,100,0,0,0,100,100,0,100,100,Sun Sep 20 14:57:29 2020,600,The main experiment item,yes,FlankerTask.osexp,C:/Users/chris/OneDrive/Desktop,no,mono,no,18,no,white,no,yes,768,legacy,20,79,C:/Users/chris/OneDrive/Desktop/subject-2.csv,legacy,Lentiform Loewenfeld,3.3.3,0,h,return,h,NA,h,NA,415,3948,55479,NA,415,NA,2,legacy,1024,2,48000,-16,experiment,SSHSS,2,even,241337,6534,205297,NA,217844,2581,232152,242440,2585,149817,NA,242545,242961,NA,242438,242545,Flanker Task,93,52702,101,yes,1024
92.15686275,92.15686275,521.0882353,521.0882353,black,legacy,legacy,legacy,0,congruent,uniform,1,undefined,1,h,101,0,0,0,101,0,101,101,0,0,0,101,101,0,101,101,Sun Sep 20 14:57:29 2020,600,The main experiment item,yes,FlankerTask.osexp,C:/Users/chris/OneDrive/Desktop,no,mono,no,18,no,white,no,yes,768,legacy,21,79,C:/Users/chris/OneDrive/Desktop/subject-2.csv,legacy,Lentiform Loewenfeld,3.3.3,0,h,return,h,NA,h,NA,449,3948,55479,NA,449,NA,2,legacy,1024,2,48000,-16,experiment,HHHHH,2,even,242969,6534,205297,NA,217844,2581,232152,244077,2585,149817,NA,244182,244632,NA,244074,244182,Flanker Task,94,53151,102,yes,1024
92.23300971,92.23300971,519.6019417,519.6019417,black,legacy,legacy,legacy,0,congruent,uniform,1,undefined,1,h,102,0,0,0,102,0,102,102,0,0,0,102,102,0,102,102,Sun Sep 20 14:57:29 2020,600,The main experiment item,yes,FlankerTask.osexp,C:/Users/chris/OneDrive/Desktop,no,mono,no,18,no,white,no,yes,768,legacy,22,79,C:/Users/chris/OneDrive/Desktop/subject-2.csv,legacy,Lentiform Loewenfeld,3.3.3,0,h,return,h,NA,h,NA,368,3948,55479,NA,368,NA,2,legacy,1024,2,48000,-16,experiment,HHHHH,2,even,244642,6534,205297,NA,217844,2581,232152,245757,2585,149817,NA,245862,246231,NA,245754,245862,Flanker Task,95,53519,103,yes,1024
92.30769231,92.30769231,518.8461538,518.8461538,black,legacy,legacy,legacy,0,congruent,uniform,1,undefined,1,s,103,0,0,0,103,0,103,103,0,0,0,103,103,0,103,103,Sun Sep 20 14:57:29 2020,600,The main experiment item,yes,FlankerTask.osexp,C:/Users/chris/OneDrive/Desktop,no,mono,no,18,no,white,no,yes,768,legacy,23,79,C:/Users/chris/OneDrive/Desktop/subject-2.csv,legacy,Lentiform Loewenfeld,3.3.3,0,s,return,h,NA,s,NA,441,3948,55479,NA,441,NA,2,legacy,1024,2,48000,-16,experiment,SSSSS,2,even,246241,6534,205297,NA,217844,2581,232152,247347,2585,149817,NA,247452,247894,NA,247345,247452,Flanker Task,96,53960,104,yes,1024
92.38095238,92.38095238,518.552381,518.552381,black,legacy,legacy,legacy,0,congruent,uniform,1,undefined,1,s,104,0,0,0,104,0,104,104,0,0,0,104,104,0,104,104,Sun Sep 20 14:57:29 2020,600,The main experiment item,yes,FlankerTask.osexp,C:/Users/chris/OneDrive/Desktop,no,mono,no,18,no,white,no,yes,768,legacy,24,79,C:/Users/chris/OneDrive/Desktop/subject-2.csv,legacy,Lentiform Loewenfeld,3.3.3,0,s,return,h,NA,s,NA,488,3948,55479,NA,488,NA,2,legacy,1024,2,48000,-16,experiment,SSSSS,2,even,247903,6534,205297,NA,217844,2581,232152,249026,2585,149817,NA,249132,249622,NA,249023,249131,Flanker Task,97,54448,105,yes,1024
92.45283019,92.45283019,518.0660377,518.0660377,black,legacy,legacy,legacy,0,congruent,uniform,1,undefined,1,h,105,0,0,0,105,0,105,105,0,0,0,105,105,0,105,105,Sun Sep 20 14:57:29 2020,600,The main experiment item,yes,FlankerTask.osexp,C:/Users/chris/OneDrive/Desktop,no,mono,no,18,no,white,no,yes,768,legacy,25,79,C:/Users/chris/OneDrive/Desktop/subject-2.csv,legacy,Lentiform Loewenfeld,3.3.3,0,h,return,h,NA,h,NA,467,3948,55479,NA,467,NA,2,legacy,1024,2,48000,-16,experiment,HHHHH,2,even,249626,6534,205297,NA,217844,2581,232152,250737,2585,149817,NA,250842,251310,NA,250735,250842,Flanker Task,98,54915,106,yes,1024
92.52336449,92.52336449,516.5514019,516.5514019,black,legacy,legacy,legacy,0,congruent,uniform,1,undefined,1,s,106,0,0,0,106,0,106,106,0,0,0,106,106,0,106,106,Sun Sep 20 14:57:29 2020,600,The main experiment item,yes,FlankerTask.osexp,C:/Users/chris/OneDrive/Desktop,no,mono,no,18,no,white,no,yes,768,legacy,26,79,C:/Users/chris/OneDrive/Desktop/subject-2.csv,legacy,Lentiform Loewenfeld,3.3.3,0,s,return,h,NA,s,NA,356,3948,55479,NA,356,NA,2,legacy,1024,2,48000,-16,experiment,SSSSS,2,even,251319,6534,205297,NA,217844,2581,232152,252422,2585,149817,NA,252527,252884,NA,252419,252527,Flanker Task,99,55271,107,yes,1024
92.59259259,92.59259259,515.7685185,515.7685185,black,legacy,legacy,legacy,0,incongruent,uniform,1,undefined,1,h,107,0,0,0,107,0,107,107,0,0,0,107,107,0,107,107,Sun Sep 20 14:57:29 2020,600,The main experiment item,yes,FlankerTask.osexp,C:/Users/chris/OneDrive/Desktop,no,mono,no,18,no,white,no,yes,768,legacy,27,79,C:/Users/chris/OneDrive/Desktop/subject-2.csv,legacy,Lentiform Loewenfeld,3.3.3,0,h,return,h,NA,h,NA,432,3948,55479,NA,432,NA,2,legacy,1024,2,48000,-16,experiment,SSHSS,2,even,252893,6534,205297,NA,217844,2581,232152,254004,2585,149817,NA,254109,254542,NA,254001,254109,Flanker Task,100,55703,108,yes,1024
91.74311927,91.74311927,515.2477064,515.2477064,black,legacy,legacy,legacy,0,congruent,uniform,0,undefined,0,h,108,0,0,0,108,0,108,108,0,0,0,108,108,0,108,108,Sun Sep 20 14:57:29 2020,600,The main experiment item,yes,FlankerTask.osexp,C:/Users/chris/OneDrive/Desktop,no,mono,no,18,no,white,no,yes,768,legacy,28,79,C:/Users/chris/OneDrive/Desktop/subject-2.csv,legacy,Lentiform Loewenfeld,3.3.3,0,s,return,h,NA,s,NA,459,3948,55479,NA,459,NA,2,legacy,1024,2,48000,-16,experiment,HHHHH,2,even,254551,6534,205297,NA,217844,2581,232152,255663,2585,149817,NA,255768,256228,NA,255661,255768,Flanker Task,100,56162,109,yes,1024
91.81818182,91.81818182,514.8363636,514.8363636,black,legacy,legacy,legacy,0,congruent,uniform,1,undefined,1,s,109,0,0,0,109,0,109,109,0,0,0,109,109,0,109,109,Sun Sep 20 14:57:29 2020,600,The main experiment item,yes,FlankerTask.osexp,C:/Users/chris/OneDrive/Desktop,no,mono,no,18,no,white,no,yes,768,legacy,29,79,C:/Users/chris/OneDrive/Desktop/subject-2.csv,legacy,Lentiform Loewenfeld,3.3.3,0,s,return,h,NA,s,NA,470,3948,55479,NA,470,NA,2,legacy,1024,2,48000,-16,experiment,SSSSS,2,even,256743,6534,205297,NA,256238,2581,232152,257842,2585,149817,NA,257947,258418,NA,257839,257947,Flanker Task,101,56632,110,yes,1024
91.89189189,91.89189189,515.5045045,515.5045045,black,legacy,legacy,legacy,0,incongruent,uniform,1,undefined,1,h,110,0,0,0,110,0,110,110,0,0,0,110,110,0,110,110,Sun Sep 20 14:57:29 2020,600,The main experiment item,yes,FlankerTask.osexp,C:/Users/chris/OneDrive/Desktop,no,mono,no,18,no,white,no,yes,768,legacy,30,79,C:/Users/chris/OneDrive/Desktop/subject-2.csv,legacy,Lentiform Loewenfeld,3.3.3,0,h,return,h,NA,h,NA,589,3948,55479,NA,589,NA,2,legacy,1024,2,48000,-16,experiment,SSHSS,2,even,258427,6534,205297,NA,256238,2581,232152,259531,2585,149817,NA,259636,260226,NA,259529,259636,Flanker Task,102,57221,111,yes,1024
91.96428571,91.96428571,523.2678571,523.2678571,black,legacy,legacy,legacy,0,incongruent,uniform,1,undefined,1,s,111,0,0,0,111,0,111,111,0,0,0,111,111,0,111,111,Sun Sep 20 14:57:29 2020,600,The main experiment item,yes,FlankerTask.osexp,C:/Users/chris/OneDrive/Desktop,no,mono,no,18,no,white,no,yes,768,legacy,31,79,C:/Users/chris/OneDrive/Desktop/subject-2.csv,legacy,Lentiform Loewenfeld,3.3.3,0,s,return,h,NA,s,NA,1385,3948,55479,NA,1385,NA,2,legacy,1024,2,48000,-16,experiment,HHSHH,2,even,260235,6534,205297,NA,256238,2581,232152,261338,2585,149817,NA,261443,262829,NA,261335,261443,Flanker Task,103,58606,112,yes,1024
92.03539823,92.03539823,523.9911504,523.9911504,black,legacy,legacy,legacy,0,incongruent,uniform,1,undefined,1,s,112,0,0,0,112,0,112,112,0,0,0,112,112,0,112,112,Sun Sep 20 14:57:29 2020,600,The main experiment item,yes,FlankerTask.osexp,C:/Users/chris/OneDrive/Desktop,no,mono,no,18,no,white,no,yes,768,legacy,32,79,C:/Users/chris/OneDrive/Desktop/subject-2.csv,legacy,Lentiform Loewenfeld,3.3.3,0,s,return,h,NA,s,NA,605,3948,55479,NA,605,NA,2,legacy,1024,2,48000,-16,experiment,HHSHH,2,even,263343,6534,205297,NA,256238,2581,262838,264443,2585,149817,NA,264548,265154,NA,264440,264548,Flanker Task,104,59211,113,yes,1024
92.10526316,92.10526316,524.2105263,524.2105263,black,legacy,legacy,legacy,0,congruent,uniform,1,undefined,1,h,113,0,0,0,113,0,113,113,0,0,0,113,113,0,113,113,Sun Sep 20 14:57:29 2020,600,The main experiment item,yes,FlankerTask.osexp,C:/Users/chris/OneDrive/Desktop,no,mono,no,18,no,white,no,yes,768,legacy,33,79,C:/Users/chris/OneDrive/Desktop/subject-2.csv,legacy,Lentiform Loewenfeld,3.3.3,0,h,return,h,NA,h,NA,549,3948,55479,NA,549,NA,2,legacy,1024,2,48000,-16,experiment,HHHHH,2,even,265668,6534,205297,NA,256238,2581,265163,266777,2585,149817,NA,266882,267432,NA,266774,266882,Flanker Task,105,59760,114,yes,1024
92.17391304,92.17391304,523.7913043,523.7913043,black,legacy,legacy,legacy,0,incongruent,uniform,1,undefined,1,s,114,0,0,0,114,0,114,114,0,0,0,114,114,0,114,114,Sun Sep 20 14:57:29 2020,600,The main experiment item,yes,FlankerTask.osexp,C:/Users/chris/OneDrive/Desktop,no,mono,no,18,no,white,no,yes,768,legacy,34,79,C:/Users/chris/OneDrive/Desktop/subject-2.csv,legacy,Lentiform Loewenfeld,3.3.3,0,s,return,h,NA,s,NA,476,3948,55479,NA,476,NA,2,legacy,1024,2,48000,-16,experiment,HHSHH,2,even,267441,6534,205297,NA,256238,2581,265163,268537,2585,149817,NA,268642,269119,NA,268534,268642,Flanker Task,106,60236,115,yes,1024
92.24137931,92.24137931,523.2586207,523.2586207,black,legacy,legacy,legacy,0,incongruent,uniform,1,undefined,1,s,115,0,0,0,115,0,115,115,0,0,0,115,115,0,115,115,Sun Sep 20 14:57:29 2020,600,The main experiment item,yes,FlankerTask.osexp,C:/Users/chris/OneDrive/Desktop,no,mono,no,18,no,white,no,yes,768,legacy,35,79,C:/Users/chris/OneDrive/Desktop/subject-2.csv,legacy,Lentiform Loewenfeld,3.3.3,0,s,return,h,NA,s,NA,462,3948,55479,NA,462,NA,2,legacy,1024,2,48000,-16,experiment,HHSHH,2,even,269128,6534,205297,NA,256238,2581,265163,270237,2585,149817,NA,270344,270807,NA,270234,270344,Flanker Task,107,60698,116,yes,1024
92.30769231,92.30769231,523.0683761,523.0683761,black,legacy,legacy,legacy,0,congruent,uniform,1,undefined,1,s,116,0,0,0,116,0,116,116,0,0,0,116,116,0,116,116,Sun Sep 20 14:57:29 2020,600,The main experiment item,yes,FlankerTask.osexp,C:/Users/chris/OneDrive/Desktop,no,mono,no,18,no,white,no,yes,768,legacy,36,79,C:/Users/chris/OneDrive/Desktop/subject-2.csv,legacy,Lentiform Loewenfeld,3.3.3,0,s,return,h,NA,s,NA,501,3948,55479,NA,501,NA,2,legacy,1024,2,48000,-16,experiment,SSSSS,2,even,270815,6534,205297,NA,256238,2581,265163,271918,2585,149817,NA,272023,272525,NA,271915,272023,Flanker Task,108,61199,117,yes,1024
92.37288136,92.37288136,522.7542373,522.7542373,black,legacy,legacy,legacy,0,congruent,uniform,1,undefined,1,s,117,0,0,0,117,0,117,117,0,0,0,117,117,0,117,117,Sun Sep 20 14:57:29 2020,600,The main experiment item,yes,FlankerTask.osexp,C:/Users/chris/OneDrive/Desktop,no,mono,no,18,no,white,no,yes,768,legacy,37,79,C:/Users/chris/OneDrive/Desktop/subject-2.csv,legacy,Lentiform Loewenfeld,3.3.3,0,s,return,h,NA,s,NA,486,3948,55479,NA,486,NA,2,legacy,1024,2,48000,-16,experiment,SSSSS,2,even,272534,6534,205297,NA,256238,2581,265163,273653,2585,149817,NA,273758,274246,NA,273651,273758,Flanker Task,109,61685,118,yes,1024
92.43697479,92.43697479,522.9747899,522.9747899,black,legacy,legacy,legacy,0,congruent,uniform,1,undefined,1,s,118,0,0,0,118,0,118,118,0,0,0,118,118,0,118,118,Sun Sep 20 14:57:29 2020,600,The main experiment item,yes,FlankerTask.osexp,C:/Users/chris/OneDrive/Desktop,no,mono,no,18,no,white,no,yes,768,legacy,38,79,C:/Users/chris/OneDrive/Desktop/subject-2.csv,legacy,Lentiform Loewenfeld,3.3.3,0,s,return,h,NA,s,NA,549,3948,55479,NA,549,NA,2,legacy,1024,2,48000,-16,experiment,SSSSS,2,even,274255,6534,205297,NA,256238,2581,265163,275364,2585,149817,NA,275470,276021,NA,275362,275469,Flanker Task,110,62234,119,yes,1024
92.5,92.5,525.1416667,525.1416667,black,legacy,legacy,legacy,0,incongruent,uniform,1,undefined,1,s,119,0,0,0,119,0,119,119,0,0,0,119,119,0,119,119,Sun Sep 20 14:57:29 2020,600,The main experiment item,yes,FlankerTask.osexp,C:/Users/chris/OneDrive/Desktop,no,mono,no,18,no,white,no,yes,768,legacy,39,79,C:/Users/chris/OneDrive/Desktop/subject-2.csv,legacy,Lentiform Loewenfeld,3.3.3,0,s,return,h,NA,s,NA,783,3948,55479,NA,783,NA,2,legacy,1024,2,48000,-16,experiment,HHSHH,2,even,276030,6534,205297,NA,256238,2581,265163,277138,2585,149817,NA,277243,278027,NA,277136,277243,Flanker Task,111,63017,120,yes,1024
92.56198347,92.56198347,525.8760331,525.8760331,black,legacy,legacy,legacy,0,incongruent,uniform,1,undefined,1,s,120,0,0,0,120,0,120,120,0,0,0,120,120,0,120,120,Sun Sep 20 14:57:29 2020,600,The main experiment item,yes,FlankerTask.osexp,C:/Users/chris/OneDrive/Desktop,no,mono,no,18,no,white,no,yes,768,legacy,40,79,C:/Users/chris/OneDrive/Desktop/subject-2.csv,legacy,Lentiform Loewenfeld,3.3.3,0,s,return,h,NA,s,NA,614,3948,55479,NA,614,NA,2,legacy,1024,2,48000,-16,experiment,HHSHH,2,even,278542,6534,205297,NA,256238,2581,278037,279648,2585,149817,NA,279753,280368,NA,279645,279753,Flanker Task,112,63631,121,yes,1024
92.62295082,92.62295082,524.9754098,524.9754098,black,legacy,legacy,legacy,0,congruent,uniform,1,undefined,1,s,121,0,0,0,121,0,121,121,0,0,0,121,121,0,121,121,Sun Sep 20 14:57:29 2020,600,The main experiment item,yes,FlankerTask.osexp,C:/Users/chris/OneDrive/Desktop,no,mono,no,18,no,white,no,yes,768,legacy,41,79,C:/Users/chris/OneDrive/Desktop/subject-2.csv,legacy,Lentiform Loewenfeld,3.3.3,0,s,return,h,NA,s,NA,416,3948,55479,NA,416,NA,2,legacy,1024,2,48000,-16,experiment,SSSSS,2,even,280882,6534,205297,NA,256238,2581,280377,281988,2585,149817,NA,282093,282510,NA,281985,282093,Flanker Task,113,64047,122,yes,1024
92.68292683,92.68292683,524.203252,524.203252,black,legacy,legacy,legacy,0,congruent,uniform,1,undefined,1,h,122,0,0,0,122,0,122,122,0,0,0,122,122,0,122,122,Sun Sep 20 14:57:29 2020,600,The main experiment item,yes,FlankerTask.osexp,C:/Users/chris/OneDrive/Desktop,no,mono,no,18,no,white,no,yes,768,legacy,42,79,C:/Users/chris/OneDrive/Desktop/subject-2.csv,legacy,Lentiform Loewenfeld,3.3.3,0,h,return,h,NA,h,NA,430,3948,55479,NA,430,NA,2,legacy,1024,2,48000,-16,experiment,HHHHH,2,even,282519,6534,205297,NA,256238,2581,280377,283623,2585,149817,NA,283728,284160,NA,283620,283728,Flanker Task,114,64477,123,yes,1024
92.74193548,92.74193548,524.3225806,524.3225806,black,legacy,legacy,legacy,0,congruent,uniform,1,undefined,1,s,123,0,0,0,123,0,123,123,0,0,0,123,123,0,123,123,Sun Sep 20 14:57:29 2020,600,The main experiment item,yes,FlankerTask.osexp,C:/Users/chris/OneDrive/Desktop,no,mono,no,18,no,white,no,yes,768,legacy,43,79,C:/Users/chris/OneDrive/Desktop/subject-2.csv,legacy,Lentiform Loewenfeld,3.3.3,0,s,return,h,NA,s,NA,539,3948,55479,NA,539,NA,2,legacy,1024,2,48000,-16,experiment,SSSSS,2,even,284169,6534,205297,NA,256238,2581,280377,285272,2585,149817,NA,285377,285917,NA,285270,285377,Flanker Task,115,65016,124,yes,1024
92.8,92.8,524.792,524.792,black,legacy,legacy,legacy,0,congruent,uniform,1,undefined,1,s,124,0,0,0,124,0,124,124,0,0,0,124,124,0,124,124,Sun Sep 20 14:57:29 2020,600,The main experiment item,yes,FlankerTask.osexp,C:/Users/chris/OneDrive/Desktop,no,mono,no,18,no,white,no,yes,768,legacy,44,79,C:/Users/chris/OneDrive/Desktop/subject-2.csv,legacy,Lentiform Loewenfeld,3.3.3,0,s,return,h,NA,s,NA,583,3948,55479,NA,583,NA,2,legacy,1024,2,48000,-16,experiment,SSSSS,2,even,285926,6534,205297,NA,256238,2581,280377,287035,2585,149817,NA,287140,287724,NA,287033,287140,Flanker Task,116,65599,125,yes,1024
92.85714286,92.85714286,525.3015873,525.3015873,black,legacy,legacy,legacy,0,incongruent,uniform,1,undefined,1,h,125,0,0,0,125,0,125,125,0,0,0,125,125,0,125,125,Sun Sep 20 14:57:29 2020,600,The main experiment item,yes,FlankerTask.osexp,C:/Users/chris/OneDrive/Desktop,no,mono,no,18,no,white,no,yes,768,legacy,45,79,C:/Users/chris/OneDrive/Desktop/subject-2.csv,legacy,Lentiform Loewenfeld,3.3.3,0,h,return,h,NA,h,NA,589,3948,55479,NA,589,NA,2,legacy,1024,2,48000,-16,experiment,SSHSS,2,even,287733,6534,205297,NA,256238,2581,280377,288837,2585,149817,NA,288942,289532,NA,288834,288942,Flanker Task,117,66188,126,yes,1024
92.91338583,92.91338583,527.007874,527.007874,black,legacy,legacy,legacy,0,congruent,uniform,1,undefined,1,h,126,0,0,0,126,0,126,126,0,0,0,126,126,0,126,126,Sun Sep 20 14:57:29 2020,600,The main experiment item,yes,FlankerTask.osexp,C:/Users/chris/OneDrive/Desktop,no,mono,no,18,no,white,no,yes,768,legacy,46,79,C:/Users/chris/OneDrive/Desktop/subject-2.csv,legacy,Lentiform Loewenfeld,3.3.3,0,h,return,h,NA,h,NA,742,3948,55479,NA,742,NA,2,legacy,1024,2,48000,-16,experiment,HHHHH,2,even,289541,6534,205297,NA,256238,2581,280377,290642,2585,149817,NA,290748,291491,NA,290640,290747,Flanker Task,118,66930,127,yes,1024
92.96875,92.96875,527.2578125,527.2578125,black,legacy,legacy,legacy,0,incongruent,uniform,1,undefined,1,s,127,0,0,0,127,0,127,127,0,0,0,127,127,0,127,127,Sun Sep 20 14:57:29 2020,600,The main experiment item,yes,FlankerTask.osexp,C:/Users/chris/OneDrive/Desktop,no,mono,no,18,no,white,no,yes,768,legacy,47,79,C:/Users/chris/OneDrive/Desktop/subject-2.csv,legacy,Lentiform Loewenfeld,3.3.3,0,s,return,h,NA,s,NA,559,3948,55479,NA,559,NA,2,legacy,1024,2,48000,-16,experiment,HHSHH,2,even,292006,6534,205297,NA,256238,2581,291500,293110,2585,149817,NA,293215,293775,NA,293108,293215,Flanker Task,119,67489,128,yes,1024
93.02325581,93.02325581,527.2635659,527.2635659,black,legacy,legacy,legacy,0,congruent,uniform,1,undefined,1,h,128,0,0,0,128,0,128,128,0,0,0,128,128,0,128,128,Sun Sep 20 14:57:29 2020,600,The main experiment item,yes,FlankerTask.osexp,C:/Users/chris/OneDrive/Desktop,no,mono,no,18,no,white,no,yes,768,legacy,48,79,C:/Users/chris/OneDrive/Desktop/subject-2.csv,legacy,Lentiform Loewenfeld,3.3.3,0,h,return,h,NA,h,NA,528,3948,55479,NA,528,NA,2,legacy,1024,2,48000,-16,experiment,HHHHH,2,even,293784,6534,205297,NA,256238,2581,291500,294893,2585,149817,NA,294998,295527,NA,294890,294998,Flanker Task,120,68017,129,yes,1024
93.07692308,93.07692308,526.2384615,526.2384615,black,legacy,legacy,legacy,0,congruent,uniform,1,undefined,1,h,129,0,0,0,129,0,129,129,0,0,0,129,129,0,129,129,Sun Sep 20 14:57:29 2020,600,The main experiment item,yes,FlankerTask.osexp,C:/Users/chris/OneDrive/Desktop,no,mono,no,18,no,white,no,yes,768,legacy,49,79,C:/Users/chris/OneDrive/Desktop/subject-2.csv,legacy,Lentiform Loewenfeld,3.3.3,0,h,return,h,NA,h,NA,394,3948,55479,NA,394,NA,2,legacy,1024,2,48000,-16,experiment,HHHHH,2,even,295536,6534,205297,NA,256238,2581,291500,296651,2585,149817,NA,296756,297151,NA,296648,296756,Flanker Task,121,68411,130,yes,1024
93.12977099,93.12977099,525.6641221,525.6641221,black,legacy,legacy,legacy,0,congruent,uniform,1,undefined,1,h,130,0,0,0,130,0,130,130,0,0,0,130,130,0,130,130,Sun Sep 20 14:57:29 2020,600,The main experiment item,yes,FlankerTask.osexp,C:/Users/chris/OneDrive/Desktop,no,mono,no,18,no,white,no,yes,768,legacy,50,79,C:/Users/chris/OneDrive/Desktop/subject-2.csv,legacy,Lentiform Loewenfeld,3.3.3,0,h,return,h,NA,h,NA,451,3948,55479,NA,451,NA,2,legacy,1024,2,48000,-16,experiment,HHHHH,2,even,297155,6534,205297,NA,256238,2581,291500,298258,2585,149817,NA,298363,298815,NA,298255,298363,Flanker Task,122,68862,131,yes,1024
93.18181818,93.18181818,525.5606061,525.5606061,black,legacy,legacy,legacy,0,incongruent,uniform,1,undefined,1,s,131,0,0,0,131,0,131,131,0,0,0,131,131,0,131,131,Sun Sep 20 14:57:29 2020,600,The main experiment item,yes,FlankerTask.osexp,C:/Users/chris/OneDrive/Desktop,no,mono,no,18,no,white,no,yes,768,legacy,51,79,C:/Users/chris/OneDrive/Desktop/subject-2.csv,legacy,Lentiform Loewenfeld,3.3.3,0,s,return,h,NA,s,NA,512,3948,55479,NA,512,NA,2,legacy,1024,2,48000,-16,experiment,HHSHH,2,even,298824,6534,205297,NA,256238,2581,291500,299946,2585,149817,NA,300051,300565,NA,299943,300051,Flanker Task,123,69374,132,yes,1024
93.23308271,93.23308271,524.7067669,524.7067669,black,legacy,legacy,legacy,0,incongruent,uniform,1,undefined,1,h,132,0,0,0,132,0,132,132,0,0,0,132,132,0,132,132,Sun Sep 20 14:57:29 2020,600,The main experiment item,yes,FlankerTask.osexp,C:/Users/chris/OneDrive/Desktop,no,mono,no,18,no,white,no,yes,768,legacy,52,79,C:/Users/chris/OneDrive/Desktop/subject-2.csv,legacy,Lentiform Loewenfeld,3.3.3,0,h,return,h,NA,h,NA,412,3948,55479,NA,412,NA,2,legacy,1024,2,48000,-16,experiment,SSHSS,2,even,300573,6534,205297,NA,256238,2581,291500,301679,2585,149817,NA,301784,302197,NA,301676,301784,Flanker Task,124,69786,133,yes,1024
93.28358209,93.28358209,524.4776119,524.4776119,black,legacy,legacy,legacy,0,congruent,uniform,1,undefined,1,h,133,0,0,0,133,0,133,133,0,0,0,133,133,0,133,133,Sun Sep 20 14:57:29 2020,600,The main experiment item,yes,FlankerTask.osexp,C:/Users/chris/OneDrive/Desktop,no,mono,no,18,no,white,no,yes,768,legacy,53,79,C:/Users/chris/OneDrive/Desktop/subject-2.csv,legacy,Lentiform Loewenfeld,3.3.3,0,h,return,h,NA,h,NA,494,3948,55479,NA,494,NA,2,legacy,1024,2,48000,-16,experiment,HHHHH,2,even,302206,6534,205297,NA,256238,2581,291500,303308,2585,149817,NA,303413,303908,NA,303305,303413,Flanker Task,125,70280,134,yes,1024
93.33333333,93.33333333,524.8518519,524.8518519,black,legacy,legacy,legacy,0,incongruent,uniform,1,undefined,1,s,134,0,0,0,134,0,134,134,0,0,0,134,134,0,134,134,Sun Sep 20 14:57:29 2020,600,The main experiment item,yes,FlankerTask.osexp,C:/Users/chris/OneDrive/Desktop,no,mono,no,18,no,white,no,yes,768,legacy,54,79,C:/Users/chris/OneDrive/Desktop/subject-2.csv,legacy,Lentiform Loewenfeld,3.3.3,0,s,return,h,NA,s,NA,575,3948,55479,NA,575,NA,2,legacy,1024,2,48000,-16,experiment,HHSHH,2,even,303917,6534,205297,NA,256238,2581,291500,305033,2585,149817,NA,305138,305715,NA,305031,305138,Flanker Task,126,70855,135,yes,1024
93.38235294,93.38235294,525.2352941,525.2352941,black,legacy,legacy,legacy,0,congruent,uniform,1,undefined,1,s,135,0,0,0,135,0,135,135,0,0,0,135,135,0,135,135,Sun Sep 20 14:57:29 2020,600,The main experiment item,yes,FlankerTask.osexp,C:/Users/chris/OneDrive/Desktop,no,mono,no,18,no,white,no,yes,768,legacy,55,79,C:/Users/chris/OneDrive/Desktop/subject-2.csv,legacy,Lentiform Loewenfeld,3.3.3,0,s,return,h,NA,s,NA,577,3948,55479,NA,577,NA,2,legacy,1024,2,48000,-16,experiment,SSSSS,2,even,305724,6534,205297,NA,256238,2581,291500,306846,2585,149817,NA,306951,307530,NA,306843,306951,Flanker Task,127,71432,136,yes,1024
93.43065693,93.43065693,524.6788321,524.6788321,black,legacy,legacy,legacy,0,incongruent,uniform,1,undefined,1,h,136,0,0,0,136,0,136,136,0,0,0,136,136,0,136,136,Sun Sep 20 14:57:29 2020,600,The main experiment item,yes,FlankerTask.osexp,C:/Users/chris/OneDrive/Desktop,no,mono,no,18,no,white,no,yes,768,legacy,56,79,C:/Users/chris/OneDrive/Desktop/subject-2.csv,legacy,Lentiform Loewenfeld,3.3.3,0,h,return,h,NA,h,NA,449,3948,55479,NA,449,NA,2,legacy,1024,2,48000,-16,experiment,SSHSS,2,even,307539,6534,205297,NA,256238,2581,291500,308640,2585,149817,NA,308745,309196,NA,308638,308745,Flanker Task,128,71881,137,yes,1024
93.47826087,93.47826087,523.615942,523.615942,black,legacy,legacy,legacy,0,incongruent,uniform,1,undefined,1,s,137,0,0,0,137,0,137,137,0,0,0,137,137,0,137,137,Sun Sep 20 14:57:29 2020,600,The main experiment item,yes,FlankerTask.osexp,C:/Users/chris/OneDrive/Desktop,no,mono,no,18,no,white,no,yes,768,legacy,57,79,C:/Users/chris/OneDrive/Desktop/subject-2.csv,legacy,Lentiform Loewenfeld,3.3.3,0,s,return,h,NA,s,NA,378,3948,55479,NA,378,NA,2,legacy,1024,2,48000,-16,experiment,HHSHH,2,even,309204,6534,205297,NA,256238,2581,291500,310317,2585,149817,NA,310422,310801,NA,310315,310422,Flanker Task,129,72259,138,yes,1024
92.8057554,92.8057554,522.0719424,522.0719424,black,legacy,legacy,legacy,0,congruent,uniform,0,undefined,0,s,138,0,0,0,138,0,138,138,0,0,0,138,138,0,138,138,Sun Sep 20 14:57:29 2020,600,The main experiment item,yes,FlankerTask.osexp,C:/Users/chris/OneDrive/Desktop,no,mono,no,18,no,white,no,yes,768,legacy,58,79,C:/Users/chris/OneDrive/Desktop/subject-2.csv,legacy,Lentiform Loewenfeld,3.3.3,0,h,return,h,NA,h,NA,309,3948,55479,NA,309,NA,2,legacy,1024,2,48000,-16,experiment,SSSSS,2,even,310805,6534,205297,NA,256238,2581,291500,311908,2585,149817,NA,312013,312323,NA,311906,312013,Flanker Task,129,72568,139,yes,1024
92.85714286,92.85714286,521.2571429,521.2571429,black,legacy,legacy,legacy,0,congruent,uniform,1,undefined,1,s,139,0,0,0,139,0,139,139,0,0,0,139,139,0,139,139,Sun Sep 20 14:57:29 2020,600,The main experiment item,yes,FlankerTask.osexp,C:/Users/chris/OneDrive/Desktop,no,mono,no,18,no,white,no,yes,768,legacy,59,79,C:/Users/chris/OneDrive/Desktop/subject-2.csv,legacy,Lentiform Loewenfeld,3.3.3,0,s,return,h,NA,s,NA,408,3948,55479,NA,408,NA,2,legacy,1024,2,48000,-16,experiment,SSSSS,2,even,312838,6534,205297,NA,312333,2581,291500,313941,2585,149817,NA,314046,314455,NA,313938,314046,Flanker Task,130,72976,140,yes,1024
92.90780142,92.90780142,520.6382979,520.6382979,black,legacy,legacy,legacy,0,congruent,uniform,1,undefined,1,s,140,0,0,0,140,0,140,140,0,0,0,140,140,0,140,140,Sun Sep 20 14:57:29 2020,600,The main experiment item,yes,FlankerTask.osexp,C:/Users/chris/OneDrive/Desktop,no,mono,no,18,no,white,no,yes,768,legacy,60,79,C:/Users/chris/OneDrive/Desktop/subject-2.csv,legacy,Lentiform Loewenfeld,3.3.3,0,s,return,h,NA,s,NA,434,3948,55479,NA,434,NA,2,legacy,1024,2,48000,-16,experiment,SSSSS,2,even,314464,6534,205297,NA,312333,2581,291500,315570,2585,149817,NA,315675,316111,NA,315567,315675,Flanker Task,131,73410,141,yes,1024
92.25352113,92.25352113,519.2957746,519.2957746,black,legacy,legacy,legacy,0,incongruent,uniform,0,undefined,0,h,141,0,0,0,141,0,141,141,0,0,0,141,141,0,141,141,Sun Sep 20 14:57:29 2020,600,The main experiment item,yes,FlankerTask.osexp,C:/Users/chris/OneDrive/Desktop,no,mono,no,18,no,white,no,yes,768,legacy,61,79,C:/Users/chris/OneDrive/Desktop/subject-2.csv,legacy,Lentiform Loewenfeld,3.3.3,0,s,return,h,NA,s,NA,330,3948,55479,NA,330,NA,2,legacy,1024,2,48000,-16,experiment,SSHSS,2,even,316120,6534,205297,NA,312333,2581,291500,317242,2585,149817,NA,317347,317678,NA,317239,317347,Flanker Task,131,73740,142,yes,1024
91.60839161,91.60839161,518.6783217,518.6783217,black,legacy,legacy,legacy,0,incongruent,uniform,0,undefined,0,h,142,0,0,0,142,0,142,142,0,0,0,142,142,0,142,142,Sun Sep 20 14:57:29 2020,600,The main experiment item,yes,FlankerTask.osexp,C:/Users/chris/OneDrive/Desktop,no,mono,no,18,no,white,no,yes,768,legacy,62,79,C:/Users/chris/OneDrive/Desktop/subject-2.csv,legacy,Lentiform Loewenfeld,3.3.3,0,s,return,h,NA,s,NA,431,3948,55479,NA,431,NA,2,legacy,1024,2,48000,-16,experiment,SSHSS,2,even,318194,6534,205297,NA,317689,2581,291500,319291,2585,149817,NA,319396,319828,NA,319288,319396,Flanker Task,131,74171,143,yes,1024
91.66666667,91.66666667,518,518,black,legacy,legacy,legacy,0,congruent,uniform,1,undefined,1,h,143,0,0,0,143,0,143,143,0,0,0,143,143,0,143,143,Sun Sep 20 14:57:29 2020,600,The main experiment item,yes,FlankerTask.osexp,C:/Users/chris/OneDrive/Desktop,no,mono,no,18,no,white,no,yes,768,legacy,63,79,C:/Users/chris/OneDrive/Desktop/subject-2.csv,legacy,Lentiform Loewenfeld,3.3.3,0,h,return,h,NA,h,NA,421,3948,55479,NA,421,NA,2,legacy,1024,2,48000,-16,experiment,HHHHH,2,even,320342,6534,205297,NA,319837,2581,291500,321444,2585,149817,NA,321549,321971,NA,321442,321549,Flanker Task,132,74592,144,yes,1024
91.72413793,91.72413793,517.0413793,517.0413793,black,legacy,legacy,legacy,0,incongruent,uniform,1,undefined,1,s,144,0,0,0,144,0,144,144,0,0,0,144,144,0,144,144,Sun Sep 20 14:57:29 2020,600,The main experiment item,yes,FlankerTask.osexp,C:/Users/chris/OneDrive/Desktop,no,mono,no,18,no,white,no,yes,768,legacy,64,79,C:/Users/chris/OneDrive/Desktop/subject-2.csv,legacy,Lentiform Loewenfeld,3.3.3,0,s,return,h,NA,s,NA,379,3948,55479,NA,379,NA,2,legacy,1024,2,48000,-16,experiment,HHSHH,2,even,321980,6534,205297,NA,319837,2581,291500,323093,2585,149817,NA,323198,323578,NA,323091,323198,Flanker Task,133,74971,145,yes,1024
91.78082192,91.78082192,516.390411,516.390411,black,legacy,legacy,legacy,0,congruent,uniform,1,undefined,1,s,145,0,0,0,145,0,145,145,0,0,0,145,145,0,145,145,Sun Sep 20 14:57:29 2020,600,The main experiment item,yes,FlankerTask.osexp,C:/Users/chris/OneDrive/Desktop,no,mono,no,18,no,white,no,yes,768,legacy,65,79,C:/Users/chris/OneDrive/Desktop/subject-2.csv,legacy,Lentiform Loewenfeld,3.3.3,0,s,return,h,NA,s,NA,422,3948,55479,NA,422,NA,2,legacy,1024,2,48000,-16,experiment,SSSSS,2,even,323587,6534,205297,NA,319837,2581,291500,324690,2585,149817,NA,324795,325218,NA,324687,324795,Flanker Task,134,75393,146,yes,1024
91.15646259,91.15646259,515.2312925,515.2312925,black,legacy,legacy,legacy,0,incongruent,uniform,0,undefined,0,s,146,0,0,0,146,0,146,146,0,0,0,146,146,0,146,146,Sun Sep 20 14:57:29 2020,600,The main experiment item,yes,FlankerTask.osexp,C:/Users/chris/OneDrive/Desktop,no,mono,no,18,no,white,no,yes,768,legacy,66,79,C:/Users/chris/OneDrive/Desktop/subject-2.csv,legacy,Lentiform Loewenfeld,3.3.3,0,h,return,h,NA,h,NA,346,3948,55479,NA,346,NA,2,legacy,1024,2,48000,-16,experiment,HHSHH,2,even,325227,6534,205297,NA,319837,2581,291500,326335,2585,149817,NA,326440,326787,NA,326333,326440,Flanker Task,134,75739,147,yes,1024
91.21621622,91.21621622,516.7364865,516.7364865,black,legacy,legacy,legacy,0,incongruent,uniform,1,undefined,1,s,147,0,0,0,147,0,147,147,0,0,0,147,147,0,147,147,Sun Sep 20 14:57:29 2020,600,The main experiment item,yes,FlankerTask.osexp,C:/Users/chris/OneDrive/Desktop,no,mono,no,18,no,white,no,yes,768,legacy,67,79,C:/Users/chris/OneDrive/Desktop/subject-2.csv,legacy,Lentiform Loewenfeld,3.3.3,0,s,return,h,NA,s,NA,738,3948,55479,NA,738,NA,2,legacy,1024,2,48000,-16,experiment,HHSHH,2,even,327301,6534,205297,NA,326796,2581,291500,328402,2585,149817,NA,328507,329246,NA,328399,328507,Flanker Task,135,76477,148,yes,1024
91.27516779,91.27516779,516.3624161,516.3624161,black,legacy,legacy,legacy,0,incongruent,uniform,1,undefined,1,s,148,0,0,0,148,0,148,148,0,0,0,148,148,0,148,148,Sun Sep 20 14:57:29 2020,600,The main experiment item,yes,FlankerTask.osexp,C:/Users/chris/OneDrive/Desktop,no,mono,no,18,no,white,no,yes,768,legacy,68,79,C:/Users/chris/OneDrive/Desktop/subject-2.csv,legacy,Lentiform Loewenfeld,3.3.3,0,s,return,h,NA,s,NA,461,3948,55479,NA,461,NA,2,legacy,1024,2,48000,-16,experiment,HHSHH,2,even,329761,6534,205297,NA,326796,2581,329255,330868,2585,149817,NA,330973,331436,NA,330865,330973,Flanker Task,136,76938,149,yes,1024
91.33333333,91.33333333,515.4066667,515.4066667,black,legacy,legacy,legacy,0,incongruent,uniform,1,undefined,1,h,149,0,0,0,149,0,149,149,0,0,0,149,149,0,149,149,Sun Sep 20 14:57:29 2020,600,The main experiment item,yes,FlankerTask.osexp,C:/Users/chris/OneDrive/Desktop,no,mono,no,18,no,white,no,yes,768,legacy,69,79,C:/Users/chris/OneDrive/Desktop/subject-2.csv,legacy,Lentiform Loewenfeld,3.3.3,0,h,return,h,NA,h,NA,373,3948,55479,NA,373,NA,2,legacy,1024,2,48000,-16,experiment,SSHSS,2,even,331445,6534,205297,NA,326796,2581,329255,332549,2585,149817,NA,332654,333029,NA,332546,332654,Flanker Task,137,77311,150,yes,1024
90.72847682,90.72847682,513.8211921,513.8211921,black,legacy,legacy,legacy,0,incongruent,uniform,0,undefined,0,h,150,0,0,0,150,0,150,150,0,0,0,150,150,0,150,150,Sun Sep 20 14:57:29 2020,600,The main experiment item,yes,FlankerTask.osexp,C:/Users/chris/OneDrive/Desktop,no,mono,no,18,no,white,no,yes,768,legacy,70,79,C:/Users/chris/OneDrive/Desktop/subject-2.csv,legacy,Lentiform Loewenfeld,3.3.3,0,s,return,h,NA,s,NA,276,3948,55479,NA,276,NA,2,legacy,1024,2,48000,-16,experiment,SSHSS,2,even,333038,6534,205297,NA,326796,2581,329255,334141,2585,149817,NA,334246,334523,NA,334138,334246,Flanker Task,137,77587,151,yes,1024
90.78947368,90.78947368,513.1513158,513.1513158,black,legacy,legacy,legacy,0,congruent,uniform,1,undefined,1,h,151,0,0,0,151,0,151,151,0,0,0,151,151,0,151,151,Sun Sep 20 14:57:29 2020,600,The main experiment item,yes,FlankerTask.osexp,C:/Users/chris/OneDrive/Desktop,no,mono,no,18,no,white,no,yes,768,legacy,71,79,C:/Users/chris/OneDrive/Desktop/subject-2.csv,legacy,Lentiform Loewenfeld,3.3.3,0,h,return,h,NA,h,NA,412,3948,55479,NA,412,NA,2,legacy,1024,2,48000,-16,experiment,HHHHH,2,even,335037,6534,205297,NA,334532,2581,329255,336141,2585,149817,NA,336246,336660,NA,336138,336246,Flanker Task,138,77999,152,yes,1024
90.19607843,90.19607843,513.2875817,513.2875817,black,legacy,legacy,legacy,0,incongruent,uniform,0,undefined,0,s,152,0,0,0,152,0,152,152,0,0,0,152,152,0,152,152,Sun Sep 20 14:57:29 2020,600,The main experiment item,yes,FlankerTask.osexp,C:/Users/chris/OneDrive/Desktop,no,mono,no,18,no,white,no,yes,768,legacy,72,79,C:/Users/chris/OneDrive/Desktop/subject-2.csv,legacy,Lentiform Loewenfeld,3.3.3,0,h,return,h,NA,h,NA,534,3948,55479,NA,534,NA,2,legacy,1024,2,48000,-16,experiment,HHSHH,2,even,336665,6534,205297,NA,334532,2581,329255,337769,2585,149817,NA,337875,338410,NA,337767,337875,Flanker Task,138,78533,153,yes,1024
90.25974026,90.25974026,513.2662338,513.2662338,black,legacy,legacy,legacy,0,congruent,uniform,1,undefined,1,s,153,0,0,0,153,0,153,153,0,0,0,153,153,0,153,153,Sun Sep 20 14:57:29 2020,600,The main experiment item,yes,FlankerTask.osexp,C:/Users/chris/OneDrive/Desktop,no,mono,no,18,no,white,no,yes,768,legacy,73,79,C:/Users/chris/OneDrive/Desktop/subject-2.csv,legacy,Lentiform Loewenfeld,3.3.3,0,s,return,h,NA,s,NA,510,3948,55479,NA,510,NA,2,legacy,1024,2,48000,-16,experiment,SSSSS,2,even,338924,6534,205297,NA,338419,2581,329255,340021,2585,149817,NA,340126,340638,NA,340019,340126,Flanker Task,139,79043,154,yes,1024
89.67741935,89.67741935,511.9032258,511.9032258,black,legacy,legacy,legacy,0,incongruent,uniform,0,undefined,0,h,154,0,0,0,154,0,154,154,0,0,0,154,154,0,154,154,Sun Sep 20 14:57:29 2020,600,The main experiment item,yes,FlankerTask.osexp,C:/Users/chris/OneDrive/Desktop,no,mono,no,18,no,white,no,yes,768,legacy,74,79,C:/Users/chris/OneDrive/Desktop/subject-2.csv,legacy,Lentiform Loewenfeld,3.3.3,0,s,return,h,NA,s,NA,302,3948,55479,NA,302,NA,2,legacy,1024,2,48000,-16,experiment,SSHSS,2,even,340647,6534,205297,NA,338419,2581,329255,341757,2585,149817,NA,341862,342166,NA,341755,341862,Flanker Task,139,79345,155,yes,1024
89.74358974,89.74358974,511.3782051,511.3782051,black,legacy,legacy,legacy,0,congruent,uniform,1,undefined,1,h,155,0,0,0,155,0,155,155,0,0,0,155,155,0,155,155,Sun Sep 20 14:57:29 2020,600,The main experiment item,yes,FlankerTask.osexp,C:/Users/chris/OneDrive/Desktop,no,mono,no,18,no,white,no,yes,768,legacy,75,79,C:/Users/chris/OneDrive/Desktop/subject-2.csv,legacy,Lentiform Loewenfeld,3.3.3,0,h,return,h,NA,h,NA,430,3948,55479,NA,430,NA,2,legacy,1024,2,48000,-16,experiment,HHHHH,2,even,342675,6534,205297,NA,342170,2581,329255,343773,2585,149817,NA,343878,344309,NA,343770,343878,Flanker Task,140,79775,156,yes,1024
89.8089172,89.8089172,511.1528662,511.1528662,black,legacy,legacy,legacy,0,incongruent,uniform,1,undefined,1,s,156,0,0,0,156,0,156,156,0,0,0,156,156,0,156,156,Sun Sep 20 14:57:29 2020,600,The main experiment item,yes,FlankerTask.osexp,C:/Users/chris/OneDrive/Desktop,no,mono,no,18,no,white,no,yes,768,legacy,76,79,C:/Users/chris/OneDrive/Desktop/subject-2.csv,legacy,Lentiform Loewenfeld,3.3.3,0,s,return,h,NA,s,NA,476,3948,55479,NA,476,NA,2,legacy,1024,2,48000,-16,experiment,HHSHH,2,even,344318,6534,205297,NA,342170,2581,329255,345421,2585,149817,NA,345526,346004,NA,345419,345526,Flanker Task,141,80251,157,yes,1024
89.87341772,89.87341772,511.6012658,511.6012658,black,legacy,legacy,legacy,0,incongruent,uniform,1,undefined,1,s,157,0,0,0,157,0,157,157,0,0,0,157,157,0,157,157,Sun Sep 20 14:57:29 2020,600,The main experiment item,yes,FlankerTask.osexp,C:/Users/chris/OneDrive/Desktop,no,mono,no,18,no,white,no,yes,768,legacy,77,79,C:/Users/chris/OneDrive/Desktop/subject-2.csv,legacy,Lentiform Loewenfeld,3.3.3,0,s,return,h,NA,s,NA,582,3948,55479,NA,582,NA,2,legacy,1024,2,48000,-16,experiment,HHSHH,2,even,346013,6534,205297,NA,342170,2581,329255,347130,2585,149817,NA,347235,347819,NA,347127,347235,Flanker Task,142,80833,158,yes,1024
89.93710692,89.93710692,510.9433962,510.9433962,black,legacy,legacy,legacy,0,congruent,uniform,1,undefined,1,h,158,0,0,0,158,0,158,158,0,0,0,158,158,0,158,158,Sun Sep 20 14:57:29 2020,600,The main experiment item,yes,FlankerTask.osexp,C:/Users/chris/OneDrive/Desktop,no,mono,no,18,no,white,no,yes,768,legacy,78,79,C:/Users/chris/OneDrive/Desktop/subject-2.csv,legacy,Lentiform Loewenfeld,3.3.3,0,h,return,h,NA,h,NA,407,3948,55479,NA,407,NA,2,legacy,1024,2,48000,-16,experiment,HHHHH,2,even,347828,6534,205297,NA,342170,2581,329255,348929,2585,149817,NA,349034,349443,NA,348927,349034,Flanker Task,143,81240,159,yes,1024
90,90,511.03125,511.03125,black,legacy,legacy,legacy,0,congruent,uniform,1,undefined,1,h,159,0,0,0,159,0,159,159,0,0,0,159,159,0,159,159,Sun Sep 20 14:57:29 2020,600,The main experiment item,yes,FlankerTask.osexp,C:/Users/chris/OneDrive/Desktop,no,mono,no,18,no,white,no,yes,768,legacy,79,79,C:/Users/chris/OneDrive/Desktop/subject-2.csv,legacy,Lentiform Loewenfeld,3.3.3,0,h,return,h,NA,h,NA,525,3948,55479,NA,525,NA,2,legacy,1024,2,48000,-16,experiment,HHHHH,2,even,349452,6534,205297,NA,342170,2581,329255,350555,2585,149817,NA,350660,351186,NA,350553,350660,Flanker Task,144,81765,160,yes,1024
90.0621118,90.0621118,512.3726708,512.3726708,black,legacy,legacy,legacy,0,incongruent,uniform,1,undefined,1,s,160,0,0,0,160,0,160,160,0,0,0,160,160,0,160,160,Sun Sep 20 14:57:29 2020,300,The main experiment item,yes,FlankerTask.osexp,C:/Users/chris/OneDrive/Desktop,no,mono,no,18,no,white,no,yes,768,legacy,0,79,C:/Users/chris/OneDrive/Desktop/subject-2.csv,legacy,Lentiform Loewenfeld,3.3.3,0,s,return,h,h,s,NA,727,3948,55479,1308,727,NA,2,legacy,1024,2,48000,-16,experiment,HHSHH,2,even,351195,6534,205297,353551,342170,2581,329255,353614,2585,149817,352242,353720,354448,NA,353612,353719,Flanker Task,145,82492,161,yes,1024
90.12345679,90.12345679,511.9691358,511.9691358,black,legacy,legacy,legacy,0,congruent,uniform,1,undefined,1,s,161,0,0,0,161,0,161,161,0,0,0,161,161,0,161,161,Sun Sep 20 14:57:29 2020,300,The main experiment item,yes,FlankerTask.osexp,C:/Users/chris/OneDrive/Desktop,no,mono,no,18,no,white,no,yes,768,legacy,1,79,C:/Users/chris/OneDrive/Desktop/subject-2.csv,legacy,Lentiform Loewenfeld,3.3.3,0,s,return,h,h,s,NA,447,3948,55479,1308,447,NA,2,legacy,1024,2,48000,-16,experiment,SSSSS,2,even,354958,6534,205297,353551,342170,2581,354453,356060,2585,149817,352242,356165,356614,NA,356058,356165,Flanker Task,146,82939,162,yes,1024
90.18404908,90.18404908,511.5828221,511.5828221,black,legacy,legacy,legacy,0,congruent,uniform,1,undefined,1,h,162,0,0,0,162,0,162,162,0,0,0,162,162,0,162,162,Sun Sep 20 14:57:29 2020,300,The main experiment item,yes,FlankerTask.osexp,C:/Users/chris/OneDrive/Desktop,no,mono,no,18,no,white,no,yes,768,legacy,2,79,C:/Users/chris/OneDrive/Desktop/subject-2.csv,legacy,Lentiform Loewenfeld,3.3.3,0,h,return,h,h,h,NA,449,3948,55479,1308,449,NA,2,legacy,1024,2,48000,-16,experiment,HHHHH,2,even,357127,6534,205297,353551,342170,2581,356622,358225,2585,149817,352242,358330,358781,NA,358222,358330,Flanker Task,147,83388,163,yes,1024
89.63414634,89.63414634,510.6158537,510.6158537,black,legacy,legacy,legacy,0,congruent,uniform,0,undefined,0,h,163,0,0,0,163,0,163,163,0,0,0,163,163,0,163,163,Sun Sep 20 14:57:29 2020,300,The main experiment item,yes,FlankerTask.osexp,C:/Users/chris/OneDrive/Desktop,no,mono,no,18,no,white,no,yes,768,legacy,3,79,C:/Users/chris/OneDrive/Desktop/subject-2.csv,legacy,Lentiform Loewenfeld,3.3.3,0,s,return,h,h,s,NA,353,3948,55479,1308,353,NA,2,legacy,1024,2,48000,-16,experiment,HHHHH,2,even,359294,6534,205297,353551,342170,2581,358789,360405,2585,149817,352242,360510,360864,NA,360403,360510,Flanker Task,147,83741,164,yes,1024
