"acc","accuracy","average_response_time","avg_rt","background","canvas_backend","clock_backend","color_backend","compensation","condition","coordinates","correct","correct_Instructions1","correct_keyboard_response","correct_response","count_Block1","count_Block2","count_Block3","count_ErrorFeedback","count_Faster","count_Finished","count_Fixation","count_ISI","count_Instructions1","count_Instructions2","count_Instructions3","count_Sequence","count_experiment","count_keyboard_response","count_logger","count_stimulus","datetime","deadline","description","disable_garbage_collection","experiment_file","experiment_path","font_bold","font_family","font_italic","font_size","font_underline","foreground","form_clicks","fullscreen","height","keyboard_backend","live_row","live_row_Block1","logfile","mouse_backend","opensesame_codename","opensesame_version","repeat_cycle","response","response_Finished","response_Instructions1","response_Instructions2","response_Instructions3","response_keyboard_response","response_time","response_time_Finished","response_time_Instructions1","response_time_Instructions2","response_time_Instructions3","response_time_keyboard_response","round_decimals","sampler_backend","sound_buf_size","sound_channels","sound_freq","sound_sample_size","start","stimulus","subject_nr","subject_parity","time_Block1","time_Block2","time_Block3","time_ErrorFeedback","time_Faster","time_Finished","time_Fixation","time_ISI","time_Instructions1","time_Instructions2","time_Instructions3","time_Sequence","time_experiment","time_keyboard_response","time_logger","time_stimulus","title","total_correct","total_response_time","total_responses","uniform_coordinates","width"
"0","0","430","430","black","legacy","legacy","legacy","0","Incongruent","uniform","0","undefined","0","h","0","0","0","0","0","0","0","0","0","0","0","0","0","0","0","0","09/27/20 07:11:12","1500","The main experiment item","yes","FlankerTask.osexp","C:/Users/solom/Desktop","no","mono","no","18","no","white","no","yes","768","legacy","0","0","C:/Users/solom/Desktop/MW-subject-3.csv","legacy","Lentiform Loewenfeld","3.3.3","0","s","NA","s","NA","NA","s","430","NA","5170","NA","NA","430","2","legacy","1024","2","48000","-16","experiment","SSHSS","3","odd","12568","NA","NA","NA","NA","NA","12943","NA","7396","NA","NA","12939","7390","13049","13480","13048","Flanker Task","0","430","1","yes","1024"
"50","50","537","537","black","legacy","legacy","legacy","0","Congruent","uniform","1","undefined","1","s","0","0","0","1","1","0","1","1","0","0","0","1","0","1","1","1","09/27/20 07:11:12","1500","The main experiment item","yes","FlankerTask.osexp","C:/Users/solom/Desktop","no","mono","no","18","no","white","no","yes","768","legacy","1","1","C:/Users/solom/Desktop/MW-subject-3.csv","legacy","Lentiform Loewenfeld","3.3.3","0","s","NA","s","NA","NA","s","644","NA","5170","NA","NA","644","2","legacy","1024","2","48000","-16","experiment","SSSSS","3","odd","12568","NA","NA","13557","NA","NA","15240","14062","7396","NA","NA","15235","7390","15346","15991","15345","Flanker Task","1","1074","2","yes","1024"
"66.6666666667","66.6666666667","666.666666667","666.666666667","black","legacy","legacy","legacy","0","Congruent","uniform","1","undefined","1","s","0","0","0","2","2","0","2","2","0","0","0","2","0","2","2","2","09/27/20 07:11:12","1500","The main experiment item","yes","FlankerTask.osexp","C:/Users/solom/Desktop","no","mono","no","18","no","white","no","yes","768","legacy","2","2","C:/Users/solom/Desktop/MW-subject-3.csv","legacy","Lentiform Loewenfeld","3.3.3","0","s","NA","s","NA","NA","s","926","NA","5170","NA","NA","926","2","legacy","1024","2","48000","-16","experiment","SSSSS","3","odd","12568","NA","NA","13557","NA","NA","17197","16026","7396","NA","NA","17193","7390","17304","18231","17303","Flanker Task","2","2000","3","yes","1024"
"75","75","825.75","825.75","black","legacy","legacy","legacy","0","Congruent","uniform","1","undefined","1","s","0","0","0","3","3","0","3","3","0","0","0","3","0","3","3","3","09/27/20 07:11:12","1500","The main experiment item","yes","FlankerTask.osexp","C:/Users/solom/Desktop","no","mono","no","18","no","white","no","yes","768","legacy","3","3","C:/Users/solom/Desktop/MW-subject-3.csv","legacy","Lentiform Loewenfeld","3.3.3","0","s","NA","s","NA","NA","s","1303","NA","5170","NA","NA","1303","2","legacy","1024","2","48000","-16","experiment","SSSSS","3","odd","12568","NA","NA","13557","NA","NA","19445","18272","7396","NA","NA","19440","7390","19551","20856","19550","Flanker Task","3","3303","4","yes","1024"
"80","80","793.8","793.8","black","legacy","legacy","legacy","0","Congruent","uniform","1","undefined","1","h","0","0","0","4","4","0","4","4","0","0","0","4","0","4","4","4","09/27/20 07:11:12","1500","The main experiment item","yes","FlankerTask.osexp","C:/Users/solom/Desktop","no","mono","no","18","no","white","no","yes","768","legacy","4","4","C:/Users/solom/Desktop/MW-subject-3.csv","legacy","Lentiform Loewenfeld","3.3.3","0","h","NA","s","NA","NA","h","666","NA","5170","NA","NA","666","2","legacy","1024","2","48000","-16","experiment","HHHHH","3","odd","12568","NA","NA","13557","NA","NA","22114","20939","7396","NA","NA","22109","7390","22220","22887","22219","Flanker Task","4","3969","5","yes","1024"
"83.3333333333","83.3333333333","773.166666667","773.166666667","black","legacy","legacy","legacy","0","Congruent","uniform","1","undefined","1","s","0","0","0","5","5","0","5","5","0","0","0","5","0","5","5","5","09/27/20 07:11:12","1500","The main experiment item","yes","FlankerTask.osexp","C:/Users/solom/Desktop","no","mono","no","18","no","white","no","yes","768","legacy","5","5","C:/Users/solom/Desktop/MW-subject-3.csv","legacy","Lentiform Loewenfeld","3.3.3","0","s","NA","s","NA","NA","s","670","NA","5170","NA","NA","670","2","legacy","1024","2","48000","-16","experiment","SSSSS","3","odd","12568","NA","NA","13557","NA","NA","24269","23093","7396","NA","NA","24265","7390","24376","25047","24375","Flanker Task","5","4639","6","yes","1024"
"85.7142857143","85.7142857143","752.714285714","752.714285714","black","legacy","legacy","legacy","0","Incongruent","uniform","1","undefined","1","h","0","0","0","6","6","0","6","6","0","0","0","6","0","6","6","6","09/27/20 07:11:12","1500","The main experiment item","yes","FlankerTask.osexp","C:/Users/solom/Desktop","no","mono","no","18","no","white","no","yes","768","legacy","6","6","C:/Users/solom/Desktop/MW-subject-3.csv","legacy","Lentiform Loewenfeld","3.3.3","0","h","NA","s","NA","NA","h","630","NA","5170","NA","NA","630","2","legacy","1024","2","48000","-16","experiment","SSHSS","3","odd","12568","NA","NA","13557","NA","NA","26264","25079","7396","NA","NA","26259","7390","26368","26999","26367","Flanker Task","6","5269","7","yes","1024"
"87.5","87.5","750.25","750.25","black","legacy","legacy","legacy","0","Congruent","uniform","1","undefined","1","h","0","0","0","7","7","0","7","7","0","0","0","7","0","7","7","7","09/27/20 07:11:12","1500","The main experiment item","yes","FlankerTask.osexp","C:/Users/solom/Desktop","no","mono","no","18","no","white","no","yes","768","legacy","7","7","C:/Users/solom/Desktop/MW-subject-3.csv","legacy","Lentiform Loewenfeld","3.3.3","0","h","NA","s","NA","NA","h","733","NA","5170","NA","NA","733","2","legacy","1024","2","48000","-16","experiment","HHHHH","3","odd","12568","NA","NA","13557","NA","NA","28208","27033","7396","NA","NA","28203","7390","28313","29047","28312","Flanker Task","7","6002","8","yes","1024"
"88.8888888889","88.8888888889","724.111111111","724.111111111","black","legacy","legacy","legacy","0","Incongruent","uniform","1","undefined","1","h","0","0","0","8","8","0","8","8","0","0","0","8","0","8","8","8","09/27/20 07:11:12","1500","The main experiment item","yes","FlankerTask.osexp","C:/Users/solom/Desktop","no","mono","no","18","no","white","no","yes","768","legacy","8","8","C:/Users/solom/Desktop/MW-subject-3.csv","legacy","Lentiform Loewenfeld","3.3.3","0","h","NA","s","NA","NA","h","515","NA","5170","NA","NA","515","2","legacy","1024","2","48000","-16","experiment","SSHSS","3","odd","12568","NA","NA","13557","NA","NA","30257","29080","7396","NA","NA","30252","7390","30363","30879","30362","Flanker Task","8","6517","9","yes","1024"
"90","90","716","716","black","legacy","legacy","legacy","0","Incongruent","uniform","1","undefined","1","h","0","0","0","9","9","0","9","9","0","0","0","9","0","9","9","9","09/27/20 07:11:12","1500","The main experiment item","yes","FlankerTask.osexp","C:/Users/solom/Desktop","no","mono","no","18","no","white","no","yes","768","legacy","9","9","C:/Users/solom/Desktop/MW-subject-3.csv","legacy","Lentiform Loewenfeld","3.3.3","0","h","NA","s","NA","NA","h","643","NA","5170","NA","NA","643","2","legacy","1024","2","48000","-16","experiment","SSHSS","3","odd","12568","NA","NA","13557","NA","NA","32088","30914","7396","NA","NA","32084","7390","32195","32840","32194","Flanker Task","9","7160","10","yes","1024"
"90.9090909091","90.9090909091","724.454545455","724.454545455","black","legacy","legacy","legacy","0","Incongruent","uniform","1","undefined","1","h","0","0","0","10","10","0","10","10","0","0","0","10","0","10","10","10","09/27/20 07:11:12","1500","The main experiment item","yes","FlankerTask.osexp","C:/Users/solom/Desktop","no","mono","no","18","no","white","no","yes","768","legacy","10","10","C:/Users/solom/Desktop/MW-subject-3.csv","legacy","Lentiform Loewenfeld","3.3.3","0","h","NA","s","NA","NA","h","809","NA","5170","NA","NA","809","2","legacy","1024","2","48000","-16","experiment","SSHSS","3","odd","12568","NA","NA","13557","NA","NA","34052","32881","7396","NA","NA","34047","7390","34158","34968","34157","Flanker Task","10","7969","11","yes","1024"
"91.6666666667","91.6666666667","720.5","720.5","black","legacy","legacy","legacy","0","Congruent","uniform","1","undefined","1","h","0","0","0","11","11","0","11","11","0","0","0","11","0","11","11","11","09/27/20 07:11:12","1500","The main experiment item","yes","FlankerTask.osexp","C:/Users/solom/Desktop","no","mono","no","18","no","white","no","yes","768","legacy","11","11","C:/Users/solom/Desktop/MW-subject-3.csv","legacy","Lentiform Loewenfeld","3.3.3","0","h","NA","s","NA","NA","h","677","NA","5170","NA","NA","677","2","legacy","1024","2","48000","-16","experiment","HHHHH","3","odd","12568","NA","NA","13557","NA","NA","36178","35003","7396","NA","NA","36173","7390","36281","36960","36281","Flanker Task","11","8646","12","yes","1024"
"92.3076923077","92.3076923077","717.307692308","717.307692308","black","legacy","legacy","legacy","0","Congruent","uniform","1","undefined","1","s","0","0","0","12","12","0","12","12","0","0","0","12","0","12","12","12","09/27/20 07:11:12","1500","The main experiment item","yes","FlankerTask.osexp","C:/Users/solom/Desktop","no","mono","no","18","no","white","no","yes","768","legacy","12","12","C:/Users/solom/Desktop/MW-subject-3.csv","legacy","Lentiform Loewenfeld","3.3.3","0","s","NA","s","NA","NA","s","679","NA","5170","NA","NA","679","2","legacy","1024","2","48000","-16","experiment","SSSSS","3","odd","12568","NA","NA","13557","NA","NA","38168","36996","7396","NA","NA","38163","7390","38271","38951","38271","Flanker Task","12","9325","13","yes","1024"
"92.8571428571","92.8571428571","709.5","709.5","black","legacy","legacy","legacy","0","Congruent","uniform","1","undefined","1","s","0","0","0","13","13","0","13","13","0","0","0","13","0","13","13","13","09/27/20 07:11:12","1500","The main experiment item","yes","FlankerTask.osexp","C:/Users/solom/Desktop","no","mono","no","18","no","white","no","yes","768","legacy","13","13","C:/Users/solom/Desktop/MW-subject-3.csv","legacy","Lentiform Loewenfeld","3.3.3","0","s","NA","s","NA","NA","s","608","NA","5170","NA","NA","608","2","legacy","1024","2","48000","-16","experiment","SSSSS","3","odd","12568","NA","NA","13557","NA","NA","40159","38983","7396","NA","NA","40154","7390","40262","40871","40262","Flanker Task","13","9933","14","yes","1024"
"93.3333333333","93.3333333333","705.666666667","705.666666667","black","legacy","legacy","legacy","0","Incongruent","uniform","1","undefined","1","h","0","0","0","14","14","0","14","14","0","0","0","14","0","14","14","14","09/27/20 07:11:12","1500","The main experiment item","yes","FlankerTask.osexp","C:/Users/solom/Desktop","no","mono","no","18","no","white","no","yes","768","legacy","14","14","C:/Users/solom/Desktop/MW-subject-3.csv","legacy","Lentiform Loewenfeld","3.3.3","0","h","NA","s","NA","NA","h","652","NA","5170","NA","NA","652","2","legacy","1024","2","48000","-16","experiment","SSHSS","3","odd","12568","NA","NA","13557","NA","NA","42080","40905","7396","NA","NA","42075","7390","42187","42840","42186","Flanker Task","14","10585","15","yes","1024"
"93.75","93.75","701.625","701.625","black","legacy","legacy","legacy","0","Incongruent","uniform","1","undefined","1","h","0","0","0","15","15","0","15","15","0","0","0","15","0","15","15","15","09/27/20 07:11:12","1500","The main experiment item","yes","FlankerTask.osexp","C:/Users/solom/Desktop","no","mono","no","18","no","white","no","yes","768","legacy","15","15","C:/Users/solom/Desktop/MW-subject-3.csv","legacy","Lentiform Loewenfeld","3.3.3","0","h","NA","s","NA","NA","h","641","NA","5170","NA","NA","641","2","legacy","1024","2","48000","-16","experiment","SSHSS","3","odd","12568","NA","NA","13557","NA","NA","44051","42881","7396","NA","NA","44046","7390","44157","44799","44156","Flanker Task","15","11226","16","yes","1024"
"94.1176470588","94.1176470588","697.823529412","697.823529412","black","legacy","legacy","legacy","0","Congruent","uniform","1","undefined","1","s","0","0","0","16","16","0","16","16","0","0","0","16","0","16","16","16","09/27/20 07:11:12","1500","The main experiment item","yes","FlankerTask.osexp","C:/Users/solom/Desktop","no","mono","no","18","no","white","no","yes","768","legacy","16","16","C:/Users/solom/Desktop/MW-subject-3.csv","legacy","Lentiform Loewenfeld","3.3.3","0","s","NA","s","NA","NA","s","637","NA","5170","NA","NA","637","2","legacy","1024","2","48000","-16","experiment","SSSSS","3","odd","12568","NA","NA","13557","NA","NA","46006","44834","7396","NA","NA","46002","7390","46113","46752","46112","Flanker Task","16","11863","17","yes","1024"
"94.4444444444","94.4444444444","695.111111111","695.111111111","black","legacy","legacy","legacy","0","Incongruent","uniform","1","undefined","1","h","0","0","0","17","17","0","17","17","0","0","0","17","0","17","17","17","09/27/20 07:11:12","1500","The main experiment item","yes","FlankerTask.osexp","C:/Users/solom/Desktop","no","mono","no","18","no","white","no","yes","768","legacy","17","17","C:/Users/solom/Desktop/MW-subject-3.csv","legacy","Lentiform Loewenfeld","3.3.3","0","h","NA","s","NA","NA","h","649","NA","5170","NA","NA","649","2","legacy","1024","2","48000","-16","experiment","SSHSS","3","odd","12568","NA","NA","13557","NA","NA","47971","46801","7396","NA","NA","47966","7390","48077","48728","48076","Flanker Task","17","12512","18","yes","1024"
"94.7368421053","94.7368421053","702.263157895","702.263157895","black","legacy","legacy","legacy","0","Congruent","uniform","1","undefined","1","h","0","0","0","18","18","0","18","18","0","0","0","18","0","18","18","18","09/27/20 07:11:12","1500","The main experiment item","yes","FlankerTask.osexp","C:/Users/solom/Desktop","no","mono","no","18","no","white","no","yes","768","legacy","18","18","C:/Users/solom/Desktop/MW-subject-3.csv","legacy","Lentiform Loewenfeld","3.3.3","0","h","NA","s","NA","NA","h","831","NA","5170","NA","NA","831","2","legacy","1024","2","48000","-16","experiment","HHHHH","3","odd","12568","NA","NA","13557","NA","NA","49972","48802","7396","NA","NA","49968","7390","50079","50912","50078","Flanker Task","18","13343","19","yes","1024"
"95","95","704.25","704.25","black","legacy","legacy","legacy","0","Congruent","uniform","1","undefined","1","s","0","0","0","19","19","0","19","19","0","0","0","19","0","19","19","19","09/27/20 07:11:12","1500","The main experiment item","yes","FlankerTask.osexp","C:/Users/solom/Desktop","no","mono","no","18","no","white","no","yes","768","legacy","19","19","C:/Users/solom/Desktop/MW-subject-3.csv","legacy","Lentiform Loewenfeld","3.3.3","0","s","NA","s","NA","NA","s","742","NA","5170","NA","NA","742","2","legacy","1024","2","48000","-16","experiment","SSSSS","3","odd","12568","NA","NA","13557","NA","NA","52127","50957","7396","NA","NA","52122","7390","52232","52975","52232","Flanker Task","19","14085","20","yes","1024"
"95.2380952381","95.2380952381","712.857142857","712.857142857","black","legacy","legacy","legacy","0","Incongruent","uniform","1","undefined","1","s","0","0","0","20","20","0","20","20","0","0","0","20","0","20","20","20","09/27/20 07:11:12","1500","The main experiment item","yes","FlankerTask.osexp","C:/Users/solom/Desktop","no","mono","no","18","no","white","no","yes","768","legacy","20","20","C:/Users/solom/Desktop/MW-subject-3.csv","legacy","Lentiform Loewenfeld","3.3.3","0","s","NA","s","NA","NA","s","885","NA","5170","NA","NA","885","2","legacy","1024","2","48000","-16","experiment","HHSHH","3","odd","12568","NA","NA","13557","NA","NA","54185","53008","7396","NA","NA","54180","7390","54289","55175","54288","Flanker Task","20","14970","21","yes","1024"
"95.4545454545","95.4545454545","712.863636364","712.863636364","black","legacy","legacy","legacy","0","Incongruent","uniform","1","undefined","1","h","0","0","0","21","21","0","21","21","0","0","0","21","0","21","21","21","09/27/20 07:11:12","1500","The main experiment item","yes","FlankerTask.osexp","C:/Users/solom/Desktop","no","mono","no","18","no","white","no","yes","768","legacy","21","21","C:/Users/solom/Desktop/MW-subject-3.csv","legacy","Lentiform Loewenfeld","3.3.3","0","h","NA","s","NA","NA","h","713","NA","5170","NA","NA","713","2","legacy","1024","2","48000","-16","experiment","SSHSS","3","odd","12568","NA","NA","13557","NA","NA","56395","55223","7396","NA","NA","56391","7390","56501","57215","56501","Flanker Task","21","15683","22","yes","1024"
"95.652173913","95.652173913","716.782608696","716.782608696","black","legacy","legacy","legacy","0","Congruent","uniform","1","undefined","1","h","0","0","0","22","22","0","22","22","0","0","0","22","0","22","22","22","09/27/20 07:11:12","1500","The main experiment item","yes","FlankerTask.osexp","C:/Users/solom/Desktop","no","mono","no","18","no","white","no","yes","768","legacy","22","22","C:/Users/solom/Desktop/MW-subject-3.csv","legacy","Lentiform Loewenfeld","3.3.3","0","h","NA","s","NA","NA","h","803","NA","5170","NA","NA","803","2","legacy","1024","2","48000","-16","experiment","HHHHH","3","odd","12568","NA","NA","13557","NA","NA","58424","57252","7396","NA","NA","58419","7390","58531","59336","58530","Flanker Task","22","16486","23","yes","1024"
"95.8333333333","95.8333333333","717.75","717.75","black","legacy","legacy","legacy","0","Incongruent","uniform","1","undefined","1","h","0","0","0","23","23","0","23","23","0","0","0","23","0","23","23","23","09/27/20 07:11:12","1500","The main experiment item","yes","FlankerTask.osexp","C:/Users/solom/Desktop","no","mono","no","18","no","white","no","yes","768","legacy","23","23","C:/Users/solom/Desktop/MW-subject-3.csv","legacy","Lentiform Loewenfeld","3.3.3","0","h","NA","s","NA","NA","h","740","NA","5170","NA","NA","740","2","legacy","1024","2","48000","-16","experiment","SSHSS","3","odd","12568","NA","NA","13557","NA","NA","60545","59369","7396","NA","NA","60540","7390","60650","61392","60650","Flanker Task","23","17226","24","yes","1024"
"96","96","714.4","714.4","black","legacy","legacy","legacy","0","Incongruent","uniform","1","undefined","1","s","0","0","0","24","24","0","24","24","0","0","0","24","0","24","24","24","09/27/20 07:11:12","1500","The main experiment item","yes","FlankerTask.osexp","C:/Users/solom/Desktop","no","mono","no","18","no","white","no","yes","768","legacy","24","24","C:/Users/solom/Desktop/MW-subject-3.csv","legacy","Lentiform Loewenfeld","3.3.3","0","s","NA","s","NA","NA","s","634","NA","5170","NA","NA","634","2","legacy","1024","2","48000","-16","experiment","HHSHH","3","odd","12568","NA","NA","13557","NA","NA","62602","61428","7396","NA","NA","62597","7390","62708","63344","62708","Flanker Task","24","17860","25","yes","1024"
"96.1538461538","96.1538461538","708.461538462","708.461538462","black","legacy","legacy","legacy","0","Congruent","uniform","1","undefined","1","s","0","0","0","25","25","0","25","25","0","0","0","25","0","25","25","25","09/27/20 07:11:12","1500","The main experiment item","yes","FlankerTask.osexp","C:/Users/solom/Desktop","no","mono","no","18","no","white","no","yes","768","legacy","25","25","C:/Users/solom/Desktop/MW-subject-3.csv","legacy","Lentiform Loewenfeld","3.3.3","0","s","NA","s","NA","NA","s","560","NA","5170","NA","NA","560","2","legacy","1024","2","48000","-16","experiment","SSSSS","3","odd","12568","NA","NA","13557","NA","NA","64549","63374","7396","NA","NA","64544","7390","64654","65216","64654","Flanker Task","25","18420","26","yes","1024"
"96.2962962963","96.2962962963","700.222222222","700.222222222","black","legacy","legacy","legacy","0","Congruent","uniform","1","undefined","1","s","0","0","0","26","26","0","26","26","0","0","0","26","0","26","26","26","09/27/20 07:11:12","1500","The main experiment item","yes","FlankerTask.osexp","C:/Users/solom/Desktop","no","mono","no","18","no","white","no","yes","768","legacy","26","26","C:/Users/solom/Desktop/MW-subject-3.csv","legacy","Lentiform Loewenfeld","3.3.3","0","s","NA","s","NA","NA","s","486","NA","5170","NA","NA","486","2","legacy","1024","2","48000","-16","experiment","SSSSS","3","odd","12568","NA","NA","13557","NA","NA","66421","65249","7396","NA","NA","66417","7390","66528","67016","66527","Flanker Task","26","18906","27","yes","1024"
"96.4285714286","96.4285714286","693.25","693.25","black","legacy","legacy","legacy","0","Congruent","uniform","1","undefined","1","h","0","0","0","27","27","0","27","27","0","0","0","27","0","27","27","27","09/27/20 07:11:12","1500","The main experiment item","yes","FlankerTask.osexp","C:/Users/solom/Desktop","no","mono","no","18","no","white","no","yes","768","legacy","27","27","C:/Users/solom/Desktop/MW-subject-3.csv","legacy","Lentiform Loewenfeld","3.3.3","0","h","NA","s","NA","NA","h","505","NA","5170","NA","NA","505","2","legacy","1024","2","48000","-16","experiment","HHHHH","3","odd","12568","NA","NA","13557","NA","NA","68222","67046","7396","NA","NA","68217","7390","68325","68832","68325","Flanker Task","27","19411","28","yes","1024"
"96.5517241379","96.5517241379","687.034482759","687.034482759","black","legacy","legacy","legacy","0","Congruent","uniform","1","undefined","1","h","0","0","0","28","28","0","28","28","0","0","0","28","0","28","28","28","09/27/20 07:11:12","1500","The main experiment item","yes","FlankerTask.osexp","C:/Users/solom/Desktop","no","mono","no","18","no","white","no","yes","768","legacy","28","28","C:/Users/solom/Desktop/MW-subject-3.csv","legacy","Lentiform Loewenfeld","3.3.3","0","h","NA","s","NA","NA","h","513","NA","5170","NA","NA","513","2","legacy","1024","2","48000","-16","experiment","HHHHH","3","odd","12568","NA","NA","13557","NA","NA","70035","68859","7396","NA","NA","70030","7390","70141","70656","70140","Flanker Task","28","19924","29","yes","1024"
"96.6666666667","96.6666666667","684.8","684.8","black","legacy","legacy","legacy","0","Incongruent","uniform","1","undefined","1","h","0","0","0","29","29","0","29","29","0","0","0","29","0","29","29","29","09/27/20 07:11:12","1500","The main experiment item","yes","FlankerTask.osexp","C:/Users/solom/Desktop","no","mono","no","18","no","white","no","yes","768","legacy","29","29","C:/Users/solom/Desktop/MW-subject-3.csv","legacy","Lentiform Loewenfeld","3.3.3","0","h","NA","s","NA","NA","h","620","NA","5170","NA","NA","620","2","legacy","1024","2","48000","-16","experiment","SSHSS","3","odd","12568","NA","NA","13557","NA","NA","72088","70916","7396","NA","NA","72083","7390","72194","72816","72193","Flanker Task","29","20544","30","yes","1024"
"96.7741935484","96.7741935484","685","685","black","legacy","legacy","legacy","0","Congruent","uniform","1","undefined","1","s","0","0","0","30","30","0","30","30","0","0","0","30","0","30","30","30","09/27/20 07:11:12","1500","The main experiment item","yes","FlankerTask.osexp","C:/Users/solom/Desktop","no","mono","no","18","no","white","no","yes","768","legacy","30","30","C:/Users/solom/Desktop/MW-subject-3.csv","legacy","Lentiform Loewenfeld","3.3.3","0","s","NA","s","NA","NA","s","691","NA","5170","NA","NA","691","2","legacy","1024","2","48000","-16","experiment","SSSSS","3","odd","12568","NA","NA","13557","NA","NA","74025","72856","7396","NA","NA","74021","7390","74131","74824","74131","Flanker Task","30","21235","31","yes","1024"
"96.875","96.875","681.0625","681.0625","black","legacy","legacy","legacy","0","Congruent","uniform","1","undefined","1","s","0","0","0","31","31","0","31","31","0","0","0","31","0","31","31","31","09/27/20 07:11:12","1500","The main experiment item","yes","FlankerTask.osexp","C:/Users/solom/Desktop","no","mono","no","18","no","white","no","yes","768","legacy","31","31","C:/Users/solom/Desktop/MW-subject-3.csv","legacy","Lentiform Loewenfeld","3.3.3","0","s","NA","s","NA","NA","s","559","NA","5170","NA","NA","559","2","legacy","1024","2","48000","-16","experiment","SSSSS","3","odd","12568","NA","NA","13557","NA","NA","76028","74857","7396","NA","NA","76023","7390","76135","76695","76134","Flanker Task","31","21794","32","yes","1024"
"96.9696969697","96.9696969697","684","684","black","legacy","legacy","legacy","0","Incongruent","uniform","1","undefined","1","s","0","0","0","32","32","0","32","32","0","0","0","32","0","32","32","32","09/27/20 07:11:12","1500","The main experiment item","yes","FlankerTask.osexp","C:/Users/solom/Desktop","no","mono","no","18","no","white","no","yes","768","legacy","32","32","C:/Users/solom/Desktop/MW-subject-3.csv","legacy","Lentiform Loewenfeld","3.3.3","0","s","NA","s","NA","NA","s","778","NA","5170","NA","NA","778","2","legacy","1024","2","48000","-16","experiment","HHSHH","3","odd","12568","NA","NA","13557","NA","NA","77907","76729","7396","NA","NA","77902","7390","78012","78792","78011","Flanker Task","32","22572","33","yes","1024"
"97.0588235294","97.0588235294","679.941176471","679.941176471","black","legacy","legacy","legacy","0","Congruent","uniform","1","undefined","1","h","0","0","0","33","33","0","33","33","0","0","0","33","0","33","33","33","09/27/20 07:11:12","1500","The main experiment item","yes","FlankerTask.osexp","C:/Users/solom/Desktop","no","mono","no","18","no","white","no","yes","768","legacy","33","33","C:/Users/solom/Desktop/MW-subject-3.csv","legacy","Lentiform Loewenfeld","3.3.3","0","h","NA","s","NA","NA","h","546","NA","5170","NA","NA","546","2","legacy","1024","2","48000","-16","experiment","HHHHH","3","odd","12568","NA","NA","13557","NA","NA","80009","78837","7396","NA","NA","80005","7390","80116","80664","80115","Flanker Task","33","23118","34","yes","1024"
"97.1428571429","97.1428571429","675.171428571","675.171428571","black","legacy","legacy","legacy","0","Incongruent","uniform","1","undefined","1","s","0","0","0","34","34","0","34","34","0","0","0","34","0","34","34","34","09/27/20 07:11:12","1500","The main experiment item","yes","FlankerTask.osexp","C:/Users/solom/Desktop","no","mono","no","18","no","white","no","yes","768","legacy","34","34","C:/Users/solom/Desktop/MW-subject-3.csv","legacy","Lentiform Loewenfeld","3.3.3","0","s","NA","s","NA","NA","s","513","NA","5170","NA","NA","513","2","legacy","1024","2","48000","-16","experiment","HHSHH","3","odd","12568","NA","NA","13557","NA","NA","81875","80696","7396","NA","NA","81870","7390","81981","82496","81980","Flanker Task","34","23631","35","yes","1024"
"97.2222222222","97.2222222222","677.666666667","677.666666667","black","legacy","legacy","legacy","0","Incongruent","uniform","1","undefined","1","h","0","0","0","35","35","0","35","35","0","0","0","35","0","35","35","35","09/27/20 07:11:12","1500","The main experiment item","yes","FlankerTask.osexp","C:/Users/solom/Desktop","no","mono","no","18","no","white","no","yes","768","legacy","35","35","C:/Users/solom/Desktop/MW-subject-3.csv","legacy","Lentiform Loewenfeld","3.3.3","0","h","NA","s","NA","NA","h","765","NA","5170","NA","NA","765","2","legacy","1024","2","48000","-16","experiment","SSHSS","3","odd","12568","NA","NA","13557","NA","NA","83704","82530","7396","NA","NA","83699","7390","83809","84576","83809","Flanker Task","35","24396","36","yes","1024"
"97.2972972973","97.2972972973","672.810810811","672.810810811","black","legacy","legacy","legacy","0","Congruent","uniform","1","undefined","1","s","0","0","0","36","36","0","36","36","0","0","0","36","0","36","36","36","09/27/20 07:11:12","1500","The main experiment item","yes","FlankerTask.osexp","C:/Users/solom/Desktop","no","mono","no","18","no","white","no","yes","768","legacy","36","36","C:/Users/solom/Desktop/MW-subject-3.csv","legacy","Lentiform Loewenfeld","3.3.3","0","s","NA","s","NA","NA","s","498","NA","5170","NA","NA","498","2","legacy","1024","2","48000","-16","experiment","SSSSS","3","odd","12568","NA","NA","13557","NA","NA","85788","84618","7396","NA","NA","85783","7390","85892","86392","85892","Flanker Task","36","24894","37","yes","1024"
"97.3684210526","97.3684210526","667.973684211","667.973684211","black","legacy","legacy","legacy","0","Congruent","uniform","1","undefined","1","s","0","0","0","37","37","0","37","37","0","0","0","37","0","37","37","37","09/27/20 07:11:12","1500","The main experiment item","yes","FlankerTask.osexp","C:/Users/solom/Desktop","no","mono","no","18","no","white","no","yes","768","legacy","37","37","C:/Users/solom/Desktop/MW-subject-3.csv","legacy","Lentiform Loewenfeld","3.3.3","0","s","NA","s","NA","NA","s","489","NA","5170","NA","NA","489","2","legacy","1024","2","48000","-16","experiment","SSSSS","3","odd","12568","NA","NA","13557","NA","NA","87596","86423","7396","NA","NA","87591","7390","87701","88192","87700","Flanker Task","37","25383","38","yes","1024"
"97.4358974359","97.4358974359","666.58974359","666.58974359","black","legacy","legacy","legacy","0","Incongruent","uniform","1","undefined","1","s","0","0","0","38","38","0","38","38","0","0","0","38","0","38","38","38","09/27/20 07:11:12","1500","The main experiment item","yes","FlankerTask.osexp","C:/Users/solom/Desktop","no","mono","no","18","no","white","no","yes","768","legacy","38","38","C:/Users/solom/Desktop/MW-subject-3.csv","legacy","Lentiform Loewenfeld","3.3.3","0","s","NA","s","NA","NA","s","614","NA","5170","NA","NA","614","2","legacy","1024","2","48000","-16","experiment","HHSHH","3","odd","12568","NA","NA","13557","NA","NA","89408","88235","7396","NA","NA","89403","7390","89512","90128","89512","Flanker Task","38","25997","39","yes","1024"
"97.5","97.5","663.325","663.325","black","legacy","legacy","legacy","0","Incongruent","uniform","1","undefined","1","s","0","0","0","39","39","0","39","39","0","0","0","39","0","39","39","39","09/27/20 07:11:12","1500","The main experiment item","yes","FlankerTask.osexp","C:/Users/solom/Desktop","no","mono","no","18","no","white","no","yes","768","legacy","39","39","C:/Users/solom/Desktop/MW-subject-3.csv","legacy","Lentiform Loewenfeld","3.3.3","0","s","NA","s","NA","NA","s","536","NA","5170","NA","NA","536","2","legacy","1024","2","48000","-16","experiment","HHSHH","3","odd","12568","NA","NA","13557","NA","NA","91332","90157","7396","NA","NA","91327","7390","91438","91976","91437","Flanker Task","39","26533","40","yes","1024"
"97.5609756098","97.5609756098","662.390243902","662.390243902","black","legacy","legacy","legacy","0","Incongruent","uniform","1","undefined","1","h","0","0","0","40","40","0","40","40","0","0","0","40","0","40","40","40","09/27/20 07:11:12","1500","The main experiment item","yes","FlankerTask.osexp","C:/Users/solom/Desktop","no","mono","no","18","no","white","no","yes","768","legacy","40","40","C:/Users/solom/Desktop/MW-subject-3.csv","legacy","Lentiform Loewenfeld","3.3.3","0","h","NA","s","NA","NA","h","625","NA","5170","NA","NA","625","2","legacy","1024","2","48000","-16","experiment","SSHSS","3","odd","12568","NA","NA","13557","NA","NA","93197","92021","7396","NA","NA","93192","7390","93301","93928","93300","Flanker Task","40","27158","41","yes","1024"
"97.619047619","97.619047619","659.619047619","659.619047619","black","legacy","legacy","legacy","0","Incongruent","uniform","1","undefined","1","s","0","0","0","41","41","0","41","41","0","0","0","41","0","41","41","41","09/27/20 07:11:12","1500","The main experiment item","yes","FlankerTask.osexp","C:/Users/solom/Desktop","no","mono","no","18","no","white","no","yes","768","legacy","41","41","C:/Users/solom/Desktop/MW-subject-3.csv","legacy","Lentiform Loewenfeld","3.3.3","0","s","NA","s","NA","NA","s","546","NA","5170","NA","NA","546","2","legacy","1024","2","48000","-16","experiment","HHSHH","3","odd","12568","NA","NA","13557","NA","NA","95146","93973","7396","NA","NA","95141","7390","95252","95801","95251","Flanker Task","41","27704","42","yes","1024"
"97.6744186047","97.6744186047","659.627906977","659.627906977","black","legacy","legacy","legacy","0","Congruent","uniform","1","undefined","1","h","0","0","0","42","42","0","42","42","0","0","0","42","0","42","42","42","09/27/20 07:11:12","1500","The main experiment item","yes","FlankerTask.osexp","C:/Users/solom/Desktop","no","mono","no","18","no","white","no","yes","768","legacy","42","42","C:/Users/solom/Desktop/MW-subject-3.csv","legacy","Lentiform Loewenfeld","3.3.3","0","h","NA","s","NA","NA","h","660","NA","5170","NA","NA","660","2","legacy","1024","2","48000","-16","experiment","HHHHH","3","odd","12568","NA","NA","13557","NA","NA","97033","95855","7396","NA","NA","97028","7390","97138","97801","97138","Flanker Task","42","28364","43","yes","1024"
"97.7272727273","97.7272727273","661.477272727","661.477272727","black","legacy","legacy","legacy","0","Incongruent","uniform","1","undefined","1","h","0","0","0","43","43","0","43","43","0","0","0","43","0","43","43","43","09/27/20 07:11:12","1500","The main experiment item","yes","FlankerTask.osexp","C:/Users/solom/Desktop","no","mono","no","18","no","white","no","yes","768","legacy","43","43","C:/Users/solom/Desktop/MW-subject-3.csv","legacy","Lentiform Loewenfeld","3.3.3","0","h","NA","s","NA","NA","h","741","NA","5170","NA","NA","741","2","legacy","1024","2","48000","-16","experiment","SSHSS","3","odd","12568","NA","NA","13557","NA","NA","99023","97853","7396","NA","NA","99018","7390","99129","99872","99128","Flanker Task","43","29105","44","yes","1024"
"97.7777777778","97.7777777778","658.6","658.6","black","legacy","legacy","legacy","0","Congruent","uniform","1","undefined","1","s","0","0","0","44","44","0","44","44","0","0","0","44","0","44","44","44","09/27/20 07:11:12","1500","The main experiment item","yes","FlankerTask.osexp","C:/Users/solom/Desktop","no","mono","no","18","no","white","no","yes","768","legacy","44","44","C:/Users/solom/Desktop/MW-subject-3.csv","legacy","Lentiform Loewenfeld","3.3.3","0","s","NA","s","NA","NA","s","532","NA","5170","NA","NA","532","2","legacy","1024","2","48000","-16","experiment","SSSSS","3","odd","12568","NA","NA","13557","NA","NA","101072","99896","7396","NA","NA","101067","7390","101178","101712","101177","Flanker Task","44","29637","45","yes","1024"
"97.8260869565","97.8260869565","658.282608696","658.282608696","black","legacy","legacy","legacy","0","Congruent","uniform","1","undefined","1","h","0","0","0","45","45","0","45","45","0","0","0","45","0","45","45","45","09/27/20 07:11:12","1500","The main experiment item","yes","FlankerTask.osexp","C:/Users/solom/Desktop","no","mono","no","18","no","white","no","yes","768","legacy","45","45","C:/Users/solom/Desktop/MW-subject-3.csv","legacy","Lentiform Loewenfeld","3.3.3","0","h","NA","s","NA","NA","h","644","NA","5170","NA","NA","644","2","legacy","1024","2","48000","-16","experiment","HHHHH","3","odd","12568","NA","NA","13557","NA","NA","102928","101756","7396","NA","NA","102922","7390","103034","103680","103033","Flanker Task","45","30281","46","yes","1024"
"97.8723404255","97.8723404255","656.212765957","656.212765957","black","legacy","legacy","legacy","0","Incongruent","uniform","1","undefined","1","s","0","0","0","46","46","0","46","46","0","0","0","46","0","46","46","46","09/27/20 07:11:12","1500","The main experiment item","yes","FlankerTask.osexp","C:/Users/solom/Desktop","no","mono","no","18","no","white","no","yes","768","legacy","46","46","C:/Users/solom/Desktop/MW-subject-3.csv","legacy","Lentiform Loewenfeld","3.3.3","0","s","NA","s","NA","NA","s","561","NA","5170","NA","NA","561","2","legacy","1024","2","48000","-16","experiment","HHSHH","3","odd","12568","NA","NA","13557","NA","NA","104883","103707","7396","NA","NA","104878","7390","104989","105552","104988","Flanker Task","46","30842","47","yes","1024"
"97.9166666667","97.9166666667","658.854166667","658.854166667","black","legacy","legacy","legacy","0","Incongruent","uniform","1","undefined","1","s","0","0","0","47","47","0","47","47","0","0","0","47","0","47","47","47","09/27/20 07:11:12","1500","The main experiment item","yes","FlankerTask.osexp","C:/Users/solom/Desktop","no","mono","no","18","no","white","no","yes","768","legacy","47","47","C:/Users/solom/Desktop/MW-subject-3.csv","legacy","Lentiform Loewenfeld","3.3.3","0","s","NA","s","NA","NA","s","783","NA","5170","NA","NA","783","2","legacy","1024","2","48000","-16","experiment","HHSHH","3","odd","12568","NA","NA","13557","NA","NA","106758","105582","7396","NA","NA","106753","7390","106863","107649","106863","Flanker Task","47","31625","48","yes","1024"
"97.9591836735","97.9591836735","659.387755102","659.387755102","black","legacy","legacy","legacy","0","Incongruent","uniform","1","undefined","1","s","0","0","0","48","48","0","48","48","0","0","0","48","0","48","48","48","09/27/20 07:11:12","1500","The main experiment item","yes","FlankerTask.osexp","C:/Users/solom/Desktop","no","mono","no","18","no","white","no","yes","768","legacy","48","48","C:/Users/solom/Desktop/MW-subject-3.csv","legacy","Lentiform Loewenfeld","3.3.3","0","s","NA","s","NA","NA","s","685","NA","5170","NA","NA","685","2","legacy","1024","2","48000","-16","experiment","HHSHH","3","odd","12568","NA","NA","13557","NA","NA","108854","107675","7396","NA","NA","108849","7390","108961","109649","108960","Flanker Task","48","32310","49","yes","1024"
"98","98","659.32","659.32","black","legacy","legacy","legacy","0","Congruent","uniform","1","undefined","1","h","0","0","0","49","49","0","49","49","0","0","0","49","0","49","49","49","09/27/20 07:11:12","1500","The main experiment item","yes","FlankerTask.osexp","C:/Users/solom/Desktop","no","mono","no","18","no","white","no","yes","768","legacy","49","49","C:/Users/solom/Desktop/MW-subject-3.csv","legacy","Lentiform Loewenfeld","3.3.3","0","h","NA","s","NA","NA","h","656","NA","5170","NA","NA","656","2","legacy","1024","2","48000","-16","experiment","HHHHH","3","odd","12568","NA","NA","13557","NA","NA","110860","109684","7396","NA","NA","110855","7390","110966","111624","110965","Flanker Task","49","32966","50","yes","1024"
"98.0392156863","98.0392156863","660.588235294","660.588235294","black","legacy","legacy","legacy","0","Incongruent","uniform","1","undefined","1","s","0","0","0","50","50","0","50","50","0","0","0","50","0","50","50","50","09/27/20 07:11:12","1500","The main experiment item","yes","FlankerTask.osexp","C:/Users/solom/Desktop","no","mono","no","18","no","white","no","yes","768","legacy","50","50","C:/Users/solom/Desktop/MW-subject-3.csv","legacy","Lentiform Loewenfeld","3.3.3","0","s","NA","s","NA","NA","s","724","NA","5170","NA","NA","724","2","legacy","1024","2","48000","-16","experiment","HHSHH","3","odd","12568","NA","NA","13557","NA","NA","112824","111649","7396","NA","NA","112819","7390","112930","113656","112929","Flanker Task","50","33690","51","yes","1024"
"98.0769230769","98.0769230769","661.442307692","661.442307692","black","legacy","legacy","legacy","0","Incongruent","uniform","1","undefined","1","h","0","0","0","51","51","0","51","51","0","0","0","51","0","51","51","51","09/27/20 07:11:12","1500","The main experiment item","yes","FlankerTask.osexp","C:/Users/solom/Desktop","no","mono","no","18","no","white","no","yes","768","legacy","51","51","C:/Users/solom/Desktop/MW-subject-3.csv","legacy","Lentiform Loewenfeld","3.3.3","0","h","NA","s","NA","NA","h","705","NA","5170","NA","NA","705","2","legacy","1024","2","48000","-16","experiment","SSHSS","3","odd","12568","NA","NA","13557","NA","NA","114876","113702","7396","NA","NA","114871","7390","114981","115689","114981","Flanker Task","51","34395","52","yes","1024"
"98.1132075472","98.1132075472","658.79245283","658.79245283","black","legacy","legacy","legacy","0","Congruent","uniform","1","undefined","1","h","0","0","0","52","52","0","52","52","0","0","0","52","0","52","52","52","09/27/20 07:11:12","1500","The main experiment item","yes","FlankerTask.osexp","C:/Users/solom/Desktop","no","mono","no","18","no","white","no","yes","768","legacy","52","52","C:/Users/solom/Desktop/MW-subject-3.csv","legacy","Lentiform Loewenfeld","3.3.3","0","h","NA","s","NA","NA","h","521","NA","5170","NA","NA","521","2","legacy","1024","2","48000","-16","experiment","HHHHH","3","odd","12568","NA","NA","13557","NA","NA","116890","115719","7396","NA","NA","116886","7390","116997","117521","116996","Flanker Task","52","34916","53","yes","1024"
"98.1481481481","98.1481481481","658.685185185","658.685185185","black","legacy","legacy","legacy","0","Congruent","uniform","1","undefined","1","s","0","0","0","53","53","0","53","53","0","0","0","53","0","53","53","53","09/27/20 07:11:12","1500","The main experiment item","yes","FlankerTask.osexp","C:/Users/solom/Desktop","no","mono","no","18","no","white","no","yes","768","legacy","53","53","C:/Users/solom/Desktop/MW-subject-3.csv","legacy","Lentiform Loewenfeld","3.3.3","0","s","NA","s","NA","NA","s","653","NA","5170","NA","NA","653","2","legacy","1024","2","48000","-16","experiment","SSSSS","3","odd","12568","NA","NA","13557","NA","NA","118727","117552","7396","NA","NA","118722","7390","118833","119488","118832","Flanker Task","53","35569","54","yes","1024"
"98.1818181818","98.1818181818","659.490909091","659.490909091","black","legacy","legacy","legacy","0","Congruent","uniform","1","undefined","1","s","0","0","0","54","54","0","54","54","0","0","0","54","0","54","54","54","09/27/20 07:11:12","1500","The main experiment item","yes","FlankerTask.osexp","C:/Users/solom/Desktop","no","mono","no","18","no","white","no","yes","768","legacy","54","54","C:/Users/solom/Desktop/MW-subject-3.csv","legacy","Lentiform Loewenfeld","3.3.3","0","s","NA","s","NA","NA","s","703","NA","5170","NA","NA","703","2","legacy","1024","2","48000","-16","experiment","SSSSS","3","odd","12568","NA","NA","13557","NA","NA","120686","119510","7396","NA","NA","120682","7390","120792","121497","120792","Flanker Task","54","36272","55","yes","1024"
"98.2142857143","98.2142857143","660.589285714","660.589285714","black","legacy","legacy","legacy","0","Incongruent","uniform","1","undefined","1","s","0","0","0","55","55","0","55","55","0","0","0","55","0","55","55","55","09/27/20 07:11:12","1500","The main experiment item","yes","FlankerTask.osexp","C:/Users/solom/Desktop","no","mono","no","18","no","white","no","yes","768","legacy","55","55","C:/Users/solom/Desktop/MW-subject-3.csv","legacy","Lentiform Loewenfeld","3.3.3","0","s","NA","s","NA","NA","s","721","NA","5170","NA","NA","721","2","legacy","1024","2","48000","-16","experiment","HHSHH","3","odd","12568","NA","NA","13557","NA","NA","122708","121529","7396","NA","NA","122703","7390","122813","123537","122813","Flanker Task","55","36993","56","yes","1024"
"98.2456140351","98.2456140351","658.614035088","658.614035088","black","legacy","legacy","legacy","0","Incongruent","uniform","1","undefined","1","s","0","0","0","56","56","0","56","56","0","0","0","56","0","56","56","56","09/27/20 07:11:12","1500","The main experiment item","yes","FlankerTask.osexp","C:/Users/solom/Desktop","no","mono","no","18","no","white","no","yes","768","legacy","56","56","C:/Users/solom/Desktop/MW-subject-3.csv","legacy","Lentiform Loewenfeld","3.3.3","0","s","NA","s","NA","NA","s","548","NA","5170","NA","NA","548","2","legacy","1024","2","48000","-16","experiment","HHSHH","3","odd","12568","NA","NA","13557","NA","NA","124736","123561","7396","NA","NA","124731","7390","124842","125393","124841","Flanker Task","56","37541","57","yes","1024"
"98.275862069","98.275862069","654.655172414","654.655172414","black","legacy","legacy","legacy","0","Congruent","uniform","1","undefined","1","h","0","0","0","57","57","0","57","57","0","0","0","57","0","57","57","57","09/27/20 07:11:12","1500","The main experiment item","yes","FlankerTask.osexp","C:/Users/solom/Desktop","no","mono","no","18","no","white","no","yes","768","legacy","57","57","C:/Users/solom/Desktop/MW-subject-3.csv","legacy","Lentiform Loewenfeld","3.3.3","0","h","NA","s","NA","NA","h","429","NA","5170","NA","NA","429","2","legacy","1024","2","48000","-16","experiment","HHHHH","3","odd","12568","NA","NA","13557","NA","NA","126608","125431","7396","NA","NA","126603","7390","126712","127144","126711","Flanker Task","57","37970","58","yes","1024"
"98.3050847458","98.3050847458","654.118644068","654.118644068","black","legacy","legacy","legacy","0","Incongruent","uniform","1","undefined","1","s","0","0","0","58","58","0","58","58","0","0","0","58","0","58","58","58","09/27/20 07:11:12","1500","The main experiment item","yes","FlankerTask.osexp","C:/Users/solom/Desktop","no","mono","no","18","no","white","no","yes","768","legacy","58","58","C:/Users/solom/Desktop/MW-subject-3.csv","legacy","Lentiform Loewenfeld","3.3.3","0","s","NA","s","NA","NA","s","623","NA","5170","NA","NA","623","2","legacy","1024","2","48000","-16","experiment","HHSHH","3","odd","12568","NA","NA","13557","NA","NA","128344","127171","7396","NA","NA","128339","7390","128447","129073","128447","Flanker Task","58","38593","59","yes","1024"
"98.3333333333","98.3333333333","651.816666667","651.816666667","black","legacy","legacy","legacy","0","Congruent","uniform","1","undefined","1","s","0","0","0","59","59","0","59","59","0","0","0","59","0","59","59","59","09/27/20 07:11:12","1500","The main experiment item","yes","FlankerTask.osexp","C:/Users/solom/Desktop","no","mono","no","18","no","white","no","yes","768","legacy","59","59","C:/Users/solom/Desktop/MW-subject-3.csv","legacy","Lentiform Loewenfeld","3.3.3","0","s","NA","s","NA","NA","s","516","NA","5170","NA","NA","516","2","legacy","1024","2","48000","-16","experiment","SSSSS","3","odd","12568","NA","NA","13557","NA","NA","130275","129098","7396","NA","NA","130270","7390","130378","130896","130378","Flanker Task","59","39109","60","yes","1024"
"98.3606557377","98.3606557377","650.62295082","650.62295082","black","legacy","legacy","legacy","0","Incongruent","uniform","1","undefined","1","h","0","0","0","60","60","0","60","60","0","0","0","60","0","60","60","60","09/27/20 07:11:12","1500","The main experiment item","yes","FlankerTask.osexp","C:/Users/solom/Desktop","no","mono","no","18","no","white","no","yes","768","legacy","60","60","C:/Users/solom/Desktop/MW-subject-3.csv","legacy","Lentiform Loewenfeld","3.3.3","0","h","NA","s","NA","NA","h","579","NA","5170","NA","NA","579","2","legacy","1024","2","48000","-16","experiment","SSHSS","3","odd","12568","NA","NA","13557","NA","NA","132106","130923","7396","NA","NA","132101","7390","132211","132792","132211","Flanker Task","60","39688","61","yes","1024"
"98.3870967742","98.3870967742","646.548387097","646.548387097","black","legacy","legacy","legacy","0","Congruent","uniform","1","undefined","1","h","0","0","0","61","61","0","61","61","0","0","0","61","0","61","61","61","09/27/20 07:11:12","1500","The main experiment item","yes","FlankerTask.osexp","C:/Users/solom/Desktop","no","mono","no","18","no","white","no","yes","768","legacy","61","61","C:/Users/solom/Desktop/MW-subject-3.csv","legacy","Lentiform Loewenfeld","3.3.3","0","h","NA","s","NA","NA","h","398","NA","5170","NA","NA","398","2","legacy","1024","2","48000","-16","experiment","HHHHH","3","odd","12568","NA","NA","13557","NA","NA","134006","132832","7396","NA","NA","134001","7390","134113","134513","134112","Flanker Task","61","40086","62","yes","1024"
"98.4126984127","98.4126984127","644.126984127","644.126984127","black","legacy","legacy","legacy","0","Congruent","uniform","1","undefined","1","s","0","0","0","62","62","0","62","62","0","0","0","62","0","62","62","62","09/27/20 07:11:12","1500","The main experiment item","yes","FlankerTask.osexp","C:/Users/solom/Desktop","no","mono","no","18","no","white","no","yes","768","legacy","62","62","C:/Users/solom/Desktop/MW-subject-3.csv","legacy","Lentiform Loewenfeld","3.3.3","0","s","NA","s","NA","NA","s","494","NA","5170","NA","NA","494","2","legacy","1024","2","48000","-16","experiment","SSSSS","3","odd","12568","NA","NA","13557","NA","NA","135718","134540","7396","NA","NA","135713","7390","135824","136321","135823","Flanker Task","62","40580","63","yes","1024"
"98.4375","98.4375","641.890625","641.890625","black","legacy","legacy","legacy","0","Congruent","uniform","1","undefined","1","h","0","0","0","63","63","0","63","63","0","0","0","63","0","63","63","63","09/27/20 07:11:12","1500","The main experiment item","yes","FlankerTask.osexp","C:/Users/solom/Desktop","no","mono","no","18","no","white","no","yes","768","legacy","63","63","C:/Users/solom/Desktop/MW-subject-3.csv","legacy","Lentiform Loewenfeld","3.3.3","0","h","NA","s","NA","NA","h","501","NA","5170","NA","NA","501","2","legacy","1024","2","48000","-16","experiment","HHHHH","3","odd","12568","NA","NA","13557","NA","NA","137527","136350","7396","NA","NA","137522","7390","137633","138136","137632","Flanker Task","63","41081","64","yes","1024"
"98.4615384615","98.4615384615","639.215384615","639.215384615","black","legacy","legacy","legacy","0","Incongruent","uniform","1","undefined","1","s","0","0","0","64","64","0","64","64","0","0","0","64","0","64","64","64","09/27/20 07:11:12","1500","The main experiment item","yes","FlankerTask.osexp","C:/Users/solom/Desktop","no","mono","no","18","no","white","no","yes","768","legacy","64","64","C:/Users/solom/Desktop/MW-subject-3.csv","legacy","Lentiform Loewenfeld","3.3.3","0","s","NA","s","NA","NA","s","468","NA","5170","NA","NA","468","2","legacy","1024","2","48000","-16","experiment","HHSHH","3","odd","12568","NA","NA","13557","NA","NA","139347","138174","7396","NA","NA","139342","7390","139451","139921","139450","Flanker Task","64","41549","65","yes","1024"
"98.4848484848","98.4848484848","639.287878788","639.287878788","black","legacy","legacy","legacy","0","Incongruent","uniform","1","undefined","1","s","0","0","0","65","65","0","65","65","0","0","0","65","0","65","65","65","09/27/20 07:11:12","1500","The main experiment item","yes","FlankerTask.osexp","C:/Users/solom/Desktop","no","mono","no","18","no","white","no","yes","768","legacy","65","65","C:/Users/solom/Desktop/MW-subject-3.csv","legacy","Lentiform Loewenfeld","3.3.3","0","s","NA","s","NA","NA","s","644","NA","5170","NA","NA","644","2","legacy","1024","2","48000","-16","experiment","HHSHH","3","odd","12568","NA","NA","13557","NA","NA","141127","139950","7396","NA","NA","141122","7390","141234","141881","141233","Flanker Task","65","42193","66","yes","1024"
"98.5074626866","98.5074626866","638.746268657","638.746268657","black","legacy","legacy","legacy","0","Incongruent","uniform","1","undefined","1","h","0","0","0","66","66","0","66","66","0","0","0","66","0","66","66","66","09/27/20 07:11:12","1500","The main experiment item","yes","FlankerTask.osexp","C:/Users/solom/Desktop","no","mono","no","18","no","white","no","yes","768","legacy","66","66","C:/Users/solom/Desktop/MW-subject-3.csv","legacy","Lentiform Loewenfeld","3.3.3","0","h","NA","s","NA","NA","h","603","NA","5170","NA","NA","603","2","legacy","1024","2","48000","-16","experiment","SSHSS","3","odd","12568","NA","NA","13557","NA","NA","143081","141910","7396","NA","NA","143076","7390","143187","143793","143186","Flanker Task","66","42796","67","yes","1024"
"98.5294117647","98.5294117647","639.926470588","639.926470588","black","legacy","legacy","legacy","0","Congruent","uniform","1","undefined","1","h","0","0","0","67","67","0","67","67","0","0","0","67","0","67","67","67","09/27/20 07:11:12","1500","The main experiment item","yes","FlankerTask.osexp","C:/Users/solom/Desktop","no","mono","no","18","no","white","no","yes","768","legacy","67","67","C:/Users/solom/Desktop/MW-subject-3.csv","legacy","Lentiform Loewenfeld","3.3.3","0","h","NA","s","NA","NA","h","719","NA","5170","NA","NA","719","2","legacy","1024","2","48000","-16","experiment","HHHHH","3","odd","12568","NA","NA","13557","NA","NA","145013","143838","7396","NA","NA","145008","7390","145119","145841","145118","Flanker Task","67","43515","68","yes","1024"
"98.5507246377","98.5507246377","638","638","black","legacy","legacy","legacy","0","Incongruent","uniform","1","undefined","1","s","0","0","0","68","68","0","68","68","0","0","0","68","0","68","68","68","09/27/20 07:11:12","1500","The main experiment item","yes","FlankerTask.osexp","C:/Users/solom/Desktop","no","mono","no","18","no","white","no","yes","768","legacy","68","68","C:/Users/solom/Desktop/MW-subject-3.csv","legacy","Lentiform Loewenfeld","3.3.3","0","s","NA","s","NA","NA","s","507","NA","5170","NA","NA","507","2","legacy","1024","2","48000","-16","experiment","HHSHH","3","odd","12568","NA","NA","13557","NA","NA","147044","145870","7396","NA","NA","147039","7390","147147","147657","147147","Flanker Task","68","44022","69","yes","1024"
"98.5714285714","98.5714285714","636.657142857","636.657142857","black","legacy","legacy","legacy","0","Congruent","uniform","1","undefined","1","h","0","0","0","69","69","0","69","69","0","0","0","69","0","69","69","69","09/27/20 07:11:12","1500","The main experiment item","yes","FlankerTask.osexp","C:/Users/solom/Desktop","no","mono","no","18","no","white","no","yes","768","legacy","69","69","C:/Users/solom/Desktop/MW-subject-3.csv","legacy","Lentiform Loewenfeld","3.3.3","0","h","NA","s","NA","NA","h","544","NA","5170","NA","NA","544","2","legacy","1024","2","48000","-16","experiment","HHHHH","3","odd","12568","NA","NA","13557","NA","NA","148860","147687","7396","NA","NA","148855","7390","148966","149513","148966","Flanker Task","69","44566","70","yes","1024"
"98.5915492958","98.5915492958","635.23943662","635.23943662","black","legacy","legacy","legacy","0","Congruent","uniform","1","undefined","1","h","0","0","0","70","70","0","70","70","0","0","0","70","0","70","70","70","09/27/20 07:11:12","1500","The main experiment item","yes","FlankerTask.osexp","C:/Users/solom/Desktop","no","mono","no","18","no","white","no","yes","768","legacy","70","70","C:/Users/solom/Desktop/MW-subject-3.csv","legacy","Lentiform Loewenfeld","3.3.3","0","h","NA","s","NA","NA","h","536","NA","5170","NA","NA","536","2","legacy","1024","2","48000","-16","experiment","HHHHH","3","odd","12568","NA","NA","13557","NA","NA","150724","149546","7396","NA","NA","150719","7390","150830","151369","150829","Flanker Task","70","45102","71","yes","1024"
"98.6111111111","98.6111111111","635.111111111","635.111111111","black","legacy","legacy","legacy","0","Incongruent","uniform","1","undefined","1","s","0","0","0","71","71","0","71","71","0","0","0","71","0","71","71","71","09/27/20 07:11:12","1500","The main experiment item","yes","FlankerTask.osexp","C:/Users/solom/Desktop","no","mono","no","18","no","white","no","yes","768","legacy","71","71","C:/Users/solom/Desktop/MW-subject-3.csv","legacy","Lentiform Loewenfeld","3.3.3","0","s","NA","s","NA","NA","s","626","NA","5170","NA","NA","626","2","legacy","1024","2","48000","-16","experiment","HHSHH","3","odd","12568","NA","NA","13557","NA","NA","152569","151395","7396","NA","NA","152564","7390","152676","153305","152675","Flanker Task","71","45728","72","yes","1024"
"98.6301369863","98.6301369863","632.561643836","632.561643836","black","legacy","legacy","legacy","0","Congruent","uniform","1","undefined","1","h","0","0","0","72","72","0","72","72","0","0","0","72","0","72","72","72","09/27/20 07:11:12","1500","The main experiment item","yes","FlankerTask.osexp","C:/Users/solom/Desktop","no","mono","no","18","no","white","no","yes","768","legacy","72","72","C:/Users/solom/Desktop/MW-subject-3.csv","legacy","Lentiform Loewenfeld","3.3.3","0","h","NA","s","NA","NA","h","449","NA","5170","NA","NA","449","2","legacy","1024","2","48000","-16","experiment","HHHHH","3","odd","12568","NA","NA","13557","NA","NA","154515","153339","7396","NA","NA","154510","7390","154621","155073","154620","Flanker Task","72","46177","73","yes","1024"
"98.6486486486","98.6486486486","631.040540541","631.040540541","black","legacy","legacy","legacy","0","Congruent","uniform","1","undefined","1","s","0","0","0","73","73","0","73","73","0","0","0","73","0","73","73","73","09/27/20 07:11:12","1500","The main experiment item","yes","FlankerTask.osexp","C:/Users/solom/Desktop","no","mono","no","18","no","white","no","yes","768","legacy","73","73","C:/Users/solom/Desktop/MW-subject-3.csv","legacy","Lentiform Loewenfeld","3.3.3","0","s","NA","s","NA","NA","s","520","NA","5170","NA","NA","520","2","legacy","1024","2","48000","-16","experiment","SSSSS","3","odd","12568","NA","NA","13557","NA","NA","156271","155096","7396","NA","NA","156266","7390","156374","156898","156374","Flanker Task","73","46697","74","yes","1024"
"98.6666666667","98.6666666667","631.32","631.32","black","legacy","legacy","legacy","0","Incongruent","uniform","1","undefined","1","h","0","0","0","74","74","0","74","74","0","0","0","74","0","74","74","74","09/27/20 07:11:12","1500","The main experiment item","yes","FlankerTask.osexp","C:/Users/solom/Desktop","no","mono","no","18","no","white","no","yes","768","legacy","74","74","C:/Users/solom/Desktop/MW-subject-3.csv","legacy","Lentiform Loewenfeld","3.3.3","0","h","NA","s","NA","NA","h","652","NA","5170","NA","NA","652","2","legacy","1024","2","48000","-16","experiment","SSHSS","3","odd","12568","NA","NA","13557","NA","NA","158096","156922","7396","NA","NA","158091","7390","158202","158857","158201","Flanker Task","74","47349","75","yes","1024"
"98.6842105263","98.6842105263","628.947368421","628.947368421","black","legacy","legacy","legacy","0","Congruent","uniform","1","undefined","1","h","0","0","0","75","75","0","75","75","0","0","0","75","0","75","75","75","09/27/20 07:11:12","1500","The main experiment item","yes","FlankerTask.osexp","C:/Users/solom/Desktop","no","mono","no","18","no","white","no","yes","768","legacy","75","75","C:/Users/solom/Desktop/MW-subject-3.csv","legacy","Lentiform Loewenfeld","3.3.3","0","h","NA","s","NA","NA","h","451","NA","5170","NA","NA","451","2","legacy","1024","2","48000","-16","experiment","HHHHH","3","odd","12568","NA","NA","13557","NA","NA","160074","158898","7396","NA","NA","160069","7390","160179","160633","160179","Flanker Task","75","47800","76","yes","1024"
"98.7012987013","98.7012987013","626.155844156","626.155844156","black","legacy","legacy","legacy","0","Incongruent","uniform","1","undefined","1","s","0","0","0","76","76","0","76","76","0","0","0","76","0","76","76","76","09/27/20 07:11:12","1500","The main experiment item","yes","FlankerTask.osexp","C:/Users/solom/Desktop","no","mono","no","18","no","white","no","yes","768","legacy","76","76","C:/Users/solom/Desktop/MW-subject-3.csv","legacy","Lentiform Loewenfeld","3.3.3","0","s","NA","s","NA","NA","s","414","NA","5170","NA","NA","414","2","legacy","1024","2","48000","-16","experiment","HHSHH","3","odd","12568","NA","NA","13557","NA","NA","161830","160656","7396","NA","NA","161825","7390","161936","162353","161935","Flanker Task","76","48214","77","yes","1024"
"98.7179487179","98.7179487179","624.243589744","624.243589744","black","legacy","legacy","legacy","0","Incongruent","uniform","1","undefined","1","s","0","0","0","77","77","0","77","77","0","0","0","77","0","77","77","77","09/27/20 07:11:12","1500","The main experiment item","yes","FlankerTask.osexp","C:/Users/solom/Desktop","no","mono","no","18","no","white","no","yes","768","legacy","77","77","C:/Users/solom/Desktop/MW-subject-3.csv","legacy","Lentiform Loewenfeld","3.3.3","0","s","NA","s","NA","NA","s","477","NA","5170","NA","NA","477","2","legacy","1024","2","48000","-16","experiment","HHSHH","3","odd","12568","NA","NA","13557","NA","NA","163559","162382","7396","NA","NA","163554","7390","163665","164145","163664","Flanker Task","77","48691","78","yes","1024"
"98.7341772152","98.7341772152","623.518987342","623.518987342","black","legacy","legacy","legacy","0","Incongruent","uniform","1","undefined","1","h","0","0","0","78","78","0","78","78","0","0","0","78","0","78","78","78","09/27/20 07:11:12","1500","The main experiment item","yes","FlankerTask.osexp","C:/Users/solom/Desktop","no","mono","no","18","no","white","no","yes","768","legacy","78","78","C:/Users/solom/Desktop/MW-subject-3.csv","legacy","Lentiform Loewenfeld","3.3.3","0","h","NA","s","NA","NA","h","567","NA","5170","NA","NA","567","2","legacy","1024","2","48000","-16","experiment","SSHSS","3","odd","12568","NA","NA","13557","NA","NA","165352","164165","7396","NA","NA","165347","7390","165455","166025","165455","Flanker Task","78","49258","79","yes","1024"
"98.75","98.75","623.1375","623.1375","black","legacy","legacy","legacy","0","Incongruent","uniform","1","undefined","1","h","0","0","0","79","79","0","79","79","0","0","0","79","0","79","79","79","09/27/20 07:11:12","1500","The main experiment item","yes","FlankerTask.osexp","C:/Users/solom/Desktop","no","mono","no","18","no","white","no","yes","768","legacy","79","79","C:/Users/solom/Desktop/MW-subject-3.csv","legacy","Lentiform Loewenfeld","3.3.3","0","h","NA","s","NA","NA","h","593","NA","5170","NA","NA","593","2","legacy","1024","2","48000","-16","experiment","SSHSS","3","odd","12568","NA","NA","13557","NA","NA","167229","166049","7396","NA","NA","167224","7390","167333","167930","167333","Flanker Task","79","49851","80","yes","1024"
"98.7654320988","98.7654320988","623.679012346","623.679012346","black","legacy","legacy","legacy","0","Incongruent","uniform","1","undefined","1","h","0","0","0","80","80","0","80","80","0","0","0","80","0","80","80","80","09/27/20 07:11:12","600","The main experiment item","yes","FlankerTask.osexp","C:/Users/solom/Desktop","no","mono","no","18","no","white","no","yes","768","legacy","0","79","C:/Users/solom/Desktop/MW-subject-3.csv","legacy","Lentiform Loewenfeld","3.3.3","0","h","NA","s","s","NA","h","667","NA","5170","24936","NA","667","2","legacy","1024","2","48000","-16","experiment","SSHSS","3","odd","12568","193938","NA","13557","NA","NA","194113","167960","7396","168998","NA","194108","7390","194219","194890","194218","Flanker Task","80","50518","81","yes","1024"
"98.7804878049","98.7804878049","624.914634146","624.914634146","black","legacy","legacy","legacy","0","Congruent","uniform","1","undefined","1","h","0","0","0","81","81","0","81","81","0","0","0","81","0","81","81","81","09/27/20 07:11:12","600","The main experiment item","yes","FlankerTask.osexp","C:/Users/solom/Desktop","no","mono","no","18","no","white","no","yes","768","legacy","1","79","C:/Users/solom/Desktop/MW-subject-3.csv","legacy","Lentiform Loewenfeld","3.3.3","0","h","NA","s","s","NA","h","725","NA","5170","24936","NA","725","2","legacy","1024","2","48000","-16","experiment","HHHHH","3","odd","12568","193938","NA","13557","194917","NA","196599","195420","7396","168998","NA","196594","7390","196705","197433","196704","Flanker Task","81","51243","82","yes","1024"
"98.7951807229","98.7951807229","624.325301205","624.325301205","black","legacy","legacy","legacy","0","Incongruent","uniform","1","undefined","1","s","0","0","0","82","82","0","82","82","0","0","0","82","0","82","82","82","09/27/20 07:11:12","600","The main experiment item","yes","FlankerTask.osexp","C:/Users/solom/Desktop","no","mono","no","18","no","white","no","yes","768","legacy","2","79","C:/Users/solom/Desktop/MW-subject-3.csv","legacy","Lentiform Loewenfeld","3.3.3","0","s","NA","s","s","NA","s","576","NA","5170","24936","NA","576","2","legacy","1024","2","48000","-16","experiment","HHSHH","3","odd","12568","193938","NA","13557","197459","NA","199140","197964","7396","168998","NA","199135","7390","199246","199825","199245","Flanker Task","82","51819","83","yes","1024"
"97.619047619","97.619047619","622.321428571","622.321428571","black","legacy","legacy","legacy","0","Incongruent","uniform","0","undefined","0","h","0","0","0","83","83","0","83","83","0","0","0","83","0","83","83","83","09/27/20 07:11:12","600","The main experiment item","yes","FlankerTask.osexp","C:/Users/solom/Desktop","no","mono","no","18","no","white","no","yes","768","legacy","3","79","C:/Users/solom/Desktop/MW-subject-3.csv","legacy","Lentiform Loewenfeld","3.3.3","0","s","NA","s","s","NA","s","456","NA","5170","24936","NA","456","2","legacy","1024","2","48000","-16","experiment","SSHSS","3","odd","12568","193938","NA","13557","197459","NA","201029","199852","7396","168998","NA","201024","7390","201134","201594","201133","Flanker Task","82","52275","84","yes","1024"
"97.6470588235","97.6470588235","621.329411765","621.329411765","black","legacy","legacy","legacy","0","Incongruent","uniform","1","undefined","1","h","0","0","0","84","84","0","84","84","0","0","0","84","0","84","84","84","09/27/20 07:11:12","600","The main experiment item","yes","FlankerTask.osexp","C:/Users/solom/Desktop","no","mono","no","18","no","white","no","yes","768","legacy","4","79","C:/Users/solom/Desktop/MW-subject-3.csv","legacy","Lentiform Loewenfeld","3.3.3","0","h","NA","s","s","NA","h","538","NA","5170","24936","NA","538","2","legacy","1024","2","48000","-16","experiment","SSHSS","3","odd","12568","193938","NA","201628","197459","NA","203306","202133","7396","168998","NA","203301","7390","203412","203954","203412","Flanker Task","83","52813","85","yes","1024"
"97.6744186047","97.6744186047","619.813953488","619.813953488","black","legacy","legacy","legacy","0","Incongruent","uniform","1","undefined","1","s","0","0","0","85","85","0","85","85","0","0","0","85","0","85","85","85","09/27/20 07:11:12","600","The main experiment item","yes","FlankerTask.osexp","C:/Users/solom/Desktop","no","mono","no","18","no","white","no","yes","768","legacy","5","79","C:/Users/solom/Desktop/MW-subject-3.csv","legacy","Lentiform Loewenfeld","3.3.3","0","s","NA","s","s","NA","s","491","NA","5170","24936","NA","491","2","legacy","1024","2","48000","-16","experiment","HHSHH","3","odd","12568","193938","NA","201628","197459","NA","205169","203998","7396","168998","NA","205164","7390","205275","205769","205274","Flanker Task","84","53304","86","yes","1024"
"97.7011494253","97.7011494253","617.724137931","617.724137931","black","legacy","legacy","legacy","0","Congruent","uniform","1","undefined","1","s","0","0","0","86","86","0","86","86","0","0","0","86","0","86","86","86","09/27/20 07:11:12","600","The main experiment item","yes","FlankerTask.osexp","C:/Users/solom/Desktop","no","mono","no","18","no","white","no","yes","768","legacy","6","79","C:/Users/solom/Desktop/MW-subject-3.csv","legacy","Lentiform Loewenfeld","3.3.3","0","s","NA","s","s","NA","s","438","NA","5170","24936","NA","438","2","legacy","1024","2","48000","-16","experiment","SSSSS","3","odd","12568","193938","NA","201628","197459","NA","206966","205796","7396","168998","NA","206961","7390","207072","207514","207071","Flanker Task","85","53742","87","yes","1024"
"97.7272727273","97.7272727273","614.443181818","614.443181818","black","legacy","legacy","legacy","0","Congruent","uniform","1","undefined","1","h","0","0","0","87","87","0","87","87","0","0","0","87","0","87","87","87","09/27/20 07:11:12","600","The main experiment item","yes","FlankerTask.osexp","C:/Users/solom/Desktop","no","mono","no","18","no","white","no","yes","768","legacy","7","79","C:/Users/solom/Desktop/MW-subject-3.csv","legacy","Lentiform Loewenfeld","3.3.3","0","h","NA","s","s","NA","h","329","NA","5170","24936","NA","329","2","legacy","1024","2","48000","-16","experiment","HHHHH","3","odd","12568","193938","NA","201628","197459","NA","208716","207539","7396","168998","NA","208712","7390","208821","209154","208821","Flanker Task","86","54071","88","yes","1024"
"97.7528089888","97.7528089888","612.06741573","612.06741573","black","legacy","legacy","legacy","0","Incongruent","uniform","1","undefined","1","h","0","0","0","88","88","0","88","88","0","0","0","88","0","88","88","88","09/27/20 07:11:12","600","The main experiment item","yes","FlankerTask.osexp","C:/Users/solom/Desktop","no","mono","no","18","no","white","no","yes","768","legacy","8","79","C:/Users/solom/Desktop/MW-subject-3.csv","legacy","Lentiform Loewenfeld","3.3.3","0","h","NA","s","s","NA","h","403","NA","5170","24936","NA","403","2","legacy","1024","2","48000","-16","experiment","SSHSS","3","odd","12568","193938","NA","201628","197459","NA","210355","209181","7396","168998","NA","210350","7390","210459","210865","210459","Flanker Task","87","54474","89","yes","1024"
"96.6666666667","96.6666666667","608.877777778","608.877777778","black","legacy","legacy","legacy","0","Incongruent","uniform","0","undefined","0","h","0","0","0","89","89","0","89","89","0","0","0","89","0","89","89","89","09/27/20 07:11:12","600","The main experiment item","yes","FlankerTask.osexp","C:/Users/solom/Desktop","no","mono","no","18","no","white","no","yes","768","legacy","9","79","C:/Users/solom/Desktop/MW-subject-3.csv","legacy","Lentiform Loewenfeld","3.3.3","0","s","NA","s","s","NA","s","325","NA","5170","24936","NA","325","2","legacy","1024","2","48000","-16","experiment","SSHSS","3","odd","12568","193938","NA","201628","197459","NA","212073","210898","7396","168998","NA","212068","7390","212177","212505","212177","Flanker Task","87","54799","90","yes","1024"
"96.7032967033","96.7032967033","606.868131868","606.868131868","black","legacy","legacy","legacy","0","Congruent","uniform","1","undefined","1","h","0","0","0","90","90","0","90","90","0","0","0","90","0","90","90","90","09/27/20 07:11:12","600","The main experiment item","yes","FlankerTask.osexp","C:/Users/solom/Desktop","no","mono","no","18","no","white","no","yes","768","legacy","10","79","C:/Users/solom/Desktop/MW-subject-3.csv","legacy","Lentiform Loewenfeld","3.3.3","0","h","NA","s","s","NA","h","426","NA","5170","24936","NA","426","2","legacy","1024","2","48000","-16","experiment","HHHHH","3","odd","12568","193938","NA","212531","197459","NA","214209","213034","7396","168998","NA","214204","7390","214315","214745","214314","Flanker Task","88","55225","91","yes","1024"
"96.7391304348","96.7391304348","605.543478261","605.543478261","black","legacy","legacy","legacy","0","Incongruent","uniform","1","undefined","1","h","0","0","0","91","91","0","91","91","0","0","0","91","0","91","91","91","09/27/20 07:11:12","600","The main experiment item","yes","FlankerTask.osexp","C:/Users/solom/Desktop","no","mono","no","18","no","white","no","yes","768","legacy","11","79","C:/Users/solom/Desktop/MW-subject-3.csv","legacy","Lentiform Loewenfeld","3.3.3","0","h","NA","s","s","NA","h","485","NA","5170","24936","NA","485","2","legacy","1024","2","48000","-16","experiment","SSHSS","3","odd","12568","193938","NA","212531","197459","NA","215959","214785","7396","168998","NA","215954","7390","216065","216553","216064","Flanker Task","89","55710","92","yes","1024"
"96.7741935484","96.7741935484","605.666666667","605.666666667","black","legacy","legacy","legacy","0","Incongruent","uniform","1","undefined","1","s","0","0","0","92","92","0","92","92","0","0","0","92","0","92","92","92","09/27/20 07:11:12","600","The main experiment item","yes","FlankerTask.osexp","C:/Users/solom/Desktop","no","mono","no","18","no","white","no","yes","768","legacy","12","79","C:/Users/solom/Desktop/MW-subject-3.csv","legacy","Lentiform Loewenfeld","3.3.3","0","s","NA","s","s","NA","s","617","NA","5170","24936","NA","617","2","legacy","1024","2","48000","-16","experiment","HHSHH","3","odd","12568","193938","NA","212531","197459","NA","217757","216583","7396","168998","NA","217752","7390","217861","218481","217861","Flanker Task","90","56327","93","yes","1024"
"96.8085106383","96.8085106383","603.776595745","603.776595745","black","legacy","legacy","legacy","0","Congruent","uniform","1","undefined","1","h","0","0","0","93","93","0","93","93","0","0","0","93","0","93","93","93","09/27/20 07:11:12","600","The main experiment item","yes","FlankerTask.osexp","C:/Users/solom/Desktop","no","mono","no","18","no","white","no","yes","768","legacy","13","79","C:/Users/solom/Desktop/MW-subject-3.csv","legacy","Lentiform Loewenfeld","3.3.3","0","h","NA","s","s","NA","h","428","NA","5170","24936","NA","428","2","legacy","1024","2","48000","-16","experiment","HHHHH","3","odd","12568","193938","NA","212531","218508","NA","220185","219013","7396","168998","NA","220180","7390","220290","220722","220290","Flanker Task","91","56755","94","yes","1024"
"96.8421052632","96.8421052632","601.873684211","601.873684211","black","legacy","legacy","legacy","0","Congruent","uniform","1","undefined","1","s","0","0","0","94","94","0","94","94","0","0","0","94","0","94","94","94","09/27/20 07:11:12","600","The main experiment item","yes","FlankerTask.osexp","C:/Users/solom/Desktop","no","mono","no","18","no","white","no","yes","768","legacy","14","79","C:/Users/solom/Desktop/MW-subject-3.csv","legacy","Lentiform Loewenfeld","3.3.3","0","s","NA","s","s","NA","s","423","NA","5170","24936","NA","423","2","legacy","1024","2","48000","-16","experiment","SSSSS","3","odd","12568","193938","NA","212531","218508","NA","221925","220751","7396","168998","NA","221920","7390","222031","222458","222030","Flanker Task","92","57178","95","yes","1024"
"96.875","96.875","599.010416667","599.010416667","black","legacy","legacy","legacy","0","Congruent","uniform","1","undefined","1","h","0","0","0","95","95","0","95","95","0","0","0","95","0","95","95","95","09/27/20 07:11:12","600","The main experiment item","yes","FlankerTask.osexp","C:/Users/solom/Desktop","no","mono","no","18","no","white","no","yes","768","legacy","15","79","C:/Users/solom/Desktop/MW-subject-3.csv","legacy","Lentiform Loewenfeld","3.3.3","0","h","NA","s","s","NA","h","327","NA","5170","24936","NA","327","2","legacy","1024","2","48000","-16","experiment","HHHHH","3","odd","12568","193938","NA","212531","218508","NA","223661","222485","7396","168998","NA","223656","7390","223767","224098","223766","Flanker Task","93","57505","96","yes","1024"
"96.9072164948","96.9072164948","596.835051546","596.835051546","black","legacy","legacy","legacy","0","Congruent","uniform","1","undefined","1","s","0","0","0","96","96","0","96","96","0","0","0","96","0","96","96","96","09/27/20 07:11:12","600","The main experiment item","yes","FlankerTask.osexp","C:/Users/solom/Desktop","no","mono","no","18","no","white","no","yes","768","legacy","16","79","C:/Users/solom/Desktop/MW-subject-3.csv","legacy","Lentiform Loewenfeld","3.3.3","0","s","NA","s","s","NA","s","388","NA","5170","24936","NA","388","2","legacy","1024","2","48000","-16","experiment","SSSSS","3","odd","12568","193938","NA","212531","218508","NA","225314","224118","7396","168998","NA","225303","7390","225418","225810","225418","Flanker Task","94","57893","97","yes","1024"
"96.9387755102","96.9387755102","594.714285714","594.714285714","black","legacy","legacy","legacy","0","Incongruent","uniform","1","undefined","1","h","0","0","0","97","97","0","97","97","0","0","0","97","0","97","97","97","09/27/20 07:11:12","600","The main experiment item","yes","FlankerTask.osexp","C:/Users/solom/Desktop","no","mono","no","18","no","white","no","yes","768","legacy","17","79","C:/Users/solom/Desktop/MW-subject-3.csv","legacy","Lentiform Loewenfeld","3.3.3","0","h","NA","s","s","NA","h","389","NA","5170","24936","NA","389","2","legacy","1024","2","48000","-16","experiment","SSHSS","3","odd","12568","193938","NA","212531","218508","NA","227014","225836","7396","168998","NA","227009","7390","227120","227513","227120","Flanker Task","95","58282","98","yes","1024"
"96.9696969697","96.9696969697","592.565656566","592.565656566","black","legacy","legacy","legacy","0","Congruent","uniform","1","undefined","1","s","0","0","0","98","98","0","98","98","0","0","0","98","0","98","98","98","09/27/20 07:11:12","600","The main experiment item","yes","FlankerTask.osexp","C:/Users/solom/Desktop","no","mono","no","18","no","white","no","yes","768","legacy","18","79","C:/Users/solom/Desktop/MW-subject-3.csv","legacy","Lentiform Loewenfeld","3.3.3","0","s","NA","s","s","NA","s","382","NA","5170","24936","NA","382","2","legacy","1024","2","48000","-16","experiment","SSSSS","3","odd","12568","193938","NA","212531","218508","NA","228726","227555","7396","168998","NA","228721","7390","228832","229217","228831","Flanker Task","96","58664","99","yes","1024"
"97","97","591.57","591.57","black","legacy","legacy","legacy","0","Congruent","uniform","1","undefined","1","s","0","0","0","99","99","0","99","99","0","0","0","99","0","99","99","99","09/27/20 07:11:12","600","The main experiment item","yes","FlankerTask.osexp","C:/Users/solom/Desktop","no","mono","no","18","no","white","no","yes","768","legacy","19","79","C:/Users/solom/Desktop/MW-subject-3.csv","legacy","Lentiform Loewenfeld","3.3.3","0","s","NA","s","s","NA","s","493","NA","5170","24936","NA","493","2","legacy","1024","2","48000","-16","experiment","SSSSS","3","odd","12568","193938","NA","212531","218508","NA","230423","229245","7396","168998","NA","230418","7390","230529","231026","230528","Flanker Task","97","59157","100","yes","1024"
"96.0396039604","96.0396039604","590.910891089","590.910891089","black","legacy","legacy","legacy","0","Congruent","uniform","0","undefined","0","h","0","0","0","100","100","0","100","100","0","0","0","100","0","100","100","100","09/27/20 07:11:12","600","The main experiment item","yes","FlankerTask.osexp","C:/Users/solom/Desktop","no","mono","no","18","no","white","no","yes","768","legacy","20","79","C:/Users/solom/Desktop/MW-subject-3.csv","legacy","Lentiform Loewenfeld","3.3.3","0","s","NA","s","s","NA","s","525","NA","5170","24936","NA","525","2","legacy","1024","2","48000","-16","experiment","HHHHH","3","odd","12568","193938","NA","212531","218508","NA","232239","231055","7396","168998","NA","232234","7390","232345","232874","232344","Flanker Task","97","59682","101","yes","1024"
"96.0784313725","96.0784313725","589.931372549","589.931372549","black","legacy","legacy","legacy","0","Incongruent","uniform","1","undefined","1","h","0","0","0","101","101","0","101","101","0","0","0","101","0","101","101","101","09/27/20 07:11:12","600","The main experiment item","yes","FlankerTask.osexp","C:/Users/solom/Desktop","no","mono","no","18","no","white","no","yes","768","legacy","21","79","C:/Users/solom/Desktop/MW-subject-3.csv","legacy","Lentiform Loewenfeld","3.3.3","0","h","NA","s","s","NA","h","491","NA","5170","24936","NA","491","2","legacy","1024","2","48000","-16","experiment","SSHSS","3","odd","12568","193938","NA","232904","218508","NA","234585","233410","7396","168998","NA","234580","7390","234691","235186","234690","Flanker Task","98","60173","102","yes","1024"
"96.1165048544","96.1165048544","588.417475728","588.417475728","black","legacy","legacy","legacy","0","Congruent","uniform","1","undefined","1","h","0","0","0","102","102","0","102","102","0","0","0","102","0","102","102","102","09/27/20 07:11:12","600","The main experiment item","yes","FlankerTask.osexp","C:/Users/solom/Desktop","no","mono","no","18","no","white","no","yes","768","legacy","22","79","C:/Users/solom/Desktop/MW-subject-3.csv","legacy","Lentiform Loewenfeld","3.3.3","0","h","NA","s","s","NA","h","434","NA","5170","24936","NA","434","2","legacy","1024","2","48000","-16","experiment","HHHHH","3","odd","12568","193938","NA","232904","218508","NA","236389","235214","7396","168998","NA","236384","7390","236492","236930","236492","Flanker Task","99","60607","103","yes","1024"
"96.1538461538","96.1538461538","586.769230769","586.769230769","black","legacy","legacy","legacy","0","Congruent","uniform","1","undefined","1","s","0","0","0","103","103","0","103","103","0","0","0","103","0","103","103","103","09/27/20 07:11:12","600","The main experiment item","yes","FlankerTask.osexp","C:/Users/solom/Desktop","no","mono","no","18","no","white","no","yes","768","legacy","23","79","C:/Users/solom/Desktop/MW-subject-3.csv","legacy","Lentiform Loewenfeld","3.3.3","0","s","NA","s","s","NA","s","417","NA","5170","24936","NA","417","2","legacy","1024","2","48000","-16","experiment","SSSSS","3","odd","12568","193938","NA","232904","218508","NA","238132","236956","7396","168998","NA","238127","7390","238238","238660","238237","Flanker Task","100","61024","104","yes","1024"
"95.2380952381","95.2380952381","585.380952381","585.380952381","black","legacy","legacy","legacy","0","Congruent","uniform","0","undefined","0","s","0","0","0","104","104","0","104","104","0","0","0","104","0","104","104","104","09/27/20 07:11:12","600","The main experiment item","yes","FlankerTask.osexp","C:/Users/solom/Desktop","no","mono","no","18","no","white","no","yes","768","legacy","24","79","C:/Users/solom/Desktop/MW-subject-3.csv","legacy","Lentiform Loewenfeld","3.3.3","0","h","NA","s","s","NA","h","441","NA","5170","24936","NA","441","2","legacy","1024","2","48000","-16","experiment","SSSSS","3","odd","12568","193938","NA","232904","218508","NA","239862","238690","7396","168998","NA","239857","7390","239965","240410","239965","Flanker Task","100","61465","105","yes","1024"
"94.3396226415","94.3396226415","588.745283019","588.745283019","black","legacy","legacy","legacy","0","Incongruent","uniform","0","undefined","0","s","0","0","0","105","105","0","105","105","0","0","0","105","0","105","105","105","09/27/20 07:11:12","600","The main experiment item","yes","FlankerTask.osexp","C:/Users/solom/Desktop","no","mono","no","18","no","white","no","yes","768","legacy","25","79","C:/Users/solom/Desktop/MW-subject-3.csv","legacy","Lentiform Loewenfeld","3.3.3","0","h","NA","s","s","NA","h","942","NA","5170","24936","NA","942","2","legacy","1024","2","48000","-16","experiment","HHSHH","3","odd","12568","193938","NA","240440","218508","NA","242120","240944","7396","168998","NA","242115","7390","242224","243170","242223","Flanker Task","100","62407","106","yes","1024"
"94.3925233645","94.3925233645","590.140186916","590.140186916","black","legacy","legacy","legacy","0","Congruent","uniform","1","undefined","1","h","0","0","0","106","106","0","106","106","0","0","0","106","0","106","106","106","09/27/20 07:11:12","600","The main experiment item","yes","FlankerTask.osexp","C:/Users/solom/Desktop","no","mono","no","18","no","white","no","yes","768","legacy","26","79","C:/Users/solom/Desktop/MW-subject-3.csv","legacy","Lentiform Loewenfeld","3.3.3","0","h","NA","s","s","NA","h","738","NA","5170","24936","NA","738","2","legacy","1024","2","48000","-16","experiment","HHHHH","3","odd","12568","193938","NA","243199","243702","NA","245378","244206","7396","168998","NA","245373","7390","245484","246226","245483","Flanker Task","101","63145","107","yes","1024"
"94.4444444444","94.4444444444","591.055555556","591.055555556","black","legacy","legacy","legacy","0","Incongruent","uniform","1","undefined","1","h","0","0","0","107","107","0","107","107","0","0","0","107","0","107","107","107","09/27/20 07:11:12","600","The main experiment item","yes","FlankerTask.osexp","C:/Users/solom/Desktop","no","mono","no","18","no","white","no","yes","768","legacy","27","79","C:/Users/solom/Desktop/MW-subject-3.csv","legacy","Lentiform Loewenfeld","3.3.3","0","h","NA","s","s","NA","h","689","NA","5170","24936","NA","689","2","legacy","1024","2","48000","-16","experiment","SSHSS","3","odd","12568","193938","NA","243199","246258","NA","247939","246763","7396","168998","NA","247934","7390","248045","248738","248044","Flanker Task","102","63834","108","yes","1024"
"94.495412844","94.495412844","591.009174312","591.009174312","black","legacy","legacy","legacy","0","Congruent","uniform","1","undefined","1","s","0","0","0","108","108","0","108","108","0","0","0","108","0","108","108","108","09/27/20 07:11:12","600","The main experiment item","yes","FlankerTask.osexp","C:/Users/solom/Desktop","no","mono","no","18","no","white","no","yes","768","legacy","28","79","C:/Users/solom/Desktop/MW-subject-3.csv","legacy","Lentiform Loewenfeld","3.3.3","0","s","NA","s","s","NA","s","586","NA","5170","24936","NA","586","2","legacy","1024","2","48000","-16","experiment","SSSSS","3","odd","12568","193938","NA","243199","248768","NA","250452","249272","7396","168998","NA","250447","7390","250556","251146","250555","Flanker Task","103","64420","109","yes","1024"
"93.6363636364","93.6363636364","589.918181818","589.918181818","black","legacy","legacy","legacy","0","Congruent","uniform","0","undefined","0","h","0","0","0","109","109","0","109","109","0","0","0","109","0","109","109","109","09/27/20 07:11:12","600","The main experiment item","yes","FlankerTask.osexp","C:/Users/solom/Desktop","no","mono","no","18","no","white","no","yes","768","legacy","29","79","C:/Users/solom/Desktop/MW-subject-3.csv","legacy","Lentiform Loewenfeld","3.3.3","0","s","NA","s","s","NA","s","471","NA","5170","24936","NA","471","2","legacy","1024","2","48000","-16","experiment","HHHHH","3","odd","12568","193938","NA","243199","248768","NA","252357","251177","7396","168998","NA","252352","7390","252462","252938","252461","Flanker Task","103","64891","110","yes","1024"
"93.6936936937","93.6936936937","590.117117117","590.117117117","black","legacy","legacy","legacy","0","Incongruent","uniform","1","undefined","1","s","0","0","0","110","110","0","110","110","0","0","0","110","0","110","110","110","09/27/20 07:11:12","600","The main experiment item","yes","FlankerTask.osexp","C:/Users/solom/Desktop","no","mono","no","18","no","white","no","yes","768","legacy","30","79","C:/Users/solom/Desktop/MW-subject-3.csv","legacy","Lentiform Loewenfeld","3.3.3","0","s","NA","s","s","NA","s","612","NA","5170","24936","NA","612","2","legacy","1024","2","48000","-16","experiment","HHSHH","3","odd","12568","193938","NA","252987","248768","NA","254664","253490","7396","168998","NA","254659","7390","254770","255386","254770","Flanker Task","104","65503","111","yes","1024"
"93.75","93.75","589.642857143","589.642857143","black","legacy","legacy","legacy","0","Congruent","uniform","1","undefined","1","s","0","0","0","111","111","0","111","111","0","0","0","111","0","111","111","111","09/27/20 07:11:12","600","The main experiment item","yes","FlankerTask.osexp","C:/Users/solom/Desktop","no","mono","no","18","no","white","no","yes","768","legacy","31","79","C:/Users/solom/Desktop/MW-subject-3.csv","legacy","Lentiform Loewenfeld","3.3.3","0","s","NA","s","s","NA","s","537","NA","5170","24936","NA","537","2","legacy","1024","2","48000","-16","experiment","SSSSS","3","odd","12568","193938","NA","252987","255411","NA","257089","255914","7396","168998","NA","257085","7390","257196","257738","257195","Flanker Task","105","66040","112","yes","1024"
"93.8053097345","93.8053097345","588.008849558","588.008849558","black","legacy","legacy","legacy","0","Congruent","uniform","1","undefined","1","h","0","0","0","112","112","0","112","112","0","0","0","112","0","112","112","112","09/27/20 07:11:12","600","The main experiment item","yes","FlankerTask.osexp","C:/Users/solom/Desktop","no","mono","no","18","no","white","no","yes","768","legacy","32","79","C:/Users/solom/Desktop/MW-subject-3.csv","legacy","Lentiform Loewenfeld","3.3.3","0","h","NA","s","s","NA","h","405","NA","5170","24936","NA","405","2","legacy","1024","2","48000","-16","experiment","HHHHH","3","odd","12568","193938","NA","252987","255411","NA","258943","257770","7396","168998","NA","258938","7390","259049","259458","259048","Flanker Task","106","66445","113","yes","1024"
"93.8596491228","93.8596491228","587.228070175","587.228070175","black","legacy","legacy","legacy","0","Congruent","uniform","1","undefined","1","h","0","0","0","113","113","0","113","113","0","0","0","113","0","113","113","113","09/27/20 07:11:12","600","The main experiment item","yes","FlankerTask.osexp","C:/Users/solom/Desktop","no","mono","no","18","no","white","no","yes","768","legacy","33","79","C:/Users/solom/Desktop/MW-subject-3.csv","legacy","Lentiform Loewenfeld","3.3.3","0","h","NA","s","s","NA","h","499","NA","5170","24936","NA","499","2","legacy","1024","2","48000","-16","experiment","HHHHH","3","odd","12568","193938","NA","252987","255411","NA","260656","259479","7396","168998","NA","260652","7390","260763","261266","260762","Flanker Task","107","66944","114","yes","1024"
"93.9130434783","93.9130434783","585.939130435","585.939130435","black","legacy","legacy","legacy","0","Congruent","uniform","1","undefined","1","s","0","0","0","114","114","0","114","114","0","0","0","114","0","114","114","114","09/27/20 07:11:12","600","The main experiment item","yes","FlankerTask.osexp","C:/Users/solom/Desktop","no","mono","no","18","no","white","no","yes","768","legacy","34","79","C:/Users/solom/Desktop/MW-subject-3.csv","legacy","Lentiform Loewenfeld","3.3.3","0","s","NA","s","s","NA","s","439","NA","5170","24936","NA","439","2","legacy","1024","2","48000","-16","experiment","SSSSS","3","odd","12568","193938","NA","252987","255411","NA","262469","261297","7396","168998","NA","262464","7390","262575","263018","262574","Flanker Task","108","67383","115","yes","1024"
"93.9655172414","93.9655172414","584.172413793","584.172413793","black","legacy","legacy","legacy","0","Congruent","uniform","1","undefined","1","h","0","0","0","115","115","0","115","115","0","0","0","115","0","115","115","115","09/27/20 07:11:12","600","The main experiment item","yes","FlankerTask.osexp","C:/Users/solom/Desktop","no","mono","no","18","no","white","no","yes","768","legacy","35","79","C:/Users/solom/Desktop/MW-subject-3.csv","legacy","Lentiform Loewenfeld","3.3.3","0","h","NA","s","s","NA","h","381","NA","5170","24936","NA","381","2","legacy","1024","2","48000","-16","experiment","HHHHH","3","odd","12568","193938","NA","252987","255411","NA","264222","263047","7396","168998","NA","264217","7390","264328","264714","264328","Flanker Task","109","67764","116","yes","1024"
"94.0170940171","94.0170940171","582.965811966","582.965811966","black","legacy","legacy","legacy","0","Congruent","uniform","1","undefined","1","h","0","0","0","116","116","0","116","116","0","0","0","116","0","116","116","116","09/27/20 07:11:12","600","The main experiment item","yes","FlankerTask.osexp","C:/Users/solom/Desktop","no","mono","no","18","no","white","no","yes","768","legacy","36","79","C:/Users/solom/Desktop/MW-subject-3.csv","legacy","Lentiform Loewenfeld","3.3.3","0","h","NA","s","s","NA","h","443","NA","5170","24936","NA","443","2","legacy","1024","2","48000","-16","experiment","HHHHH","3","odd","12568","193938","NA","252987","255411","NA","265929","264756","7396","168998","NA","265924","7390","266035","266483","266034","Flanker Task","110","68207","117","yes","1024"
"94.0677966102","94.0677966102","581.271186441","581.271186441","black","legacy","legacy","legacy","0","Congruent","uniform","1","undefined","1","s","0","0","0","117","117","0","117","117","0","0","0","117","0","117","117","117","09/27/20 07:11:12","600","The main experiment item","yes","FlankerTask.osexp","C:/Users/solom/Desktop","no","mono","no","18","no","white","no","yes","768","legacy","37","79","C:/Users/solom/Desktop/MW-subject-3.csv","legacy","Lentiform Loewenfeld","3.3.3","0","s","NA","s","s","NA","s","383","NA","5170","24936","NA","383","2","legacy","1024","2","48000","-16","experiment","SSSSS","3","odd","12568","193938","NA","252987","255411","NA","267685","266515","7396","168998","NA","267680","7390","267791","268178","267790","Flanker Task","111","68590","118","yes","1024"
"94.1176470588","94.1176470588","579.504201681","579.504201681","black","legacy","legacy","legacy","0","Congruent","uniform","1","undefined","1","s","0","0","0","118","118","0","118","118","0","0","0","118","0","118","118","118","09/27/20 07:11:12","600","The main experiment item","yes","FlankerTask.osexp","C:/Users/solom/Desktop","no","mono","no","18","no","white","no","yes","768","legacy","38","79","C:/Users/solom/Desktop/MW-subject-3.csv","legacy","Lentiform Loewenfeld","3.3.3","0","s","NA","s","s","NA","s","371","NA","5170","24936","NA","371","2","legacy","1024","2","48000","-16","experiment","SSSSS","3","odd","12568","193938","NA","252987","255411","NA","269386","268209","7396","168998","NA","269381","7390","269491","269866","269491","Flanker Task","112","68961","119","yes","1024"
"94.1666666667","94.1666666667","578.066666667","578.066666667","black","legacy","legacy","legacy","0","Incongruent","uniform","1","undefined","1","s","0","0","0","119","119","0","119","119","0","0","0","119","0","119","119","119","09/27/20 07:11:12","600","The main experiment item","yes","FlankerTask.osexp","C:/Users/solom/Desktop","no","mono","no","18","no","white","no","yes","768","legacy","39","79","C:/Users/solom/Desktop/MW-subject-3.csv","legacy","Lentiform Loewenfeld","3.3.3","0","s","NA","s","s","NA","s","407","NA","5170","24936","NA","407","2","legacy","1024","2","48000","-16","experiment","HHSHH","3","odd","12568","193938","NA","252987","255411","NA","271069","269891","7396","168998","NA","271064","7390","271175","271587","271174","Flanker Task","113","69368","120","yes","1024"
"94.2148760331","94.2148760331","577.338842975","577.338842975","black","legacy","legacy","legacy","0","Incongruent","uniform","1","undefined","1","h","0","0","0","120","120","0","120","120","0","0","0","120","0","120","120","120","09/27/20 07:11:12","600","The main experiment item","yes","FlankerTask.osexp","C:/Users/solom/Desktop","no","mono","no","18","no","white","no","yes","768","legacy","40","79","C:/Users/solom/Desktop/MW-subject-3.csv","legacy","Lentiform Loewenfeld","3.3.3","0","h","NA","s","s","NA","h","490","NA","5170","24936","NA","490","2","legacy","1024","2","48000","-16","experiment","SSHSS","3","odd","12568","193938","NA","252987","255411","NA","272793","271617","7396","168998","NA","272789","7390","272900","273394","272899","Flanker Task","114","69858","121","yes","1024"
"94.262295082","94.262295082","576.655737705","576.655737705","black","legacy","legacy","legacy","0","Incongruent","uniform","1","undefined","1","h","0","0","0","121","121","0","121","121","0","0","0","121","0","121","121","121","09/27/20 07:11:12","600","The main experiment item","yes","FlankerTask.osexp","C:/Users/solom/Desktop","no","mono","no","18","no","white","no","yes","768","legacy","41","79","C:/Users/solom/Desktop/MW-subject-3.csv","legacy","Lentiform Loewenfeld","3.3.3","0","h","NA","s","s","NA","h","494","NA","5170","24936","NA","494","2","legacy","1024","2","48000","-16","experiment","SSHSS","3","odd","12568","193938","NA","252987","255411","NA","274598","273425","7396","168998","NA","274593","7390","274704","275202","274703","Flanker Task","115","70352","122","yes","1024"
"94.3089430894","94.3089430894","575.609756098","575.609756098","black","legacy","legacy","legacy","0","Congruent","uniform","1","undefined","1","s","0","0","0","122","122","0","122","122","0","0","0","122","0","122","122","122","09/27/20 07:11:12","600","The main experiment item","yes","FlankerTask.osexp","C:/Users/solom/Desktop","no","mono","no","18","no","white","no","yes","768","legacy","42","79","C:/Users/solom/Desktop/MW-subject-3.csv","legacy","Lentiform Loewenfeld","3.3.3","0","s","NA","s","s","NA","s","448","NA","5170","24936","NA","448","2","legacy","1024","2","48000","-16","experiment","SSSSS","3","odd","12568","193938","NA","252987","255411","NA","276412","275242","7396","168998","NA","276407","7390","276518","276971","276517","Flanker Task","116","70800","123","yes","1024"
"93.5483870968","93.5483870968","574.620967742","574.620967742","black","legacy","legacy","legacy","0","Incongruent","uniform","0","undefined","0","h","0","0","0","123","123","0","123","123","0","0","0","123","0","123","123","123","09/27/20 07:11:12","600","The main experiment item","yes","FlankerTask.osexp","C:/Users/solom/Desktop","no","mono","no","18","no","white","no","yes","768","legacy","43","79","C:/Users/solom/Desktop/MW-subject-3.csv","legacy","Lentiform Loewenfeld","3.3.3","0","s","NA","s","s","NA","s","453","NA","5170","24936","NA","453","2","legacy","1024","2","48000","-16","experiment","SSHSS","3","odd","12568","193938","NA","252987","255411","NA","278167","276993","7396","168998","NA","278162","7390","278273","278731","278272","Flanker Task","116","71253","124","yes","1024"
"93.6","93.6","573.992","573.992","black","legacy","legacy","legacy","0","Incongruent","uniform","1","undefined","1","h","0","0","0","124","124","0","124","124","0","0","0","124","0","124","124","124","09/27/20 07:11:12","600","The main experiment item","yes","FlankerTask.osexp","C:/Users/solom/Desktop","no","mono","no","18","no","white","no","yes","768","legacy","44","79","C:/Users/solom/Desktop/MW-subject-3.csv","legacy","Lentiform Loewenfeld","3.3.3","0","h","NA","s","s","NA","h","496","NA","5170","24936","NA","496","2","legacy","1024","2","48000","-16","experiment","SSHSS","3","odd","12568","193938","NA","278760","255411","NA","280438","279263","7396","168998","NA","280433","7390","280542","281043","280541","Flanker Task","117","71749","125","yes","1024"
"93.6507936508","93.6507936508","572.634920635","572.634920635","black","legacy","legacy","legacy","0","Congruent","uniform","1","undefined","1","s","0","0","0","125","125","0","125","125","0","0","0","125","0","125","125","125","09/27/20 07:11:12","600","The main experiment item","yes","FlankerTask.osexp","C:/Users/solom/Desktop","no","mono","no","18","no","white","no","yes","768","legacy","45","79","C:/Users/solom/Desktop/MW-subject-3.csv","legacy","Lentiform Loewenfeld","3.3.3","0","s","NA","s","s","NA","s","403","NA","5170","24936","NA","403","2","legacy","1024","2","48000","-16","experiment","SSSSS","3","odd","12568","193938","NA","278760","255411","NA","282248","281070","7396","168998","NA","282243","7390","282354","282762","282353","Flanker Task","118","72152","126","yes","1024"
"93.7007874016","93.7007874016","573.173228346","573.173228346","black","legacy","legacy","legacy","0","Incongruent","uniform","1","undefined","1","s","0","0","0","126","126","0","126","126","0","0","0","126","0","126","126","126","09/27/20 07:11:12","600","The main experiment item","yes","FlankerTask.osexp","C:/Users/solom/Desktop","no","mono","no","18","no","white","no","yes","768","legacy","46","79","C:/Users/solom/Desktop/MW-subject-3.csv","legacy","Lentiform Loewenfeld","3.3.3","0","s","NA","s","s","NA","s","641","NA","5170","24936","NA","641","2","legacy","1024","2","48000","-16","experiment","HHSHH","3","odd","12568","193938","NA","278760","255411","NA","283970","282794","7396","168998","NA","283965","7390","284077","284722","284076","Flanker Task","119","72793","127","yes","1024"
