acc,accuracy,average_response_time,avg_rt,background,canvas_backend,clock_backend,color_backend,compensation,condition,coordinates,correct,correct_Instructions1,correct_Keyboard_Response,correct_response,count_ErrorFeedback,count_Faster,count_Finish,count_Fixation,count_ISI,count_Instructions1,count_Instructions3,count_Keyboard_Response,count_Sequence,count_Stimulus,count_block1,count_block2,count_block3,count_experiment,count_instructions2,count_new_logger,datetime,deadline,description,disable_garbage_collection,experiment_file,experiment_path,font_bold,font_family,font_italic,font_size,font_underline,foreground,form_clicks,fullscreen,height,keyboard_backend,live_row,live_row_block1,logfile,mouse_backend,opensesame_codename,opensesame_version,repeat_cycle,response,response_Finish,response_Instructions1,response_Instructions3,response_Keyboard_Response,response_instructions2,response_time,response_time_Finish,response_time_Instructions1,response_time_Instructions3,response_time_Keyboard_Response,response_time_instructions2,round_decimals,sampler_backend,sound_buf_size,sound_channels,sound_freq,sound_sample_size,start,stimulus,subject_nr,subject_parity,time_ErrorFeedback,time_Faster,time_Finish,time_Fixation,time_ISI,time_Instructions1,time_Instructions3,time_Keyboard_Response,time_Sequence,time_Stimulus,time_block1,time_block2,time_block3,time_experiment,time_instructions2,time_new_logger,title,total_correct,total_response_time,total_responses,uniform_coordinates,width
0,0,1500,1500,black,legacy,legacy,legacy,0,congruent,uniform,0,undefined,0,h,0,0,0,0,0,0,0,0,0,0,0,0,0,0,0,0,Tue Sep 15 19:15:53 2020,1500,The main experiment item,yes,FlankerTask.osexp,C:/Users/chelsea/OneDrive - Tarleton State University/psych 5316- adv/flanker test,no,mono,no,18,no,white,no,yes,768,legacy,0,0,C:/Users/chelsea/OneDrive - Tarleton State University/psych 5316- adv/flanker test/JK subject-3.csv,legacy,Lentiform Loewenfeld,3.3.3,0,None,NA,j,NA,None,NA,1500,NA,103414,NA,1500,NA,2,legacy,1024,2,48000,-16,experiment,HHHHH,3,odd,NA,NA,NA,151725,NA,30466,NA,151830,144213,151830,133882,NA,NA,30461,NA,153330,Flanker Task,0,1500,1,yes,1024
0,0,1500,1500,black,legacy,legacy,legacy,0,congruent,uniform,0,undefined,0,h,1,1,0,1,1,0,0,1,1,1,0,0,0,0,0,1,Tue Sep 15 19:15:53 2020,1500,The main experiment item,yes,FlankerTask.osexp,C:/Users/chelsea/OneDrive - Tarleton State University/psych 5316- adv/flanker test,no,mono,no,18,no,white,no,yes,768,legacy,1,1,C:/Users/chelsea/OneDrive - Tarleton State University/psych 5316- adv/flanker test/JK subject-3.csv,legacy,Lentiform Loewenfeld,3.3.3,0,None,NA,j,NA,None,NA,1500,NA,103414,NA,1500,NA,2,legacy,1024,2,48000,-16,experiment,HHHHH,3,odd,153933,NA,NA,155662,154437,30466,NA,155766,155657,155766,133882,NA,NA,30461,NA,157266,Flanker Task,0,3000,2,yes,1024
33.33333333,33.33333333,1253,1253,black,legacy,legacy,legacy,0,congruent,uniform,1,undefined,1,s,2,2,0,2,2,0,0,2,2,2,0,0,0,0,0,2,Tue Sep 15 19:15:53 2020,1500,The main experiment item,yes,FlankerTask.osexp,C:/Users/chelsea/OneDrive - Tarleton State University/psych 5316- adv/flanker test,no,mono,no,18,no,white,no,yes,768,legacy,2,2,C:/Users/chelsea/OneDrive - Tarleton State University/psych 5316- adv/flanker test/JK subject-3.csv,legacy,Lentiform Loewenfeld,3.3.3,0,s,NA,j,NA,s,NA,759,NA,103414,NA,759,NA,2,legacy,1024,2,48000,-16,experiment,SSSSS,3,odd,157686,NA,NA,159417,158191,30466,NA,159521,159412,159521,133882,NA,NA,30461,NA,160281,Flanker Task,1,3759,3,yes,1024
50,50,1203,1203,black,legacy,legacy,legacy,0,incongruent,uniform,1,undefined,1,h,3,3,0,3,3,0,0,3,3,3,0,0,0,0,0,3,Tue Sep 15 19:15:53 2020,1500,The main experiment item,yes,FlankerTask.osexp,C:/Users/chelsea/OneDrive - Tarleton State University/psych 5316- adv/flanker test,no,mono,no,18,no,white,no,yes,768,legacy,3,3,C:/Users/chelsea/OneDrive - Tarleton State University/psych 5316- adv/flanker test/JK subject-3.csv,legacy,Lentiform Loewenfeld,3.3.3,0,h,NA,j,NA,h,NA,1053,NA,103414,NA,1053,NA,2,legacy,1024,2,48000,-16,experiment,SSHSS,3,odd,157686,NA,NA,162138,160890,30466,NA,162243,162133,162242,133882,NA,NA,30461,NA,163297,Flanker Task,2,4812,4,yes,1024
60,60,1143.2,1143.2,black,legacy,legacy,legacy,0,congruent,uniform,1,undefined,1,s,4,4,0,4,4,0,0,4,4,4,0,0,0,0,0,4,Tue Sep 15 19:15:53 2020,1500,The main experiment item,yes,FlankerTask.osexp,C:/Users/chelsea/OneDrive - Tarleton State University/psych 5316- adv/flanker test,no,mono,no,18,no,white,no,yes,768,legacy,4,4,C:/Users/chelsea/OneDrive - Tarleton State University/psych 5316- adv/flanker test/JK subject-3.csv,legacy,Lentiform Loewenfeld,3.3.3,0,s,NA,j,NA,s,NA,904,NA,103414,NA,904,NA,2,legacy,1024,2,48000,-16,experiment,SSSSS,3,odd,157686,NA,NA,164735,163478,30466,NA,164840,164715,164840,133882,NA,NA,30461,NA,165746,Flanker Task,3,5716,5,yes,1024
66.66666667,66.66666667,1090.5,1090.5,black,legacy,legacy,legacy,0,incongruent,uniform,1,undefined,1,h,5,5,0,5,5,0,0,5,5,5,0,0,0,0,0,5,Tue Sep 15 19:15:53 2020,1500,The main experiment item,yes,FlankerTask.osexp,C:/Users/chelsea/OneDrive - Tarleton State University/psych 5316- adv/flanker test,no,mono,no,18,no,white,no,yes,768,legacy,5,5,C:/Users/chelsea/OneDrive - Tarleton State University/psych 5316- adv/flanker test/JK subject-3.csv,legacy,Lentiform Loewenfeld,3.3.3,0,h,NA,j,NA,h,NA,827,NA,103414,NA,827,NA,2,legacy,1024,2,48000,-16,experiment,SSHSS,3,odd,157686,NA,NA,167084,165844,30466,NA,167189,167079,167189,133882,NA,NA,30461,NA,168017,Flanker Task,4,6543,6,yes,1024
71.42857143,71.42857143,1048.428571,1048.428571,black,legacy,legacy,legacy,0,incongruent,uniform,1,undefined,1,s,6,6,0,6,6,0,0,6,6,6,0,0,0,0,0,6,Tue Sep 15 19:15:53 2020,1500,The main experiment item,yes,FlankerTask.osexp,C:/Users/chelsea/OneDrive - Tarleton State University/psych 5316- adv/flanker test,no,mono,no,18,no,white,no,yes,768,legacy,6,6,C:/Users/chelsea/OneDrive - Tarleton State University/psych 5316- adv/flanker test/JK subject-3.csv,legacy,Lentiform Loewenfeld,3.3.3,0,s,NA,j,NA,s,NA,796,NA,103414,NA,796,NA,2,legacy,1024,2,48000,-16,experiment,HHSHH,3,odd,157686,NA,NA,169853,168625,30466,NA,169957,169847,169957,133882,NA,NA,30461,NA,170754,Flanker Task,5,7339,7,yes,1024
75,75,994.625,994.625,black,legacy,legacy,legacy,0,congruent,uniform,1,undefined,1,s,7,7,0,7,7,0,0,7,7,7,0,0,0,0,0,7,Tue Sep 15 19:15:53 2020,1500,The main experiment item,yes,FlankerTask.osexp,C:/Users/chelsea/OneDrive - Tarleton State University/psych 5316- adv/flanker test,no,mono,no,18,no,white,no,yes,768,legacy,7,7,C:/Users/chelsea/OneDrive - Tarleton State University/psych 5316- adv/flanker test/JK subject-3.csv,legacy,Lentiform Loewenfeld,3.3.3,0,s,NA,j,NA,s,NA,618,NA,103414,NA,618,NA,2,legacy,1024,2,48000,-16,experiment,SSSSS,3,odd,157686,NA,NA,172197,170957,30466,NA,172302,172192,172301,133882,NA,NA,30461,NA,172922,Flanker Task,6,7957,8,yes,1024
77.77777778,77.77777778,958.7777778,958.7777778,black,legacy,legacy,legacy,0,incongruent,uniform,1,undefined,1,s,8,8,0,8,8,0,0,8,8,8,0,0,0,0,0,8,Tue Sep 15 19:15:53 2020,1500,The main experiment item,yes,FlankerTask.osexp,C:/Users/chelsea/OneDrive - Tarleton State University/psych 5316- adv/flanker test,no,mono,no,18,no,white,no,yes,768,legacy,8,8,C:/Users/chelsea/OneDrive - Tarleton State University/psych 5316- adv/flanker test/JK subject-3.csv,legacy,Lentiform Loewenfeld,3.3.3,0,s,NA,j,NA,s,NA,672,NA,103414,NA,672,NA,2,legacy,1024,2,48000,-16,experiment,HHSHH,3,odd,157686,NA,NA,174304,173081,30466,NA,174408,174298,174408,133882,NA,NA,30461,NA,175081,Flanker Task,7,8629,9,yes,1024
80,80,940.8,940.8,black,legacy,legacy,legacy,0,incongruent,uniform,1,undefined,1,h,9,9,0,9,9,0,0,9,9,9,0,0,0,0,0,9,Tue Sep 15 19:15:53 2020,1500,The main experiment item,yes,FlankerTask.osexp,C:/Users/chelsea/OneDrive - Tarleton State University/psych 5316- adv/flanker test,no,mono,no,18,no,white,no,yes,768,legacy,9,9,C:/Users/chelsea/OneDrive - Tarleton State University/psych 5316- adv/flanker test/JK subject-3.csv,legacy,Lentiform Loewenfeld,3.3.3,0,h,NA,j,NA,h,NA,779,NA,103414,NA,779,NA,2,legacy,1024,2,48000,-16,experiment,SSHSS,3,odd,157686,NA,NA,176499,175267,30466,NA,176606,176494,176606,133882,NA,NA,30461,NA,177386,Flanker Task,8,9408,10,yes,1024
81.81818182,81.81818182,915.5454545,915.5454545,black,legacy,legacy,legacy,0,incongruent,uniform,1,undefined,1,h,10,10,0,10,10,0,0,10,10,10,0,0,0,0,0,10,Tue Sep 15 19:15:53 2020,1500,The main experiment item,yes,FlankerTask.osexp,C:/Users/chelsea/OneDrive - Tarleton State University/psych 5316- adv/flanker test,no,mono,no,18,no,white,no,yes,768,legacy,10,10,C:/Users/chelsea/OneDrive - Tarleton State University/psych 5316- adv/flanker test/JK subject-3.csv,legacy,Lentiform Loewenfeld,3.3.3,0,h,NA,j,NA,h,NA,663,NA,103414,NA,663,NA,2,legacy,1024,2,48000,-16,experiment,SSHSS,3,odd,157686,NA,NA,178721,177490,30466,NA,178825,178715,178825,133882,NA,NA,30461,NA,179490,Flanker Task,9,10071,11,yes,1024
83.33333333,83.33333333,895.0833333,895.0833333,black,legacy,legacy,legacy,0,congruent,uniform,1,undefined,1,h,11,11,0,11,11,0,0,11,11,11,0,0,0,0,0,11,Tue Sep 15 19:15:53 2020,1500,The main experiment item,yes,FlankerTask.osexp,C:/Users/chelsea/OneDrive - Tarleton State University/psych 5316- adv/flanker test,no,mono,no,18,no,white,no,yes,768,legacy,11,11,C:/Users/chelsea/OneDrive - Tarleton State University/psych 5316- adv/flanker test/JK subject-3.csv,legacy,Lentiform Loewenfeld,3.3.3,0,h,NA,j,NA,h,NA,670,NA,103414,NA,670,NA,2,legacy,1024,2,48000,-16,experiment,HHHHH,3,odd,157686,NA,NA,180834,179600,30466,NA,180939,180828,180938,133882,NA,NA,30461,NA,181610,Flanker Task,10,10741,12,yes,1024
84.61538462,84.61538462,873.0769231,873.0769231,black,legacy,legacy,legacy,0,incongruent,uniform,1,undefined,1,h,12,12,0,12,12,0,0,12,12,12,0,0,0,0,0,12,Tue Sep 15 19:15:53 2020,1500,The main experiment item,yes,FlankerTask.osexp,C:/Users/chelsea/OneDrive - Tarleton State University/psych 5316- adv/flanker test,no,mono,no,18,no,white,no,yes,768,legacy,12,12,C:/Users/chelsea/OneDrive - Tarleton State University/psych 5316- adv/flanker test/JK subject-3.csv,legacy,Lentiform Loewenfeld,3.3.3,0,h,NA,j,NA,h,NA,609,NA,103414,NA,609,NA,2,legacy,1024,2,48000,-16,experiment,SSHSS,3,odd,157686,NA,NA,182976,181723,30466,NA,183080,182970,183080,133882,NA,NA,30461,NA,183690,Flanker Task,11,11350,13,yes,1024
85.71428571,85.71428571,852.7142857,852.7142857,black,legacy,legacy,legacy,0,incongruent,uniform,1,undefined,1,h,13,13,0,13,13,0,0,13,13,13,0,0,0,0,0,13,Tue Sep 15 19:15:53 2020,1500,The main experiment item,yes,FlankerTask.osexp,C:/Users/chelsea/OneDrive - Tarleton State University/psych 5316- adv/flanker test,no,mono,no,18,no,white,no,yes,768,legacy,13,13,C:/Users/chelsea/OneDrive - Tarleton State University/psych 5316- adv/flanker test/JK subject-3.csv,legacy,Lentiform Loewenfeld,3.3.3,0,h,NA,j,NA,h,NA,588,NA,103414,NA,588,NA,2,legacy,1024,2,48000,-16,experiment,SSHSS,3,odd,157686,NA,NA,185132,183900,30466,NA,185236,185126,185236,133882,NA,NA,30461,NA,185825,Flanker Task,12,11938,14,yes,1024
86.66666667,86.66666667,853.2666667,853.2666667,black,legacy,legacy,legacy,0,congruent,uniform,1,undefined,1,h,14,14,0,14,14,0,0,14,14,14,0,0,0,0,0,14,Tue Sep 15 19:15:53 2020,1500,The main experiment item,yes,FlankerTask.osexp,C:/Users/chelsea/OneDrive - Tarleton State University/psych 5316- adv/flanker test,no,mono,no,18,no,white,no,yes,768,legacy,14,14,C:/Users/chelsea/OneDrive - Tarleton State University/psych 5316- adv/flanker test/JK subject-3.csv,legacy,Lentiform Loewenfeld,3.3.3,0,h,NA,j,NA,h,NA,861,NA,103414,NA,861,NA,2,legacy,1024,2,48000,-16,experiment,HHHHH,3,odd,157686,NA,NA,187314,186092,30466,NA,187419,187309,187419,133882,NA,NA,30461,NA,188282,Flanker Task,13,12799,15,yes,1024
87.5,87.5,841.8125,841.8125,black,legacy,legacy,legacy,0,incongruent,uniform,1,undefined,1,s,15,15,0,15,15,0,0,15,15,15,0,0,0,0,0,15,Tue Sep 15 19:15:53 2020,1500,The main experiment item,yes,FlankerTask.osexp,C:/Users/chelsea/OneDrive - Tarleton State University/psych 5316- adv/flanker test,no,mono,no,18,no,white,no,yes,768,legacy,15,15,C:/Users/chelsea/OneDrive - Tarleton State University/psych 5316- adv/flanker test/JK subject-3.csv,legacy,Lentiform Loewenfeld,3.3.3,0,s,NA,j,NA,s,NA,670,NA,103414,NA,670,NA,2,legacy,1024,2,48000,-16,experiment,HHSHH,3,odd,157686,NA,NA,189682,188456,30466,NA,189786,189677,189786,133882,NA,NA,30461,NA,190458,Flanker Task,14,13469,16,yes,1024
88.23529412,88.23529412,826.5882353,826.5882353,black,legacy,legacy,legacy,0,congruent,uniform,1,undefined,1,s,16,16,0,16,16,0,0,16,16,16,0,0,0,0,0,16,Tue Sep 15 19:15:53 2020,1500,The main experiment item,yes,FlankerTask.osexp,C:/Users/chelsea/OneDrive - Tarleton State University/psych 5316- adv/flanker test,no,mono,no,18,no,white,no,yes,768,legacy,16,16,C:/Users/chelsea/OneDrive - Tarleton State University/psych 5316- adv/flanker test/JK subject-3.csv,legacy,Lentiform Loewenfeld,3.3.3,0,s,NA,j,NA,s,NA,583,NA,103414,NA,583,NA,2,legacy,1024,2,48000,-16,experiment,SSSSS,3,odd,157686,NA,NA,191977,190757,30466,NA,192081,191972,192081,133882,NA,NA,30461,NA,192666,Flanker Task,15,14052,17,yes,1024
88.88888889,88.88888889,810.5555556,810.5555556,black,legacy,legacy,legacy,0,incongruent,uniform,1,undefined,1,h,17,17,0,17,17,0,0,17,17,17,0,0,0,0,0,17,Tue Sep 15 19:15:53 2020,1500,The main experiment item,yes,FlankerTask.osexp,C:/Users/chelsea/OneDrive - Tarleton State University/psych 5316- adv/flanker test,no,mono,no,18,no,white,no,yes,768,legacy,17,17,C:/Users/chelsea/OneDrive - Tarleton State University/psych 5316- adv/flanker test/JK subject-3.csv,legacy,Lentiform Loewenfeld,3.3.3,0,h,NA,j,NA,h,NA,538,NA,103414,NA,538,NA,2,legacy,1024,2,48000,-16,experiment,SSHSS,3,odd,157686,NA,NA,193947,192723,30466,NA,194054,193942,194053,133882,NA,NA,30461,NA,194594,Flanker Task,16,14590,18,yes,1024
89.47368421,89.47368421,808.7368421,808.7368421,black,legacy,legacy,legacy,0,incongruent,uniform,1,undefined,1,s,18,18,0,18,18,0,0,18,18,18,0,0,0,0,0,18,Tue Sep 15 19:15:53 2020,1500,The main experiment item,yes,FlankerTask.osexp,C:/Users/chelsea/OneDrive - Tarleton State University/psych 5316- adv/flanker test,no,mono,no,18,no,white,no,yes,768,legacy,18,18,C:/Users/chelsea/OneDrive - Tarleton State University/psych 5316- adv/flanker test/JK subject-3.csv,legacy,Lentiform Loewenfeld,3.3.3,0,s,NA,j,NA,s,NA,776,NA,103414,NA,776,NA,2,legacy,1024,2,48000,-16,experiment,HHSHH,3,odd,157686,NA,NA,195888,194657,30466,NA,195992,195882,195992,133882,NA,NA,30461,NA,196770,Flanker Task,17,15366,19,yes,1024
90,90,797.85,797.85,black,legacy,legacy,legacy,0,congruent,uniform,1,undefined,1,s,19,19,0,19,19,0,0,19,19,19,0,0,0,0,0,19,Tue Sep 15 19:15:53 2020,1500,The main experiment item,yes,FlankerTask.osexp,C:/Users/chelsea/OneDrive - Tarleton State University/psych 5316- adv/flanker test,no,mono,no,18,no,white,no,yes,768,legacy,19,19,C:/Users/chelsea/OneDrive - Tarleton State University/psych 5316- adv/flanker test/JK subject-3.csv,legacy,Lentiform Loewenfeld,3.3.3,0,s,NA,j,NA,s,NA,591,NA,103414,NA,591,NA,2,legacy,1024,2,48000,-16,experiment,SSSSS,3,odd,157686,NA,NA,198048,196822,30466,NA,198153,198043,198153,133882,NA,NA,30461,NA,198746,Flanker Task,18,15957,20,yes,1024
90.47619048,90.47619048,783.7142857,783.7142857,black,legacy,legacy,legacy,0,congruent,uniform,1,undefined,1,s,20,20,0,20,20,0,0,20,20,20,0,0,0,0,0,20,Tue Sep 15 19:15:53 2020,1500,The main experiment item,yes,FlankerTask.osexp,C:/Users/chelsea/OneDrive - Tarleton State University/psych 5316- adv/flanker test,no,mono,no,18,no,white,no,yes,768,legacy,20,20,C:/Users/chelsea/OneDrive - Tarleton State University/psych 5316- adv/flanker test/JK subject-3.csv,legacy,Lentiform Loewenfeld,3.3.3,0,s,NA,j,NA,s,NA,501,NA,103414,NA,501,NA,2,legacy,1024,2,48000,-16,experiment,SSSSS,3,odd,157686,NA,NA,200731,199497,30466,NA,200835,200726,200835,133882,NA,NA,30461,NA,201338,Flanker Task,19,16458,21,yes,1024
90.90909091,90.90909091,769.8636364,769.8636364,black,legacy,legacy,legacy,0,congruent,uniform,1,undefined,1,s,21,21,0,21,21,0,0,21,21,21,0,0,0,0,0,21,Tue Sep 15 19:15:53 2020,1500,The main experiment item,yes,FlankerTask.osexp,C:/Users/chelsea/OneDrive - Tarleton State University/psych 5316- adv/flanker test,no,mono,no,18,no,white,no,yes,768,legacy,21,21,C:/Users/chelsea/OneDrive - Tarleton State University/psych 5316- adv/flanker test/JK subject-3.csv,legacy,Lentiform Loewenfeld,3.3.3,0,s,NA,j,NA,s,NA,479,NA,103414,NA,479,NA,2,legacy,1024,2,48000,-16,experiment,SSSSS,3,odd,157686,NA,NA,202681,201445,30466,NA,202785,202676,202785,133882,NA,NA,30461,NA,203266,Flanker Task,20,16937,22,yes,1024
91.30434783,91.30434783,759.8695652,759.8695652,black,legacy,legacy,legacy,0,incongruent,uniform,1,undefined,1,s,22,22,0,22,22,0,0,22,22,22,0,0,0,0,0,22,Tue Sep 15 19:15:53 2020,1500,The main experiment item,yes,FlankerTask.osexp,C:/Users/chelsea/OneDrive - Tarleton State University/psych 5316- adv/flanker test,no,mono,no,18,no,white,no,yes,768,legacy,22,22,C:/Users/chelsea/OneDrive - Tarleton State University/psych 5316- adv/flanker test/JK subject-3.csv,legacy,Lentiform Loewenfeld,3.3.3,0,s,NA,j,NA,s,NA,540,NA,103414,NA,540,NA,2,legacy,1024,2,48000,-16,experiment,HHSHH,3,odd,157686,NA,NA,204564,203336,30466,NA,204668,204558,204668,133882,NA,NA,30461,NA,205210,Flanker Task,21,17477,23,yes,1024
91.66666667,91.66666667,750.0833333,750.0833333,black,legacy,legacy,legacy,0,congruent,uniform,1,undefined,1,s,23,23,0,23,23,0,0,23,23,23,0,0,0,0,0,23,Tue Sep 15 19:15:53 2020,1500,The main experiment item,yes,FlankerTask.osexp,C:/Users/chelsea/OneDrive - Tarleton State University/psych 5316- adv/flanker test,no,mono,no,18,no,white,no,yes,768,legacy,23,23,C:/Users/chelsea/OneDrive - Tarleton State University/psych 5316- adv/flanker test/JK subject-3.csv,legacy,Lentiform Loewenfeld,3.3.3,0,s,NA,j,NA,s,NA,525,NA,103414,NA,525,NA,2,legacy,1024,2,48000,-16,experiment,SSSSS,3,odd,157686,NA,NA,206555,205322,30466,NA,206659,206550,206659,133882,NA,NA,30461,NA,207186,Flanker Task,22,18002,24,yes,1024
92,92,740.2,740.2,black,legacy,legacy,legacy,0,incongruent,uniform,1,undefined,1,s,24,24,0,24,24,0,0,24,24,24,0,0,0,0,0,24,Tue Sep 15 19:15:53 2020,1500,The main experiment item,yes,FlankerTask.osexp,C:/Users/chelsea/OneDrive - Tarleton State University/psych 5316- adv/flanker test,no,mono,no,18,no,white,no,yes,768,legacy,24,24,C:/Users/chelsea/OneDrive - Tarleton State University/psych 5316- adv/flanker test/JK subject-3.csv,legacy,Lentiform Loewenfeld,3.3.3,0,s,NA,j,NA,s,NA,503,NA,103414,NA,503,NA,2,legacy,1024,2,48000,-16,experiment,HHSHH,3,odd,157686,NA,NA,208538,207311,30466,NA,208642,208533,208642,133882,NA,NA,30461,NA,209146,Flanker Task,23,18505,25,yes,1024
92.30769231,92.30769231,733.8846154,733.8846154,black,legacy,legacy,legacy,0,incongruent,uniform,1,undefined,1,s,25,25,0,25,25,0,0,25,25,25,0,0,0,0,0,25,Tue Sep 15 19:15:53 2020,1500,The main experiment item,yes,FlankerTask.osexp,C:/Users/chelsea/OneDrive - Tarleton State University/psych 5316- adv/flanker test,no,mono,no,18,no,white,no,yes,768,legacy,25,25,C:/Users/chelsea/OneDrive - Tarleton State University/psych 5316- adv/flanker test/JK subject-3.csv,legacy,Lentiform Loewenfeld,3.3.3,0,s,NA,j,NA,s,NA,576,NA,103414,NA,576,NA,2,legacy,1024,2,48000,-16,experiment,HHSHH,3,odd,157686,NA,NA,210496,209268,30466,NA,210600,210490,210599,133882,NA,NA,30461,NA,211178,Flanker Task,24,19081,26,yes,1024
92.59259259,92.59259259,725.4814815,725.4814815,black,legacy,legacy,legacy,0,incongruent,uniform,1,undefined,1,s,26,26,0,26,26,0,0,26,26,26,0,0,0,0,0,26,Tue Sep 15 19:15:53 2020,1500,The main experiment item,yes,FlankerTask.osexp,C:/Users/chelsea/OneDrive - Tarleton State University/psych 5316- adv/flanker test,no,mono,no,18,no,white,no,yes,768,legacy,26,26,C:/Users/chelsea/OneDrive - Tarleton State University/psych 5316- adv/flanker test/JK subject-3.csv,legacy,Lentiform Loewenfeld,3.3.3,0,s,NA,j,NA,s,NA,507,NA,103414,NA,507,NA,2,legacy,1024,2,48000,-16,experiment,HHSHH,3,odd,157686,NA,NA,212565,211328,30466,NA,212669,212560,212669,133882,NA,NA,30461,NA,213179,Flanker Task,25,19588,27,yes,1024
92.85714286,92.85714286,724.5714286,724.5714286,black,legacy,legacy,legacy,0,incongruent,uniform,1,undefined,1,h,27,27,0,27,27,0,0,27,27,27,0,0,0,0,0,27,Tue Sep 15 19:15:53 2020,1500,The main experiment item,yes,FlankerTask.osexp,C:/Users/chelsea/OneDrive - Tarleton State University/psych 5316- adv/flanker test,no,mono,no,18,no,white,no,yes,768,legacy,27,27,C:/Users/chelsea/OneDrive - Tarleton State University/psych 5316- adv/flanker test/JK subject-3.csv,legacy,Lentiform Loewenfeld,3.3.3,0,h,NA,j,NA,h,NA,700,NA,103414,NA,700,NA,2,legacy,1024,2,48000,-16,experiment,SSHSS,3,odd,157686,NA,NA,214548,213314,30466,NA,214652,214542,214652,133882,NA,NA,30461,NA,215354,Flanker Task,26,20288,28,yes,1024
93.10344828,93.10344828,718,718,black,legacy,legacy,legacy,0,congruent,uniform,1,undefined,1,s,28,28,0,28,28,0,0,28,28,28,0,0,0,0,0,28,Tue Sep 15 19:15:53 2020,1500,The main experiment item,yes,FlankerTask.osexp,C:/Users/chelsea/OneDrive - Tarleton State University/psych 5316- adv/flanker test,no,mono,no,18,no,white,no,yes,768,legacy,28,28,C:/Users/chelsea/OneDrive - Tarleton State University/psych 5316- adv/flanker test/JK subject-3.csv,legacy,Lentiform Loewenfeld,3.3.3,0,s,NA,j,NA,s,NA,534,NA,103414,NA,534,NA,2,legacy,1024,2,48000,-16,experiment,SSSSS,3,odd,157686,NA,NA,216818,215567,30466,NA,216922,216812,216922,133882,NA,NA,30461,NA,217459,Flanker Task,27,20822,29,yes,1024
93.33333333,93.33333333,713.1666667,713.1666667,black,legacy,legacy,legacy,0,incongruent,uniform,1,undefined,1,s,29,29,0,29,29,0,0,29,29,29,0,0,0,0,0,29,Tue Sep 15 19:15:53 2020,1500,The main experiment item,yes,FlankerTask.osexp,C:/Users/chelsea/OneDrive - Tarleton State University/psych 5316- adv/flanker test,no,mono,no,18,no,white,no,yes,768,legacy,29,29,C:/Users/chelsea/OneDrive - Tarleton State University/psych 5316- adv/flanker test/JK subject-3.csv,legacy,Lentiform Loewenfeld,3.3.3,0,s,NA,j,NA,s,NA,573,NA,103414,NA,573,NA,2,legacy,1024,2,48000,-16,experiment,HHSHH,3,odd,157686,NA,NA,218795,217558,30466,NA,218899,218789,218899,133882,NA,NA,30461,NA,219474,Flanker Task,28,21395,30,yes,1024
93.5483871,93.5483871,706.516129,706.516129,black,legacy,legacy,legacy,0,congruent,uniform,1,undefined,1,h,30,30,0,30,30,0,0,30,30,30,0,0,0,0,0,30,Tue Sep 15 19:15:53 2020,1500,The main experiment item,yes,FlankerTask.osexp,C:/Users/chelsea/OneDrive - Tarleton State University/psych 5316- adv/flanker test,no,mono,no,18,no,white,no,yes,768,legacy,30,30,C:/Users/chelsea/OneDrive - Tarleton State University/psych 5316- adv/flanker test/JK subject-3.csv,legacy,Lentiform Loewenfeld,3.3.3,0,h,NA,j,NA,h,NA,507,NA,103414,NA,507,NA,2,legacy,1024,2,48000,-16,experiment,HHHHH,3,odd,157686,NA,NA,220781,219546,30466,NA,220886,220776,220886,133882,NA,NA,30461,NA,221395,Flanker Task,29,21902,31,yes,1024
93.75,93.75,705.03125,705.03125,black,legacy,legacy,legacy,0,incongruent,uniform,1,undefined,1,h,31,31,0,31,31,0,0,31,31,31,0,0,0,0,0,31,Tue Sep 15 19:15:53 2020,1500,The main experiment item,yes,FlankerTask.osexp,C:/Users/chelsea/OneDrive - Tarleton State University/psych 5316- adv/flanker test,no,mono,no,18,no,white,no,yes,768,legacy,31,31,C:/Users/chelsea/OneDrive - Tarleton State University/psych 5316- adv/flanker test/JK subject-3.csv,legacy,Lentiform Loewenfeld,3.3.3,0,h,NA,j,NA,h,NA,659,NA,103414,NA,659,NA,2,legacy,1024,2,48000,-16,experiment,SSHSS,3,odd,157686,NA,NA,222729,221495,30466,NA,222837,222724,222836,133882,NA,NA,30461,NA,223499,Flanker Task,30,22561,32,yes,1024
93.93939394,93.93939394,699.3030303,699.3030303,black,legacy,legacy,legacy,0,incongruent,uniform,1,undefined,1,s,32,32,0,32,32,0,0,32,32,32,0,0,0,0,0,32,Tue Sep 15 19:15:53 2020,1500,The main experiment item,yes,FlankerTask.osexp,C:/Users/chelsea/OneDrive - Tarleton State University/psych 5316- adv/flanker test,no,mono,no,18,no,white,no,yes,768,legacy,32,32,C:/Users/chelsea/OneDrive - Tarleton State University/psych 5316- adv/flanker test/JK subject-3.csv,legacy,Lentiform Loewenfeld,3.3.3,0,s,NA,j,NA,s,NA,516,NA,103414,NA,516,NA,2,legacy,1024,2,48000,-16,experiment,HHSHH,3,odd,157686,NA,NA,224788,223558,30466,NA,224892,224782,224892,133882,NA,NA,30461,NA,225410,Flanker Task,31,23077,33,yes,1024
94.11764706,94.11764706,693.5,693.5,black,legacy,legacy,legacy,0,congruent,uniform,1,undefined,1,s,33,33,0,33,33,0,0,33,33,33,0,0,0,0,0,33,Tue Sep 15 19:15:53 2020,1500,The main experiment item,yes,FlankerTask.osexp,C:/Users/chelsea/OneDrive - Tarleton State University/psych 5316- adv/flanker test,no,mono,no,18,no,white,no,yes,768,legacy,33,33,C:/Users/chelsea/OneDrive - Tarleton State University/psych 5316- adv/flanker test/JK subject-3.csv,legacy,Lentiform Loewenfeld,3.3.3,0,s,NA,j,NA,s,NA,502,NA,103414,NA,502,NA,2,legacy,1024,2,48000,-16,experiment,SSSSS,3,odd,157686,NA,NA,226714,225489,30466,NA,226818,226709,226818,133882,NA,NA,30461,NA,227323,Flanker Task,32,23579,34,yes,1024
94.28571429,94.28571429,689.2285714,689.2285714,black,legacy,legacy,legacy,0,incongruent,uniform,1,undefined,1,s,34,34,0,34,34,0,0,34,34,34,0,0,0,0,0,34,Tue Sep 15 19:15:53 2020,1500,The main experiment item,yes,FlankerTask.osexp,C:/Users/chelsea/OneDrive - Tarleton State University/psych 5316- adv/flanker test,no,mono,no,18,no,white,no,yes,768,legacy,34,34,C:/Users/chelsea/OneDrive - Tarleton State University/psych 5316- adv/flanker test/JK subject-3.csv,legacy,Lentiform Loewenfeld,3.3.3,0,s,NA,j,NA,s,NA,544,NA,103414,NA,544,NA,2,legacy,1024,2,48000,-16,experiment,HHSHH,3,odd,157686,NA,NA,228661,227420,30466,NA,228768,228656,228768,133882,NA,NA,30461,NA,229314,Flanker Task,33,24123,35,yes,1024
94.44444444,94.44444444,683.8055556,683.8055556,black,legacy,legacy,legacy,0,congruent,uniform,1,undefined,1,s,35,35,0,35,35,0,0,35,35,35,0,0,0,0,0,35,Tue Sep 15 19:15:53 2020,1500,The main experiment item,yes,FlankerTask.osexp,C:/Users/chelsea/OneDrive - Tarleton State University/psych 5316- adv/flanker test,no,mono,no,18,no,white,no,yes,768,legacy,35,35,C:/Users/chelsea/OneDrive - Tarleton State University/psych 5316- adv/flanker test/JK subject-3.csv,legacy,Lentiform Loewenfeld,3.3.3,0,s,NA,j,NA,s,NA,494,NA,103414,NA,494,NA,2,legacy,1024,2,48000,-16,experiment,SSSSS,3,odd,157686,NA,NA,230753,229523,30466,NA,230858,230748,230858,133882,NA,NA,30461,NA,231355,Flanker Task,34,24617,36,yes,1024
94.59459459,94.59459459,676.8918919,676.8918919,black,legacy,legacy,legacy,0,congruent,uniform,1,undefined,1,s,36,36,0,36,36,0,0,36,36,36,0,0,0,0,0,36,Tue Sep 15 19:15:53 2020,1500,The main experiment item,yes,FlankerTask.osexp,C:/Users/chelsea/OneDrive - Tarleton State University/psych 5316- adv/flanker test,no,mono,no,18,no,white,no,yes,768,legacy,36,36,C:/Users/chelsea/OneDrive - Tarleton State University/psych 5316- adv/flanker test/JK subject-3.csv,legacy,Lentiform Loewenfeld,3.3.3,0,s,NA,j,NA,s,NA,428,NA,103414,NA,428,NA,2,legacy,1024,2,48000,-16,experiment,SSSSS,3,odd,157686,NA,NA,232652,231423,30466,NA,232756,232646,232756,133882,NA,NA,30461,NA,233187,Flanker Task,35,25045,37,yes,1024
94.73684211,94.73684211,670.7894737,670.7894737,black,legacy,legacy,legacy,0,incongruent,uniform,1,undefined,1,s,37,37,0,37,37,0,0,37,37,37,0,0,0,0,0,37,Tue Sep 15 19:15:53 2020,1500,The main experiment item,yes,FlankerTask.osexp,C:/Users/chelsea/OneDrive - Tarleton State University/psych 5316- adv/flanker test,no,mono,no,18,no,white,no,yes,768,legacy,37,37,C:/Users/chelsea/OneDrive - Tarleton State University/psych 5316- adv/flanker test/JK subject-3.csv,legacy,Lentiform Loewenfeld,3.3.3,0,s,NA,j,NA,s,NA,445,NA,103414,NA,445,NA,2,legacy,1024,2,48000,-16,experiment,HHSHH,3,odd,157686,NA,NA,234475,233236,30466,NA,234579,234470,234579,133882,NA,NA,30461,NA,235027,Flanker Task,36,25490,38,yes,1024
94.87179487,94.87179487,668.2051282,668.2051282,black,legacy,legacy,legacy,0,incongruent,uniform,1,undefined,1,h,38,38,0,38,38,0,0,38,38,38,0,0,0,0,0,38,Tue Sep 15 19:15:53 2020,1500,The main experiment item,yes,FlankerTask.osexp,C:/Users/chelsea/OneDrive - Tarleton State University/psych 5316- adv/flanker test,no,mono,no,18,no,white,no,yes,768,legacy,38,38,C:/Users/chelsea/OneDrive - Tarleton State University/psych 5316- adv/flanker test/JK subject-3.csv,legacy,Lentiform Loewenfeld,3.3.3,0,h,NA,j,NA,h,NA,570,NA,103414,NA,570,NA,2,legacy,1024,2,48000,-16,experiment,SSHSS,3,odd,157686,NA,NA,236373,235139,30466,NA,236478,236368,236478,133882,NA,NA,30461,NA,237051,Flanker Task,37,26060,39,yes,1024
95,95,664.025,664.025,black,legacy,legacy,legacy,0,congruent,uniform,1,undefined,1,h,39,39,0,39,39,0,0,39,39,39,0,0,0,0,0,39,Tue Sep 15 19:15:53 2020,1500,The main experiment item,yes,FlankerTask.osexp,C:/Users/chelsea/OneDrive - Tarleton State University/psych 5316- adv/flanker test,no,mono,no,18,no,white,no,yes,768,legacy,39,39,C:/Users/chelsea/OneDrive - Tarleton State University/psych 5316- adv/flanker test/JK subject-3.csv,legacy,Lentiform Loewenfeld,3.3.3,0,h,NA,j,NA,h,NA,501,NA,103414,NA,501,NA,2,legacy,1024,2,48000,-16,experiment,HHHHH,3,odd,157686,NA,NA,238401,237161,30466,NA,238507,238396,238507,133882,NA,NA,30461,NA,239011,Flanker Task,38,26561,40,yes,1024
95.12195122,95.12195122,661.3414634,661.3414634,black,legacy,legacy,legacy,0,incongruent,uniform,1,undefined,1,h,40,40,0,40,40,0,0,40,40,40,0,0,0,0,0,40,Tue Sep 15 19:15:53 2020,1500,The main experiment item,yes,FlankerTask.osexp,C:/Users/chelsea/OneDrive - Tarleton State University/psych 5316- adv/flanker test,no,mono,no,18,no,white,no,yes,768,legacy,40,40,C:/Users/chelsea/OneDrive - Tarleton State University/psych 5316- adv/flanker test/JK subject-3.csv,legacy,Lentiform Loewenfeld,3.3.3,0,h,NA,j,NA,h,NA,554,NA,103414,NA,554,NA,2,legacy,1024,2,48000,-16,experiment,SSHSS,3,odd,157686,NA,NA,240326,239085,30466,NA,240430,240320,240430,133882,NA,NA,30461,NA,240987,Flanker Task,39,27115,41,yes,1024
95.23809524,95.23809524,657.7380952,657.7380952,black,legacy,legacy,legacy,0,congruent,uniform,1,undefined,1,s,41,41,0,41,41,0,0,41,41,41,0,0,0,0,0,41,Tue Sep 15 19:15:53 2020,1500,The main experiment item,yes,FlankerTask.osexp,C:/Users/chelsea/OneDrive - Tarleton State University/psych 5316- adv/flanker test,no,mono,no,18,no,white,no,yes,768,legacy,41,41,C:/Users/chelsea/OneDrive - Tarleton State University/psych 5316- adv/flanker test/JK subject-3.csv,legacy,Lentiform Loewenfeld,3.3.3,0,s,NA,j,NA,s,NA,510,NA,103414,NA,510,NA,2,legacy,1024,2,48000,-16,experiment,SSSSS,3,odd,157686,NA,NA,242274,241049,30466,NA,242378,242268,242378,133882,NA,NA,30461,NA,242891,Flanker Task,40,27625,42,yes,1024
95.34883721,95.34883721,655.9069767,655.9069767,black,legacy,legacy,legacy,0,incongruent,uniform,1,undefined,1,s,42,42,0,42,42,0,0,42,42,42,0,0,0,0,0,42,Tue Sep 15 19:15:53 2020,1500,The main experiment item,yes,FlankerTask.osexp,C:/Users/chelsea/OneDrive - Tarleton State University/psych 5316- adv/flanker test,no,mono,no,18,no,white,no,yes,768,legacy,42,42,C:/Users/chelsea/OneDrive - Tarleton State University/psych 5316- adv/flanker test/JK subject-3.csv,legacy,Lentiform Loewenfeld,3.3.3,0,s,NA,j,NA,s,NA,579,NA,103414,NA,579,NA,2,legacy,1024,2,48000,-16,experiment,HHSHH,3,odd,157686,NA,NA,244253,243021,30466,NA,244357,244247,244357,133882,NA,NA,30461,NA,244939,Flanker Task,41,28204,43,yes,1024
95.45454545,95.45454545,652.9545455,652.9545455,black,legacy,legacy,legacy,0,congruent,uniform,1,undefined,1,h,43,43,0,43,43,0,0,43,43,43,0,0,0,0,0,43,Tue Sep 15 19:15:53 2020,1500,The main experiment item,yes,FlankerTask.osexp,C:/Users/chelsea/OneDrive - Tarleton State University/psych 5316- adv/flanker test,no,mono,no,18,no,white,no,yes,768,legacy,43,43,C:/Users/chelsea/OneDrive - Tarleton State University/psych 5316- adv/flanker test/JK subject-3.csv,legacy,Lentiform Loewenfeld,3.3.3,0,h,NA,j,NA,h,NA,526,NA,103414,NA,526,NA,2,legacy,1024,2,48000,-16,experiment,HHHHH,3,odd,157686,NA,NA,246257,245023,30466,NA,246362,246252,246362,133882,NA,NA,30461,NA,246891,Flanker Task,42,28730,44,yes,1024
95.55555556,95.55555556,651.4,651.4,black,legacy,legacy,legacy,0,incongruent,uniform,1,undefined,1,h,44,44,0,44,44,0,0,44,44,44,0,0,0,0,0,44,Tue Sep 15 19:15:53 2020,1500,The main experiment item,yes,FlankerTask.osexp,C:/Users/chelsea/OneDrive - Tarleton State University/psych 5316- adv/flanker test,no,mono,no,18,no,white,no,yes,768,legacy,44,44,C:/Users/chelsea/OneDrive - Tarleton State University/psych 5316- adv/flanker test/JK subject-3.csv,legacy,Lentiform Loewenfeld,3.3.3,0,h,NA,j,NA,h,NA,583,NA,103414,NA,583,NA,2,legacy,1024,2,48000,-16,experiment,SSHSS,3,odd,157686,NA,NA,248544,247307,30466,NA,248649,248538,248649,133882,NA,NA,30461,NA,249236,Flanker Task,43,29313,45,yes,1024
95.65217391,95.65217391,650.6521739,650.6521739,black,legacy,legacy,legacy,0,congruent,uniform,1,undefined,1,h,45,45,0,45,45,0,0,45,45,45,0,0,0,0,0,45,Tue Sep 15 19:15:53 2020,1500,The main experiment item,yes,FlankerTask.osexp,C:/Users/chelsea/OneDrive - Tarleton State University/psych 5316- adv/flanker test,no,mono,no,18,no,white,no,yes,768,legacy,45,45,C:/Users/chelsea/OneDrive - Tarleton State University/psych 5316- adv/flanker test/JK subject-3.csv,legacy,Lentiform Loewenfeld,3.3.3,0,h,NA,j,NA,h,NA,617,NA,103414,NA,617,NA,2,legacy,1024,2,48000,-16,experiment,HHHHH,3,odd,157686,NA,NA,250695,249461,30466,NA,250799,250689,250799,133882,NA,NA,30461,NA,251419,Flanker Task,44,29930,46,yes,1024
95.74468085,95.74468085,646.9148936,646.9148936,black,legacy,legacy,legacy,0,congruent,uniform,1,undefined,1,h,46,46,0,46,46,0,0,46,46,46,0,0,0,0,0,46,Tue Sep 15 19:15:53 2020,1500,The main experiment item,yes,FlankerTask.osexp,C:/Users/chelsea/OneDrive - Tarleton State University/psych 5316- adv/flanker test,no,mono,no,18,no,white,no,yes,768,legacy,46,46,C:/Users/chelsea/OneDrive - Tarleton State University/psych 5316- adv/flanker test/JK subject-3.csv,legacy,Lentiform Loewenfeld,3.3.3,0,h,NA,j,NA,h,NA,475,NA,103414,NA,475,NA,2,legacy,1024,2,48000,-16,experiment,HHHHH,3,odd,157686,NA,NA,252804,251574,30466,NA,252909,252799,252909,133882,NA,NA,30461,NA,253387,Flanker Task,45,30405,47,yes,1024
95.83333333,95.83333333,644.7916667,644.7916667,black,legacy,legacy,legacy,0,incongruent,uniform,1,undefined,1,s,47,47,0,47,47,0,0,47,47,47,0,0,0,0,0,47,Tue Sep 15 19:15:53 2020,1500,The main experiment item,yes,FlankerTask.osexp,C:/Users/chelsea/OneDrive - Tarleton State University/psych 5316- adv/flanker test,no,mono,no,18,no,white,no,yes,768,legacy,47,47,C:/Users/chelsea/OneDrive - Tarleton State University/psych 5316- adv/flanker test/JK subject-3.csv,legacy,Lentiform Loewenfeld,3.3.3,0,s,NA,j,NA,s,NA,545,NA,103414,NA,545,NA,2,legacy,1024,2,48000,-16,experiment,HHSHH,3,odd,157686,NA,NA,254751,253517,30466,NA,254855,254745,254855,133882,NA,NA,30461,NA,255403,Flanker Task,46,30950,48,yes,1024
95.91836735,95.91836735,641.7346939,641.7346939,black,legacy,legacy,legacy,0,congruent,uniform,1,undefined,1,h,48,48,0,48,48,0,0,48,48,48,0,0,0,0,0,48,Tue Sep 15 19:15:53 2020,1500,The main experiment item,yes,FlankerTask.osexp,C:/Users/chelsea/OneDrive - Tarleton State University/psych 5316- adv/flanker test,no,mono,no,18,no,white,no,yes,768,legacy,48,48,C:/Users/chelsea/OneDrive - Tarleton State University/psych 5316- adv/flanker test/JK subject-3.csv,legacy,Lentiform Loewenfeld,3.3.3,0,h,NA,j,NA,h,NA,495,NA,103414,NA,495,NA,2,legacy,1024,2,48000,-16,experiment,HHHHH,3,odd,157686,NA,NA,256873,255628,30466,NA,256977,256867,256977,133882,NA,NA,30461,NA,257475,Flanker Task,47,31445,49,yes,1024
96,96,639.1,639.1,black,legacy,legacy,legacy,0,incongruent,uniform,1,undefined,1,s,49,49,0,49,49,0,0,49,49,49,0,0,0,0,0,49,Tue Sep 15 19:15:53 2020,1500,The main experiment item,yes,FlankerTask.osexp,C:/Users/chelsea/OneDrive - Tarleton State University/psych 5316- adv/flanker test,no,mono,no,18,no,white,no,yes,768,legacy,49,49,C:/Users/chelsea/OneDrive - Tarleton State University/psych 5316- adv/flanker test/JK subject-3.csv,legacy,Lentiform Loewenfeld,3.3.3,0,s,NA,j,NA,s,NA,510,NA,103414,NA,510,NA,2,legacy,1024,2,48000,-16,experiment,HHSHH,3,odd,157686,NA,NA,258969,257743,30466,NA,259074,258964,259074,133882,NA,NA,30461,NA,259588,Flanker Task,48,31955,50,yes,1024
96.07843137,96.07843137,635.9019608,635.9019608,black,legacy,legacy,legacy,0,congruent,uniform,1,undefined,1,h,50,50,0,50,50,0,0,50,50,50,0,0,0,0,0,50,Tue Sep 15 19:15:53 2020,1500,The main experiment item,yes,FlankerTask.osexp,C:/Users/chelsea/OneDrive - Tarleton State University/psych 5316- adv/flanker test,no,mono,no,18,no,white,no,yes,768,legacy,50,50,C:/Users/chelsea/OneDrive - Tarleton State University/psych 5316- adv/flanker test/JK subject-3.csv,legacy,Lentiform Loewenfeld,3.3.3,0,h,NA,j,NA,h,NA,476,NA,103414,NA,476,NA,2,legacy,1024,2,48000,-16,experiment,HHHHH,3,odd,157686,NA,NA,260995,259761,30466,NA,261101,260989,261101,133882,NA,NA,30461,NA,261580,Flanker Task,49,32431,51,yes,1024
96.15384615,96.15384615,633.2884615,633.2884615,black,legacy,legacy,legacy,0,congruent,uniform,1,undefined,1,h,51,51,0,51,51,0,0,51,51,51,0,0,0,0,0,51,Tue Sep 15 19:15:53 2020,1500,The main experiment item,yes,FlankerTask.osexp,C:/Users/chelsea/OneDrive - Tarleton State University/psych 5316- adv/flanker test,no,mono,no,18,no,white,no,yes,768,legacy,51,51,C:/Users/chelsea/OneDrive - Tarleton State University/psych 5316- adv/flanker test/JK subject-3.csv,legacy,Lentiform Loewenfeld,3.3.3,0,h,NA,j,NA,h,NA,500,NA,103414,NA,500,NA,2,legacy,1024,2,48000,-16,experiment,HHHHH,3,odd,157686,NA,NA,263091,261866,30466,NA,263196,263086,263196,133882,NA,NA,30461,NA,263699,Flanker Task,50,32931,52,yes,1024
94.33962264,94.33962264,630.8867925,630.8867925,black,legacy,legacy,legacy,0,incongruent,uniform,0,undefined,0,h,52,52,0,52,52,0,0,52,52,52,0,0,0,0,0,52,Tue Sep 15 19:15:53 2020,1500,The main experiment item,yes,FlankerTask.osexp,C:/Users/chelsea/OneDrive - Tarleton State University/psych 5316- adv/flanker test,no,mono,no,18,no,white,no,yes,768,legacy,52,52,C:/Users/chelsea/OneDrive - Tarleton State University/psych 5316- adv/flanker test/JK subject-3.csv,legacy,Lentiform Loewenfeld,3.3.3,0,s,NA,j,NA,s,NA,506,NA,103414,NA,506,NA,2,legacy,1024,2,48000,-16,experiment,SSHSS,3,odd,157686,NA,NA,265094,263862,30466,NA,265198,265088,265198,133882,NA,NA,30461,NA,265708,Flanker Task,50,33437,53,yes,1024
94.44444444,94.44444444,627.7592593,627.7592593,black,legacy,legacy,legacy,0,congruent,uniform,1,undefined,1,h,53,53,0,53,53,0,0,53,53,53,0,0,0,0,0,53,Tue Sep 15 19:15:53 2020,1500,The main experiment item,yes,FlankerTask.osexp,C:/Users/chelsea/OneDrive - Tarleton State University/psych 5316- adv/flanker test,no,mono,no,18,no,white,no,yes,768,legacy,53,53,C:/Users/chelsea/OneDrive - Tarleton State University/psych 5316- adv/flanker test/JK subject-3.csv,legacy,Lentiform Loewenfeld,3.3.3,0,h,NA,j,NA,h,NA,462,NA,103414,NA,462,NA,2,legacy,1024,2,48000,-16,experiment,HHHHH,3,odd,265960,NA,NA,267698,266464,30466,NA,267802,267692,267802,133882,NA,NA,30461,NA,268268,Flanker Task,51,33899,54,yes,1024
94.54545455,94.54545455,625.5090909,625.5090909,black,legacy,legacy,legacy,0,congruent,uniform,1,undefined,1,h,54,54,0,54,54,0,0,54,54,54,0,0,0,0,0,54,Tue Sep 15 19:15:53 2020,1500,The main experiment item,yes,FlankerTask.osexp,C:/Users/chelsea/OneDrive - Tarleton State University/psych 5316- adv/flanker test,no,mono,no,18,no,white,no,yes,768,legacy,54,54,C:/Users/chelsea/OneDrive - Tarleton State University/psych 5316- adv/flanker test/JK subject-3.csv,legacy,Lentiform Loewenfeld,3.3.3,0,h,NA,j,NA,h,NA,504,NA,103414,NA,504,NA,2,legacy,1024,2,48000,-16,experiment,HHHHH,3,odd,265960,NA,NA,269744,268506,30466,NA,269848,269738,269848,133882,NA,NA,30461,NA,270356,Flanker Task,52,34403,55,yes,1024
94.64285714,94.64285714,624.25,624.25,black,legacy,legacy,legacy,0,incongruent,uniform,1,undefined,1,s,55,55,0,55,55,0,0,55,55,55,0,0,0,0,0,55,Tue Sep 15 19:15:53 2020,1500,The main experiment item,yes,FlankerTask.osexp,C:/Users/chelsea/OneDrive - Tarleton State University/psych 5316- adv/flanker test,no,mono,no,18,no,white,no,yes,768,legacy,55,55,C:/Users/chelsea/OneDrive - Tarleton State University/psych 5316- adv/flanker test/JK subject-3.csv,legacy,Lentiform Loewenfeld,3.3.3,0,s,NA,j,NA,s,NA,555,NA,103414,NA,555,NA,2,legacy,1024,2,48000,-16,experiment,HHSHH,3,odd,265960,NA,NA,271877,270633,30466,NA,271981,271872,271981,133882,NA,NA,30461,NA,272539,Flanker Task,53,34958,56,yes,1024
94.73684211,94.73684211,624.754386,624.754386,black,legacy,legacy,legacy,0,incongruent,uniform,1,undefined,1,s,56,56,0,56,56,0,0,56,56,56,0,0,0,0,0,56,Tue Sep 15 19:15:53 2020,1500,The main experiment item,yes,FlankerTask.osexp,C:/Users/chelsea/OneDrive - Tarleton State University/psych 5316- adv/flanker test,no,mono,no,18,no,white,no,yes,768,legacy,56,56,C:/Users/chelsea/OneDrive - Tarleton State University/psych 5316- adv/flanker test/JK subject-3.csv,legacy,Lentiform Loewenfeld,3.3.3,0,s,NA,j,NA,s,NA,653,NA,103414,NA,653,NA,2,legacy,1024,2,48000,-16,experiment,HHSHH,3,odd,265960,NA,NA,274027,272796,30466,NA,274131,274022,274131,133882,NA,NA,30461,NA,274788,Flanker Task,54,35611,57,yes,1024
94.82758621,94.82758621,621.8103448,621.8103448,black,legacy,legacy,legacy,0,congruent,uniform,1,undefined,1,h,57,57,0,57,57,0,0,57,57,57,0,0,0,0,0,57,Tue Sep 15 19:15:53 2020,1500,The main experiment item,yes,FlankerTask.osexp,C:/Users/chelsea/OneDrive - Tarleton State University/psych 5316- adv/flanker test,no,mono,no,18,no,white,no,yes,768,legacy,57,57,C:/Users/chelsea/OneDrive - Tarleton State University/psych 5316- adv/flanker test/JK subject-3.csv,legacy,Lentiform Loewenfeld,3.3.3,0,h,NA,j,NA,h,NA,454,NA,103414,NA,454,NA,2,legacy,1024,2,48000,-16,experiment,HHHHH,3,odd,265960,NA,NA,276169,274918,30466,NA,276274,276164,276274,133882,NA,NA,30461,NA,276732,Flanker Task,55,36065,58,yes,1024
94.91525424,94.91525424,620.6779661,620.6779661,black,legacy,legacy,legacy,0,congruent,uniform,1,undefined,1,s,58,58,0,58,58,0,0,58,58,58,0,0,0,0,0,58,Tue Sep 15 19:15:53 2020,1500,The main experiment item,yes,FlankerTask.osexp,C:/Users/chelsea/OneDrive - Tarleton State University/psych 5316- adv/flanker test,no,mono,no,18,no,white,no,yes,768,legacy,58,58,C:/Users/chelsea/OneDrive - Tarleton State University/psych 5316- adv/flanker test/JK subject-3.csv,legacy,Lentiform Loewenfeld,3.3.3,0,s,NA,j,NA,s,NA,555,NA,103414,NA,555,NA,2,legacy,1024,2,48000,-16,experiment,SSSSS,3,odd,265960,NA,NA,278404,277162,30466,NA,278509,278399,278509,133882,NA,NA,30461,NA,279067,Flanker Task,56,36620,59,yes,1024
95,95,619.2166667,619.2166667,black,legacy,legacy,legacy,0,incongruent,uniform,1,undefined,1,h,59,59,0,59,59,0,0,59,59,59,0,0,0,0,0,59,Tue Sep 15 19:15:53 2020,1500,The main experiment item,yes,FlankerTask.osexp,C:/Users/chelsea/OneDrive - Tarleton State University/psych 5316- adv/flanker test,no,mono,no,18,no,white,no,yes,768,legacy,59,59,C:/Users/chelsea/OneDrive - Tarleton State University/psych 5316- adv/flanker test/JK subject-3.csv,legacy,Lentiform Loewenfeld,3.3.3,0,h,NA,j,NA,h,NA,533,NA,103414,NA,533,NA,2,legacy,1024,2,48000,-16,experiment,SSHSS,3,odd,265960,NA,NA,280627,279384,30466,NA,280731,280622,280731,133882,NA,NA,30461,NA,281268,Flanker Task,57,37153,60,yes,1024
95.08196721,95.08196721,617.9180328,617.9180328,black,legacy,legacy,legacy,0,congruent,uniform,1,undefined,1,h,60,60,0,60,60,0,0,60,60,60,0,0,0,0,0,60,Tue Sep 15 19:15:53 2020,1500,The main experiment item,yes,FlankerTask.osexp,C:/Users/chelsea/OneDrive - Tarleton State University/psych 5316- adv/flanker test,no,mono,no,18,no,white,no,yes,768,legacy,60,60,C:/Users/chelsea/OneDrive - Tarleton State University/psych 5316- adv/flanker test/JK subject-3.csv,legacy,Lentiform Loewenfeld,3.3.3,0,h,NA,j,NA,h,NA,540,NA,103414,NA,540,NA,2,legacy,1024,2,48000,-16,experiment,HHHHH,3,odd,265960,NA,NA,282690,281436,30466,NA,282796,282685,282795,133882,NA,NA,30461,NA,283340,Flanker Task,58,37693,61,yes,1024
95.16129032,95.16129032,619.016129,619.016129,black,legacy,legacy,legacy,0,incongruent,uniform,1,undefined,1,h,61,61,0,61,61,0,0,61,61,61,0,0,0,0,0,61,Tue Sep 15 19:15:53 2020,1500,The main experiment item,yes,FlankerTask.osexp,C:/Users/chelsea/OneDrive - Tarleton State University/psych 5316- adv/flanker test,no,mono,no,18,no,white,no,yes,768,legacy,61,61,C:/Users/chelsea/OneDrive - Tarleton State University/psych 5316- adv/flanker test/JK subject-3.csv,legacy,Lentiform Loewenfeld,3.3.3,0,h,NA,j,NA,h,NA,686,NA,103414,NA,686,NA,2,legacy,1024,2,48000,-16,experiment,SSHSS,3,odd,265960,NA,NA,287887,286657,30466,NA,287994,287881,287993,133882,NA,NA,30461,NA,288684,Flanker Task,59,38379,62,yes,1024
95.23809524,95.23809524,621.9365079,621.9365079,black,legacy,legacy,legacy,0,congruent,uniform,1,undefined,1,s,62,62,0,62,62,0,0,62,62,62,0,0,0,0,0,62,Tue Sep 15 19:15:53 2020,1500,The main experiment item,yes,FlankerTask.osexp,C:/Users/chelsea/OneDrive - Tarleton State University/psych 5316- adv/flanker test,no,mono,no,18,no,white,no,yes,768,legacy,62,62,C:/Users/chelsea/OneDrive - Tarleton State University/psych 5316- adv/flanker test/JK subject-3.csv,legacy,Lentiform Loewenfeld,3.3.3,0,s,NA,j,NA,s,NA,803,NA,103414,NA,803,NA,2,legacy,1024,2,48000,-16,experiment,SSSSS,3,odd,265960,NA,NA,294053,292813,30466,NA,294157,294048,294157,133882,NA,NA,30461,NA,294964,Flanker Task,60,39182,63,yes,1024
95.3125,95.3125,621.421875,621.421875,black,legacy,legacy,legacy,0,congruent,uniform,1,undefined,1,s,63,63,0,63,63,0,0,63,63,63,0,0,0,0,0,63,Tue Sep 15 19:15:53 2020,1500,The main experiment item,yes,FlankerTask.osexp,C:/Users/chelsea/OneDrive - Tarleton State University/psych 5316- adv/flanker test,no,mono,no,18,no,white,no,yes,768,legacy,63,63,C:/Users/chelsea/OneDrive - Tarleton State University/psych 5316- adv/flanker test/JK subject-3.csv,legacy,Lentiform Loewenfeld,3.3.3,0,s,NA,j,NA,s,NA,589,NA,103414,NA,589,NA,2,legacy,1024,2,48000,-16,experiment,SSSSS,3,odd,265960,NA,NA,296347,295105,30466,NA,296451,296342,296451,133882,NA,NA,30461,NA,297044,Flanker Task,61,39771,64,yes,1024
95.38461538,95.38461538,621.0769231,621.0769231,black,legacy,legacy,legacy,0,incongruent,uniform,1,undefined,1,s,64,64,0,64,64,0,0,64,64,64,0,0,0,0,0,64,Tue Sep 15 19:15:53 2020,1500,The main experiment item,yes,FlankerTask.osexp,C:/Users/chelsea/OneDrive - Tarleton State University/psych 5316- adv/flanker test,no,mono,no,18,no,white,no,yes,768,legacy,64,64,C:/Users/chelsea/OneDrive - Tarleton State University/psych 5316- adv/flanker test/JK subject-3.csv,legacy,Lentiform Loewenfeld,3.3.3,0,s,NA,j,NA,s,NA,599,NA,103414,NA,599,NA,2,legacy,1024,2,48000,-16,experiment,HHSHH,3,odd,265960,NA,NA,298410,297157,30466,NA,298515,298405,298515,133882,NA,NA,30461,NA,299119,Flanker Task,62,40370,65,yes,1024
95.45454545,95.45454545,622.1363636,622.1363636,black,legacy,legacy,legacy,0,congruent,uniform,1,undefined,1,s,65,65,0,65,65,0,0,65,65,65,0,0,0,0,0,65,Tue Sep 15 19:15:53 2020,1500,The main experiment item,yes,FlankerTask.osexp,C:/Users/chelsea/OneDrive - Tarleton State University/psych 5316- adv/flanker test,no,mono,no,18,no,white,no,yes,768,legacy,65,65,C:/Users/chelsea/OneDrive - Tarleton State University/psych 5316- adv/flanker test/JK subject-3.csv,legacy,Lentiform Loewenfeld,3.3.3,0,s,NA,j,NA,s,NA,691,NA,103414,NA,691,NA,2,legacy,1024,2,48000,-16,experiment,SSSSS,3,odd,265960,NA,NA,300428,299183,30466,NA,300533,300423,300533,133882,NA,NA,30461,NA,301229,Flanker Task,63,41061,66,yes,1024
95.52238806,95.52238806,621.9552239,621.9552239,black,legacy,legacy,legacy,0,incongruent,uniform,1,undefined,1,s,66,66,0,66,66,0,0,66,66,66,0,0,0,0,0,66,Tue Sep 15 19:15:53 2020,1500,The main experiment item,yes,FlankerTask.osexp,C:/Users/chelsea/OneDrive - Tarleton State University/psych 5316- adv/flanker test,no,mono,no,18,no,white,no,yes,768,legacy,66,66,C:/Users/chelsea/OneDrive - Tarleton State University/psych 5316- adv/flanker test/JK subject-3.csv,legacy,Lentiform Loewenfeld,3.3.3,0,s,NA,j,NA,s,NA,610,NA,103414,NA,610,NA,2,legacy,1024,2,48000,-16,experiment,HHSHH,3,odd,265960,NA,NA,302574,301330,30466,NA,302678,302568,302678,133882,NA,NA,30461,NA,303292,Flanker Task,64,41671,67,yes,1024
95.58823529,95.58823529,621.3823529,621.3823529,black,legacy,legacy,legacy,0,congruent,uniform,1,undefined,1,h,67,67,0,67,67,0,0,67,67,67,0,0,0,0,0,67,Tue Sep 15 19:15:53 2020,1500,The main experiment item,yes,FlankerTask.osexp,C:/Users/chelsea/OneDrive - Tarleton State University/psych 5316- adv/flanker test,no,mono,no,18,no,white,no,yes,768,legacy,67,67,C:/Users/chelsea/OneDrive - Tarleton State University/psych 5316- adv/flanker test/JK subject-3.csv,legacy,Lentiform Loewenfeld,3.3.3,0,h,NA,j,NA,h,NA,583,NA,103414,NA,583,NA,2,legacy,1024,2,48000,-16,experiment,HHHHH,3,odd,265960,NA,NA,304577,303340,30466,NA,304681,304572,304681,133882,NA,NA,30461,NA,305268,Flanker Task,65,42254,68,yes,1024
95.65217391,95.65217391,621.7681159,621.7681159,black,legacy,legacy,legacy,0,congruent,uniform,1,undefined,1,s,68,68,0,68,68,0,0,68,68,68,0,0,0,0,0,68,Tue Sep 15 19:15:53 2020,1500,The main experiment item,yes,FlankerTask.osexp,C:/Users/chelsea/OneDrive - Tarleton State University/psych 5316- adv/flanker test,no,mono,no,18,no,white,no,yes,768,legacy,68,68,C:/Users/chelsea/OneDrive - Tarleton State University/psych 5316- adv/flanker test/JK subject-3.csv,legacy,Lentiform Loewenfeld,3.3.3,0,s,NA,j,NA,s,NA,648,NA,103414,NA,648,NA,2,legacy,1024,2,48000,-16,experiment,SSSSS,3,odd,265960,NA,NA,306559,305328,30466,NA,306664,306554,306664,133882,NA,NA,30461,NA,307316,Flanker Task,66,42902,69,yes,1024
95.71428571,95.71428571,621.6571429,621.6571429,black,legacy,legacy,legacy,0,incongruent,uniform,1,undefined,1,h,69,69,0,69,69,0,0,69,69,69,0,0,0,0,0,69,Tue Sep 15 19:15:53 2020,1500,The main experiment item,yes,FlankerTask.osexp,C:/Users/chelsea/OneDrive - Tarleton State University/psych 5316- adv/flanker test,no,mono,no,18,no,white,no,yes,768,legacy,69,69,C:/Users/chelsea/OneDrive - Tarleton State University/psych 5316- adv/flanker test/JK subject-3.csv,legacy,Lentiform Loewenfeld,3.3.3,0,h,NA,j,NA,h,NA,614,NA,103414,NA,614,NA,2,legacy,1024,2,48000,-16,experiment,SSHSS,3,odd,265960,NA,NA,308922,307688,30466,NA,309026,308917,309026,133882,NA,NA,30461,NA,309644,Flanker Task,67,43516,70,yes,1024
95.77464789,95.77464789,621.1830986,621.1830986,black,legacy,legacy,legacy,0,congruent,uniform,1,undefined,1,h,70,70,0,70,70,0,0,70,70,70,0,0,0,0,0,70,Tue Sep 15 19:15:53 2020,1500,The main experiment item,yes,FlankerTask.osexp,C:/Users/chelsea/OneDrive - Tarleton State University/psych 5316- adv/flanker test,no,mono,no,18,no,white,no,yes,768,legacy,70,70,C:/Users/chelsea/OneDrive - Tarleton State University/psych 5316- adv/flanker test/JK subject-3.csv,legacy,Lentiform Loewenfeld,3.3.3,0,h,NA,j,NA,h,NA,588,NA,103414,NA,588,NA,2,legacy,1024,2,48000,-16,experiment,HHHHH,3,odd,265960,NA,NA,311019,309725,30466,NA,311124,311014,311123,133882,NA,NA,30461,NA,311716,Flanker Task,68,44104,71,yes,1024
95.83333333,95.83333333,620.6944444,620.6944444,black,legacy,legacy,legacy,0,congruent,uniform,1,undefined,1,s,71,71,0,71,71,0,0,71,71,71,0,0,0,0,0,71,Tue Sep 15 19:15:53 2020,1500,The main experiment item,yes,FlankerTask.osexp,C:/Users/chelsea/OneDrive - Tarleton State University/psych 5316- adv/flanker test,no,mono,no,18,no,white,no,yes,768,legacy,71,71,C:/Users/chelsea/OneDrive - Tarleton State University/psych 5316- adv/flanker test/JK subject-3.csv,legacy,Lentiform Loewenfeld,3.3.3,0,s,NA,j,NA,s,NA,586,NA,103414,NA,586,NA,2,legacy,1024,2,48000,-16,experiment,SSSSS,3,odd,265960,NA,NA,313006,311784,30466,NA,313110,313001,313110,133882,NA,NA,30461,NA,313699,Flanker Task,69,44690,72,yes,1024
95.89041096,95.89041096,620.4383562,620.4383562,black,legacy,legacy,legacy,0,incongruent,uniform,1,undefined,1,h,72,72,0,72,72,0,0,72,72,72,0,0,0,0,0,72,Tue Sep 15 19:15:53 2020,1500,The main experiment item,yes,FlankerTask.osexp,C:/Users/chelsea/OneDrive - Tarleton State University/psych 5316- adv/flanker test,no,mono,no,18,no,white,no,yes,768,legacy,72,72,C:/Users/chelsea/OneDrive - Tarleton State University/psych 5316- adv/flanker test/JK subject-3.csv,legacy,Lentiform Loewenfeld,3.3.3,0,h,NA,j,NA,h,NA,602,NA,103414,NA,602,NA,2,legacy,1024,2,48000,-16,experiment,SSHSS,3,odd,265960,NA,NA,315037,313816,30466,NA,315142,315032,315142,133882,NA,NA,30461,NA,315748,Flanker Task,70,45292,73,yes,1024
95.94594595,95.94594595,620.3243243,620.3243243,black,legacy,legacy,legacy,0,incongruent,uniform,1,undefined,1,h,73,73,0,73,73,0,0,73,73,73,0,0,0,0,0,73,Tue Sep 15 19:15:53 2020,1500,The main experiment item,yes,FlankerTask.osexp,C:/Users/chelsea/OneDrive - Tarleton State University/psych 5316- adv/flanker test,no,mono,no,18,no,white,no,yes,768,legacy,73,73,C:/Users/chelsea/OneDrive - Tarleton State University/psych 5316- adv/flanker test/JK subject-3.csv,legacy,Lentiform Loewenfeld,3.3.3,0,h,NA,j,NA,h,NA,612,NA,103414,NA,612,NA,2,legacy,1024,2,48000,-16,experiment,SSHSS,3,odd,265960,NA,NA,317140,315916,30466,NA,317244,317135,317244,133882,NA,NA,30461,NA,317861,Flanker Task,71,45904,74,yes,1024
96,96,619.7466667,619.7466667,black,legacy,legacy,legacy,0,incongruent,uniform,1,undefined,1,s,74,74,0,74,74,0,0,74,74,74,0,0,0,0,0,74,Tue Sep 15 19:15:53 2020,1500,The main experiment item,yes,FlankerTask.osexp,C:/Users/chelsea/OneDrive - Tarleton State University/psych 5316- adv/flanker test,no,mono,no,18,no,white,no,yes,768,legacy,74,74,C:/Users/chelsea/OneDrive - Tarleton State University/psych 5316- adv/flanker test/JK subject-3.csv,legacy,Lentiform Loewenfeld,3.3.3,0,s,NA,j,NA,s,NA,577,NA,103414,NA,577,NA,2,legacy,1024,2,48000,-16,experiment,HHSHH,3,odd,265960,NA,NA,319167,317939,30466,NA,319271,319161,319271,133882,NA,NA,30461,NA,319852,Flanker Task,72,46481,75,yes,1024
96.05263158,96.05263158,618.2236842,618.2236842,black,legacy,legacy,legacy,0,congruent,uniform,1,undefined,1,h,75,75,0,75,75,0,0,75,75,75,0,0,0,0,0,75,Tue Sep 15 19:15:53 2020,1500,The main experiment item,yes,FlankerTask.osexp,C:/Users/chelsea/OneDrive - Tarleton State University/psych 5316- adv/flanker test,no,mono,no,18,no,white,no,yes,768,legacy,75,75,C:/Users/chelsea/OneDrive - Tarleton State University/psych 5316- adv/flanker test/JK subject-3.csv,legacy,Lentiform Loewenfeld,3.3.3,0,h,NA,j,NA,h,NA,504,NA,103414,NA,504,NA,2,legacy,1024,2,48000,-16,experiment,HHHHH,3,odd,265960,NA,NA,321176,319939,30466,NA,321280,321170,321280,133882,NA,NA,30461,NA,321789,Flanker Task,73,46985,76,yes,1024
96.1038961,96.1038961,616.961039,616.961039,black,legacy,legacy,legacy,0,congruent,uniform,1,undefined,1,h,76,76,0,76,76,0,0,76,76,76,0,0,0,0,0,76,Tue Sep 15 19:15:53 2020,1500,The main experiment item,yes,FlankerTask.osexp,C:/Users/chelsea/OneDrive - Tarleton State University/psych 5316- adv/flanker test,no,mono,no,18,no,white,no,yes,768,legacy,76,76,C:/Users/chelsea/OneDrive - Tarleton State University/psych 5316- adv/flanker test/JK subject-3.csv,legacy,Lentiform Loewenfeld,3.3.3,0,h,NA,j,NA,h,NA,521,NA,103414,NA,521,NA,2,legacy,1024,2,48000,-16,experiment,HHHHH,3,odd,265960,NA,NA,323192,321949,30466,NA,323296,323187,323296,133882,NA,NA,30461,NA,323821,Flanker Task,74,47506,77,yes,1024
96.15384615,96.15384615,616.5897436,616.5897436,black,legacy,legacy,legacy,0,incongruent,uniform,1,undefined,1,h,77,77,0,77,77,0,0,77,77,77,0,0,0,0,0,77,Tue Sep 15 19:15:53 2020,1500,The main experiment item,yes,FlankerTask.osexp,C:/Users/chelsea/OneDrive - Tarleton State University/psych 5316- adv/flanker test,no,mono,no,18,no,white,no,yes,768,legacy,77,77,C:/Users/chelsea/OneDrive - Tarleton State University/psych 5316- adv/flanker test/JK subject-3.csv,legacy,Lentiform Loewenfeld,3.3.3,0,h,NA,j,NA,h,NA,588,NA,103414,NA,588,NA,2,legacy,1024,2,48000,-16,experiment,SSHSS,3,odd,265960,NA,NA,325569,324333,30466,NA,325673,325564,325673,133882,NA,NA,30461,NA,326266,Flanker Task,75,48094,78,yes,1024
96.20253165,96.20253165,616.0886076,616.0886076,black,legacy,legacy,legacy,0,congruent,uniform,1,undefined,1,s,78,78,0,78,78,0,0,78,78,78,0,0,0,0,0,78,Tue Sep 15 19:15:53 2020,1500,The main experiment item,yes,FlankerTask.osexp,C:/Users/chelsea/OneDrive - Tarleton State University/psych 5316- adv/flanker test,no,mono,no,18,no,white,no,yes,768,legacy,78,78,C:/Users/chelsea/OneDrive - Tarleton State University/psych 5316- adv/flanker test/JK subject-3.csv,legacy,Lentiform Loewenfeld,3.3.3,0,s,NA,j,NA,s,NA,577,NA,103414,NA,577,NA,2,legacy,1024,2,48000,-16,experiment,SSSSS,3,odd,265960,NA,NA,327559,326327,30466,NA,327663,327553,327662,133882,NA,NA,30461,NA,328244,Flanker Task,76,48671,79,yes,1024
96.25,96.25,615.7375,615.7375,black,legacy,legacy,legacy,0,incongruent,uniform,1,undefined,1,h,79,79,0,79,79,0,0,79,79,79,0,0,0,0,0,79,Tue Sep 15 19:15:53 2020,1500,The main experiment item,yes,FlankerTask.osexp,C:/Users/chelsea/OneDrive - Tarleton State University/psych 5316- adv/flanker test,no,mono,no,18,no,white,no,yes,768,legacy,79,79,C:/Users/chelsea/OneDrive - Tarleton State University/psych 5316- adv/flanker test/JK subject-3.csv,legacy,Lentiform Loewenfeld,3.3.3,0,h,NA,j,NA,h,NA,588,NA,103414,NA,588,NA,2,legacy,1024,2,48000,-16,experiment,SSHSS,3,odd,265960,NA,NA,329652,328429,30466,NA,329756,329646,329756,133882,NA,NA,30461,NA,330348,Flanker Task,77,49259,80,yes,1024
96.2962963,96.2962963,619.2716049,619.2716049,black,legacy,legacy,legacy,0,incongruent,uniform,1,undefined,1,s,80,80,0,80,80,0,0,80,80,80,0,0,0,0,0,80,Tue Sep 15 19:15:53 2020,600,The main experiment item,yes,FlankerTask.osexp,C:/Users/chelsea/OneDrive - Tarleton State University/psych 5316- adv/flanker test,no,mono,no,18,no,white,no,yes,768,legacy,0,79,C:/Users/chelsea/OneDrive - Tarleton State University/psych 5316- adv/flanker test/JK subject-3.csv,legacy,Lentiform Loewenfeld,3.3.3,0,s,NA,j,NA,s,s,902,NA,103414,NA,902,22143,2,legacy,1024,2,48000,-16,experiment,HHSHH,3,odd,265960,NA,NA,354074,330650,30466,NA,354178,354069,354178,133882,353885,NA,30461,331737,355085,Flanker Task,78,50161,81,yes,1024
96.34146341,96.34146341,619.1463415,619.1463415,black,legacy,legacy,legacy,0,incongruent,uniform,1,undefined,1,h,81,81,0,81,81,0,0,81,81,81,0,0,0,0,0,81,Tue Sep 15 19:15:53 2020,600,The main experiment item,yes,FlankerTask.osexp,C:/Users/chelsea/OneDrive - Tarleton State University/psych 5316- adv/flanker test,no,mono,no,18,no,white,no,yes,768,legacy,1,79,C:/Users/chelsea/OneDrive - Tarleton State University/psych 5316- adv/flanker test/JK subject-3.csv,legacy,Lentiform Loewenfeld,3.3.3,0,h,NA,j,NA,h,s,609,NA,103414,NA,609,22143,2,legacy,1024,2,48000,-16,experiment,SSHSS,3,odd,265960,355139,NA,356878,355644,30466,NA,356983,356873,356983,133882,353885,NA,30461,331737,357596,Flanker Task,79,50770,82,yes,1024
96.38554217,96.38554217,618.0240964,618.0240964,black,legacy,legacy,legacy,0,incongruent,uniform,1,undefined,1,s,82,82,0,82,82,0,0,82,82,82,0,0,0,0,0,82,Tue Sep 15 19:15:53 2020,600,The main experiment item,yes,FlankerTask.osexp,C:/Users/chelsea/OneDrive - Tarleton State University/psych 5316- adv/flanker test,no,mono,no,18,no,white,no,yes,768,legacy,2,79,C:/Users/chelsea/OneDrive - Tarleton State University/psych 5316- adv/flanker test/JK subject-3.csv,legacy,Lentiform Loewenfeld,3.3.3,0,s,NA,j,NA,s,s,526,NA,103414,NA,526,22143,2,legacy,1024,2,48000,-16,experiment,HHSHH,3,odd,265960,357627,NA,359370,358134,30466,NA,359474,359365,359474,133882,353885,NA,30461,331737,360005,Flanker Task,80,51296,83,yes,1024
96.42857143,96.42857143,615.7857143,615.7857143,black,legacy,legacy,legacy,0,congruent,uniform,1,undefined,1,h,83,83,0,83,83,0,0,83,83,83,0,0,0,0,0,83,Tue Sep 15 19:15:53 2020,600,The main experiment item,yes,FlankerTask.osexp,C:/Users/chelsea/OneDrive - Tarleton State University/psych 5316- adv/flanker test,no,mono,no,18,no,white,no,yes,768,legacy,3,79,C:/Users/chelsea/OneDrive - Tarleton State University/psych 5316- adv/flanker test/JK subject-3.csv,legacy,Lentiform Loewenfeld,3.3.3,0,h,NA,j,NA,h,s,430,NA,103414,NA,430,22143,2,legacy,1024,2,48000,-16,experiment,HHHHH,3,odd,265960,357627,NA,361281,360050,30466,NA,361386,361276,361386,133882,353885,NA,30461,331737,361820,Flanker Task,81,51726,84,yes,1024
96.47058824,96.47058824,614.2470588,614.2470588,black,legacy,legacy,legacy,0,congruent,uniform,1,undefined,1,h,84,84,0,84,84,0,0,84,84,84,0,0,0,0,0,84,Tue Sep 15 19:15:53 2020,600,The main experiment item,yes,FlankerTask.osexp,C:/Users/chelsea/OneDrive - Tarleton State University/psych 5316- adv/flanker test,no,mono,no,18,no,white,no,yes,768,legacy,4,79,C:/Users/chelsea/OneDrive - Tarleton State University/psych 5316- adv/flanker test/JK subject-3.csv,legacy,Lentiform Loewenfeld,3.3.3,0,h,NA,j,NA,h,s,485,NA,103414,NA,485,22143,2,legacy,1024,2,48000,-16,experiment,HHHHH,3,odd,265960,357627,NA,363099,361873,30466,NA,363203,363094,363203,133882,353885,NA,30461,331737,363694,Flanker Task,82,52211,85,yes,1024
96.51162791,96.51162791,614.8604651,614.8604651,black,legacy,legacy,legacy,0,incongruent,uniform,1,undefined,1,h,85,85,0,85,85,0,0,85,85,85,0,0,0,0,0,85,Tue Sep 15 19:15:53 2020,600,The main experiment item,yes,FlankerTask.osexp,C:/Users/chelsea/OneDrive - Tarleton State University/psych 5316- adv/flanker test,no,mono,no,18,no,white,no,yes,768,legacy,5,79,C:/Users/chelsea/OneDrive - Tarleton State University/psych 5316- adv/flanker test/JK subject-3.csv,legacy,Lentiform Loewenfeld,3.3.3,0,h,NA,j,NA,h,s,667,NA,103414,NA,667,22143,2,legacy,1024,2,48000,-16,experiment,SSHSS,3,odd,265960,357627,NA,364970,363739,30466,NA,365077,364964,365076,133882,353885,NA,30461,331737,365749,Flanker Task,83,52878,86,yes,1024
96.55172414,96.55172414,612.3908046,612.3908046,black,legacy,legacy,legacy,0,congruent,uniform,1,undefined,1,h,86,86,0,86,86,0,0,86,86,86,0,0,0,0,0,86,Tue Sep 15 19:15:53 2020,600,The main experiment item,yes,FlankerTask.osexp,C:/Users/chelsea/OneDrive - Tarleton State University/psych 5316- adv/flanker test,no,mono,no,18,no,white,no,yes,768,legacy,6,79,C:/Users/chelsea/OneDrive - Tarleton State University/psych 5316- adv/flanker test/JK subject-3.csv,legacy,Lentiform Loewenfeld,3.3.3,0,h,NA,j,NA,h,s,400,NA,103414,NA,400,22143,2,legacy,1024,2,48000,-16,experiment,HHHHH,3,odd,265960,365795,NA,367528,366301,30466,NA,367632,367523,367632,133882,353885,NA,30461,331737,368036,Flanker Task,84,53278,87,yes,1024
96.59090909,96.59090909,610.375,610.375,black,legacy,legacy,legacy,0,congruent,uniform,1,undefined,1,h,87,87,0,87,87,0,0,87,87,87,0,0,0,0,0,87,Tue Sep 15 19:15:53 2020,600,The main experiment item,yes,FlankerTask.osexp,C:/Users/chelsea/OneDrive - Tarleton State University/psych 5316- adv/flanker test,no,mono,no,18,no,white,no,yes,768,legacy,7,79,C:/Users/chelsea/OneDrive - Tarleton State University/psych 5316- adv/flanker test/JK subject-3.csv,legacy,Lentiform Loewenfeld,3.3.3,0,h,NA,j,NA,h,s,435,NA,103414,NA,435,22143,2,legacy,1024,2,48000,-16,experiment,HHHHH,3,odd,265960,365795,NA,369338,368106,30466,NA,369445,369332,369444,133882,353885,NA,30461,331737,369885,Flanker Task,85,53713,88,yes,1024
96.62921348,96.62921348,609.494382,609.494382,black,legacy,legacy,legacy,0,incongruent,uniform,1,undefined,1,h,88,88,0,88,88,0,0,88,88,88,0,0,0,0,0,88,Tue Sep 15 19:15:53 2020,600,The main experiment item,yes,FlankerTask.osexp,C:/Users/chelsea/OneDrive - Tarleton State University/psych 5316- adv/flanker test,no,mono,no,18,no,white,no,yes,768,legacy,8,79,C:/Users/chelsea/OneDrive - Tarleton State University/psych 5316- adv/flanker test/JK subject-3.csv,legacy,Lentiform Loewenfeld,3.3.3,0,h,NA,j,NA,h,s,532,NA,103414,NA,532,22143,2,legacy,1024,2,48000,-16,experiment,SSHSS,3,odd,265960,365795,NA,371188,369929,30466,NA,371292,371183,371292,133882,353885,NA,30461,331737,371829,Flanker Task,86,54245,89,yes,1024
96.66666667,96.66666667,607.8555556,607.8555556,black,legacy,legacy,legacy,0,incongruent,uniform,1,undefined,1,h,89,89,0,89,89,0,0,89,89,89,0,0,0,0,0,89,Tue Sep 15 19:15:53 2020,600,The main experiment item,yes,FlankerTask.osexp,C:/Users/chelsea/OneDrive - Tarleton State University/psych 5316- adv/flanker test,no,mono,no,18,no,white,no,yes,768,legacy,9,79,C:/Users/chelsea/OneDrive - Tarleton State University/psych 5316- adv/flanker test/JK subject-3.csv,legacy,Lentiform Loewenfeld,3.3.3,0,h,NA,j,NA,h,s,462,NA,103414,NA,462,22143,2,legacy,1024,2,48000,-16,experiment,SSHSS,3,odd,265960,365795,NA,373129,371895,30466,NA,373234,373124,373234,133882,353885,NA,30461,331737,373701,Flanker Task,87,54707,90,yes,1024
96.7032967,96.7032967,606.2747253,606.2747253,black,legacy,legacy,legacy,0,congruent,uniform,1,undefined,1,h,90,90,0,90,90,0,0,90,90,90,0,0,0,0,0,90,Tue Sep 15 19:15:53 2020,600,The main experiment item,yes,FlankerTask.osexp,C:/Users/chelsea/OneDrive - Tarleton State University/psych 5316- adv/flanker test,no,mono,no,18,no,white,no,yes,768,legacy,10,79,C:/Users/chelsea/OneDrive - Tarleton State University/psych 5316- adv/flanker test/JK subject-3.csv,legacy,Lentiform Loewenfeld,3.3.3,0,h,NA,j,NA,h,s,464,NA,103414,NA,464,22143,2,legacy,1024,2,48000,-16,experiment,HHHHH,3,odd,265960,365795,NA,374983,373761,30466,NA,375088,374978,375088,133882,353885,NA,30461,331737,375557,Flanker Task,88,55171,91,yes,1024
96.73913043,96.73913043,606.2173913,606.2173913,black,legacy,legacy,legacy,0,incongruent,uniform,1,undefined,1,h,91,91,0,91,91,0,0,91,91,91,0,0,0,0,0,91,Tue Sep 15 19:15:53 2020,600,The main experiment item,yes,FlankerTask.osexp,C:/Users/chelsea/OneDrive - Tarleton State University/psych 5316- adv/flanker test,no,mono,no,18,no,white,no,yes,768,legacy,11,79,C:/Users/chelsea/OneDrive - Tarleton State University/psych 5316- adv/flanker test/JK subject-3.csv,legacy,Lentiform Loewenfeld,3.3.3,0,h,NA,j,NA,h,s,601,NA,103414,NA,601,22143,2,legacy,1024,2,48000,-16,experiment,SSHSS,3,odd,265960,365795,NA,376870,375640,30466,NA,376975,376865,376975,133882,353885,NA,30461,331737,377582,Flanker Task,89,55772,92,yes,1024
95.69892473,95.69892473,603.8494624,603.8494624,black,legacy,legacy,legacy,0,incongruent,uniform,0,undefined,0,s,92,92,0,92,92,0,0,92,92,92,0,0,0,0,0,92,Tue Sep 15 19:15:53 2020,600,The main experiment item,yes,FlankerTask.osexp,C:/Users/chelsea/OneDrive - Tarleton State University/psych 5316- adv/flanker test,no,mono,no,18,no,white,no,yes,768,legacy,12,79,C:/Users/chelsea/OneDrive - Tarleton State University/psych 5316- adv/flanker test/JK subject-3.csv,legacy,Lentiform Loewenfeld,3.3.3,0,h,NA,j,NA,h,s,386,NA,103414,NA,386,22143,2,legacy,1024,2,48000,-16,experiment,HHSHH,3,odd,265960,377736,NA,379469,378239,30466,NA,379574,379464,379574,133882,353885,NA,30461,331737,379965,Flanker Task,89,56158,93,yes,1024
95.74468085,95.74468085,603.287234,603.287234,black,legacy,legacy,legacy,0,congruent,uniform,1,undefined,1,h,93,93,0,93,93,0,0,93,93,93,0,0,0,0,0,93,Tue Sep 15 19:15:53 2020,600,The main experiment item,yes,FlankerTask.osexp,C:/Users/chelsea/OneDrive - Tarleton State University/psych 5316- adv/flanker test,no,mono,no,18,no,white,no,yes,768,legacy,13,79,C:/Users/chelsea/OneDrive - Tarleton State University/psych 5316- adv/flanker test/JK subject-3.csv,legacy,Lentiform Loewenfeld,3.3.3,0,h,NA,j,NA,h,s,551,NA,103414,NA,551,22143,2,legacy,1024,2,48000,-16,experiment,HHHHH,3,odd,380083,377736,NA,381817,380588,30466,NA,381921,381811,381921,133882,353885,NA,30461,331737,382477,Flanker Task,90,56709,94,yes,1024
95.78947368,95.78947368,602.0526316,602.0526316,black,legacy,legacy,legacy,0,incongruent,uniform,1,undefined,1,h,94,94,0,94,94,0,0,94,94,94,0,0,0,0,0,94,Tue Sep 15 19:15:53 2020,600,The main experiment item,yes,FlankerTask.osexp,C:/Users/chelsea/OneDrive - Tarleton State University/psych 5316- adv/flanker test,no,mono,no,18,no,white,no,yes,768,legacy,14,79,C:/Users/chelsea/OneDrive - Tarleton State University/psych 5316- adv/flanker test/JK subject-3.csv,legacy,Lentiform Loewenfeld,3.3.3,0,h,NA,j,NA,h,s,486,NA,103414,NA,486,22143,2,legacy,1024,2,48000,-16,experiment,SSHSS,3,odd,380083,377736,NA,383794,382558,30466,NA,383898,383789,383898,133882,353885,NA,30461,331737,384389,Flanker Task,91,57195,95,yes,1024
95.83333333,95.83333333,600.90625,600.90625,black,legacy,legacy,legacy,0,congruent,uniform,1,undefined,1,h,95,95,0,95,95,0,0,95,95,95,0,0,0,0,0,95,Tue Sep 15 19:15:53 2020,600,The main experiment item,yes,FlankerTask.osexp,C:/Users/chelsea/OneDrive - Tarleton State University/psych 5316- adv/flanker test,no,mono,no,18,no,white,no,yes,768,legacy,15,79,C:/Users/chelsea/OneDrive - Tarleton State University/psych 5316- adv/flanker test/JK subject-3.csv,legacy,Lentiform Loewenfeld,3.3.3,0,h,NA,j,NA,h,s,492,NA,103414,NA,492,22143,2,legacy,1024,2,48000,-16,experiment,HHHHH,3,odd,380083,377736,NA,385858,384632,30466,NA,385964,385853,385963,133882,353885,NA,30461,331737,386461,Flanker Task,92,57687,96,yes,1024
95.87628866,95.87628866,599.4329897,599.4329897,black,legacy,legacy,legacy,0,congruent,uniform,1,undefined,1,s,96,96,0,96,96,0,0,96,96,96,0,0,0,0,0,96,Tue Sep 15 19:15:53 2020,600,The main experiment item,yes,FlankerTask.osexp,C:/Users/chelsea/OneDrive - Tarleton State University/psych 5316- adv/flanker test,no,mono,no,18,no,white,no,yes,768,legacy,16,79,C:/Users/chelsea/OneDrive - Tarleton State University/psych 5316- adv/flanker test/JK subject-3.csv,legacy,Lentiform Loewenfeld,3.3.3,0,s,NA,j,NA,s,s,458,NA,103414,NA,458,22143,2,legacy,1024,2,48000,-16,experiment,SSSSS,3,odd,380083,377736,NA,387982,386742,30466,NA,388086,387977,388086,133882,353885,NA,30461,331737,388548,Flanker Task,93,58145,97,yes,1024
95.91836735,95.91836735,598.3877551,598.3877551,black,legacy,legacy,legacy,0,congruent,uniform,1,undefined,1,h,97,97,0,97,97,0,0,97,97,97,0,0,0,0,0,97,Tue Sep 15 19:15:53 2020,600,The main experiment item,yes,FlankerTask.osexp,C:/Users/chelsea/OneDrive - Tarleton State University/psych 5316- adv/flanker test,no,mono,no,18,no,white,no,yes,768,legacy,17,79,C:/Users/chelsea/OneDrive - Tarleton State University/psych 5316- adv/flanker test/JK subject-3.csv,legacy,Lentiform Loewenfeld,3.3.3,0,h,NA,j,NA,h,s,497,NA,103414,NA,497,22143,2,legacy,1024,2,48000,-16,experiment,HHHHH,3,odd,380083,377736,NA,389972,388729,30466,NA,390078,389967,390078,133882,353885,NA,30461,331737,390580,Flanker Task,94,58642,98,yes,1024
95.95959596,95.95959596,598.959596,598.959596,black,legacy,legacy,legacy,0,incongruent,uniform,1,undefined,1,s,98,98,0,98,98,0,0,98,98,98,0,0,0,0,0,98,Tue Sep 15 19:15:53 2020,600,The main experiment item,yes,FlankerTask.osexp,C:/Users/chelsea/OneDrive - Tarleton State University/psych 5316- adv/flanker test,no,mono,no,18,no,white,no,yes,768,legacy,18,79,C:/Users/chelsea/OneDrive - Tarleton State University/psych 5316- adv/flanker test/JK subject-3.csv,legacy,Lentiform Loewenfeld,3.3.3,0,s,NA,j,NA,s,s,655,NA,103414,NA,655,22143,2,legacy,1024,2,48000,-16,experiment,HHSHH,3,odd,380083,377736,NA,391903,390673,30466,NA,392009,391898,392009,133882,353885,NA,30461,331737,392671,Flanker Task,95,59297,99,yes,1024
96,96,598.55,598.55,black,legacy,legacy,legacy,0,incongruent,uniform,1,undefined,1,h,99,99,0,99,99,0,0,99,99,99,0,0,0,0,0,99,Tue Sep 15 19:15:53 2020,600,The main experiment item,yes,FlankerTask.osexp,C:/Users/chelsea/OneDrive - Tarleton State University/psych 5316- adv/flanker test,no,mono,no,18,no,white,no,yes,768,legacy,19,79,C:/Users/chelsea/OneDrive - Tarleton State University/psych 5316- adv/flanker test/JK subject-3.csv,legacy,Lentiform Loewenfeld,3.3.3,0,h,NA,j,NA,h,s,558,NA,103414,NA,558,22143,2,legacy,1024,2,48000,-16,experiment,SSHSS,3,odd,380083,393977,NA,395714,394481,30466,NA,395818,395708,395817,133882,353885,NA,30461,331737,396381,Flanker Task,96,59855,100,yes,1024
96.03960396,96.03960396,597.5247525,597.5247525,black,legacy,legacy,legacy,0,incongruent,uniform,1,undefined,1,h,100,100,0,100,100,0,0,100,100,100,0,0,0,0,0,100,Tue Sep 15 19:15:53 2020,600,The main experiment item,yes,FlankerTask.osexp,C:/Users/chelsea/OneDrive - Tarleton State University/psych 5316- adv/flanker test,no,mono,no,18,no,white,no,yes,768,legacy,20,79,C:/Users/chelsea/OneDrive - Tarleton State University/psych 5316- adv/flanker test/JK subject-3.csv,legacy,Lentiform Loewenfeld,3.3.3,0,h,NA,j,NA,h,s,495,NA,103414,NA,495,22143,2,legacy,1024,2,48000,-16,experiment,SSHSS,3,odd,380083,393977,NA,397720,396495,30466,NA,397825,397715,397825,133882,353885,NA,30461,331737,398325,Flanker Task,97,60350,101,yes,1024
96.07843137,96.07843137,597.6470588,597.6470588,black,legacy,legacy,legacy,0,incongruent,uniform,1,undefined,1,s,101,101,0,101,101,0,0,101,101,101,0,0,0,0,0,101,Tue Sep 15 19:15:53 2020,600,The main experiment item,yes,FlankerTask.osexp,C:/Users/chelsea/OneDrive - Tarleton State University/psych 5316- adv/flanker test,no,mono,no,18,no,white,no,yes,768,legacy,21,79,C:/Users/chelsea/OneDrive - Tarleton State University/psych 5316- adv/flanker test/JK subject-3.csv,legacy,Lentiform Loewenfeld,3.3.3,0,s,NA,j,NA,s,s,610,NA,103414,NA,610,22143,2,legacy,1024,2,48000,-16,experiment,HHSHH,3,odd,380083,393977,NA,399742,398496,30466,NA,399846,399737,399846,133882,353885,NA,30461,331737,400461,Flanker Task,98,60960,102,yes,1024
96.11650485,96.11650485,597.3106796,597.3106796,black,legacy,legacy,legacy,0,congruent,uniform,1,undefined,1,s,102,102,0,102,102,0,0,102,102,102,0,0,0,0,0,102,Tue Sep 15 19:15:53 2020,600,The main experiment item,yes,FlankerTask.osexp,C:/Users/chelsea/OneDrive - Tarleton State University/psych 5316- adv/flanker test,no,mono,no,18,no,white,no,yes,768,legacy,22,79,C:/Users/chelsea/OneDrive - Tarleton State University/psych 5316- adv/flanker test/JK subject-3.csv,legacy,Lentiform Loewenfeld,3.3.3,0,s,NA,j,NA,s,s,563,NA,103414,NA,563,22143,2,legacy,1024,2,48000,-16,experiment,SSSSS,3,odd,380083,400863,NA,402597,401367,30466,NA,402701,402591,402701,133882,353885,NA,30461,331737,403270,Flanker Task,99,61523,103,yes,1024
96.15384615,96.15384615,596.7692308,596.7692308,black,legacy,legacy,legacy,0,incongruent,uniform,1,undefined,1,h,103,103,0,103,103,0,0,103,103,103,0,0,0,0,0,103,Tue Sep 15 19:15:53 2020,600,The main experiment item,yes,FlankerTask.osexp,C:/Users/chelsea/OneDrive - Tarleton State University/psych 5316- adv/flanker test,no,mono,no,18,no,white,no,yes,768,legacy,23,79,C:/Users/chelsea/OneDrive - Tarleton State University/psych 5316- adv/flanker test/JK subject-3.csv,legacy,Lentiform Loewenfeld,3.3.3,0,h,NA,j,NA,h,s,541,NA,103414,NA,541,22143,2,legacy,1024,2,48000,-16,experiment,SSHSS,3,odd,380083,400863,NA,404642,403396,30466,NA,404746,404636,404746,133882,353885,NA,30461,331737,405294,Flanker Task,100,62064,104,yes,1024
96.19047619,96.19047619,597,597,black,legacy,legacy,legacy,0,incongruent,uniform,1,undefined,1,s,104,104,0,104,104,0,0,104,104,104,0,0,0,0,0,104,Tue Sep 15 19:15:53 2020,600,The main experiment item,yes,FlankerTask.osexp,C:/Users/chelsea/OneDrive - Tarleton State University/psych 5316- adv/flanker test,no,mono,no,18,no,white,no,yes,768,legacy,24,79,C:/Users/chelsea/OneDrive - Tarleton State University/psych 5316- adv/flanker test/JK subject-3.csv,legacy,Lentiform Loewenfeld,3.3.3,0,s,NA,j,NA,s,s,621,NA,103414,NA,621,22143,2,legacy,1024,2,48000,-16,experiment,HHSHH,3,odd,380083,400863,NA,406795,405560,30466,NA,406899,406790,406898,133882,353885,NA,30461,331737,407526,Flanker Task,101,62685,105,yes,1024
96.22641509,96.22641509,595.9433962,595.9433962,black,legacy,legacy,legacy,0,congruent,uniform,1,undefined,1,h,105,105,0,105,105,0,0,105,105,105,0,0,0,0,0,105,Tue Sep 15 19:15:53 2020,600,The main experiment item,yes,FlankerTask.osexp,C:/Users/chelsea/OneDrive - Tarleton State University/psych 5316- adv/flanker test,no,mono,no,18,no,white,no,yes,768,legacy,25,79,C:/Users/chelsea/OneDrive - Tarleton State University/psych 5316- adv/flanker test/JK subject-3.csv,legacy,Lentiform Loewenfeld,3.3.3,0,h,NA,j,NA,h,s,485,NA,103414,NA,485,22143,2,legacy,1024,2,48000,-16,experiment,HHHHH,3,odd,380083,407856,NA,409595,408360,30466,NA,409699,409590,409699,133882,353885,NA,30461,331737,410190,Flanker Task,102,63170,106,yes,1024
96.26168224,96.26168224,594.9158879,594.9158879,black,legacy,legacy,legacy,0,congruent,uniform,1,undefined,1,h,106,106,0,106,106,0,0,106,106,106,0,0,0,0,0,106,Tue Sep 15 19:15:53 2020,600,The main experiment item,yes,FlankerTask.osexp,C:/Users/chelsea/OneDrive - Tarleton State University/psych 5316- adv/flanker test,no,mono,no,18,no,white,no,yes,768,legacy,26,79,C:/Users/chelsea/OneDrive - Tarleton State University/psych 5316- adv/flanker test/JK subject-3.csv,legacy,Lentiform Loewenfeld,3.3.3,0,h,NA,j,NA,h,s,486,NA,103414,NA,486,22143,2,legacy,1024,2,48000,-16,experiment,HHHHH,3,odd,380083,407856,NA,417470,410408,30466,NA,417578,417465,417577,133882,353885,NA,30461,331737,418069,Flanker Task,103,63656,107,yes,1024
96.2962963,96.2962963,595.1851852,595.1851852,black,legacy,legacy,legacy,0,congruent,uniform,1,undefined,1,s,107,107,0,107,107,0,0,107,107,107,0,0,0,0,0,107,Tue Sep 15 19:15:53 2020,600,The main experiment item,yes,FlankerTask.osexp,C:/Users/chelsea/OneDrive - Tarleton State University/psych 5316- adv/flanker test,no,mono,no,18,no,white,no,yes,768,legacy,27,79,C:/Users/chelsea/OneDrive - Tarleton State University/psych 5316- adv/flanker test/JK subject-3.csv,legacy,Lentiform Loewenfeld,3.3.3,0,s,NA,j,NA,s,s,624,NA,103414,NA,624,22143,2,legacy,1024,2,48000,-16,experiment,SSSSS,3,odd,380083,407856,NA,426784,422660,30466,NA,426888,426777,426887,133882,353885,NA,30461,331737,427518,Flanker Task,104,64280,108,yes,1024
96.33027523,96.33027523,594.5963303,594.5963303,black,legacy,legacy,legacy,0,congruent,uniform,1,undefined,1,s,108,108,0,108,108,0,0,108,108,108,0,0,0,0,0,108,Tue Sep 15 19:15:53 2020,600,The main experiment item,yes,FlankerTask.osexp,C:/Users/chelsea/OneDrive - Tarleton State University/psych 5316- adv/flanker test,no,mono,no,18,no,white,no,yes,768,legacy,28,79,C:/Users/chelsea/OneDrive - Tarleton State University/psych 5316- adv/flanker test/JK subject-3.csv,legacy,Lentiform Loewenfeld,3.3.3,0,s,NA,j,NA,s,s,531,NA,103414,NA,531,22143,2,legacy,1024,2,48000,-16,experiment,SSSSS,3,odd,380083,429198,NA,430934,429703,30466,NA,431038,430929,431038,133882,353885,NA,30461,331737,431574,Flanker Task,105,64811,109,yes,1024
96.36363636,96.36363636,594.5090909,594.5090909,black,legacy,legacy,legacy,0,incongruent,uniform,1,undefined,1,h,109,109,0,109,109,0,0,109,109,109,0,0,0,0,0,109,Tue Sep 15 19:15:53 2020,600,The main experiment item,yes,FlankerTask.osexp,C:/Users/chelsea/OneDrive - Tarleton State University/psych 5316- adv/flanker test,no,mono,no,18,no,white,no,yes,768,legacy,29,79,C:/Users/chelsea/OneDrive - Tarleton State University/psych 5316- adv/flanker test/JK subject-3.csv,legacy,Lentiform Loewenfeld,3.3.3,0,h,NA,j,NA,h,s,585,NA,103414,NA,585,22143,2,legacy,1024,2,48000,-16,experiment,SSHSS,3,odd,380083,429198,NA,432958,431707,30466,NA,433063,432953,433063,133882,353885,NA,30461,331737,433654,Flanker Task,106,65396,110,yes,1024
96.3963964,96.3963964,593.8198198,593.8198198,black,legacy,legacy,legacy,0,congruent,uniform,1,undefined,1,h,110,110,0,110,110,0,0,110,110,110,0,0,0,0,0,110,Tue Sep 15 19:15:53 2020,600,The main experiment item,yes,FlankerTask.osexp,C:/Users/chelsea/OneDrive - Tarleton State University/psych 5316- adv/flanker test,no,mono,no,18,no,white,no,yes,768,legacy,30,79,C:/Users/chelsea/OneDrive - Tarleton State University/psych 5316- adv/flanker test/JK subject-3.csv,legacy,Lentiform Loewenfeld,3.3.3,0,h,NA,j,NA,h,s,518,NA,103414,NA,518,22143,2,legacy,1024,2,48000,-16,experiment,HHHHH,3,odd,380083,429198,NA,435042,433785,30466,NA,435146,435036,435146,133882,353885,NA,30461,331737,435670,Flanker Task,107,65914,111,yes,1024
96.42857143,96.42857143,593.4821429,593.4821429,black,legacy,legacy,legacy,0,incongruent,uniform,1,undefined,1,h,111,111,0,111,111,0,0,111,111,111,0,0,0,0,0,111,Tue Sep 15 19:15:53 2020,600,The main experiment item,yes,FlankerTask.osexp,C:/Users/chelsea/OneDrive - Tarleton State University/psych 5316- adv/flanker test,no,mono,no,18,no,white,no,yes,768,legacy,31,79,C:/Users/chelsea/OneDrive - Tarleton State University/psych 5316- adv/flanker test/JK subject-3.csv,legacy,Lentiform Loewenfeld,3.3.3,0,h,NA,j,NA,h,s,556,NA,103414,NA,556,22143,2,legacy,1024,2,48000,-16,experiment,SSHSS,3,odd,380083,429198,NA,437298,436067,30466,NA,437404,437292,437404,133882,353885,NA,30461,331737,437966,Flanker Task,108,66470,112,yes,1024
96.46017699,96.46017699,592.7964602,592.7964602,black,legacy,legacy,legacy,0,congruent,uniform,1,undefined,1,s,112,112,0,112,112,0,0,112,112,112,0,0,0,0,0,112,Tue Sep 15 19:15:53 2020,600,The main experiment item,yes,FlankerTask.osexp,C:/Users/chelsea/OneDrive - Tarleton State University/psych 5316- adv/flanker test,no,mono,no,18,no,white,no,yes,768,legacy,32,79,C:/Users/chelsea/OneDrive - Tarleton State University/psych 5316- adv/flanker test/JK subject-3.csv,legacy,Lentiform Loewenfeld,3.3.3,0,s,NA,j,NA,s,s,516,NA,103414,NA,516,22143,2,legacy,1024,2,48000,-16,experiment,SSSSS,3,odd,380083,429198,NA,439540,438319,30466,NA,439644,439535,439644,133882,353885,NA,30461,331737,440166,Flanker Task,109,66986,113,yes,1024
96.49122807,96.49122807,591.6842105,591.6842105,black,legacy,legacy,legacy,0,congruent,uniform,1,undefined,1,h,113,113,0,113,113,0,0,113,113,113,0,0,0,0,0,113,Tue Sep 15 19:15:53 2020,600,The main experiment item,yes,FlankerTask.osexp,C:/Users/chelsea/OneDrive - Tarleton State University/psych 5316- adv/flanker test,no,mono,no,18,no,white,no,yes,768,legacy,33,79,C:/Users/chelsea/OneDrive - Tarleton State University/psych 5316- adv/flanker test/JK subject-3.csv,legacy,Lentiform Loewenfeld,3.3.3,0,h,NA,j,NA,h,s,466,NA,103414,NA,466,22143,2,legacy,1024,2,48000,-16,experiment,HHHHH,3,odd,380083,429198,NA,442182,440954,30466,NA,442286,442177,442286,133882,353885,NA,30461,331737,442758,Flanker Task,110,67452,114,yes,1024
96.52173913,96.52173913,592.5478261,592.5478261,black,legacy,legacy,legacy,0,incongruent,uniform,1,undefined,1,s,114,114,0,114,114,0,0,114,114,114,0,0,0,0,0,114,Tue Sep 15 19:15:53 2020,600,The main experiment item,yes,FlankerTask.osexp,C:/Users/chelsea/OneDrive - Tarleton State University/psych 5316- adv/flanker test,no,mono,no,18,no,white,no,yes,768,legacy,34,79,C:/Users/chelsea/OneDrive - Tarleton State University/psych 5316- adv/flanker test/JK subject-3.csv,legacy,Lentiform Loewenfeld,3.3.3,0,s,NA,j,NA,s,s,691,NA,103414,NA,691,22143,2,legacy,1024,2,48000,-16,experiment,HHSHH,3,odd,380083,429198,NA,444689,443457,30466,NA,444793,444683,444793,133882,353885,NA,30461,331737,445490,Flanker Task,111,68143,115,yes,1024
96.55172414,96.55172414,591.9137931,591.9137931,black,legacy,legacy,legacy,0,incongruent,uniform,1,undefined,1,h,115,115,0,115,115,0,0,115,115,115,0,0,0,0,0,115,Tue Sep 15 19:15:53 2020,600,The main experiment item,yes,FlankerTask.osexp,C:/Users/chelsea/OneDrive - Tarleton State University/psych 5316- adv/flanker test,no,mono,no,18,no,white,no,yes,768,legacy,35,79,C:/Users/chelsea/OneDrive - Tarleton State University/psych 5316- adv/flanker test/JK subject-3.csv,legacy,Lentiform Loewenfeld,3.3.3,0,h,NA,j,NA,h,s,519,NA,103414,NA,519,22143,2,legacy,1024,2,48000,-16,experiment,SSHSS,3,odd,380083,445541,NA,447288,446044,30466,NA,447393,447283,447393,133882,353885,NA,30461,331737,447918,Flanker Task,112,68662,116,yes,1024
96.58119658,96.58119658,591.4188034,591.4188034,black,legacy,legacy,legacy,0,incongruent,uniform,1,undefined,1,s,116,116,0,116,116,0,0,116,116,116,0,0,0,0,0,116,Tue Sep 15 19:15:53 2020,600,The main experiment item,yes,FlankerTask.osexp,C:/Users/chelsea/OneDrive - Tarleton State University/psych 5316- adv/flanker test,no,mono,no,18,no,white,no,yes,768,legacy,36,79,C:/Users/chelsea/OneDrive - Tarleton State University/psych 5316- adv/flanker test/JK subject-3.csv,legacy,Lentiform Loewenfeld,3.3.3,0,s,NA,j,NA,s,s,534,NA,103414,NA,534,22143,2,legacy,1024,2,48000,-16,experiment,HHSHH,3,odd,380083,445541,NA,449240,448005,30466,NA,449346,449235,449345,133882,353885,NA,30461,331737,449886,Flanker Task,113,69196,117,yes,1024
96.61016949,96.61016949,591.0762712,591.0762712,black,legacy,legacy,legacy,0,congruent,uniform,1,undefined,1,s,117,117,0,117,117,0,0,117,117,117,0,0,0,0,0,117,Tue Sep 15 19:15:53 2020,600,The main experiment item,yes,FlankerTask.osexp,C:/Users/chelsea/OneDrive - Tarleton State University/psych 5316- adv/flanker test,no,mono,no,18,no,white,no,yes,768,legacy,37,79,C:/Users/chelsea/OneDrive - Tarleton State University/psych 5316- adv/flanker test/JK subject-3.csv,legacy,Lentiform Loewenfeld,3.3.3,0,s,NA,j,NA,s,s,551,NA,103414,NA,551,22143,2,legacy,1024,2,48000,-16,experiment,SSSSS,3,odd,380083,445541,NA,451193,449952,30466,NA,451297,451187,451297,133882,353885,NA,30461,331737,451854,Flanker Task,114,69747,118,yes,1024
96.63865546,96.63865546,590.2184874,590.2184874,black,legacy,legacy,legacy,0,congruent,uniform,1,undefined,1,s,118,118,0,118,118,0,0,118,118,118,0,0,0,0,0,118,Tue Sep 15 19:15:53 2020,600,The main experiment item,yes,FlankerTask.osexp,C:/Users/chelsea/OneDrive - Tarleton State University/psych 5316- adv/flanker test,no,mono,no,18,no,white,no,yes,768,legacy,38,79,C:/Users/chelsea/OneDrive - Tarleton State University/psych 5316- adv/flanker test/JK subject-3.csv,legacy,Lentiform Loewenfeld,3.3.3,0,s,NA,j,NA,s,s,489,NA,103414,NA,489,22143,2,legacy,1024,2,48000,-16,experiment,SSSSS,3,odd,380083,445541,NA,453135,451904,30466,NA,453239,453129,453239,133882,353885,NA,30461,331737,453734,Flanker Task,115,70236,119,yes,1024
96.66666667,96.66666667,589.525,589.525,black,legacy,legacy,legacy,0,congruent,uniform,1,undefined,1,s,119,119,0,119,119,0,0,119,119,119,0,0,0,0,0,119,Tue Sep 15 19:15:53 2020,600,The main experiment item,yes,FlankerTask.osexp,C:/Users/chelsea/OneDrive - Tarleton State University/psych 5316- adv/flanker test,no,mono,no,18,no,white,no,yes,768,legacy,39,79,C:/Users/chelsea/OneDrive - Tarleton State University/psych 5316- adv/flanker test/JK subject-3.csv,legacy,Lentiform Loewenfeld,3.3.3,0,s,NA,j,NA,s,s,507,NA,103414,NA,507,22143,2,legacy,1024,2,48000,-16,experiment,SSSSS,3,odd,380083,445541,NA,455029,453792,30466,NA,455133,455024,455133,133882,353885,NA,30461,331737,455647,Flanker Task,116,70743,120,yes,1024
96.69421488,96.69421488,588.6942149,588.6942149,black,legacy,legacy,legacy,0,congruent,uniform,1,undefined,1,h,120,120,0,120,120,0,0,120,120,120,0,0,0,0,0,120,Tue Sep 15 19:15:53 2020,600,The main experiment item,yes,FlankerTask.osexp,C:/Users/chelsea/OneDrive - Tarleton State University/psych 5316- adv/flanker test,no,mono,no,18,no,white,no,yes,768,legacy,40,79,C:/Users/chelsea/OneDrive - Tarleton State University/psych 5316- adv/flanker test/JK subject-3.csv,legacy,Lentiform Loewenfeld,3.3.3,0,h,NA,j,NA,h,s,489,NA,103414,NA,489,22143,2,legacy,1024,2,48000,-16,experiment,HHHHH,3,odd,380083,445541,NA,456943,455707,30466,NA,457047,456938,457047,133882,353885,NA,30461,331737,457542,Flanker Task,117,71232,121,yes,1024
95.90163934,95.90163934,588.2868852,588.2868852,black,legacy,legacy,legacy,0,incongruent,uniform,0,undefined,0,h,121,121,0,121,121,0,0,121,121,121,0,0,0,0,0,121,Tue Sep 15 19:15:53 2020,600,The main experiment item,yes,FlankerTask.osexp,C:/Users/chelsea/OneDrive - Tarleton State University/psych 5316- adv/flanker test,no,mono,no,18,no,white,no,yes,768,legacy,41,79,C:/Users/chelsea/OneDrive - Tarleton State University/psych 5316- adv/flanker test/JK subject-3.csv,legacy,Lentiform Loewenfeld,3.3.3,0,s,NA,j,NA,s,s,539,NA,103414,NA,539,22143,2,legacy,1024,2,48000,-16,experiment,SSHSS,3,odd,380083,445541,NA,458860,457619,30466,NA,458964,458855,458964,133882,353885,NA,30461,331737,459509,Flanker Task,117,71771,122,yes,1024
95.93495935,95.93495935,589.7398374,589.7398374,black,legacy,legacy,legacy,0,incongruent,uniform,1,undefined,1,s,122,122,0,122,122,0,0,122,122,122,0,0,0,0,0,122,Tue Sep 15 19:15:53 2020,600,The main experiment item,yes,FlankerTask.osexp,C:/Users/chelsea/OneDrive - Tarleton State University/psych 5316- adv/flanker test,no,mono,no,18,no,white,no,yes,768,legacy,42,79,C:/Users/chelsea/OneDrive - Tarleton State University/psych 5316- adv/flanker test/JK subject-3.csv,legacy,Lentiform Loewenfeld,3.3.3,0,s,NA,j,NA,s,s,767,NA,103414,NA,767,22143,2,legacy,1024,2,48000,-16,experiment,HHSHH,3,odd,459699,445541,NA,461437,460204,30466,NA,461545,461432,461544,133882,353885,NA,30461,331737,462318,Flanker Task,118,72538,123,yes,1024
95.96774194,95.96774194,590.7580645,590.7580645,black,legacy,legacy,legacy,0,incongruent,uniform,1,undefined,1,h,123,123,0,123,123,0,0,123,123,123,0,0,0,0,0,123,Tue Sep 15 19:15:53 2020,600,The main experiment item,yes,FlankerTask.osexp,C:/Users/chelsea/OneDrive - Tarleton State University/psych 5316- adv/flanker test,no,mono,no,18,no,white,no,yes,768,legacy,43,79,C:/Users/chelsea/OneDrive - Tarleton State University/psych 5316- adv/flanker test/JK subject-3.csv,legacy,Lentiform Loewenfeld,3.3.3,0,h,NA,j,NA,h,s,716,NA,103414,NA,716,22143,2,legacy,1024,2,48000,-16,experiment,SSHSS,3,odd,459699,462463,NA,464196,462968,30466,NA,464300,464190,464299,133882,353885,NA,30461,331737,465022,Flanker Task,119,73254,124,yes,1024
96,96,591.608,591.608,black,legacy,legacy,legacy,0,incongruent,uniform,1,undefined,1,s,124,124,0,124,124,0,0,124,124,124,0,0,0,0,0,124,Tue Sep 15 19:15:53 2020,600,The main experiment item,yes,FlankerTask.osexp,C:/Users/chelsea/OneDrive - Tarleton State University/psych 5316- adv/flanker test,no,mono,no,18,no,white,no,yes,768,legacy,44,79,C:/Users/chelsea/OneDrive - Tarleton State University/psych 5316- adv/flanker test/JK subject-3.csv,legacy,Lentiform Loewenfeld,3.3.3,0,s,NA,j,NA,s,s,697,NA,103414,NA,697,22143,2,legacy,1024,2,48000,-16,experiment,HHSHH,3,odd,459699,465107,NA,466839,465612,30466,NA,466943,466834,466943,133882,353885,NA,30461,331737,467647,Flanker Task,120,73951,125,yes,1024
96.03174603,96.03174603,591.6428571,591.6428571,black,legacy,legacy,legacy,0,incongruent,uniform,1,undefined,1,h,125,125,0,125,125,0,0,125,125,125,0,0,0,0,0,125,Tue Sep 15 19:15:53 2020,600,The main experiment item,yes,FlankerTask.osexp,C:/Users/chelsea/OneDrive - Tarleton State University/psych 5316- adv/flanker test,no,mono,no,18,no,white,no,yes,768,legacy,45,79,C:/Users/chelsea/OneDrive - Tarleton State University/psych 5316- adv/flanker test/JK subject-3.csv,legacy,Lentiform Loewenfeld,3.3.3,0,h,NA,j,NA,h,s,596,NA,103414,NA,596,22143,2,legacy,1024,2,48000,-16,experiment,SSHSS,3,odd,459699,467897,NA,469627,468401,30466,NA,469731,469622,469731,133882,353885,NA,30461,331737,470334,Flanker Task,121,74547,126,yes,1024
96.06299213,96.06299213,591.503937,591.503937,black,legacy,legacy,legacy,0,incongruent,uniform,1,undefined,1,s,126,126,0,126,126,0,0,126,126,126,0,0,0,0,0,126,Tue Sep 15 19:15:53 2020,600,The main experiment item,yes,FlankerTask.osexp,C:/Users/chelsea/OneDrive - Tarleton State University/psych 5316- adv/flanker test,no,mono,no,18,no,white,no,yes,768,legacy,46,79,C:/Users/chelsea/OneDrive - Tarleton State University/psych 5316- adv/flanker test/JK subject-3.csv,legacy,Lentiform Loewenfeld,3.3.3,0,s,NA,j,NA,s,s,574,NA,103414,NA,574,22143,2,legacy,1024,2,48000,-16,experiment,HHSHH,3,odd,459699,467897,NA,471618,470396,30466,NA,471722,471612,471722,133882,353885,NA,30461,331737,472302,Flanker Task,122,75121,127,yes,1024
96.09375,96.09375,591.15625,591.15625,black,legacy,legacy,legacy,0,incongruent,uniform,1,undefined,1,h,127,127,0,127,127,0,0,127,127,127,0,0,0,0,0,127,Tue Sep 15 19:15:53 2020,600,The main experiment item,yes,FlankerTask.osexp,C:/Users/chelsea/OneDrive - Tarleton State University/psych 5316- adv/flanker test,no,mono,no,18,no,white,no,yes,768,legacy,47,79,C:/Users/chelsea/OneDrive - Tarleton State University/psych 5316- adv/flanker test/JK subject-3.csv,legacy,Lentiform Loewenfeld,3.3.3,0,h,NA,j,NA,h,s,547,NA,103414,NA,547,22143,2,legacy,1024,2,48000,-16,experiment,SSHSS,3,odd,459699,467897,NA,473981,472747,30466,NA,474085,473975,474085,133882,353885,NA,30461,331737,474638,Flanker Task,123,75668,128,yes,1024
96.12403101,96.12403101,590.9457364,590.9457364,black,legacy,legacy,legacy,0,incongruent,uniform,1,undefined,1,h,128,128,0,128,128,0,0,128,128,128,0,0,0,0,0,128,Tue Sep 15 19:15:53 2020,600,The main experiment item,yes,FlankerTask.osexp,C:/Users/chelsea/OneDrive - Tarleton State University/psych 5316- adv/flanker test,no,mono,no,18,no,white,no,yes,768,legacy,48,79,C:/Users/chelsea/OneDrive - Tarleton State University/psych 5316- adv/flanker test/JK subject-3.csv,legacy,Lentiform Loewenfeld,3.3.3,0,h,NA,j,NA,h,s,564,NA,103414,NA,564,22143,2,legacy,1024,2,48000,-16,experiment,SSHSS,3,odd,459699,467897,NA,476428,475194,30466,NA,476532,476422,476532,133882,353885,NA,30461,331737,477102,Flanker Task,124,76232,129,yes,1024
96.15384615,96.15384615,590.8230769,590.8230769,black,legacy,legacy,legacy,0,congruent,uniform,1,undefined,1,s,129,129,0,129,129,0,0,129,129,129,0,0,0,0,0,129,Tue Sep 15 19:15:53 2020,600,The main experiment item,yes,FlankerTask.osexp,C:/Users/chelsea/OneDrive - Tarleton State University/psych 5316- adv/flanker test,no,mono,no,18,no,white,no,yes,768,legacy,49,79,C:/Users/chelsea/OneDrive - Tarleton State University/psych 5316- adv/flanker test/JK subject-3.csv,legacy,Lentiform Loewenfeld,3.3.3,0,s,NA,j,NA,s,s,575,NA,103414,NA,575,22143,2,legacy,1024,2,48000,-16,experiment,SSSSS,3,odd,459699,467897,NA,478873,477643,30466,NA,478977,478867,478977,133882,353885,NA,30461,331737,479559,Flanker Task,125,76807,130,yes,1024
96.18320611,96.18320611,590.9923664,590.9923664,black,legacy,legacy,legacy,0,incongruent,uniform,1,undefined,1,s,130,130,0,130,130,0,0,130,130,130,0,0,0,0,0,130,Tue Sep 15 19:15:53 2020,600,The main experiment item,yes,FlankerTask.osexp,C:/Users/chelsea/OneDrive - Tarleton State University/psych 5316- adv/flanker test,no,mono,no,18,no,white,no,yes,768,legacy,50,79,C:/Users/chelsea/OneDrive - Tarleton State University/psych 5316- adv/flanker test/JK subject-3.csv,legacy,Lentiform Loewenfeld,3.3.3,0,s,NA,j,NA,s,s,613,NA,103414,NA,613,22143,2,legacy,1024,2,48000,-16,experiment,HHSHH,3,odd,459699,467897,NA,480891,479662,30466,NA,480995,480886,480995,133882,353885,NA,30461,331737,481615,Flanker Task,126,77420,131,yes,1024
96.21212121,96.21212121,590.8030303,590.8030303,black,legacy,legacy,legacy,0,incongruent,uniform,1,undefined,1,s,131,131,0,131,131,0,0,131,131,131,0,0,0,0,0,131,Tue Sep 15 19:15:53 2020,600,The main experiment item,yes,FlankerTask.osexp,C:/Users/chelsea/OneDrive - Tarleton State University/psych 5316- adv/flanker test,no,mono,no,18,no,white,no,yes,768,legacy,51,79,C:/Users/chelsea/OneDrive - Tarleton State University/psych 5316- adv/flanker test/JK subject-3.csv,legacy,Lentiform Loewenfeld,3.3.3,0,s,NA,j,NA,s,s,566,NA,103414,NA,566,22143,2,legacy,1024,2,48000,-16,experiment,HHSHH,3,odd,459699,481763,NA,483505,482266,30466,NA,483610,483500,483610,133882,353885,NA,30461,331737,484183,Flanker Task,127,77986,132,yes,1024
96.2406015,96.2406015,590.1654135,590.1654135,black,legacy,legacy,legacy,0,congruent,uniform,1,undefined,1,s,132,132,0,132,132,0,0,132,132,132,0,0,0,0,0,132,Tue Sep 15 19:15:53 2020,600,The main experiment item,yes,FlankerTask.osexp,C:/Users/chelsea/OneDrive - Tarleton State University/psych 5316- adv/flanker test,no,mono,no,18,no,white,no,yes,768,legacy,52,79,C:/Users/chelsea/OneDrive - Tarleton State University/psych 5316- adv/flanker test/JK subject-3.csv,legacy,Lentiform Loewenfeld,3.3.3,0,s,NA,j,NA,s,s,506,NA,103414,NA,506,22143,2,legacy,1024,2,48000,-16,experiment,SSSSS,3,odd,459699,481763,NA,485750,484520,30466,NA,485855,485745,485855,133882,353885,NA,30461,331737,486369,Flanker Task,128,78492,133,yes,1024
96.26865672,96.26865672,589.2462687,589.2462687,black,legacy,legacy,legacy,0,congruent,uniform,1,undefined,1,s,133,133,0,133,133,0,0,133,133,133,0,0,0,0,0,133,Tue Sep 15 19:15:53 2020,600,The main experiment item,yes,FlankerTask.osexp,C:/Users/chelsea/OneDrive - Tarleton State University/psych 5316- adv/flanker test,no,mono,no,18,no,white,no,yes,768,legacy,53,79,C:/Users/chelsea/OneDrive - Tarleton State University/psych 5316- adv/flanker test/JK subject-3.csv,legacy,Lentiform Loewenfeld,3.3.3,0,s,NA,j,NA,s,s,467,NA,103414,NA,467,22143,2,legacy,1024,2,48000,-16,experiment,SSSSS,3,odd,459699,481763,NA,487701,486475,30466,NA,487805,487696,487805,133882,353885,NA,30461,331737,488279,Flanker Task,129,78959,134,yes,1024
96.2962963,96.2962963,589.1333333,589.1333333,black,legacy,legacy,legacy,0,congruent,uniform,1,undefined,1,h,134,134,0,134,134,0,0,134,134,134,0,0,0,0,0,134,Tue Sep 15 19:15:53 2020,600,The main experiment item,yes,FlankerTask.osexp,C:/Users/chelsea/OneDrive - Tarleton State University/psych 5316- adv/flanker test,no,mono,no,18,no,white,no,yes,768,legacy,54,79,C:/Users/chelsea/OneDrive - Tarleton State University/psych 5316- adv/flanker test/JK subject-3.csv,legacy,Lentiform Loewenfeld,3.3.3,0,h,NA,j,NA,h,s,574,NA,103414,NA,574,22143,2,legacy,1024,2,48000,-16,experiment,HHHHH,3,odd,459699,481763,NA,489746,488519,30466,NA,489850,489741,489850,133882,353885,NA,30461,331737,490430,Flanker Task,130,79533,135,yes,1024
96.32352941,96.32352941,588.3382353,588.3382353,black,legacy,legacy,legacy,0,congruent,uniform,1,undefined,1,s,135,135,0,135,135,0,0,135,135,135,0,0,0,0,0,135,Tue Sep 15 19:15:53 2020,600,The main experiment item,yes,FlankerTask.osexp,C:/Users/chelsea/OneDrive - Tarleton State University/psych 5316- adv/flanker test,no,mono,no,18,no,white,no,yes,768,legacy,55,79,C:/Users/chelsea/OneDrive - Tarleton State University/psych 5316- adv/flanker test/JK subject-3.csv,legacy,Lentiform Loewenfeld,3.3.3,0,s,NA,j,NA,s,s,481,NA,103414,NA,481,22143,2,legacy,1024,2,48000,-16,experiment,SSSSS,3,odd,459699,481763,NA,491711,490485,30466,NA,491815,491706,491815,133882,353885,NA,30461,331737,492304,Flanker Task,131,80014,136,yes,1024
96.35036496,96.35036496,587.9854015,587.9854015,black,legacy,legacy,legacy,0,incongruent,uniform,1,undefined,1,s,136,136,0,136,136,0,0,136,136,136,0,0,0,0,0,136,Tue Sep 15 19:15:53 2020,600,The main experiment item,yes,FlankerTask.osexp,C:/Users/chelsea/OneDrive - Tarleton State University/psych 5316- adv/flanker test,no,mono,no,18,no,white,no,yes,768,legacy,56,79,C:/Users/chelsea/OneDrive - Tarleton State University/psych 5316- adv/flanker test/JK subject-3.csv,legacy,Lentiform Loewenfeld,3.3.3,0,s,NA,j,NA,s,s,540,NA,103414,NA,540,22143,2,legacy,1024,2,48000,-16,experiment,HHSHH,3,odd,459699,481763,NA,493676,492448,30466,NA,493780,493670,493780,133882,353885,NA,30461,331737,494327,Flanker Task,132,80554,137,yes,1024
96.37681159,96.37681159,588.1376812,588.1376812,black,legacy,legacy,legacy,0,incongruent,uniform,1,undefined,1,s,137,137,0,137,137,0,0,137,137,137,0,0,0,0,0,137,Tue Sep 15 19:15:53 2020,600,The main experiment item,yes,FlankerTask.osexp,C:/Users/chelsea/OneDrive - Tarleton State University/psych 5316- adv/flanker test,no,mono,no,18,no,white,no,yes,768,legacy,57,79,C:/Users/chelsea/OneDrive - Tarleton State University/psych 5316- adv/flanker test/JK subject-3.csv,legacy,Lentiform Loewenfeld,3.3.3,0,s,NA,j,NA,s,s,609,NA,103414,NA,609,22143,2,legacy,1024,2,48000,-16,experiment,HHSHH,3,odd,459699,481763,NA,495631,494405,30466,NA,495735,495626,495735,133882,353885,NA,30461,331737,496351,Flanker Task,133,81163,138,yes,1024
96.4028777,96.4028777,588.7625899,588.7625899,black,legacy,legacy,legacy,0,incongruent,uniform,1,undefined,1,h,138,138,0,138,138,0,0,138,138,138,0,0,0,0,0,138,Tue Sep 15 19:15:53 2020,600,The main experiment item,yes,FlankerTask.osexp,C:/Users/chelsea/OneDrive - Tarleton State University/psych 5316- adv/flanker test,no,mono,no,18,no,white,no,yes,768,legacy,58,79,C:/Users/chelsea/OneDrive - Tarleton State University/psych 5316- adv/flanker test/JK subject-3.csv,legacy,Lentiform Loewenfeld,3.3.3,0,h,NA,j,NA,h,s,675,NA,103414,NA,675,22143,2,legacy,1024,2,48000,-16,experiment,SSHSS,3,odd,459699,496419,NA,498149,496923,30466,NA,498253,498144,498253,133882,353885,NA,30461,331737,498935,Flanker Task,134,81838,139,yes,1024
