acc,accuracy,average_response_time,avg_rt,background,canvas_backend,clock_backend,color_backend,compensation,condition,coordinates,correct,correct_Instructions1,correct_Keyboard_Response,correct_response,count_ErrorFeedback,count_Faster,count_Finish,count_Fixation,count_ISI,count_Instructions1,count_Instructions3,count_Keyboard_Response,count_Sequence,count_Stimulus,count_block1,count_block2,count_block3,count_experiment,count_instructions2,count_new_logger,datetime,deadline,description,disable_garbage_collection,experiment_file,experiment_path,font_bold,font_family,font_italic,font_size,font_underline,foreground,form_clicks,fullscreen,height,keyboard_backend,live_row,live_row_block1,logfile,mouse_backend,opensesame_codename,opensesame_version,repeat_cycle,response,response_Finish,response_Instructions1,response_Instructions3,response_Keyboard_Response,response_instructions2,response_time,response_time_Finish,response_time_Instructions1,response_time_Instructions3,response_time_Keyboard_Response,response_time_instructions2,round_decimals,sampler_backend,sound_buf_size,sound_channels,sound_freq,sound_sample_size,start,stimulus,subject_nr,subject_parity,time_ErrorFeedback,time_Faster,time_Finish,time_Fixation,time_ISI,time_Instructions1,time_Instructions3,time_Keyboard_Response,time_Sequence,time_Stimulus,time_block1,time_block2,time_block3,time_experiment,time_instructions2,time_new_logger,title,total_correct,total_response_time,total_responses,uniform_coordinates,width
0,0,1293,1293,black,legacy,legacy,legacy,0,congruent,uniform,0,undefined,0,h,0,0,0,0,0,0,0,0,0,0,0,0,0,0,0,0,Sun Sep 13 18:13:10 2020,1500,The main experiment item,yes,FlankerTask.osexp,C:/Users/chelsea/OneDrive - Tarleton State University/psych 5316- adv/flanker test,no,mono,no,18,no,white,no,yes,768,legacy,0,0,C:/Users/chelsea/OneDrive - Tarleton State University/psych 5316- adv/flanker test/JH subject-1.csv,legacy,Lentiform Loewenfeld,3.3.3,0,s,NA,s,NA,s,NA,1293,NA,49317,NA,1293,NA,2,legacy,1024,2,48000,-16,experiment,HHHHH,1,odd,NA,NA,NA,58247,NA,8392,NA,58352,58241,58351,57712,NA,NA,8380,NA,59646,Flanker Task,0,1293,1,yes,1024
0,0,1396.5,1396.5,black,legacy,legacy,legacy,0,congruent,uniform,0,undefined,0,h,1,1,0,1,1,0,0,1,1,1,0,0,0,0,0,1,Sun Sep 13 18:13:10 2020,1500,The main experiment item,yes,FlankerTask.osexp,C:/Users/chelsea/OneDrive - Tarleton State University/psych 5316- adv/flanker test,no,mono,no,18,no,white,no,yes,768,legacy,1,1,C:/Users/chelsea/OneDrive - Tarleton State University/psych 5316- adv/flanker test/JH subject-1.csv,legacy,Lentiform Loewenfeld,3.3.3,0,None,NA,s,NA,None,NA,1500,NA,49317,NA,1500,NA,2,legacy,1024,2,48000,-16,experiment,HHHHH,1,odd,59798,NA,NA,61531,60303,8392,NA,61635,61525,61635,57712,NA,NA,8380,NA,63135,Flanker Task,0,2793,2,yes,1024
0,0,1431,1431,black,legacy,legacy,legacy,0,incongruent,uniform,0,undefined,0,h,2,2,0,2,2,0,0,2,2,2,0,0,0,0,0,2,Sun Sep 13 18:13:10 2020,1500,The main experiment item,yes,FlankerTask.osexp,C:/Users/chelsea/OneDrive - Tarleton State University/psych 5316- adv/flanker test,no,mono,no,18,no,white,no,yes,768,legacy,2,2,C:/Users/chelsea/OneDrive - Tarleton State University/psych 5316- adv/flanker test/JH subject-1.csv,legacy,Lentiform Loewenfeld,3.3.3,0,None,NA,s,NA,None,NA,1500,NA,49317,NA,1500,NA,2,legacy,1024,2,48000,-16,experiment,SSHSS,1,odd,63183,NA,NA,64933,63697,8392,NA,65039,64928,65039,57712,NA,NA,8380,NA,66540,Flanker Task,0,4293,3,yes,1024
0,0,1222,1222,black,legacy,legacy,legacy,0,incongruent,uniform,0,undefined,0,h,3,3,0,3,3,0,0,3,3,3,0,0,0,0,0,3,Sun Sep 13 18:13:10 2020,1500,The main experiment item,yes,FlankerTask.osexp,C:/Users/chelsea/OneDrive - Tarleton State University/psych 5316- adv/flanker test,no,mono,no,18,no,white,no,yes,768,legacy,3,3,C:/Users/chelsea/OneDrive - Tarleton State University/psych 5316- adv/flanker test/JH subject-1.csv,legacy,Lentiform Loewenfeld,3.3.3,0,s,NA,s,NA,s,NA,595,NA,49317,NA,595,NA,2,legacy,1024,2,48000,-16,experiment,SSHSS,1,odd,66647,NA,NA,68392,67152,8392,NA,68498,68386,68498,57712,NA,NA,8380,NA,69094,Flanker Task,0,4888,4,yes,1024
20,20,1164.4,1164.4,black,legacy,legacy,legacy,0,congruent,uniform,1,undefined,1,s,4,4,0,4,4,0,0,4,4,4,0,0,0,0,0,4,Sun Sep 13 18:13:10 2020,1500,The main experiment item,yes,FlankerTask.osexp,C:/Users/chelsea/OneDrive - Tarleton State University/psych 5316- adv/flanker test,no,mono,no,18,no,white,no,yes,768,legacy,4,4,C:/Users/chelsea/OneDrive - Tarleton State University/psych 5316- adv/flanker test/JH subject-1.csv,legacy,Lentiform Loewenfeld,3.3.3,0,s,NA,s,NA,s,NA,934,NA,49317,NA,934,NA,2,legacy,1024,2,48000,-16,experiment,SSSSS,1,odd,69158,NA,NA,70901,69663,8392,NA,71006,70893,71006,57712,NA,NA,8380,NA,71942,Flanker Task,1,5822,5,yes,1024
33.33333333,33.33333333,1152.333333,1152.333333,black,legacy,legacy,legacy,0,incongruent,uniform,1,undefined,1,s,5,5,0,5,5,0,0,5,5,5,0,0,0,0,0,5,Sun Sep 13 18:13:10 2020,1500,The main experiment item,yes,FlankerTask.osexp,C:/Users/chelsea/OneDrive - Tarleton State University/psych 5316- adv/flanker test,no,mono,no,18,no,white,no,yes,768,legacy,5,5,C:/Users/chelsea/OneDrive - Tarleton State University/psych 5316- adv/flanker test/JH subject-1.csv,legacy,Lentiform Loewenfeld,3.3.3,0,s,NA,s,NA,s,NA,1092,NA,49317,NA,1092,NA,2,legacy,1024,2,48000,-16,experiment,HHSHH,1,odd,69158,NA,NA,73233,71989,8392,NA,73337,73227,73337,57712,NA,NA,8380,NA,74430,Flanker Task,2,6914,6,yes,1024
42.85714286,42.85714286,1074.714286,1074.714286,black,legacy,legacy,legacy,0,incongruent,uniform,1,undefined,1,s,6,6,0,6,6,0,0,6,6,6,0,0,0,0,0,6,Sun Sep 13 18:13:10 2020,1500,The main experiment item,yes,FlankerTask.osexp,C:/Users/chelsea/OneDrive - Tarleton State University/psych 5316- adv/flanker test,no,mono,no,18,no,white,no,yes,768,legacy,6,6,C:/Users/chelsea/OneDrive - Tarleton State University/psych 5316- adv/flanker test/JH subject-1.csv,legacy,Lentiform Loewenfeld,3.3.3,0,s,NA,s,NA,s,NA,609,NA,49317,NA,609,NA,2,legacy,1024,2,48000,-16,experiment,HHSHH,1,odd,69158,NA,NA,75763,74527,8392,NA,75868,75758,75868,57712,NA,NA,8380,NA,76478,Flanker Task,3,7523,7,yes,1024
50,50,1006.75,1006.75,black,legacy,legacy,legacy,0,incongruent,uniform,1,undefined,1,s,7,7,0,7,7,0,0,7,7,7,0,0,0,0,0,7,Sun Sep 13 18:13:10 2020,1500,The main experiment item,yes,FlankerTask.osexp,C:/Users/chelsea/OneDrive - Tarleton State University/psych 5316- adv/flanker test,no,mono,no,18,no,white,no,yes,768,legacy,7,7,C:/Users/chelsea/OneDrive - Tarleton State University/psych 5316- adv/flanker test/JH subject-1.csv,legacy,Lentiform Loewenfeld,3.3.3,0,s,NA,s,NA,s,NA,531,NA,49317,NA,531,NA,2,legacy,1024,2,48000,-16,experiment,HHSHH,1,odd,69158,NA,NA,77817,76567,8392,NA,77922,77811,77921,57712,NA,NA,8380,NA,78454,Flanker Task,4,8054,8,yes,1024
44.44444444,44.44444444,946.7777778,946.7777778,black,legacy,legacy,legacy,0,incongruent,uniform,0,undefined,0,h,8,8,0,8,8,0,0,8,8,8,0,0,0,0,0,8,Sun Sep 13 18:13:10 2020,1500,The main experiment item,yes,FlankerTask.osexp,C:/Users/chelsea/OneDrive - Tarleton State University/psych 5316- adv/flanker test,no,mono,no,18,no,white,no,yes,768,legacy,8,8,C:/Users/chelsea/OneDrive - Tarleton State University/psych 5316- adv/flanker test/JH subject-1.csv,legacy,Lentiform Loewenfeld,3.3.3,0,s,NA,s,NA,s,NA,467,NA,49317,NA,467,NA,2,legacy,1024,2,48000,-16,experiment,SSHSS,1,odd,69158,NA,NA,79738,78510,8392,NA,79842,79732,79842,57712,NA,NA,8380,NA,80310,Flanker Task,4,8521,9,yes,1024
50,50,931.8,931.8,black,legacy,legacy,legacy,0,incongruent,uniform,1,undefined,1,s,9,9,0,9,9,0,0,9,9,9,0,0,0,0,0,9,Sun Sep 13 18:13:10 2020,1500,The main experiment item,yes,FlankerTask.osexp,C:/Users/chelsea/OneDrive - Tarleton State University/psych 5316- adv/flanker test,no,mono,no,18,no,white,no,yes,768,legacy,9,9,C:/Users/chelsea/OneDrive - Tarleton State University/psych 5316- adv/flanker test/JH subject-1.csv,legacy,Lentiform Loewenfeld,3.3.3,0,s,NA,s,NA,s,NA,797,NA,49317,NA,797,NA,2,legacy,1024,2,48000,-16,experiment,HHSHH,1,odd,80355,NA,NA,82103,80860,8392,NA,82208,82097,82207,57712,NA,NA,8380,NA,83006,Flanker Task,5,9318,10,yes,1024
54.54545455,54.54545455,911.8181818,911.8181818,black,legacy,legacy,legacy,0,congruent,uniform,1,undefined,1,s,10,10,0,10,10,0,0,10,10,10,0,0,0,0,0,10,Sun Sep 13 18:13:10 2020,1500,The main experiment item,yes,FlankerTask.osexp,C:/Users/chelsea/OneDrive - Tarleton State University/psych 5316- adv/flanker test,no,mono,no,18,no,white,no,yes,768,legacy,10,10,C:/Users/chelsea/OneDrive - Tarleton State University/psych 5316- adv/flanker test/JH subject-1.csv,legacy,Lentiform Loewenfeld,3.3.3,0,s,NA,s,NA,s,NA,712,NA,49317,NA,712,NA,2,legacy,1024,2,48000,-16,experiment,SSSSS,1,odd,80355,NA,NA,84301,83056,8392,NA,84405,84293,84405,57712,NA,NA,8380,NA,85118,Flanker Task,6,10030,11,yes,1024
58.33333333,58.33333333,891.0833333,891.0833333,black,legacy,legacy,legacy,0,congruent,uniform,1,undefined,1,h,11,11,0,11,11,0,0,11,11,11,0,0,0,0,0,11,Sun Sep 13 18:13:10 2020,1500,The main experiment item,yes,FlankerTask.osexp,C:/Users/chelsea/OneDrive - Tarleton State University/psych 5316- adv/flanker test,no,mono,no,18,no,white,no,yes,768,legacy,11,11,C:/Users/chelsea/OneDrive - Tarleton State University/psych 5316- adv/flanker test/JH subject-1.csv,legacy,Lentiform Loewenfeld,3.3.3,0,h,NA,s,NA,h,NA,663,NA,49317,NA,663,NA,2,legacy,1024,2,48000,-16,experiment,HHHHH,1,odd,80355,NA,NA,86430,85185,8392,NA,86534,86425,86534,57712,NA,NA,8380,NA,87198,Flanker Task,7,10693,12,yes,1024
61.53846154,61.53846154,870.4615385,870.4615385,black,legacy,legacy,legacy,0,congruent,uniform,1,undefined,1,s,12,12,0,12,12,0,0,12,12,12,0,0,0,0,0,12,Sun Sep 13 18:13:10 2020,1500,The main experiment item,yes,FlankerTask.osexp,C:/Users/chelsea/OneDrive - Tarleton State University/psych 5316- adv/flanker test,no,mono,no,18,no,white,no,yes,768,legacy,12,12,C:/Users/chelsea/OneDrive - Tarleton State University/psych 5316- adv/flanker test/JH subject-1.csv,legacy,Lentiform Loewenfeld,3.3.3,0,s,NA,s,NA,s,NA,623,NA,49317,NA,623,NA,2,legacy,1024,2,48000,-16,experiment,SSSSS,1,odd,80355,NA,NA,88470,87245,8392,NA,88574,88465,88574,57712,NA,NA,8380,NA,89199,Flanker Task,8,11316,13,yes,1024
64.28571429,64.28571429,850.3571429,850.3571429,black,legacy,legacy,legacy,0,congruent,uniform,1,undefined,1,s,13,13,0,13,13,0,0,13,13,13,0,0,0,0,0,13,Sun Sep 13 18:13:10 2020,1500,The main experiment item,yes,FlankerTask.osexp,C:/Users/chelsea/OneDrive - Tarleton State University/psych 5316- adv/flanker test,no,mono,no,18,no,white,no,yes,768,legacy,13,13,C:/Users/chelsea/OneDrive - Tarleton State University/psych 5316- adv/flanker test/JH subject-1.csv,legacy,Lentiform Loewenfeld,3.3.3,0,s,NA,s,NA,s,NA,589,NA,49317,NA,589,NA,2,legacy,1024,2,48000,-16,experiment,SSSSS,1,odd,80355,NA,NA,90511,89267,8392,NA,90616,90506,90616,57712,NA,NA,8380,NA,91206,Flanker Task,9,11905,14,yes,1024
66.66666667,66.66666667,824.1333333,824.1333333,black,legacy,legacy,legacy,0,congruent,uniform,1,undefined,1,s,14,14,0,14,14,0,0,14,14,14,0,0,0,0,0,14,Sun Sep 13 18:13:10 2020,1500,The main experiment item,yes,FlankerTask.osexp,C:/Users/chelsea/OneDrive - Tarleton State University/psych 5316- adv/flanker test,no,mono,no,18,no,white,no,yes,768,legacy,14,14,C:/Users/chelsea/OneDrive - Tarleton State University/psych 5316- adv/flanker test/JH subject-1.csv,legacy,Lentiform Loewenfeld,3.3.3,0,s,NA,s,NA,s,NA,457,NA,49317,NA,457,NA,2,legacy,1024,2,48000,-16,experiment,SSSSS,1,odd,80355,NA,NA,92475,91245,8392,NA,92580,92470,92580,57712,NA,NA,8380,NA,93038,Flanker Task,10,12362,15,yes,1024
68.75,68.75,845.6875,845.6875,black,legacy,legacy,legacy,0,incongruent,uniform,1,undefined,1,s,15,15,0,15,15,0,0,15,15,15,0,0,0,0,0,15,Sun Sep 13 18:13:10 2020,1500,The main experiment item,yes,FlankerTask.osexp,C:/Users/chelsea/OneDrive - Tarleton State University/psych 5316- adv/flanker test,no,mono,no,18,no,white,no,yes,768,legacy,15,15,C:/Users/chelsea/OneDrive - Tarleton State University/psych 5316- adv/flanker test/JH subject-1.csv,legacy,Lentiform Loewenfeld,3.3.3,0,s,NA,s,NA,s,NA,1169,NA,49317,NA,1169,NA,2,legacy,1024,2,48000,-16,experiment,HHSHH,1,odd,80355,NA,NA,94323,93089,8392,NA,94428,94318,94428,57712,NA,NA,8380,NA,95599,Flanker Task,11,13531,16,yes,1024
70.58823529,70.58823529,839,839,black,legacy,legacy,legacy,0,incongruent,uniform,1,undefined,1,h,16,16,0,16,16,0,0,16,16,16,0,0,0,0,0,16,Sun Sep 13 18:13:10 2020,1500,The main experiment item,yes,FlankerTask.osexp,C:/Users/chelsea/OneDrive - Tarleton State University/psych 5316- adv/flanker test,no,mono,no,18,no,white,no,yes,768,legacy,16,16,C:/Users/chelsea/OneDrive - Tarleton State University/psych 5316- adv/flanker test/JH subject-1.csv,legacy,Lentiform Loewenfeld,3.3.3,0,h,NA,s,NA,h,NA,732,NA,49317,NA,732,NA,2,legacy,1024,2,48000,-16,experiment,SSHSS,1,odd,80355,NA,NA,96904,95667,8392,NA,97009,96899,97009,57712,NA,NA,8380,NA,97742,Flanker Task,12,14263,17,yes,1024
72.22222222,72.22222222,826,826,black,legacy,legacy,legacy,0,congruent,uniform,1,undefined,1,h,17,17,0,17,17,0,0,17,17,17,0,0,0,0,0,17,Sun Sep 13 18:13:10 2020,1500,The main experiment item,yes,FlankerTask.osexp,C:/Users/chelsea/OneDrive - Tarleton State University/psych 5316- adv/flanker test,no,mono,no,18,no,white,no,yes,768,legacy,17,17,C:/Users/chelsea/OneDrive - Tarleton State University/psych 5316- adv/flanker test/JH subject-1.csv,legacy,Lentiform Loewenfeld,3.3.3,0,h,NA,s,NA,h,NA,605,NA,49317,NA,605,NA,2,legacy,1024,2,48000,-16,experiment,HHHHH,1,odd,80355,NA,NA,99048,97803,8392,NA,99152,99043,99152,57712,NA,NA,8380,NA,99759,Flanker Task,13,14868,18,yes,1024
73.68421053,73.68421053,812.1578947,812.1578947,black,legacy,legacy,legacy,0,congruent,uniform,1,undefined,1,s,18,18,0,18,18,0,0,18,18,18,0,0,0,0,0,18,Sun Sep 13 18:13:10 2020,1500,The main experiment item,yes,FlankerTask.osexp,C:/Users/chelsea/OneDrive - Tarleton State University/psych 5316- adv/flanker test,no,mono,no,18,no,white,no,yes,768,legacy,18,18,C:/Users/chelsea/OneDrive - Tarleton State University/psych 5316- adv/flanker test/JH subject-1.csv,legacy,Lentiform Loewenfeld,3.3.3,0,s,NA,s,NA,s,NA,563,NA,49317,NA,563,NA,2,legacy,1024,2,48000,-16,experiment,SSSSS,1,odd,80355,NA,NA,101097,99870,8392,NA,101202,101092,101202,57712,NA,NA,8380,NA,101766,Flanker Task,14,15431,19,yes,1024
75,75,801,801,black,legacy,legacy,legacy,0,congruent,uniform,1,undefined,1,h,19,19,0,19,19,0,0,19,19,19,0,0,0,0,0,19,Sun Sep 13 18:13:10 2020,1500,The main experiment item,yes,FlankerTask.osexp,C:/Users/chelsea/OneDrive - Tarleton State University/psych 5316- adv/flanker test,no,mono,no,18,no,white,no,yes,768,legacy,19,19,C:/Users/chelsea/OneDrive - Tarleton State University/psych 5316- adv/flanker test/JH subject-1.csv,legacy,Lentiform Loewenfeld,3.3.3,0,h,NA,s,NA,h,NA,589,NA,49317,NA,589,NA,2,legacy,1024,2,48000,-16,experiment,HHHHH,1,odd,80355,NA,NA,103063,101822,8392,NA,103168,103057,103168,57712,NA,NA,8380,NA,103759,Flanker Task,15,16020,20,yes,1024
76.19047619,76.19047619,787.3809524,787.3809524,black,legacy,legacy,legacy,0,congruent,uniform,1,undefined,1,s,20,20,0,20,20,0,0,20,20,20,0,0,0,0,0,20,Sun Sep 13 18:13:10 2020,1500,The main experiment item,yes,FlankerTask.osexp,C:/Users/chelsea/OneDrive - Tarleton State University/psych 5316- adv/flanker test,no,mono,no,18,no,white,no,yes,768,legacy,20,20,C:/Users/chelsea/OneDrive - Tarleton State University/psych 5316- adv/flanker test/JH subject-1.csv,legacy,Lentiform Loewenfeld,3.3.3,0,s,NA,s,NA,s,NA,515,NA,49317,NA,515,NA,2,legacy,1024,2,48000,-16,experiment,SSSSS,1,odd,80355,NA,NA,105058,103835,8392,NA,105162,105052,105162,57712,NA,NA,8380,NA,105679,Flanker Task,16,16535,21,yes,1024
77.27272727,77.27272727,774.2272727,774.2272727,black,legacy,legacy,legacy,0,congruent,uniform,1,undefined,1,s,21,21,0,21,21,0,0,21,21,21,0,0,0,0,0,21,Sun Sep 13 18:13:10 2020,1500,The main experiment item,yes,FlankerTask.osexp,C:/Users/chelsea/OneDrive - Tarleton State University/psych 5316- adv/flanker test,no,mono,no,18,no,white,no,yes,768,legacy,21,21,C:/Users/chelsea/OneDrive - Tarleton State University/psych 5316- adv/flanker test/JH subject-1.csv,legacy,Lentiform Loewenfeld,3.3.3,0,s,NA,s,NA,s,NA,498,NA,49317,NA,498,NA,2,legacy,1024,2,48000,-16,experiment,SSSSS,1,odd,80355,NA,NA,106978,105759,8392,NA,107082,106973,107082,57712,NA,NA,8380,NA,107582,Flanker Task,17,17033,22,yes,1024
78.26086957,78.26086957,789.1304348,789.1304348,black,legacy,legacy,legacy,0,incongruent,uniform,1,undefined,1,s,22,22,0,22,22,0,0,22,22,22,0,0,0,0,0,22,Sun Sep 13 18:13:10 2020,1500,The main experiment item,yes,FlankerTask.osexp,C:/Users/chelsea/OneDrive - Tarleton State University/psych 5316- adv/flanker test,no,mono,no,18,no,white,no,yes,768,legacy,22,22,C:/Users/chelsea/OneDrive - Tarleton State University/psych 5316- adv/flanker test/JH subject-1.csv,legacy,Lentiform Loewenfeld,3.3.3,0,s,NA,s,NA,s,NA,1117,NA,49317,NA,1117,NA,2,legacy,1024,2,48000,-16,experiment,HHSHH,1,odd,80355,NA,NA,108909,107668,8392,NA,109015,108904,109014,57712,NA,NA,8380,NA,110134,Flanker Task,18,18150,23,yes,1024
79.16666667,79.16666667,781.25,781.25,black,legacy,legacy,legacy,0,incongruent,uniform,1,undefined,1,h,23,23,0,23,23,0,0,23,23,23,0,0,0,0,0,23,Sun Sep 13 18:13:10 2020,1500,The main experiment item,yes,FlankerTask.osexp,C:/Users/chelsea/OneDrive - Tarleton State University/psych 5316- adv/flanker test,no,mono,no,18,no,white,no,yes,768,legacy,23,23,C:/Users/chelsea/OneDrive - Tarleton State University/psych 5316- adv/flanker test/JH subject-1.csv,legacy,Lentiform Loewenfeld,3.3.3,0,h,NA,s,NA,h,NA,600,NA,49317,NA,600,NA,2,legacy,1024,2,48000,-16,experiment,SSHSS,1,odd,80355,NA,NA,111413,110189,8392,NA,111517,111408,111517,57712,NA,NA,8380,NA,112120,Flanker Task,19,18750,24,yes,1024
80,80,769.52,769.52,black,legacy,legacy,legacy,0,congruent,uniform,1,undefined,1,h,24,24,0,24,24,0,0,24,24,24,0,0,0,0,0,24,Sun Sep 13 18:13:10 2020,1500,The main experiment item,yes,FlankerTask.osexp,C:/Users/chelsea/OneDrive - Tarleton State University/psych 5316- adv/flanker test,no,mono,no,18,no,white,no,yes,768,legacy,24,24,C:/Users/chelsea/OneDrive - Tarleton State University/psych 5316- adv/flanker test/JH subject-1.csv,legacy,Lentiform Loewenfeld,3.3.3,0,h,NA,s,NA,h,NA,488,NA,49317,NA,488,NA,2,legacy,1024,2,48000,-16,experiment,HHHHH,1,odd,80355,NA,NA,113580,112345,8392,NA,113684,113575,113684,57712,NA,NA,8380,NA,114174,Flanker Task,20,19238,25,yes,1024
80.76923077,80.76923077,757,757,black,legacy,legacy,legacy,0,congruent,uniform,1,undefined,1,s,25,25,0,25,25,0,0,25,25,25,0,0,0,0,0,25,Sun Sep 13 18:13:10 2020,1500,The main experiment item,yes,FlankerTask.osexp,C:/Users/chelsea/OneDrive - Tarleton State University/psych 5316- adv/flanker test,no,mono,no,18,no,white,no,yes,768,legacy,25,25,C:/Users/chelsea/OneDrive - Tarleton State University/psych 5316- adv/flanker test/JH subject-1.csv,legacy,Lentiform Loewenfeld,3.3.3,0,s,NA,s,NA,s,NA,444,NA,49317,NA,444,NA,2,legacy,1024,2,48000,-16,experiment,SSSSS,1,odd,80355,NA,NA,115472,114244,8392,NA,115577,115467,115577,57712,NA,NA,8380,NA,116023,Flanker Task,21,19682,26,yes,1024
81.48148148,81.48148148,750.4074074,750.4074074,black,legacy,legacy,legacy,0,incongruent,uniform,1,undefined,1,h,26,26,0,26,26,0,0,26,26,26,0,0,0,0,0,26,Sun Sep 13 18:13:10 2020,1500,The main experiment item,yes,FlankerTask.osexp,C:/Users/chelsea/OneDrive - Tarleton State University/psych 5316- adv/flanker test,no,mono,no,18,no,white,no,yes,768,legacy,26,26,C:/Users/chelsea/OneDrive - Tarleton State University/psych 5316- adv/flanker test/JH subject-1.csv,legacy,Lentiform Loewenfeld,3.3.3,0,h,NA,s,NA,h,NA,579,NA,49317,NA,579,NA,2,legacy,1024,2,48000,-16,experiment,SSHSS,1,odd,80355,NA,NA,117449,116222,8392,NA,117553,117444,117553,57712,NA,NA,8380,NA,118135,Flanker Task,22,20261,27,yes,1024
82.14285714,82.14285714,748.4642857,748.4642857,black,legacy,legacy,legacy,0,incongruent,uniform,1,undefined,1,s,27,27,0,27,27,0,0,27,27,27,0,0,0,0,0,27,Sun Sep 13 18:13:10 2020,1500,The main experiment item,yes,FlankerTask.osexp,C:/Users/chelsea/OneDrive - Tarleton State University/psych 5316- adv/flanker test,no,mono,no,18,no,white,no,yes,768,legacy,27,27,C:/Users/chelsea/OneDrive - Tarleton State University/psych 5316- adv/flanker test/JH subject-1.csv,legacy,Lentiform Loewenfeld,3.3.3,0,s,NA,s,NA,s,NA,696,NA,49317,NA,696,NA,2,legacy,1024,2,48000,-16,experiment,HHSHH,1,odd,80355,NA,NA,119557,118322,8392,NA,119661,119551,119661,57712,NA,NA,8380,NA,120360,Flanker Task,23,20957,28,yes,1024
82.75862069,82.75862069,741.137931,741.137931,black,legacy,legacy,legacy,0,incongruent,uniform,1,undefined,1,h,28,28,0,28,28,0,0,28,28,28,0,0,0,0,0,28,Sun Sep 13 18:13:10 2020,1500,The main experiment item,yes,FlankerTask.osexp,C:/Users/chelsea/OneDrive - Tarleton State University/psych 5316- adv/flanker test,no,mono,no,18,no,white,no,yes,768,legacy,28,28,C:/Users/chelsea/OneDrive - Tarleton State University/psych 5316- adv/flanker test/JH subject-1.csv,legacy,Lentiform Loewenfeld,3.3.3,0,h,NA,s,NA,h,NA,536,NA,49317,NA,536,NA,2,legacy,1024,2,48000,-16,experiment,SSHSS,1,odd,80355,NA,NA,121644,120412,8392,NA,121748,121638,121748,57712,NA,NA,8380,NA,122287,Flanker Task,24,21493,29,yes,1024
83.33333333,83.33333333,763.5333333,763.5333333,black,legacy,legacy,legacy,0,incongruent,uniform,1,undefined,1,s,29,29,0,29,29,0,0,29,29,29,0,0,0,0,0,29,Sun Sep 13 18:13:10 2020,1500,The main experiment item,yes,FlankerTask.osexp,C:/Users/chelsea/OneDrive - Tarleton State University/psych 5316- adv/flanker test,no,mono,no,18,no,white,no,yes,768,legacy,29,29,C:/Users/chelsea/OneDrive - Tarleton State University/psych 5316- adv/flanker test/JH subject-1.csv,legacy,Lentiform Loewenfeld,3.3.3,0,s,NA,s,NA,s,NA,1413,NA,49317,NA,1413,NA,2,legacy,1024,2,48000,-16,experiment,HHSHH,1,odd,80355,NA,NA,123559,122334,8392,NA,123664,123554,123664,57712,NA,NA,8380,NA,125079,Flanker Task,25,22906,30,yes,1024
83.87096774,83.87096774,758.516129,758.516129,black,legacy,legacy,legacy,0,incongruent,uniform,1,undefined,1,h,30,30,0,30,30,0,0,30,30,30,0,0,0,0,0,30,Sun Sep 13 18:13:10 2020,1500,The main experiment item,yes,FlankerTask.osexp,C:/Users/chelsea/OneDrive - Tarleton State University/psych 5316- adv/flanker test,no,mono,no,18,no,white,no,yes,768,legacy,30,30,C:/Users/chelsea/OneDrive - Tarleton State University/psych 5316- adv/flanker test/JH subject-1.csv,legacy,Lentiform Loewenfeld,3.3.3,0,h,NA,s,NA,h,NA,608,NA,49317,NA,608,NA,2,legacy,1024,2,48000,-16,experiment,SSHSS,1,odd,80355,NA,NA,126357,125123,8392,NA,126461,126351,126461,57712,NA,NA,8380,NA,127071,Flanker Task,26,23514,31,yes,1024
84.375,84.375,759.78125,759.78125,black,legacy,legacy,legacy,0,incongruent,uniform,1,undefined,1,h,31,31,0,31,31,0,0,31,31,31,0,0,0,0,0,31,Sun Sep 13 18:13:10 2020,1500,The main experiment item,yes,FlankerTask.osexp,C:/Users/chelsea/OneDrive - Tarleton State University/psych 5316- adv/flanker test,no,mono,no,18,no,white,no,yes,768,legacy,31,31,C:/Users/chelsea/OneDrive - Tarleton State University/psych 5316- adv/flanker test/JH subject-1.csv,legacy,Lentiform Loewenfeld,3.3.3,0,h,NA,s,NA,h,NA,799,NA,49317,NA,799,NA,2,legacy,1024,2,48000,-16,experiment,SSHSS,1,odd,80355,NA,NA,128374,127134,8392,NA,128478,128368,128478,57712,NA,NA,8380,NA,129280,Flanker Task,27,24313,32,yes,1024
84.84848485,84.84848485,755.2424242,755.2424242,black,legacy,legacy,legacy,0,congruent,uniform,1,undefined,1,s,32,32,0,32,32,0,0,32,32,32,0,0,0,0,0,32,Sun Sep 13 18:13:10 2020,1500,The main experiment item,yes,FlankerTask.osexp,C:/Users/chelsea/OneDrive - Tarleton State University/psych 5316- adv/flanker test,no,mono,no,18,no,white,no,yes,768,legacy,32,32,C:/Users/chelsea/OneDrive - Tarleton State University/psych 5316- adv/flanker test/JH subject-1.csv,legacy,Lentiform Loewenfeld,3.3.3,0,s,NA,s,NA,s,NA,610,NA,49317,NA,610,NA,2,legacy,1024,2,48000,-16,experiment,SSSSS,1,odd,80355,NA,NA,130563,129338,8392,NA,130667,130558,130667,57712,NA,NA,8380,NA,131279,Flanker Task,28,24923,33,yes,1024
85.29411765,85.29411765,747.6470588,747.6470588,black,legacy,legacy,legacy,0,congruent,uniform,1,undefined,1,s,33,33,0,33,33,0,0,33,33,33,0,0,0,0,0,33,Sun Sep 13 18:13:10 2020,1500,The main experiment item,yes,FlankerTask.osexp,C:/Users/chelsea/OneDrive - Tarleton State University/psych 5316- adv/flanker test,no,mono,no,18,no,white,no,yes,768,legacy,33,33,C:/Users/chelsea/OneDrive - Tarleton State University/psych 5316- adv/flanker test/JH subject-1.csv,legacy,Lentiform Loewenfeld,3.3.3,0,s,NA,s,NA,s,NA,497,NA,49317,NA,497,NA,2,legacy,1024,2,48000,-16,experiment,SSSSS,1,odd,80355,NA,NA,132580,131356,8392,NA,132684,132575,132684,57712,NA,NA,8380,NA,133183,Flanker Task,29,25420,34,yes,1024
82.85714286,82.85714286,737.2571429,737.2571429,black,legacy,legacy,legacy,0,incongruent,uniform,0,undefined,0,h,34,34,0,34,34,0,0,34,34,34,0,0,0,0,0,34,Sun Sep 13 18:13:10 2020,1500,The main experiment item,yes,FlankerTask.osexp,C:/Users/chelsea/OneDrive - Tarleton State University/psych 5316- adv/flanker test,no,mono,no,18,no,white,no,yes,768,legacy,34,34,C:/Users/chelsea/OneDrive - Tarleton State University/psych 5316- adv/flanker test/JH subject-1.csv,legacy,Lentiform Loewenfeld,3.3.3,0,s,NA,s,NA,s,NA,384,NA,49317,NA,384,NA,2,legacy,1024,2,48000,-16,experiment,SSHSS,1,odd,80355,NA,NA,134476,133245,8392,NA,134581,134470,134581,57712,NA,NA,8380,NA,134968,Flanker Task,29,25804,35,yes,1024
83.33333333,83.33333333,739.5277778,739.5277778,black,legacy,legacy,legacy,0,incongruent,uniform,1,undefined,1,s,35,35,0,35,35,0,0,35,35,35,0,0,0,0,0,35,Sun Sep 13 18:13:10 2020,1500,The main experiment item,yes,FlankerTask.osexp,C:/Users/chelsea/OneDrive - Tarleton State University/psych 5316- adv/flanker test,no,mono,no,18,no,white,no,yes,768,legacy,35,35,C:/Users/chelsea/OneDrive - Tarleton State University/psych 5316- adv/flanker test/JH subject-1.csv,legacy,Lentiform Loewenfeld,3.3.3,0,s,NA,s,NA,s,NA,819,NA,49317,NA,819,NA,2,legacy,1024,2,48000,-16,experiment,HHSHH,1,odd,135045,NA,NA,136778,135549,8392,NA,136882,136773,136882,57712,NA,NA,8380,NA,137703,Flanker Task,30,26623,36,yes,1024
83.78378378,83.78378378,732.4864865,732.4864865,black,legacy,legacy,legacy,0,congruent,uniform,1,undefined,1,s,36,36,0,36,36,0,0,36,36,36,0,0,0,0,0,36,Sun Sep 13 18:13:10 2020,1500,The main experiment item,yes,FlankerTask.osexp,C:/Users/chelsea/OneDrive - Tarleton State University/psych 5316- adv/flanker test,no,mono,no,18,no,white,no,yes,768,legacy,36,36,C:/Users/chelsea/OneDrive - Tarleton State University/psych 5316- adv/flanker test/JH subject-1.csv,legacy,Lentiform Loewenfeld,3.3.3,0,s,NA,s,NA,s,NA,479,NA,49317,NA,479,NA,2,legacy,1024,2,48000,-16,experiment,SSSSS,1,odd,135045,NA,NA,138990,137759,8392,NA,139094,138984,139094,57712,NA,NA,8380,NA,139575,Flanker Task,31,27102,37,yes,1024
84.21052632,84.21052632,724.1578947,724.1578947,black,legacy,legacy,legacy,0,congruent,uniform,1,undefined,1,s,37,37,0,37,37,0,0,37,37,37,0,0,0,0,0,37,Sun Sep 13 18:13:10 2020,1500,The main experiment item,yes,FlankerTask.osexp,C:/Users/chelsea/OneDrive - Tarleton State University/psych 5316- adv/flanker test,no,mono,no,18,no,white,no,yes,768,legacy,37,37,C:/Users/chelsea/OneDrive - Tarleton State University/psych 5316- adv/flanker test/JH subject-1.csv,legacy,Lentiform Loewenfeld,3.3.3,0,s,NA,s,NA,s,NA,416,NA,49317,NA,416,NA,2,legacy,1024,2,48000,-16,experiment,SSSSS,1,odd,135045,NA,NA,140901,139675,8392,NA,141005,140896,141005,57712,NA,NA,8380,NA,141423,Flanker Task,32,27518,38,yes,1024
84.61538462,84.61538462,722.7692308,722.7692308,black,legacy,legacy,legacy,0,congruent,uniform,1,undefined,1,h,38,38,0,38,38,0,0,38,38,38,0,0,0,0,0,38,Sun Sep 13 18:13:10 2020,1500,The main experiment item,yes,FlankerTask.osexp,C:/Users/chelsea/OneDrive - Tarleton State University/psych 5316- adv/flanker test,no,mono,no,18,no,white,no,yes,768,legacy,38,38,C:/Users/chelsea/OneDrive - Tarleton State University/psych 5316- adv/flanker test/JH subject-1.csv,legacy,Lentiform Loewenfeld,3.3.3,0,h,NA,s,NA,h,NA,670,NA,49317,NA,670,NA,2,legacy,1024,2,48000,-16,experiment,HHHHH,1,odd,135045,NA,NA,142927,141691,8392,NA,143031,142921,143031,57712,NA,NA,8380,NA,143704,Flanker Task,33,28188,39,yes,1024
85,85,722.425,722.425,black,legacy,legacy,legacy,0,incongruent,uniform,1,undefined,1,s,39,39,0,39,39,0,0,39,39,39,0,0,0,0,0,39,Sun Sep 13 18:13:10 2020,1500,The main experiment item,yes,FlankerTask.osexp,C:/Users/chelsea/OneDrive - Tarleton State University/psych 5316- adv/flanker test,no,mono,no,18,no,white,no,yes,768,legacy,39,39,C:/Users/chelsea/OneDrive - Tarleton State University/psych 5316- adv/flanker test/JH subject-1.csv,legacy,Lentiform Loewenfeld,3.3.3,0,s,NA,s,NA,s,NA,709,NA,49317,NA,709,NA,2,legacy,1024,2,48000,-16,experiment,HHSHH,1,odd,135045,NA,NA,144992,143746,8392,NA,145096,144984,145096,57712,NA,NA,8380,NA,145807,Flanker Task,34,28897,40,yes,1024
85.36585366,85.36585366,718.6829268,718.6829268,black,legacy,legacy,legacy,0,congruent,uniform,1,undefined,1,h,40,40,0,40,40,0,0,40,40,40,0,0,0,0,0,40,Sun Sep 13 18:13:10 2020,1500,The main experiment item,yes,FlankerTask.osexp,C:/Users/chelsea/OneDrive - Tarleton State University/psych 5316- adv/flanker test,no,mono,no,18,no,white,no,yes,768,legacy,40,40,C:/Users/chelsea/OneDrive - Tarleton State University/psych 5316- adv/flanker test/JH subject-1.csv,legacy,Lentiform Loewenfeld,3.3.3,0,h,NA,s,NA,h,NA,569,NA,49317,NA,569,NA,2,legacy,1024,2,48000,-16,experiment,HHHHH,1,odd,135045,NA,NA,147148,145915,8392,NA,147252,147142,147252,57712,NA,NA,8380,NA,147823,Flanker Task,35,29466,41,yes,1024
85.71428571,85.71428571,712.5714286,712.5714286,black,legacy,legacy,legacy,0,congruent,uniform,1,undefined,1,s,41,41,0,41,41,0,0,41,41,41,0,0,0,0,0,41,Sun Sep 13 18:13:10 2020,1500,The main experiment item,yes,FlankerTask.osexp,C:/Users/chelsea/OneDrive - Tarleton State University/psych 5316- adv/flanker test,no,mono,no,18,no,white,no,yes,768,legacy,41,41,C:/Users/chelsea/OneDrive - Tarleton State University/psych 5316- adv/flanker test/JH subject-1.csv,legacy,Lentiform Loewenfeld,3.3.3,0,s,NA,s,NA,s,NA,462,NA,49317,NA,462,NA,2,legacy,1024,2,48000,-16,experiment,SSSSS,1,odd,135045,NA,NA,149125,147886,8392,NA,149230,149120,149230,57712,NA,NA,8380,NA,149695,Flanker Task,36,29928,42,yes,1024
86.04651163,86.04651163,707.3488372,707.3488372,black,legacy,legacy,legacy,0,congruent,uniform,1,undefined,1,s,42,42,0,42,42,0,0,42,42,42,0,0,0,0,0,42,Sun Sep 13 18:13:10 2020,1500,The main experiment item,yes,FlankerTask.osexp,C:/Users/chelsea/OneDrive - Tarleton State University/psych 5316- adv/flanker test,no,mono,no,18,no,white,no,yes,768,legacy,42,42,C:/Users/chelsea/OneDrive - Tarleton State University/psych 5316- adv/flanker test/JH subject-1.csv,legacy,Lentiform Loewenfeld,3.3.3,0,s,NA,s,NA,s,NA,488,NA,49317,NA,488,NA,2,legacy,1024,2,48000,-16,experiment,SSSSS,1,odd,135045,NA,NA,150957,149724,8392,NA,151061,150951,151061,57712,NA,NA,8380,NA,151551,Flanker Task,37,30416,43,yes,1024
86.36363636,86.36363636,701.9318182,701.9318182,black,legacy,legacy,legacy,0,congruent,uniform,1,undefined,1,s,43,43,0,43,43,0,0,43,43,43,0,0,0,0,0,43,Sun Sep 13 18:13:10 2020,1500,The main experiment item,yes,FlankerTask.osexp,C:/Users/chelsea/OneDrive - Tarleton State University/psych 5316- adv/flanker test,no,mono,no,18,no,white,no,yes,768,legacy,43,43,C:/Users/chelsea/OneDrive - Tarleton State University/psych 5316- adv/flanker test/JH subject-1.csv,legacy,Lentiform Loewenfeld,3.3.3,0,s,NA,s,NA,s,NA,469,NA,49317,NA,469,NA,2,legacy,1024,2,48000,-16,experiment,SSSSS,1,odd,135045,NA,NA,152872,151635,8392,NA,152976,152866,152976,57712,NA,NA,8380,NA,153449,Flanker Task,38,30885,44,yes,1024
86.66666667,86.66666667,701.3333333,701.3333333,black,legacy,legacy,legacy,0,incongruent,uniform,1,undefined,1,h,44,44,0,44,44,0,0,44,44,44,0,0,0,0,0,44,Sun Sep 13 18:13:10 2020,1500,The main experiment item,yes,FlankerTask.osexp,C:/Users/chelsea/OneDrive - Tarleton State University/psych 5316- adv/flanker test,no,mono,no,18,no,white,no,yes,768,legacy,44,44,C:/Users/chelsea/OneDrive - Tarleton State University/psych 5316- adv/flanker test/JH subject-1.csv,legacy,Lentiform Loewenfeld,3.3.3,0,h,NA,s,NA,h,NA,675,NA,49317,NA,675,NA,2,legacy,1024,2,48000,-16,experiment,SSHSS,1,odd,135045,NA,NA,154722,153491,8392,NA,154826,154717,154826,57712,NA,NA,8380,NA,155504,Flanker Task,39,31560,45,yes,1024
86.95652174,86.95652174,696.0869565,696.0869565,black,legacy,legacy,legacy,0,congruent,uniform,1,undefined,1,s,45,45,0,45,45,0,0,45,45,45,0,0,0,0,0,45,Sun Sep 13 18:13:10 2020,1500,The main experiment item,yes,FlankerTask.osexp,C:/Users/chelsea/OneDrive - Tarleton State University/psych 5316- adv/flanker test,no,mono,no,18,no,white,no,yes,768,legacy,45,45,C:/Users/chelsea/OneDrive - Tarleton State University/psych 5316- adv/flanker test/JH subject-1.csv,legacy,Lentiform Loewenfeld,3.3.3,0,s,NA,s,NA,s,NA,460,NA,49317,NA,460,NA,2,legacy,1024,2,48000,-16,experiment,SSSSS,1,odd,135045,NA,NA,156817,155580,8392,NA,156921,156811,156921,57712,NA,NA,8380,NA,157385,Flanker Task,40,32020,46,yes,1024
87.23404255,87.23404255,694.2978723,694.2978723,black,legacy,legacy,legacy,0,incongruent,uniform,1,undefined,1,s,46,46,0,46,46,0,0,46,46,46,0,0,0,0,0,46,Sun Sep 13 18:13:10 2020,1500,The main experiment item,yes,FlankerTask.osexp,C:/Users/chelsea/OneDrive - Tarleton State University/psych 5316- adv/flanker test,no,mono,no,18,no,white,no,yes,768,legacy,46,46,C:/Users/chelsea/OneDrive - Tarleton State University/psych 5316- adv/flanker test/JH subject-1.csv,legacy,Lentiform Loewenfeld,3.3.3,0,s,NA,s,NA,s,NA,612,NA,49317,NA,612,NA,2,legacy,1024,2,48000,-16,experiment,HHSHH,1,odd,135045,NA,NA,158696,157450,8392,NA,158801,158691,158801,57712,NA,NA,8380,NA,159416,Flanker Task,41,32632,47,yes,1024
87.5,87.5,691.0833333,691.0833333,black,legacy,legacy,legacy,0,incongruent,uniform,1,undefined,1,h,47,47,0,47,47,0,0,47,47,47,0,0,0,0,0,47,Sun Sep 13 18:13:10 2020,1500,The main experiment item,yes,FlankerTask.osexp,C:/Users/chelsea/OneDrive - Tarleton State University/psych 5316- adv/flanker test,no,mono,no,18,no,white,no,yes,768,legacy,47,47,C:/Users/chelsea/OneDrive - Tarleton State University/psych 5316- adv/flanker test/JH subject-1.csv,legacy,Lentiform Loewenfeld,3.3.3,0,h,NA,s,NA,h,NA,540,NA,49317,NA,540,NA,2,legacy,1024,2,48000,-16,experiment,SSHSS,1,odd,135045,NA,NA,160737,159501,8392,NA,160841,160731,160841,57712,NA,NA,8380,NA,161384,Flanker Task,42,33172,48,yes,1024
87.75510204,87.75510204,686.4081633,686.4081633,black,legacy,legacy,legacy,0,incongruent,uniform,1,undefined,1,s,48,48,0,48,48,0,0,48,48,48,0,0,0,0,0,48,Sun Sep 13 18:13:10 2020,1500,The main experiment item,yes,FlankerTask.osexp,C:/Users/chelsea/OneDrive - Tarleton State University/psych 5316- adv/flanker test,no,mono,no,18,no,white,no,yes,768,legacy,48,48,C:/Users/chelsea/OneDrive - Tarleton State University/psych 5316- adv/flanker test/JH subject-1.csv,legacy,Lentiform Loewenfeld,3.3.3,0,s,NA,s,NA,s,NA,462,NA,49317,NA,462,NA,2,legacy,1024,2,48000,-16,experiment,HHSHH,1,odd,135045,NA,NA,162655,161424,8392,NA,162759,162649,162759,57712,NA,NA,8380,NA,163224,Flanker Task,43,33634,49,yes,1024
88,88,683.26,683.26,black,legacy,legacy,legacy,0,congruent,uniform,1,undefined,1,h,49,49,0,49,49,0,0,49,49,49,0,0,0,0,0,49,Sun Sep 13 18:13:10 2020,1500,The main experiment item,yes,FlankerTask.osexp,C:/Users/chelsea/OneDrive - Tarleton State University/psych 5316- adv/flanker test,no,mono,no,18,no,white,no,yes,768,legacy,49,49,C:/Users/chelsea/OneDrive - Tarleton State University/psych 5316- adv/flanker test/JH subject-1.csv,legacy,Lentiform Loewenfeld,3.3.3,0,h,NA,s,NA,h,NA,529,NA,49317,NA,529,NA,2,legacy,1024,2,48000,-16,experiment,HHHHH,1,odd,135045,NA,NA,164500,163274,8392,NA,164604,164495,164604,57712,NA,NA,8380,NA,165136,Flanker Task,44,34163,50,yes,1024
88.23529412,88.23529412,683.4901961,683.4901961,black,legacy,legacy,legacy,0,incongruent,uniform,1,undefined,1,h,50,50,0,50,50,0,0,50,50,50,0,0,0,0,0,50,Sun Sep 13 18:13:10 2020,1500,The main experiment item,yes,FlankerTask.osexp,C:/Users/chelsea/OneDrive - Tarleton State University/psych 5316- adv/flanker test,no,mono,no,18,no,white,no,yes,768,legacy,50,50,C:/Users/chelsea/OneDrive - Tarleton State University/psych 5316- adv/flanker test/JH subject-1.csv,legacy,Lentiform Loewenfeld,3.3.3,0,h,NA,s,NA,h,NA,695,NA,49317,NA,695,NA,2,legacy,1024,2,48000,-16,experiment,SSHSS,1,odd,135045,NA,NA,166461,165232,8392,NA,166566,166456,166566,57712,NA,NA,8380,NA,167264,Flanker Task,45,34858,51,yes,1024
88.46153846,88.46153846,682.6923077,682.6923077,black,legacy,legacy,legacy,0,incongruent,uniform,1,undefined,1,h,51,51,0,51,51,0,0,51,51,51,0,0,0,0,0,51,Sun Sep 13 18:13:10 2020,1500,The main experiment item,yes,FlankerTask.osexp,C:/Users/chelsea/OneDrive - Tarleton State University/psych 5316- adv/flanker test,no,mono,no,18,no,white,no,yes,768,legacy,51,51,C:/Users/chelsea/OneDrive - Tarleton State University/psych 5316- adv/flanker test/JH subject-1.csv,legacy,Lentiform Loewenfeld,3.3.3,0,h,NA,s,NA,h,NA,642,NA,49317,NA,642,NA,2,legacy,1024,2,48000,-16,experiment,SSHSS,1,odd,135045,NA,NA,168595,167370,8392,NA,168699,168590,168699,57712,NA,NA,8380,NA,169344,Flanker Task,46,35500,52,yes,1024
88.67924528,88.67924528,679.0943396,679.0943396,black,legacy,legacy,legacy,0,congruent,uniform,1,undefined,1,h,52,52,0,52,52,0,0,52,52,52,0,0,0,0,0,52,Sun Sep 13 18:13:10 2020,1500,The main experiment item,yes,FlankerTask.osexp,C:/Users/chelsea/OneDrive - Tarleton State University/psych 5316- adv/flanker test,no,mono,no,18,no,white,no,yes,768,legacy,52,52,C:/Users/chelsea/OneDrive - Tarleton State University/psych 5316- adv/flanker test/JH subject-1.csv,legacy,Lentiform Loewenfeld,3.3.3,0,h,NA,s,NA,h,NA,492,NA,49317,NA,492,NA,2,legacy,1024,2,48000,-16,experiment,HHHHH,1,odd,135045,NA,NA,170610,169380,8392,NA,170714,170605,170714,57712,NA,NA,8380,NA,171209,Flanker Task,47,35992,53,yes,1024
88.88888889,88.88888889,677.6851852,677.6851852,black,legacy,legacy,legacy,0,incongruent,uniform,1,undefined,1,s,53,53,0,53,53,0,0,53,53,53,0,0,0,0,0,53,Sun Sep 13 18:13:10 2020,1500,The main experiment item,yes,FlankerTask.osexp,C:/Users/chelsea/OneDrive - Tarleton State University/psych 5316- adv/flanker test,no,mono,no,18,no,white,no,yes,768,legacy,53,53,C:/Users/chelsea/OneDrive - Tarleton State University/psych 5316- adv/flanker test/JH subject-1.csv,legacy,Lentiform Loewenfeld,3.3.3,0,s,NA,s,NA,s,NA,603,NA,49317,NA,603,NA,2,legacy,1024,2,48000,-16,experiment,HHSHH,1,odd,135045,NA,NA,172491,171257,8392,NA,172595,172485,172595,57712,NA,NA,8380,NA,173201,Flanker Task,48,36595,54,yes,1024
89.09090909,89.09090909,673.4363636,673.4363636,black,legacy,legacy,legacy,0,congruent,uniform,1,undefined,1,h,54,54,0,54,54,0,0,54,54,54,0,0,0,0,0,54,Sun Sep 13 18:13:10 2020,1500,The main experiment item,yes,FlankerTask.osexp,C:/Users/chelsea/OneDrive - Tarleton State University/psych 5316- adv/flanker test,no,mono,no,18,no,white,no,yes,768,legacy,54,54,C:/Users/chelsea/OneDrive - Tarleton State University/psych 5316- adv/flanker test/JH subject-1.csv,legacy,Lentiform Loewenfeld,3.3.3,0,h,NA,s,NA,h,NA,444,NA,49317,NA,444,NA,2,legacy,1024,2,48000,-16,experiment,HHHHH,1,odd,135045,NA,NA,174481,173246,8392,NA,174585,174475,174585,57712,NA,NA,8380,NA,175032,Flanker Task,49,37039,55,yes,1024
89.28571429,89.28571429,670.7857143,670.7857143,black,legacy,legacy,legacy,0,congruent,uniform,1,undefined,1,h,55,55,0,55,55,0,0,55,55,55,0,0,0,0,0,55,Sun Sep 13 18:13:10 2020,1500,The main experiment item,yes,FlankerTask.osexp,C:/Users/chelsea/OneDrive - Tarleton State University/psych 5316- adv/flanker test,no,mono,no,18,no,white,no,yes,768,legacy,55,55,C:/Users/chelsea/OneDrive - Tarleton State University/psych 5316- adv/flanker test/JH subject-1.csv,legacy,Lentiform Loewenfeld,3.3.3,0,h,NA,s,NA,h,NA,525,NA,49317,NA,525,NA,2,legacy,1024,2,48000,-16,experiment,HHHHH,1,odd,135045,NA,NA,176327,175090,8392,NA,176432,176322,176432,57712,NA,NA,8380,NA,176960,Flanker Task,50,37564,56,yes,1024
89.47368421,89.47368421,664.7719298,664.7719298,black,legacy,legacy,legacy,0,congruent,uniform,1,undefined,1,h,56,56,0,56,56,0,0,56,56,56,0,0,0,0,0,56,Sun Sep 13 18:13:10 2020,1500,The main experiment item,yes,FlankerTask.osexp,C:/Users/chelsea/OneDrive - Tarleton State University/psych 5316- adv/flanker test,no,mono,no,18,no,white,no,yes,768,legacy,56,56,C:/Users/chelsea/OneDrive - Tarleton State University/psych 5316- adv/flanker test/JH subject-1.csv,legacy,Lentiform Loewenfeld,3.3.3,0,h,NA,s,NA,h,NA,328,NA,49317,NA,328,NA,2,legacy,1024,2,48000,-16,experiment,HHHHH,1,odd,135045,NA,NA,178277,177021,8392,NA,178381,178271,178381,57712,NA,NA,8380,NA,178712,Flanker Task,51,37892,57,yes,1024
89.65517241,89.65517241,660.862069,660.862069,black,legacy,legacy,legacy,0,congruent,uniform,1,undefined,1,h,57,57,0,57,57,0,0,57,57,57,0,0,0,0,0,57,Sun Sep 13 18:13:10 2020,1500,The main experiment item,yes,FlankerTask.osexp,C:/Users/chelsea/OneDrive - Tarleton State University/psych 5316- adv/flanker test,no,mono,no,18,no,white,no,yes,768,legacy,57,57,C:/Users/chelsea/OneDrive - Tarleton State University/psych 5316- adv/flanker test/JH subject-1.csv,legacy,Lentiform Loewenfeld,3.3.3,0,h,NA,s,NA,h,NA,438,NA,49317,NA,438,NA,2,legacy,1024,2,48000,-16,experiment,HHHHH,1,odd,135045,NA,NA,180062,178823,8392,NA,180166,180057,180166,57712,NA,NA,8380,NA,180608,Flanker Task,52,38330,58,yes,1024
89.83050847,89.83050847,656.8474576,656.8474576,black,legacy,legacy,legacy,0,incongruent,uniform,1,undefined,1,s,58,58,0,58,58,0,0,58,58,58,0,0,0,0,0,58,Sun Sep 13 18:13:10 2020,1500,The main experiment item,yes,FlankerTask.osexp,C:/Users/chelsea/OneDrive - Tarleton State University/psych 5316- adv/flanker test,no,mono,no,18,no,white,no,yes,768,legacy,58,58,C:/Users/chelsea/OneDrive - Tarleton State University/psych 5316- adv/flanker test/JH subject-1.csv,legacy,Lentiform Loewenfeld,3.3.3,0,s,NA,s,NA,s,NA,424,NA,49317,NA,424,NA,2,legacy,1024,2,48000,-16,experiment,HHSHH,1,odd,135045,NA,NA,181932,180698,8392,NA,182036,181926,182036,57712,NA,NA,8380,NA,182464,Flanker Task,53,38754,59,yes,1024
90,90,655.2666667,655.2666667,black,legacy,legacy,legacy,0,incongruent,uniform,1,undefined,1,h,59,59,0,59,59,0,0,59,59,59,0,0,0,0,0,59,Sun Sep 13 18:13:10 2020,1500,The main experiment item,yes,FlankerTask.osexp,C:/Users/chelsea/OneDrive - Tarleton State University/psych 5316- adv/flanker test,no,mono,no,18,no,white,no,yes,768,legacy,59,59,C:/Users/chelsea/OneDrive - Tarleton State University/psych 5316- adv/flanker test/JH subject-1.csv,legacy,Lentiform Loewenfeld,3.3.3,0,h,NA,s,NA,h,NA,562,NA,49317,NA,562,NA,2,legacy,1024,2,48000,-16,experiment,SSHSS,1,odd,135045,NA,NA,183817,182581,8392,NA,183922,183812,183922,57712,NA,NA,8380,NA,184490,Flanker Task,54,39316,60,yes,1024
90.16393443,90.16393443,653.5245902,653.5245902,black,legacy,legacy,legacy,0,incongruent,uniform,1,undefined,1,s,60,60,0,60,60,0,0,60,60,60,0,0,0,0,0,60,Sun Sep 13 18:13:10 2020,1500,The main experiment item,yes,FlankerTask.osexp,C:/Users/chelsea/OneDrive - Tarleton State University/psych 5316- adv/flanker test,no,mono,no,18,no,white,no,yes,768,legacy,60,60,C:/Users/chelsea/OneDrive - Tarleton State University/psych 5316- adv/flanker test/JH subject-1.csv,legacy,Lentiform Loewenfeld,3.3.3,0,s,NA,s,NA,s,NA,549,NA,49317,NA,549,NA,2,legacy,1024,2,48000,-16,experiment,HHSHH,1,odd,135045,NA,NA,185759,184524,8392,NA,185863,185753,185863,57712,NA,NA,8380,NA,186416,Flanker Task,55,39865,61,yes,1024
90.32258065,90.32258065,652.5322581,652.5322581,black,legacy,legacy,legacy,0,congruent,uniform,1,undefined,1,h,61,61,0,61,61,0,0,61,61,61,0,0,0,0,0,61,Sun Sep 13 18:13:10 2020,1500,The main experiment item,yes,FlankerTask.osexp,C:/Users/chelsea/OneDrive - Tarleton State University/psych 5316- adv/flanker test,no,mono,no,18,no,white,no,yes,768,legacy,61,61,C:/Users/chelsea/OneDrive - Tarleton State University/psych 5316- adv/flanker test/JH subject-1.csv,legacy,Lentiform Loewenfeld,3.3.3,0,h,NA,s,NA,h,NA,592,NA,49317,NA,592,NA,2,legacy,1024,2,48000,-16,experiment,HHHHH,1,odd,135045,NA,NA,187701,186469,8392,NA,187805,187695,187805,57712,NA,NA,8380,NA,188400,Flanker Task,56,40457,62,yes,1024
90.47619048,90.47619048,653.984127,653.984127,black,legacy,legacy,legacy,0,incongruent,uniform,1,undefined,1,h,62,62,0,62,62,0,0,62,62,62,0,0,0,0,0,62,Sun Sep 13 18:13:10 2020,1500,The main experiment item,yes,FlankerTask.osexp,C:/Users/chelsea/OneDrive - Tarleton State University/psych 5316- adv/flanker test,no,mono,no,18,no,white,no,yes,768,legacy,62,62,C:/Users/chelsea/OneDrive - Tarleton State University/psych 5316- adv/flanker test/JH subject-1.csv,legacy,Lentiform Loewenfeld,3.3.3,0,h,NA,s,NA,h,NA,744,NA,49317,NA,744,NA,2,legacy,1024,2,48000,-16,experiment,SSHSS,1,odd,135045,NA,NA,189724,188498,8392,NA,189828,189719,189828,57712,NA,NA,8380,NA,190576,Flanker Task,57,41201,63,yes,1024
90.625,90.625,662.140625,662.140625,black,legacy,legacy,legacy,0,incongruent,uniform,1,undefined,1,s,63,63,0,63,63,0,0,63,63,63,0,0,0,0,0,63,Sun Sep 13 18:13:10 2020,1500,The main experiment item,yes,FlankerTask.osexp,C:/Users/chelsea/OneDrive - Tarleton State University/psych 5316- adv/flanker test,no,mono,no,18,no,white,no,yes,768,legacy,63,63,C:/Users/chelsea/OneDrive - Tarleton State University/psych 5316- adv/flanker test/JH subject-1.csv,legacy,Lentiform Loewenfeld,3.3.3,0,s,NA,s,NA,s,NA,1176,NA,49317,NA,1176,NA,2,legacy,1024,2,48000,-16,experiment,HHSHH,1,odd,135045,NA,NA,191892,190665,8392,NA,191996,191886,191996,57712,NA,NA,8380,NA,193176,Flanker Task,58,42377,64,yes,1024
90.76923077,90.76923077,666.4307692,666.4307692,black,legacy,legacy,legacy,0,incongruent,uniform,1,undefined,1,s,64,64,0,64,64,0,0,64,64,64,0,0,0,0,0,64,Sun Sep 13 18:13:10 2020,1500,The main experiment item,yes,FlankerTask.osexp,C:/Users/chelsea/OneDrive - Tarleton State University/psych 5316- adv/flanker test,no,mono,no,18,no,white,no,yes,768,legacy,64,64,C:/Users/chelsea/OneDrive - Tarleton State University/psych 5316- adv/flanker test/JH subject-1.csv,legacy,Lentiform Loewenfeld,3.3.3,0,s,NA,s,NA,s,NA,941,NA,49317,NA,941,NA,2,legacy,1024,2,48000,-16,experiment,HHSHH,1,odd,135045,NA,NA,194502,193276,8392,NA,194607,194497,194607,57712,NA,NA,8380,NA,195552,Flanker Task,59,43318,65,yes,1024
90.90909091,90.90909091,667.6060606,667.6060606,black,legacy,legacy,legacy,0,incongruent,uniform,1,undefined,1,s,65,65,0,65,65,0,0,65,65,65,0,0,0,0,0,65,Sun Sep 13 18:13:10 2020,1500,The main experiment item,yes,FlankerTask.osexp,C:/Users/chelsea/OneDrive - Tarleton State University/psych 5316- adv/flanker test,no,mono,no,18,no,white,no,yes,768,legacy,65,65,C:/Users/chelsea/OneDrive - Tarleton State University/psych 5316- adv/flanker test/JH subject-1.csv,legacy,Lentiform Loewenfeld,3.3.3,0,s,NA,s,NA,s,NA,744,NA,49317,NA,744,NA,2,legacy,1024,2,48000,-16,experiment,HHSHH,1,odd,135045,NA,NA,196844,195614,8392,NA,196949,196838,196949,57712,NA,NA,8380,NA,197697,Flanker Task,60,44062,66,yes,1024
91.04477612,91.04477612,666.0447761,666.0447761,black,legacy,legacy,legacy,0,congruent,uniform,1,undefined,1,s,66,66,0,66,66,0,0,66,66,66,0,0,0,0,0,66,Sun Sep 13 18:13:10 2020,1500,The main experiment item,yes,FlankerTask.osexp,C:/Users/chelsea/OneDrive - Tarleton State University/psych 5316- adv/flanker test,no,mono,no,18,no,white,no,yes,768,legacy,66,66,C:/Users/chelsea/OneDrive - Tarleton State University/psych 5316- adv/flanker test/JH subject-1.csv,legacy,Lentiform Loewenfeld,3.3.3,0,s,NA,s,NA,s,NA,563,NA,49317,NA,563,NA,2,legacy,1024,2,48000,-16,experiment,SSSSS,1,odd,135045,NA,NA,198994,197772,8392,NA,199098,198989,199098,57712,NA,NA,8380,NA,199665,Flanker Task,61,44625,67,yes,1024
91.17647059,91.17647059,664.9852941,664.9852941,black,legacy,legacy,legacy,0,incongruent,uniform,1,undefined,1,h,67,67,0,67,67,0,0,67,67,67,0,0,0,0,0,67,Sun Sep 13 18:13:10 2020,1500,The main experiment item,yes,FlankerTask.osexp,C:/Users/chelsea/OneDrive - Tarleton State University/psych 5316- adv/flanker test,no,mono,no,18,no,white,no,yes,768,legacy,67,67,C:/Users/chelsea/OneDrive - Tarleton State University/psych 5316- adv/flanker test/JH subject-1.csv,legacy,Lentiform Loewenfeld,3.3.3,0,h,NA,s,NA,h,NA,594,NA,49317,NA,594,NA,2,legacy,1024,2,48000,-16,experiment,SSHSS,1,odd,135045,NA,NA,200979,199736,8392,NA,201083,200974,201083,57712,NA,NA,8380,NA,201681,Flanker Task,62,45219,68,yes,1024
91.30434783,91.30434783,663.9275362,663.9275362,black,legacy,legacy,legacy,0,congruent,uniform,1,undefined,1,h,68,68,0,68,68,0,0,68,68,68,0,0,0,0,0,68,Sun Sep 13 18:13:10 2020,1500,The main experiment item,yes,FlankerTask.osexp,C:/Users/chelsea/OneDrive - Tarleton State University/psych 5316- adv/flanker test,no,mono,no,18,no,white,no,yes,768,legacy,68,68,C:/Users/chelsea/OneDrive - Tarleton State University/psych 5316- adv/flanker test/JH subject-1.csv,legacy,Lentiform Loewenfeld,3.3.3,0,h,NA,s,NA,h,NA,592,NA,49317,NA,592,NA,2,legacy,1024,2,48000,-16,experiment,HHHHH,1,odd,135045,NA,NA,202965,201735,8392,NA,203069,202960,203069,57712,NA,NA,8380,NA,203665,Flanker Task,63,45811,69,yes,1024
91.42857143,91.42857143,662.9571429,662.9571429,black,legacy,legacy,legacy,0,incongruent,uniform,1,undefined,1,h,69,69,0,69,69,0,0,69,69,69,0,0,0,0,0,69,Sun Sep 13 18:13:10 2020,1500,The main experiment item,yes,FlankerTask.osexp,C:/Users/chelsea/OneDrive - Tarleton State University/psych 5316- adv/flanker test,no,mono,no,18,no,white,no,yes,768,legacy,69,69,C:/Users/chelsea/OneDrive - Tarleton State University/psych 5316- adv/flanker test/JH subject-1.csv,legacy,Lentiform Loewenfeld,3.3.3,0,h,NA,s,NA,h,NA,596,NA,49317,NA,596,NA,2,legacy,1024,2,48000,-16,experiment,SSHSS,1,odd,135045,NA,NA,204936,203708,8392,NA,205041,204931,205041,57712,NA,NA,8380,NA,205641,Flanker Task,64,46407,70,yes,1024
91.54929577,91.54929577,661.1690141,661.1690141,black,legacy,legacy,legacy,0,congruent,uniform,1,undefined,1,s,70,70,0,70,70,0,0,70,70,70,0,0,0,0,0,70,Sun Sep 13 18:13:10 2020,1500,The main experiment item,yes,FlankerTask.osexp,C:/Users/chelsea/OneDrive - Tarleton State University/psych 5316- adv/flanker test,no,mono,no,18,no,white,no,yes,768,legacy,70,70,C:/Users/chelsea/OneDrive - Tarleton State University/psych 5316- adv/flanker test/JH subject-1.csv,legacy,Lentiform Loewenfeld,3.3.3,0,s,NA,s,NA,s,NA,536,NA,49317,NA,536,NA,2,legacy,1024,2,48000,-16,experiment,SSSSS,1,odd,135045,NA,NA,206933,205699,8392,NA,207037,206928,207037,57712,NA,NA,8380,NA,207577,Flanker Task,65,46943,71,yes,1024
91.66666667,91.66666667,658.6666667,658.6666667,black,legacy,legacy,legacy,0,congruent,uniform,1,undefined,1,h,71,71,0,71,71,0,0,71,71,71,0,0,0,0,0,71,Sun Sep 13 18:13:10 2020,1500,The main experiment item,yes,FlankerTask.osexp,C:/Users/chelsea/OneDrive - Tarleton State University/psych 5316- adv/flanker test,no,mono,no,18,no,white,no,yes,768,legacy,71,71,C:/Users/chelsea/OneDrive - Tarleton State University/psych 5316- adv/flanker test/JH subject-1.csv,legacy,Lentiform Loewenfeld,3.3.3,0,h,NA,s,NA,h,NA,481,NA,49317,NA,481,NA,2,legacy,1024,2,48000,-16,experiment,HHHHH,1,odd,135045,NA,NA,208844,207612,8392,NA,208948,208838,208948,57712,NA,NA,8380,NA,209433,Flanker Task,66,47424,72,yes,1024
91.78082192,91.78082192,664.1917808,664.1917808,black,legacy,legacy,legacy,0,incongruent,uniform,1,undefined,1,h,72,72,0,72,72,0,0,72,72,72,0,0,0,0,0,72,Sun Sep 13 18:13:10 2020,1500,The main experiment item,yes,FlankerTask.osexp,C:/Users/chelsea/OneDrive - Tarleton State University/psych 5316- adv/flanker test,no,mono,no,18,no,white,no,yes,768,legacy,72,72,C:/Users/chelsea/OneDrive - Tarleton State University/psych 5316- adv/flanker test/JH subject-1.csv,legacy,Lentiform Loewenfeld,3.3.3,0,h,NA,s,NA,h,NA,1062,NA,49317,NA,1062,NA,2,legacy,1024,2,48000,-16,experiment,SSHSS,1,odd,135045,NA,NA,210751,209496,8392,NA,210855,210745,210855,57712,NA,NA,8380,NA,211921,Flanker Task,67,48486,73,yes,1024
91.89189189,91.89189189,664.1216216,664.1216216,black,legacy,legacy,legacy,0,incongruent,uniform,1,undefined,1,h,73,73,0,73,73,0,0,73,73,73,0,0,0,0,0,73,Sun Sep 13 18:13:10 2020,1500,The main experiment item,yes,FlankerTask.osexp,C:/Users/chelsea/OneDrive - Tarleton State University/psych 5316- adv/flanker test,no,mono,no,18,no,white,no,yes,768,legacy,73,73,C:/Users/chelsea/OneDrive - Tarleton State University/psych 5316- adv/flanker test/JH subject-1.csv,legacy,Lentiform Loewenfeld,3.3.3,0,h,NA,s,NA,h,NA,659,NA,49317,NA,659,NA,2,legacy,1024,2,48000,-16,experiment,SSHSS,1,odd,135045,NA,NA,213218,211969,8392,NA,213322,213213,213322,57712,NA,NA,8380,NA,213985,Flanker Task,68,49145,74,yes,1024
92,92,671.2933333,671.2933333,black,legacy,legacy,legacy,0,congruent,uniform,1,undefined,1,h,74,74,0,74,74,0,0,74,74,74,0,0,0,0,0,74,Sun Sep 13 18:13:10 2020,1500,The main experiment item,yes,FlankerTask.osexp,C:/Users/chelsea/OneDrive - Tarleton State University/psych 5316- adv/flanker test,no,mono,no,18,no,white,no,yes,768,legacy,74,74,C:/Users/chelsea/OneDrive - Tarleton State University/psych 5316- adv/flanker test/JH subject-1.csv,legacy,Lentiform Loewenfeld,3.3.3,0,h,NA,s,NA,h,NA,1202,NA,49317,NA,1202,NA,2,legacy,1024,2,48000,-16,experiment,HHHHH,1,odd,135045,NA,NA,215281,214047,8392,NA,215387,215276,215386,57712,NA,NA,8380,NA,216593,Flanker Task,69,50347,75,yes,1024
92.10526316,92.10526316,671.8947368,671.8947368,black,legacy,legacy,legacy,0,incongruent,uniform,1,undefined,1,s,75,75,0,75,75,0,0,75,75,75,0,0,0,0,0,75,Sun Sep 13 18:13:10 2020,1500,The main experiment item,yes,FlankerTask.osexp,C:/Users/chelsea/OneDrive - Tarleton State University/psych 5316- adv/flanker test,no,mono,no,18,no,white,no,yes,768,legacy,75,75,C:/Users/chelsea/OneDrive - Tarleton State University/psych 5316- adv/flanker test/JH subject-1.csv,legacy,Lentiform Loewenfeld,3.3.3,0,s,NA,s,NA,s,NA,717,NA,49317,NA,717,NA,2,legacy,1024,2,48000,-16,experiment,HHSHH,1,odd,135045,NA,NA,217912,216668,8392,NA,218016,217907,218016,57712,NA,NA,8380,NA,218737,Flanker Task,70,51064,76,yes,1024
92.20779221,92.20779221,670.7792208,670.7792208,black,legacy,legacy,legacy,0,congruent,uniform,1,undefined,1,h,76,76,0,76,76,0,0,76,76,76,0,0,0,0,0,76,Sun Sep 13 18:13:10 2020,1500,The main experiment item,yes,FlankerTask.osexp,C:/Users/chelsea/OneDrive - Tarleton State University/psych 5316- adv/flanker test,no,mono,no,18,no,white,no,yes,768,legacy,76,76,C:/Users/chelsea/OneDrive - Tarleton State University/psych 5316- adv/flanker test/JH subject-1.csv,legacy,Lentiform Loewenfeld,3.3.3,0,h,NA,s,NA,h,NA,586,NA,49317,NA,586,NA,2,legacy,1024,2,48000,-16,experiment,HHHHH,1,odd,135045,NA,NA,220105,218802,8392,NA,220211,220098,220210,57712,NA,NA,8380,NA,220801,Flanker Task,71,51650,77,yes,1024
92.30769231,92.30769231,668.2948718,668.2948718,black,legacy,legacy,legacy,0,congruent,uniform,1,undefined,1,h,77,77,0,77,77,0,0,77,77,77,0,0,0,0,0,77,Sun Sep 13 18:13:10 2020,1500,The main experiment item,yes,FlankerTask.osexp,C:/Users/chelsea/OneDrive - Tarleton State University/psych 5316- adv/flanker test,no,mono,no,18,no,white,no,yes,768,legacy,77,77,C:/Users/chelsea/OneDrive - Tarleton State University/psych 5316- adv/flanker test/JH subject-1.csv,legacy,Lentiform Loewenfeld,3.3.3,0,h,NA,s,NA,h,NA,477,NA,49317,NA,477,NA,2,legacy,1024,2,48000,-16,experiment,HHHHH,1,odd,135045,NA,NA,222296,221062,8392,NA,222400,222291,222400,57712,NA,NA,8380,NA,222881,Flanker Task,72,52127,78,yes,1024
92.40506329,92.40506329,667.7341772,667.7341772,black,legacy,legacy,legacy,0,incongruent,uniform,1,undefined,1,s,78,78,0,78,78,0,0,78,78,78,0,0,0,0,0,78,Sun Sep 13 18:13:10 2020,1500,The main experiment item,yes,FlankerTask.osexp,C:/Users/chelsea/OneDrive - Tarleton State University/psych 5316- adv/flanker test,no,mono,no,18,no,white,no,yes,768,legacy,78,78,C:/Users/chelsea/OneDrive - Tarleton State University/psych 5316- adv/flanker test/JH subject-1.csv,legacy,Lentiform Loewenfeld,3.3.3,0,s,NA,s,NA,s,NA,624,NA,49317,NA,624,NA,2,legacy,1024,2,48000,-16,experiment,HHSHH,1,odd,135045,NA,NA,224197,222969,8392,NA,224301,224192,224301,57712,NA,NA,8380,NA,224930,Flanker Task,73,52751,79,yes,1024
92.5,92.5,667.3375,667.3375,black,legacy,legacy,legacy,0,congruent,uniform,1,undefined,1,s,79,79,0,79,79,0,0,79,79,79,0,0,0,0,0,79,Sun Sep 13 18:13:10 2020,1500,The main experiment item,yes,FlankerTask.osexp,C:/Users/chelsea/OneDrive - Tarleton State University/psych 5316- adv/flanker test,no,mono,no,18,no,white,no,yes,768,legacy,79,79,C:/Users/chelsea/OneDrive - Tarleton State University/psych 5316- adv/flanker test/JH subject-1.csv,legacy,Lentiform Loewenfeld,3.3.3,0,s,NA,s,NA,s,NA,636,NA,49317,NA,636,NA,2,legacy,1024,2,48000,-16,experiment,SSSSS,1,odd,135045,NA,NA,226225,224991,8392,NA,226329,226219,226329,57712,NA,NA,8380,NA,226970,Flanker Task,74,53387,80,yes,1024
92.59259259,92.59259259,667,667,black,legacy,legacy,legacy,0,incongruent,uniform,1,undefined,1,h,80,80,0,80,80,0,0,80,80,80,0,0,0,0,0,80,Sun Sep 13 18:13:10 2020,600,The main experiment item,yes,FlankerTask.osexp,C:/Users/chelsea/OneDrive - Tarleton State University/psych 5316- adv/flanker test,no,mono,no,18,no,white,no,yes,768,legacy,0,79,C:/Users/chelsea/OneDrive - Tarleton State University/psych 5316- adv/flanker test/JH subject-1.csv,legacy,Lentiform Loewenfeld,3.3.3,0,h,NA,s,NA,h,s,640,NA,49317,NA,640,41875,2,legacy,1024,2,48000,-16,experiment,SSHSS,1,odd,135045,NA,NA,270196,227030,8392,NA,270301,270192,270301,57712,269994,NA,8380,228114,270946,Flanker Task,75,54027,81,yes,1024
91.46341463,91.46341463,665.2926829,665.2926829,black,legacy,legacy,legacy,0,congruent,uniform,0,undefined,0,h,81,81,0,81,81,0,0,81,81,81,0,0,0,0,0,81,Sun Sep 13 18:13:10 2020,600,The main experiment item,yes,FlankerTask.osexp,C:/Users/chelsea/OneDrive - Tarleton State University/psych 5316- adv/flanker test,no,mono,no,18,no,white,no,yes,768,legacy,1,79,C:/Users/chelsea/OneDrive - Tarleton State University/psych 5316- adv/flanker test/JH subject-1.csv,legacy,Lentiform Loewenfeld,3.3.3,0,s,NA,s,NA,s,s,527,NA,49317,NA,527,41875,2,legacy,1024,2,48000,-16,experiment,HHHHH,1,odd,135045,271023,NA,272758,271528,8392,NA,272862,272752,272862,57712,269994,NA,8380,228114,273393,Flanker Task,75,54554,82,yes,1024
91.56626506,91.56626506,661.7951807,661.7951807,black,legacy,legacy,legacy,0,congruent,uniform,1,undefined,1,s,82,82,0,82,82,0,0,82,82,82,0,0,0,0,0,82,Sun Sep 13 18:13:10 2020,600,The main experiment item,yes,FlankerTask.osexp,C:/Users/chelsea/OneDrive - Tarleton State University/psych 5316- adv/flanker test,no,mono,no,18,no,white,no,yes,768,legacy,2,79,C:/Users/chelsea/OneDrive - Tarleton State University/psych 5316- adv/flanker test/JH subject-1.csv,legacy,Lentiform Loewenfeld,3.3.3,0,s,NA,s,NA,s,s,375,NA,49317,NA,375,41875,2,legacy,1024,2,48000,-16,experiment,SSSSS,1,odd,273425,271023,NA,275149,273929,8392,NA,275253,275143,275253,57712,269994,NA,8380,228114,275633,Flanker Task,76,54929,83,yes,1024
91.66666667,91.66666667,658.4761905,658.4761905,black,legacy,legacy,legacy,0,congruent,uniform,1,undefined,1,h,83,83,0,83,83,0,0,83,83,83,0,0,0,0,0,83,Sun Sep 13 18:13:10 2020,600,The main experiment item,yes,FlankerTask.osexp,C:/Users/chelsea/OneDrive - Tarleton State University/psych 5316- adv/flanker test,no,mono,no,18,no,white,no,yes,768,legacy,3,79,C:/Users/chelsea/OneDrive - Tarleton State University/psych 5316- adv/flanker test/JH subject-1.csv,legacy,Lentiform Loewenfeld,3.3.3,0,h,NA,s,NA,h,s,383,NA,49317,NA,383,41875,2,legacy,1024,2,48000,-16,experiment,HHHHH,1,odd,273425,271023,NA,276918,275690,8392,NA,277022,276912,277022,57712,269994,NA,8380,228114,277409,Flanker Task,77,55312,84,yes,1024
91.76470588,91.76470588,655.4117647,655.4117647,black,legacy,legacy,legacy,0,congruent,uniform,1,undefined,1,h,84,84,0,84,84,0,0,84,84,84,0,0,0,0,0,84,Sun Sep 13 18:13:10 2020,600,The main experiment item,yes,FlankerTask.osexp,C:/Users/chelsea/OneDrive - Tarleton State University/psych 5316- adv/flanker test,no,mono,no,18,no,white,no,yes,768,legacy,4,79,C:/Users/chelsea/OneDrive - Tarleton State University/psych 5316- adv/flanker test/JH subject-1.csv,legacy,Lentiform Loewenfeld,3.3.3,0,h,NA,s,NA,h,s,398,NA,49317,NA,398,41875,2,legacy,1024,2,48000,-16,experiment,HHHHH,1,odd,273425,271023,NA,278677,277448,8392,NA,278782,278672,278782,57712,269994,NA,8380,228114,279185,Flanker Task,78,55710,85,yes,1024
91.86046512,91.86046512,654.6046512,654.6046512,black,legacy,legacy,legacy,0,incongruent,uniform,1,undefined,1,s,85,85,0,85,85,0,0,85,85,85,0,0,0,0,0,85,Sun Sep 13 18:13:10 2020,600,The main experiment item,yes,FlankerTask.osexp,C:/Users/chelsea/OneDrive - Tarleton State University/psych 5316- adv/flanker test,no,mono,no,18,no,white,no,yes,768,legacy,5,79,C:/Users/chelsea/OneDrive - Tarleton State University/psych 5316- adv/flanker test/JH subject-1.csv,legacy,Lentiform Loewenfeld,3.3.3,0,s,NA,s,NA,s,s,586,NA,49317,NA,586,41875,2,legacy,1024,2,48000,-16,experiment,HHSHH,1,odd,273425,271023,NA,280489,279247,8392,NA,280603,280476,280602,57712,269994,NA,8380,228114,281194,Flanker Task,79,56296,86,yes,1024
91.95402299,91.95402299,653.7126437,653.7126437,black,legacy,legacy,legacy,0,incongruent,uniform,1,undefined,1,h,86,86,0,86,86,0,0,86,86,86,0,0,0,0,0,86,Sun Sep 13 18:13:10 2020,600,The main experiment item,yes,FlankerTask.osexp,C:/Users/chelsea/OneDrive - Tarleton State University/psych 5316- adv/flanker test,no,mono,no,18,no,white,no,yes,768,legacy,6,79,C:/Users/chelsea/OneDrive - Tarleton State University/psych 5316- adv/flanker test/JH subject-1.csv,legacy,Lentiform Loewenfeld,3.3.3,0,h,NA,s,NA,h,s,577,NA,49317,NA,577,41875,2,legacy,1024,2,48000,-16,experiment,SSHSS,1,odd,273425,271023,NA,282500,281258,8392,NA,282604,282495,282604,57712,269994,NA,8380,228114,283185,Flanker Task,80,56873,87,yes,1024
92.04545455,92.04545455,651.9204545,651.9204545,black,legacy,legacy,legacy,0,incongruent,uniform,1,undefined,1,h,87,87,0,87,87,0,0,87,87,87,0,0,0,0,0,87,Sun Sep 13 18:13:10 2020,600,The main experiment item,yes,FlankerTask.osexp,C:/Users/chelsea/OneDrive - Tarleton State University/psych 5316- adv/flanker test,no,mono,no,18,no,white,no,yes,768,legacy,7,79,C:/Users/chelsea/OneDrive - Tarleton State University/psych 5316- adv/flanker test/JH subject-1.csv,legacy,Lentiform Loewenfeld,3.3.3,0,h,NA,s,NA,h,s,496,NA,49317,NA,496,41875,2,legacy,1024,2,48000,-16,experiment,SSHSS,1,odd,273425,271023,NA,284461,283235,8392,NA,284565,284456,284565,57712,269994,NA,8380,228114,285066,Flanker Task,81,57369,88,yes,1024
92.13483146,92.13483146,648.741573,648.741573,black,legacy,legacy,legacy,0,congruent,uniform,1,undefined,1,s,88,88,0,88,88,0,0,88,88,88,0,0,0,0,0,88,Sun Sep 13 18:13:10 2020,600,The main experiment item,yes,FlankerTask.osexp,C:/Users/chelsea/OneDrive - Tarleton State University/psych 5316- adv/flanker test,no,mono,no,18,no,white,no,yes,768,legacy,8,79,C:/Users/chelsea/OneDrive - Tarleton State University/psych 5316- adv/flanker test/JH subject-1.csv,legacy,Lentiform Loewenfeld,3.3.3,0,s,NA,s,NA,s,s,369,NA,49317,NA,369,41875,2,legacy,1024,2,48000,-16,experiment,SSSSS,1,odd,273425,271023,NA,286395,285161,8392,NA,286500,286390,286500,57712,269994,NA,8380,228114,286874,Flanker Task,82,57738,89,yes,1024
92.22222222,92.22222222,646.1222222,646.1222222,black,legacy,legacy,legacy,0,congruent,uniform,1,undefined,1,s,89,89,0,89,89,0,0,89,89,89,0,0,0,0,0,89,Sun Sep 13 18:13:10 2020,600,The main experiment item,yes,FlankerTask.osexp,C:/Users/chelsea/OneDrive - Tarleton State University/psych 5316- adv/flanker test,no,mono,no,18,no,white,no,yes,768,legacy,9,79,C:/Users/chelsea/OneDrive - Tarleton State University/psych 5316- adv/flanker test/JH subject-1.csv,legacy,Lentiform Loewenfeld,3.3.3,0,s,NA,s,NA,s,s,413,NA,49317,NA,413,41875,2,legacy,1024,2,48000,-16,experiment,SSSSS,1,odd,273425,271023,NA,288175,286947,8392,NA,288280,288170,288280,57712,269994,NA,8380,228114,288698,Flanker Task,83,58151,90,yes,1024
92.30769231,92.30769231,643.7802198,643.7802198,black,legacy,legacy,legacy,0,congruent,uniform,1,undefined,1,s,90,90,0,90,90,0,0,90,90,90,0,0,0,0,0,90,Sun Sep 13 18:13:10 2020,600,The main experiment item,yes,FlankerTask.osexp,C:/Users/chelsea/OneDrive - Tarleton State University/psych 5316- adv/flanker test,no,mono,no,18,no,white,no,yes,768,legacy,10,79,C:/Users/chelsea/OneDrive - Tarleton State University/psych 5316- adv/flanker test/JH subject-1.csv,legacy,Lentiform Loewenfeld,3.3.3,0,s,NA,s,NA,s,s,433,NA,49317,NA,433,41875,2,legacy,1024,2,48000,-16,experiment,SSSSS,1,odd,273425,271023,NA,290020,288790,8392,NA,290124,290015,290124,57712,269994,NA,8380,228114,290561,Flanker Task,84,58584,91,yes,1024
92.39130435,92.39130435,643.6195652,643.6195652,black,legacy,legacy,legacy,0,incongruent,uniform,1,undefined,1,s,91,91,0,91,91,0,0,91,91,91,0,0,0,0,0,91,Sun Sep 13 18:13:10 2020,600,The main experiment item,yes,FlankerTask.osexp,C:/Users/chelsea/OneDrive - Tarleton State University/psych 5316- adv/flanker test,no,mono,no,18,no,white,no,yes,768,legacy,11,79,C:/Users/chelsea/OneDrive - Tarleton State University/psych 5316- adv/flanker test/JH subject-1.csv,legacy,Lentiform Loewenfeld,3.3.3,0,s,NA,s,NA,s,s,629,NA,49317,NA,629,41875,2,legacy,1024,2,48000,-16,experiment,HHSHH,1,odd,273425,271023,NA,291855,290625,8392,NA,291960,291849,291960,57712,269994,NA,8380,228114,292594,Flanker Task,85,59213,92,yes,1024
92.47311828,92.47311828,643.1935484,643.1935484,black,legacy,legacy,legacy,0,incongruent,uniform,1,undefined,1,h,92,92,0,92,92,0,0,92,92,92,0,0,0,0,0,92,Sun Sep 13 18:13:10 2020,600,The main experiment item,yes,FlankerTask.osexp,C:/Users/chelsea/OneDrive - Tarleton State University/psych 5316- adv/flanker test,no,mono,no,18,no,white,no,yes,768,legacy,12,79,C:/Users/chelsea/OneDrive - Tarleton State University/psych 5316- adv/flanker test/JH subject-1.csv,legacy,Lentiform Loewenfeld,3.3.3,0,h,NA,s,NA,h,s,604,NA,49317,NA,604,41875,2,legacy,1024,2,48000,-16,experiment,SSHSS,1,odd,273425,292693,NA,294424,293198,8392,NA,294529,294419,294529,57712,269994,NA,8380,228114,295138,Flanker Task,86,59817,93,yes,1024
92.55319149,92.55319149,643.1702128,643.1702128,black,legacy,legacy,legacy,0,congruent,uniform,1,undefined,1,h,93,93,0,93,93,0,0,93,93,93,0,0,0,0,0,93,Sun Sep 13 18:13:10 2020,600,The main experiment item,yes,FlankerTask.osexp,C:/Users/chelsea/OneDrive - Tarleton State University/psych 5316- adv/flanker test,no,mono,no,18,no,white,no,yes,768,legacy,13,79,C:/Users/chelsea/OneDrive - Tarleton State University/psych 5316- adv/flanker test/JH subject-1.csv,legacy,Lentiform Loewenfeld,3.3.3,0,h,NA,s,NA,h,s,641,NA,49317,NA,641,41875,2,legacy,1024,2,48000,-16,experiment,HHHHH,1,odd,273425,295259,NA,296995,295763,8392,NA,297099,296990,297099,57712,269994,NA,8380,228114,297746,Flanker Task,87,60458,94,yes,1024
92.63157895,92.63157895,640.8315789,640.8315789,black,legacy,legacy,legacy,0,congruent,uniform,1,undefined,1,s,94,94,0,94,94,0,0,94,94,94,0,0,0,0,0,94,Sun Sep 13 18:13:10 2020,600,The main experiment item,yes,FlankerTask.osexp,C:/Users/chelsea/OneDrive - Tarleton State University/psych 5316- adv/flanker test,no,mono,no,18,no,white,no,yes,768,legacy,14,79,C:/Users/chelsea/OneDrive - Tarleton State University/psych 5316- adv/flanker test/JH subject-1.csv,legacy,Lentiform Loewenfeld,3.3.3,0,s,NA,s,NA,s,s,421,NA,49317,NA,421,41875,2,legacy,1024,2,48000,-16,experiment,SSSSS,1,odd,273425,297839,NA,299576,298343,8392,NA,299680,299570,299680,57712,269994,NA,8380,228114,300106,Flanker Task,88,60879,95,yes,1024
92.70833333,92.70833333,639.1979167,639.1979167,black,legacy,legacy,legacy,0,incongruent,uniform,1,undefined,1,h,95,95,0,95,95,0,0,95,95,95,0,0,0,0,0,95,Sun Sep 13 18:13:10 2020,600,The main experiment item,yes,FlankerTask.osexp,C:/Users/chelsea/OneDrive - Tarleton State University/psych 5316- adv/flanker test,no,mono,no,18,no,white,no,yes,768,legacy,15,79,C:/Users/chelsea/OneDrive - Tarleton State University/psych 5316- adv/flanker test/JH subject-1.csv,legacy,Lentiform Loewenfeld,3.3.3,0,h,NA,s,NA,h,s,484,NA,49317,NA,484,41875,2,legacy,1024,2,48000,-16,experiment,SSHSS,1,odd,273425,297839,NA,301409,300171,8392,NA,301513,301403,301513,57712,269994,NA,8380,228114,302002,Flanker Task,89,61363,96,yes,1024
92.78350515,92.78350515,638.3814433,638.3814433,black,legacy,legacy,legacy,0,incongruent,uniform,1,undefined,1,s,96,96,0,96,96,0,0,96,96,96,0,0,0,0,0,96,Sun Sep 13 18:13:10 2020,600,The main experiment item,yes,FlankerTask.osexp,C:/Users/chelsea/OneDrive - Tarleton State University/psych 5316- adv/flanker test,no,mono,no,18,no,white,no,yes,768,legacy,16,79,C:/Users/chelsea/OneDrive - Tarleton State University/psych 5316- adv/flanker test/JH subject-1.csv,legacy,Lentiform Loewenfeld,3.3.3,0,s,NA,s,NA,s,s,560,NA,49317,NA,560,41875,2,legacy,1024,2,48000,-16,experiment,HHSHH,1,odd,273425,297839,NA,303341,302112,8392,NA,303445,303336,303445,57712,269994,NA,8380,228114,304011,Flanker Task,90,61923,97,yes,1024
92.85714286,92.85714286,636.1530612,636.1530612,black,legacy,legacy,legacy,0,congruent,uniform,1,undefined,1,h,97,97,0,97,97,0,0,97,97,97,0,0,0,0,0,97,Sun Sep 13 18:13:10 2020,600,The main experiment item,yes,FlankerTask.osexp,C:/Users/chelsea/OneDrive - Tarleton State University/psych 5316- adv/flanker test,no,mono,no,18,no,white,no,yes,768,legacy,17,79,C:/Users/chelsea/OneDrive - Tarleton State University/psych 5316- adv/flanker test/JH subject-1.csv,legacy,Lentiform Loewenfeld,3.3.3,0,h,NA,s,NA,h,s,420,NA,49317,NA,420,41875,2,legacy,1024,2,48000,-16,experiment,HHHHH,1,odd,273425,297839,NA,305321,304094,8392,NA,305425,305315,305425,57712,269994,NA,8380,228114,305851,Flanker Task,91,62343,98,yes,1024
92.92929293,92.92929293,634.4242424,634.4242424,black,legacy,legacy,legacy,0,congruent,uniform,1,undefined,1,h,98,98,0,98,98,0,0,98,98,98,0,0,0,0,0,98,Sun Sep 13 18:13:10 2020,600,The main experiment item,yes,FlankerTask.osexp,C:/Users/chelsea/OneDrive - Tarleton State University/psych 5316- adv/flanker test,no,mono,no,18,no,white,no,yes,768,legacy,18,79,C:/Users/chelsea/OneDrive - Tarleton State University/psych 5316- adv/flanker test/JH subject-1.csv,legacy,Lentiform Loewenfeld,3.3.3,0,h,NA,s,NA,h,s,465,NA,49317,NA,465,41875,2,legacy,1024,2,48000,-16,experiment,HHHHH,1,odd,273425,297839,NA,307196,305966,8392,NA,307300,307190,307300,57712,269994,NA,8380,228114,307770,Flanker Task,92,62808,99,yes,1024
93,93,632.78,632.78,black,legacy,legacy,legacy,0,congruent,uniform,1,undefined,1,h,99,99,0,99,99,0,0,99,99,99,0,0,0,0,0,99,Sun Sep 13 18:13:10 2020,600,The main experiment item,yes,FlankerTask.osexp,C:/Users/chelsea/OneDrive - Tarleton State University/psych 5316- adv/flanker test,no,mono,no,18,no,white,no,yes,768,legacy,19,79,C:/Users/chelsea/OneDrive - Tarleton State University/psych 5316- adv/flanker test/JH subject-1.csv,legacy,Lentiform Loewenfeld,3.3.3,0,h,NA,s,NA,h,s,470,NA,49317,NA,470,41875,2,legacy,1024,2,48000,-16,experiment,HHHHH,1,odd,273425,297839,NA,309103,307869,8392,NA,309207,309098,309207,57712,269994,NA,8380,228114,309682,Flanker Task,93,63278,100,yes,1024
93.06930693,93.06930693,630.6237624,630.6237624,black,legacy,legacy,legacy,0,incongruent,uniform,1,undefined,1,s,100,100,0,100,100,0,0,100,100,100,0,0,0,0,0,100,Sun Sep 13 18:13:10 2020,600,The main experiment item,yes,FlankerTask.osexp,C:/Users/chelsea/OneDrive - Tarleton State University/psych 5316- adv/flanker test,no,mono,no,18,no,white,no,yes,768,legacy,20,79,C:/Users/chelsea/OneDrive - Tarleton State University/psych 5316- adv/flanker test/JH subject-1.csv,legacy,Lentiform Loewenfeld,3.3.3,0,s,NA,s,NA,s,s,415,NA,49317,NA,415,41875,2,legacy,1024,2,48000,-16,experiment,HHSHH,1,odd,273425,297839,NA,311013,309780,8392,NA,311117,311008,311117,57712,269994,NA,8380,228114,311538,Flanker Task,94,63693,101,yes,1024
93.1372549,93.1372549,628.5,628.5,black,legacy,legacy,legacy,0,congruent,uniform,1,undefined,1,h,101,101,0,101,101,0,0,101,101,101,0,0,0,0,0,101,Sun Sep 13 18:13:10 2020,600,The main experiment item,yes,FlankerTask.osexp,C:/Users/chelsea/OneDrive - Tarleton State University/psych 5316- adv/flanker test,no,mono,no,18,no,white,no,yes,768,legacy,21,79,C:/Users/chelsea/OneDrive - Tarleton State University/psych 5316- adv/flanker test/JH subject-1.csv,legacy,Lentiform Loewenfeld,3.3.3,0,h,NA,s,NA,h,s,414,NA,49317,NA,414,41875,2,legacy,1024,2,48000,-16,experiment,HHHHH,1,odd,273425,297839,NA,312829,311596,8392,NA,312934,312824,312934,57712,269994,NA,8380,228114,313354,Flanker Task,95,64107,102,yes,1024
93.2038835,93.2038835,627.1650485,627.1650485,black,legacy,legacy,legacy,0,incongruent,uniform,1,undefined,1,s,102,102,0,102,102,0,0,102,102,102,0,0,0,0,0,102,Sun Sep 13 18:13:10 2020,600,The main experiment item,yes,FlankerTask.osexp,C:/Users/chelsea/OneDrive - Tarleton State University/psych 5316- adv/flanker test,no,mono,no,18,no,white,no,yes,768,legacy,22,79,C:/Users/chelsea/OneDrive - Tarleton State University/psych 5316- adv/flanker test/JH subject-1.csv,legacy,Lentiform Loewenfeld,3.3.3,0,s,NA,s,NA,s,s,491,NA,49317,NA,491,41875,2,legacy,1024,2,48000,-16,experiment,HHSHH,1,odd,273425,297839,NA,314650,313416,8392,NA,314754,314645,314754,57712,269994,NA,8380,228114,315250,Flanker Task,96,64598,103,yes,1024
93.26923077,93.26923077,625.0961538,625.0961538,black,legacy,legacy,legacy,0,congruent,uniform,1,undefined,1,h,103,103,0,103,103,0,0,103,103,103,0,0,0,0,0,103,Sun Sep 13 18:13:10 2020,600,The main experiment item,yes,FlankerTask.osexp,C:/Users/chelsea/OneDrive - Tarleton State University/psych 5316- adv/flanker test,no,mono,no,18,no,white,no,yes,768,legacy,23,79,C:/Users/chelsea/OneDrive - Tarleton State University/psych 5316- adv/flanker test/JH subject-1.csv,legacy,Lentiform Loewenfeld,3.3.3,0,h,NA,s,NA,h,s,412,NA,49317,NA,412,41875,2,legacy,1024,2,48000,-16,experiment,HHHHH,1,odd,273425,297839,NA,316565,315336,8392,NA,316669,316559,316669,57712,269994,NA,8380,228114,317087,Flanker Task,97,65010,104,yes,1024
92.38095238,92.38095238,622.0761905,622.0761905,black,legacy,legacy,legacy,0,incongruent,uniform,0,undefined,0,h,104,104,0,104,104,0,0,104,104,104,0,0,0,0,0,104,Sun Sep 13 18:13:10 2020,600,The main experiment item,yes,FlankerTask.osexp,C:/Users/chelsea/OneDrive - Tarleton State University/psych 5316- adv/flanker test,no,mono,no,18,no,white,no,yes,768,legacy,24,79,C:/Users/chelsea/OneDrive - Tarleton State University/psych 5316- adv/flanker test/JH subject-1.csv,legacy,Lentiform Loewenfeld,3.3.3,0,s,NA,s,NA,s,s,308,NA,49317,NA,308,41875,2,legacy,1024,2,48000,-16,experiment,SSHSS,1,odd,273425,297839,NA,318400,317136,8392,NA,318504,318394,318504,57712,269994,NA,8380,228114,318818,Flanker Task,97,65318,105,yes,1024
92.45283019,92.45283019,620.7830189,620.7830189,black,legacy,legacy,legacy,0,incongruent,uniform,1,undefined,1,h,105,105,0,105,105,0,0,105,105,105,0,0,0,0,0,105,Sun Sep 13 18:13:10 2020,600,The main experiment item,yes,FlankerTask.osexp,C:/Users/chelsea/OneDrive - Tarleton State University/psych 5316- adv/flanker test,no,mono,no,18,no,white,no,yes,768,legacy,25,79,C:/Users/chelsea/OneDrive - Tarleton State University/psych 5316- adv/flanker test/JH subject-1.csv,legacy,Lentiform Loewenfeld,3.3.3,0,h,NA,s,NA,h,s,485,NA,49317,NA,485,41875,2,legacy,1024,2,48000,-16,experiment,SSHSS,1,odd,318914,297839,NA,320647,319418,8392,NA,320752,320642,320752,57712,269994,NA,8380,228114,321242,Flanker Task,98,65803,106,yes,1024
92.52336449,92.52336449,618.9813084,618.9813084,black,legacy,legacy,legacy,0,incongruent,uniform,1,undefined,1,h,106,106,0,106,106,0,0,106,106,106,0,0,0,0,0,106,Sun Sep 13 18:13:10 2020,600,The main experiment item,yes,FlankerTask.osexp,C:/Users/chelsea/OneDrive - Tarleton State University/psych 5316- adv/flanker test,no,mono,no,18,no,white,no,yes,768,legacy,26,79,C:/Users/chelsea/OneDrive - Tarleton State University/psych 5316- adv/flanker test/JH subject-1.csv,legacy,Lentiform Loewenfeld,3.3.3,0,h,NA,s,NA,h,s,428,NA,49317,NA,428,41875,2,legacy,1024,2,48000,-16,experiment,SSHSS,1,odd,318914,297839,NA,322544,321310,8392,NA,322649,322539,322649,57712,269994,NA,8380,228114,323083,Flanker Task,99,66231,107,yes,1024
92.59259259,92.59259259,617.8796296,617.8796296,black,legacy,legacy,legacy,0,incongruent,uniform,1,undefined,1,h,107,107,0,107,107,0,0,107,107,107,0,0,0,0,0,107,Sun Sep 13 18:13:10 2020,600,The main experiment item,yes,FlankerTask.osexp,C:/Users/chelsea/OneDrive - Tarleton State University/psych 5316- adv/flanker test,no,mono,no,18,no,white,no,yes,768,legacy,27,79,C:/Users/chelsea/OneDrive - Tarleton State University/psych 5316- adv/flanker test/JH subject-1.csv,legacy,Lentiform Loewenfeld,3.3.3,0,h,NA,s,NA,h,s,500,NA,49317,NA,500,41875,2,legacy,1024,2,48000,-16,experiment,SSHSS,1,odd,318914,297839,NA,324384,323139,8392,NA,324489,324379,324489,57712,269994,NA,8380,228114,324995,Flanker Task,100,66731,108,yes,1024
92.66055046,92.66055046,617.5229358,617.5229358,black,legacy,legacy,legacy,0,incongruent,uniform,1,undefined,1,s,108,108,0,108,108,0,0,108,108,108,0,0,0,0,0,108,Sun Sep 13 18:13:10 2020,600,The main experiment item,yes,FlankerTask.osexp,C:/Users/chelsea/OneDrive - Tarleton State University/psych 5316- adv/flanker test,no,mono,no,18,no,white,no,yes,768,legacy,28,79,C:/Users/chelsea/OneDrive - Tarleton State University/psych 5316- adv/flanker test/JH subject-1.csv,legacy,Lentiform Loewenfeld,3.3.3,0,s,NA,s,NA,s,s,579,NA,49317,NA,579,41875,2,legacy,1024,2,48000,-16,experiment,HHSHH,1,odd,318914,297839,NA,326345,325122,8392,NA,326450,326340,326450,57712,269994,NA,8380,228114,327035,Flanker Task,101,67310,109,yes,1024
92.72727273,92.72727273,616.6181818,616.6181818,black,legacy,legacy,legacy,0,incongruent,uniform,1,undefined,1,h,109,109,0,109,109,0,0,109,109,109,0,0,0,0,0,109,Sun Sep 13 18:13:10 2020,600,The main experiment item,yes,FlankerTask.osexp,C:/Users/chelsea/OneDrive - Tarleton State University/psych 5316- adv/flanker test,no,mono,no,18,no,white,no,yes,768,legacy,29,79,C:/Users/chelsea/OneDrive - Tarleton State University/psych 5316- adv/flanker test/JH subject-1.csv,legacy,Lentiform Loewenfeld,3.3.3,0,h,NA,s,NA,h,s,518,NA,49317,NA,518,41875,2,legacy,1024,2,48000,-16,experiment,SSHSS,1,odd,318914,297839,NA,328398,327149,8392,NA,328503,328393,328503,57712,269994,NA,8380,228114,329028,Flanker Task,102,67828,110,yes,1024
92.79279279,92.79279279,616.8288288,616.8288288,black,legacy,legacy,legacy,0,incongruent,uniform,1,undefined,1,s,110,110,0,110,110,0,0,110,110,110,0,0,0,0,0,110,Sun Sep 13 18:13:10 2020,600,The main experiment item,yes,FlankerTask.osexp,C:/Users/chelsea/OneDrive - Tarleton State University/psych 5316- adv/flanker test,no,mono,no,18,no,white,no,yes,768,legacy,30,79,C:/Users/chelsea/OneDrive - Tarleton State University/psych 5316- adv/flanker test/JH subject-1.csv,legacy,Lentiform Loewenfeld,3.3.3,0,s,NA,s,NA,s,s,640,NA,49317,NA,640,41875,2,legacy,1024,2,48000,-16,experiment,HHSHH,1,odd,318914,297839,NA,330428,329194,8392,NA,330532,330423,330532,57712,269994,NA,8380,228114,331178,Flanker Task,103,68468,111,yes,1024
92.85714286,92.85714286,616.9732143,616.9732143,black,legacy,legacy,legacy,0,congruent,uniform,1,undefined,1,s,111,111,0,111,111,0,0,111,111,111,0,0,0,0,0,111,Sun Sep 13 18:13:10 2020,600,The main experiment item,yes,FlankerTask.osexp,C:/Users/chelsea/OneDrive - Tarleton State University/psych 5316- adv/flanker test,no,mono,no,18,no,white,no,yes,768,legacy,31,79,C:/Users/chelsea/OneDrive - Tarleton State University/psych 5316- adv/flanker test/JH subject-1.csv,legacy,Lentiform Loewenfeld,3.3.3,0,s,NA,s,NA,s,s,633,NA,49317,NA,633,41875,2,legacy,1024,2,48000,-16,experiment,SSSSS,1,odd,318914,331226,NA,332954,331730,8392,NA,333059,332949,333059,57712,269994,NA,8380,228114,333698,Flanker Task,104,69101,112,yes,1024
92.92035398,92.92035398,616.2212389,616.2212389,black,legacy,legacy,legacy,0,incongruent,uniform,1,undefined,1,s,112,112,0,112,112,0,0,112,112,112,0,0,0,0,0,112,Sun Sep 13 18:13:10 2020,600,The main experiment item,yes,FlankerTask.osexp,C:/Users/chelsea/OneDrive - Tarleton State University/psych 5316- adv/flanker test,no,mono,no,18,no,white,no,yes,768,legacy,32,79,C:/Users/chelsea/OneDrive - Tarleton State University/psych 5316- adv/flanker test/JH subject-1.csv,legacy,Lentiform Loewenfeld,3.3.3,0,s,NA,s,NA,s,s,532,NA,49317,NA,532,41875,2,legacy,1024,2,48000,-16,experiment,HHSHH,1,odd,318914,333760,NA,335488,334264,8392,NA,335592,335482,335592,57712,269994,NA,8380,228114,336131,Flanker Task,105,69633,113,yes,1024
92.10526316,92.10526316,614.4035088,614.4035088,black,legacy,legacy,legacy,0,incongruent,uniform,0,undefined,0,h,113,113,0,113,113,0,0,113,113,113,0,0,0,0,0,113,Sun Sep 13 18:13:10 2020,600,The main experiment item,yes,FlankerTask.osexp,C:/Users/chelsea/OneDrive - Tarleton State University/psych 5316- adv/flanker test,no,mono,no,18,no,white,no,yes,768,legacy,33,79,C:/Users/chelsea/OneDrive - Tarleton State University/psych 5316- adv/flanker test/JH subject-1.csv,legacy,Lentiform Loewenfeld,3.3.3,0,s,NA,s,NA,s,s,409,NA,49317,NA,409,41875,2,legacy,1024,2,48000,-16,experiment,SSHSS,1,odd,318914,333760,NA,337514,336281,8392,NA,337619,337509,337619,57712,269994,NA,8380,228114,338035,Flanker Task,105,70042,114,yes,1024
92.17391304,92.17391304,613.7391304,613.7391304,black,legacy,legacy,legacy,0,incongruent,uniform,1,undefined,1,s,114,114,0,114,114,0,0,114,114,114,0,0,0,0,0,114,Sun Sep 13 18:13:10 2020,600,The main experiment item,yes,FlankerTask.osexp,C:/Users/chelsea/OneDrive - Tarleton State University/psych 5316- adv/flanker test,no,mono,no,18,no,white,no,yes,768,legacy,34,79,C:/Users/chelsea/OneDrive - Tarleton State University/psych 5316- adv/flanker test/JH subject-1.csv,legacy,Lentiform Loewenfeld,3.3.3,0,s,NA,s,NA,s,s,538,NA,49317,NA,538,41875,2,legacy,1024,2,48000,-16,experiment,HHSHH,1,odd,338104,333760,NA,339842,338609,8392,NA,339946,339836,339946,57712,269994,NA,8380,228114,340490,Flanker Task,106,70580,115,yes,1024
92.24137931,92.24137931,612.1810345,612.1810345,black,legacy,legacy,legacy,0,congruent,uniform,1,undefined,1,h,115,115,0,115,115,0,0,115,115,115,0,0,0,0,0,115,Sun Sep 13 18:13:10 2020,600,The main experiment item,yes,FlankerTask.osexp,C:/Users/chelsea/OneDrive - Tarleton State University/psych 5316- adv/flanker test,no,mono,no,18,no,white,no,yes,768,legacy,35,79,C:/Users/chelsea/OneDrive - Tarleton State University/psych 5316- adv/flanker test/JH subject-1.csv,legacy,Lentiform Loewenfeld,3.3.3,0,h,NA,s,NA,h,s,433,NA,49317,NA,433,41875,2,legacy,1024,2,48000,-16,experiment,HHHHH,1,odd,338104,333760,NA,341851,340626,8392,NA,341955,341846,341955,57712,269994,NA,8380,228114,342395,Flanker Task,107,71013,116,yes,1024
92.30769231,92.30769231,611.1880342,611.1880342,black,legacy,legacy,legacy,0,congruent,uniform,1,undefined,1,s,116,116,0,116,116,0,0,116,116,116,0,0,0,0,0,116,Sun Sep 13 18:13:10 2020,600,The main experiment item,yes,FlankerTask.osexp,C:/Users/chelsea/OneDrive - Tarleton State University/psych 5316- adv/flanker test,no,mono,no,18,no,white,no,yes,768,legacy,36,79,C:/Users/chelsea/OneDrive - Tarleton State University/psych 5316- adv/flanker test/JH subject-1.csv,legacy,Lentiform Loewenfeld,3.3.3,0,s,NA,s,NA,s,s,496,NA,49317,NA,496,41875,2,legacy,1024,2,48000,-16,experiment,SSSSS,1,odd,338104,333760,NA,343708,342482,8392,NA,343812,343702,343812,57712,269994,NA,8380,228114,344315,Flanker Task,108,71509,117,yes,1024
92.37288136,92.37288136,609.8135593,609.8135593,black,legacy,legacy,legacy,0,congruent,uniform,1,undefined,1,h,117,117,0,117,117,0,0,117,117,117,0,0,0,0,0,117,Sun Sep 13 18:13:10 2020,600,The main experiment item,yes,FlankerTask.osexp,C:/Users/chelsea/OneDrive - Tarleton State University/psych 5316- adv/flanker test,no,mono,no,18,no,white,no,yes,768,legacy,37,79,C:/Users/chelsea/OneDrive - Tarleton State University/psych 5316- adv/flanker test/JH subject-1.csv,legacy,Lentiform Loewenfeld,3.3.3,0,h,NA,s,NA,h,s,449,NA,49317,NA,449,41875,2,legacy,1024,2,48000,-16,experiment,HHHHH,1,odd,338104,333760,NA,345627,344382,8392,NA,345731,345621,345731,57712,269994,NA,8380,228114,346186,Flanker Task,109,71958,118,yes,1024
92.43697479,92.43697479,609.8655462,609.8655462,black,legacy,legacy,legacy,0,incongruent,uniform,1,undefined,1,h,118,118,0,118,118,0,0,118,118,118,0,0,0,0,0,118,Sun Sep 13 18:13:10 2020,600,The main experiment item,yes,FlankerTask.osexp,C:/Users/chelsea/OneDrive - Tarleton State University/psych 5316- adv/flanker test,no,mono,no,18,no,white,no,yes,768,legacy,38,79,C:/Users/chelsea/OneDrive - Tarleton State University/psych 5316- adv/flanker test/JH subject-1.csv,legacy,Lentiform Loewenfeld,3.3.3,0,h,NA,s,NA,h,s,616,NA,49317,NA,616,41875,2,legacy,1024,2,48000,-16,experiment,SSHSS,1,odd,338104,333760,NA,347524,346293,8392,NA,347628,347519,347628,57712,269994,NA,8380,228114,348250,Flanker Task,110,72574,119,yes,1024
92.5,92.5,608.3583333,608.3583333,black,legacy,legacy,legacy,0,congruent,uniform,1,undefined,1,s,119,119,0,119,119,0,0,119,119,119,0,0,0,0,0,119,Sun Sep 13 18:13:10 2020,600,The main experiment item,yes,FlankerTask.osexp,C:/Users/chelsea/OneDrive - Tarleton State University/psych 5316- adv/flanker test,no,mono,no,18,no,white,no,yes,768,legacy,39,79,C:/Users/chelsea/OneDrive - Tarleton State University/psych 5316- adv/flanker test/JH subject-1.csv,legacy,Lentiform Loewenfeld,3.3.3,0,s,NA,s,NA,s,s,429,NA,49317,NA,429,41875,2,legacy,1024,2,48000,-16,experiment,SSSSS,1,odd,338104,348338,NA,350071,348842,8392,NA,350175,350066,350175,57712,269994,NA,8380,228114,350610,Flanker Task,111,73003,120,yes,1024
92.56198347,92.56198347,607.6363636,607.6363636,black,legacy,legacy,legacy,0,incongruent,uniform,1,undefined,1,h,120,120,0,120,120,0,0,120,120,120,0,0,0,0,0,120,Sun Sep 13 18:13:10 2020,600,The main experiment item,yes,FlankerTask.osexp,C:/Users/chelsea/OneDrive - Tarleton State University/psych 5316- adv/flanker test,no,mono,no,18,no,white,no,yes,768,legacy,40,79,C:/Users/chelsea/OneDrive - Tarleton State University/psych 5316- adv/flanker test/JH subject-1.csv,legacy,Lentiform Loewenfeld,3.3.3,0,h,NA,s,NA,h,s,521,NA,49317,NA,521,41875,2,legacy,1024,2,48000,-16,experiment,SSHSS,1,odd,338104,348338,NA,351938,350715,8392,NA,352043,351933,352043,57712,269994,NA,8380,228114,352571,Flanker Task,112,73524,121,yes,1024
92.62295082,92.62295082,606.704918,606.704918,black,legacy,legacy,legacy,0,congruent,uniform,1,undefined,1,s,121,121,0,121,121,0,0,121,121,121,0,0,0,0,0,121,Sun Sep 13 18:13:10 2020,600,The main experiment item,yes,FlankerTask.osexp,C:/Users/chelsea/OneDrive - Tarleton State University/psych 5316- adv/flanker test,no,mono,no,18,no,white,no,yes,768,legacy,41,79,C:/Users/chelsea/OneDrive - Tarleton State University/psych 5316- adv/flanker test/JH subject-1.csv,legacy,Lentiform Loewenfeld,3.3.3,0,s,NA,s,NA,s,s,494,NA,49317,NA,494,41875,2,legacy,1024,2,48000,-16,experiment,SSSSS,1,odd,338104,348338,NA,353894,352665,8392,NA,353998,353889,353998,57712,269994,NA,8380,228114,354498,Flanker Task,113,74018,122,yes,1024
92.68292683,92.68292683,606.3739837,606.3739837,black,legacy,legacy,legacy,0,incongruent,uniform,1,undefined,1,s,122,122,0,122,122,0,0,122,122,122,0,0,0,0,0,122,Sun Sep 13 18:13:10 2020,600,The main experiment item,yes,FlankerTask.osexp,C:/Users/chelsea/OneDrive - Tarleton State University/psych 5316- adv/flanker test,no,mono,no,18,no,white,no,yes,768,legacy,42,79,C:/Users/chelsea/OneDrive - Tarleton State University/psych 5316- adv/flanker test/JH subject-1.csv,legacy,Lentiform Loewenfeld,3.3.3,0,s,NA,s,NA,s,s,566,NA,49317,NA,566,41875,2,legacy,1024,2,48000,-16,experiment,HHSHH,1,odd,338104,348338,NA,355798,354571,8392,NA,355902,355793,355902,57712,269994,NA,8380,228114,356474,Flanker Task,114,74584,123,yes,1024
92.74193548,92.74193548,605.5483871,605.5483871,black,legacy,legacy,legacy,0,congruent,uniform,1,undefined,1,s,123,123,0,123,123,0,0,123,123,123,0,0,0,0,0,123,Sun Sep 13 18:13:10 2020,600,The main experiment item,yes,FlankerTask.osexp,C:/Users/chelsea/OneDrive - Tarleton State University/psych 5316- adv/flanker test,no,mono,no,18,no,white,no,yes,768,legacy,43,79,C:/Users/chelsea/OneDrive - Tarleton State University/psych 5316- adv/flanker test/JH subject-1.csv,legacy,Lentiform Loewenfeld,3.3.3,0,s,NA,s,NA,s,s,504,NA,49317,NA,504,41875,2,legacy,1024,2,48000,-16,experiment,SSSSS,1,odd,338104,348338,NA,357779,356560,8392,NA,357884,357774,357884,57712,269994,NA,8380,228114,358394,Flanker Task,115,75088,124,yes,1024
92.8,92.8,605.84,605.84,black,legacy,legacy,legacy,0,congruent,uniform,1,undefined,1,s,124,124,0,124,124,0,0,124,124,124,0,0,0,0,0,124,Sun Sep 13 18:13:10 2020,600,The main experiment item,yes,FlankerTask.osexp,C:/Users/chelsea/OneDrive - Tarleton State University/psych 5316- adv/flanker test,no,mono,no,18,no,white,no,yes,768,legacy,44,79,C:/Users/chelsea/OneDrive - Tarleton State University/psych 5316- adv/flanker test/JH subject-1.csv,legacy,Lentiform Loewenfeld,3.3.3,0,s,NA,s,NA,s,s,642,NA,49317,NA,642,41875,2,legacy,1024,2,48000,-16,experiment,SSSSS,1,odd,338104,348338,NA,359690,358461,8392,NA,359794,359685,359794,57712,269994,NA,8380,228114,360443,Flanker Task,116,75730,125,yes,1024
92.06349206,92.06349206,604.1111111,604.1111111,black,legacy,legacy,legacy,0,incongruent,uniform,0,undefined,0,s,125,125,0,125,125,0,0,125,125,125,0,0,0,0,0,125,Sun Sep 13 18:13:10 2020,600,The main experiment item,yes,FlankerTask.osexp,C:/Users/chelsea/OneDrive - Tarleton State University/psych 5316- adv/flanker test,no,mono,no,18,no,white,no,yes,768,legacy,45,79,C:/Users/chelsea/OneDrive - Tarleton State University/psych 5316- adv/flanker test/JH subject-1.csv,legacy,Lentiform Loewenfeld,3.3.3,0,h,NA,s,NA,h,s,388,NA,49317,NA,388,41875,2,legacy,1024,2,48000,-16,experiment,HHSHH,1,odd,338104,360543,NA,362272,361048,8392,NA,362376,362266,362376,57712,269994,NA,8380,228114,362771,Flanker Task,116,76118,126,yes,1024
91.33858268,91.33858268,601.9291339,601.9291339,black,legacy,legacy,legacy,0,incongruent,uniform,0,undefined,0,h,126,126,0,126,126,0,0,126,126,126,0,0,0,0,0,126,Sun Sep 13 18:13:10 2020,600,The main experiment item,yes,FlankerTask.osexp,C:/Users/chelsea/OneDrive - Tarleton State University/psych 5316- adv/flanker test,no,mono,no,18,no,white,no,yes,768,legacy,46,79,C:/Users/chelsea/OneDrive - Tarleton State University/psych 5316- adv/flanker test/JH subject-1.csv,legacy,Lentiform Loewenfeld,3.3.3,0,s,NA,s,NA,s,s,327,NA,49317,NA,327,41875,2,legacy,1024,2,48000,-16,experiment,SSHSS,1,odd,362931,360543,NA,364661,363435,8392,NA,364765,364656,364765,57712,269994,NA,8380,228114,365099,Flanker Task,116,76445,127,yes,1024
91.40625,91.40625,599.9296875,599.9296875,black,legacy,legacy,legacy,0,congruent,uniform,1,undefined,1,h,127,127,0,127,127,0,0,127,127,127,0,0,0,0,0,127,Sun Sep 13 18:13:10 2020,600,The main experiment item,yes,FlankerTask.osexp,C:/Users/chelsea/OneDrive - Tarleton State University/psych 5316- adv/flanker test,no,mono,no,18,no,white,no,yes,768,legacy,47,79,C:/Users/chelsea/OneDrive - Tarleton State University/psych 5316- adv/flanker test/JH subject-1.csv,legacy,Lentiform Loewenfeld,3.3.3,0,h,NA,s,NA,h,s,346,NA,49317,NA,346,41875,2,legacy,1024,2,48000,-16,experiment,HHHHH,1,odd,365193,360543,NA,366921,365698,8392,NA,367026,366916,367026,57712,269994,NA,8380,228114,367379,Flanker Task,117,76791,128,yes,1024
91.47286822,91.47286822,599.9302326,599.9302326,black,legacy,legacy,legacy,0,incongruent,uniform,1,undefined,1,h,128,128,0,128,128,0,0,128,128,128,0,0,0,0,0,128,Sun Sep 13 18:13:10 2020,600,The main experiment item,yes,FlankerTask.osexp,C:/Users/chelsea/OneDrive - Tarleton State University/psych 5316- adv/flanker test,no,mono,no,18,no,white,no,yes,768,legacy,48,79,C:/Users/chelsea/OneDrive - Tarleton State University/psych 5316- adv/flanker test/JH subject-1.csv,legacy,Lentiform Loewenfeld,3.3.3,0,h,NA,s,NA,h,s,600,NA,49317,NA,600,41875,2,legacy,1024,2,48000,-16,experiment,SSHSS,1,odd,365193,360543,NA,368692,367463,8392,NA,368796,368686,368796,57712,269994,NA,8380,228114,369403,Flanker Task,118,77391,129,yes,1024
91.53846154,91.53846154,600.3846154,600.3846154,black,legacy,legacy,legacy,0,incongruent,uniform,1,undefined,1,h,129,129,0,129,129,0,0,129,129,129,0,0,0,0,0,129,Sun Sep 13 18:13:10 2020,600,The main experiment item,yes,FlankerTask.osexp,C:/Users/chelsea/OneDrive - Tarleton State University/psych 5316- adv/flanker test,no,mono,no,18,no,white,no,yes,768,legacy,49,79,C:/Users/chelsea/OneDrive - Tarleton State University/psych 5316- adv/flanker test/JH subject-1.csv,legacy,Lentiform Loewenfeld,3.3.3,0,h,NA,s,NA,h,s,659,NA,49317,NA,659,41875,2,legacy,1024,2,48000,-16,experiment,SSHSS,1,odd,365193,360543,NA,370753,369523,8392,NA,370857,370748,370857,57712,269994,NA,8380,228114,371523,Flanker Task,119,78050,130,yes,1024
91.60305344,91.60305344,599.5419847,599.5419847,black,legacy,legacy,legacy,0,incongruent,uniform,1,undefined,1,h,130,130,0,130,130,0,0,130,130,130,0,0,0,0,0,130,Sun Sep 13 18:13:10 2020,600,The main experiment item,yes,FlankerTask.osexp,C:/Users/chelsea/OneDrive - Tarleton State University/psych 5316- adv/flanker test,no,mono,no,18,no,white,no,yes,768,legacy,50,79,C:/Users/chelsea/OneDrive - Tarleton State University/psych 5316- adv/flanker test/JH subject-1.csv,legacy,Lentiform Loewenfeld,3.3.3,0,h,NA,s,NA,h,s,490,NA,49317,NA,490,41875,2,legacy,1024,2,48000,-16,experiment,SSHSS,1,odd,365193,371571,NA,373298,372075,8392,NA,373402,373292,373402,57712,269994,NA,8380,228114,373899,Flanker Task,120,78540,131,yes,1024
91.66666667,91.66666667,599.5984848,599.5984848,black,legacy,legacy,legacy,0,incongruent,uniform,1,undefined,1,s,131,131,0,131,131,0,0,131,131,131,0,0,0,0,0,131,Sun Sep 13 18:13:10 2020,600,The main experiment item,yes,FlankerTask.osexp,C:/Users/chelsea/OneDrive - Tarleton State University/psych 5316- adv/flanker test,no,mono,no,18,no,white,no,yes,768,legacy,51,79,C:/Users/chelsea/OneDrive - Tarleton State University/psych 5316- adv/flanker test/JH subject-1.csv,legacy,Lentiform Loewenfeld,3.3.3,0,s,NA,s,NA,s,s,607,NA,49317,NA,607,41875,2,legacy,1024,2,48000,-16,experiment,HHSHH,1,odd,365193,371571,NA,375196,373971,8392,NA,375301,375191,375301,57712,269994,NA,8380,228114,375915,Flanker Task,121,79147,132,yes,1024
91.72932331,91.72932331,597.5338346,597.5338346,black,legacy,legacy,legacy,0,congruent,uniform,1,undefined,1,h,132,132,0,132,132,0,0,132,132,132,0,0,0,0,0,132,Sun Sep 13 18:13:10 2020,600,The main experiment item,yes,FlankerTask.osexp,C:/Users/chelsea/OneDrive - Tarleton State University/psych 5316- adv/flanker test,no,mono,no,18,no,white,no,yes,768,legacy,52,79,C:/Users/chelsea/OneDrive - Tarleton State University/psych 5316- adv/flanker test/JH subject-1.csv,legacy,Lentiform Loewenfeld,3.3.3,0,h,NA,s,NA,h,s,325,NA,49317,NA,325,41875,2,legacy,1024,2,48000,-16,experiment,HHHHH,1,odd,365193,375993,NA,377719,376498,8392,NA,377831,377714,377831,57712,269994,NA,8380,228114,378163,Flanker Task,122,79472,133,yes,1024
91.79104478,91.79104478,596.9402985,596.9402985,black,legacy,legacy,legacy,0,incongruent,uniform,1,undefined,1,s,133,133,0,133,133,0,0,133,133,133,0,0,0,0,0,133,Sun Sep 13 18:13:10 2020,600,The main experiment item,yes,FlankerTask.osexp,C:/Users/chelsea/OneDrive - Tarleton State University/psych 5316- adv/flanker test,no,mono,no,18,no,white,no,yes,768,legacy,53,79,C:/Users/chelsea/OneDrive - Tarleton State University/psych 5316- adv/flanker test/JH subject-1.csv,legacy,Lentiform Loewenfeld,3.3.3,0,s,NA,s,NA,s,s,518,NA,49317,NA,518,41875,2,legacy,1024,2,48000,-16,experiment,HHSHH,1,odd,365193,375993,NA,379501,378272,8392,NA,379606,379496,379606,57712,269994,NA,8380,228114,380131,Flanker Task,123,79990,134,yes,1024
91.85185185,91.85185185,595.6444444,595.6444444,black,legacy,legacy,legacy,0,congruent,uniform,1,undefined,1,h,134,134,0,134,134,0,0,134,134,134,0,0,0,0,0,134,Sun Sep 13 18:13:10 2020,600,The main experiment item,yes,FlankerTask.osexp,C:/Users/chelsea/OneDrive - Tarleton State University/psych 5316- adv/flanker test,no,mono,no,18,no,white,no,yes,768,legacy,54,79,C:/Users/chelsea/OneDrive - Tarleton State University/psych 5316- adv/flanker test/JH subject-1.csv,legacy,Lentiform Loewenfeld,3.3.3,0,h,NA,s,NA,h,s,422,NA,49317,NA,422,41875,2,legacy,1024,2,48000,-16,experiment,HHHHH,1,odd,365193,375993,NA,381502,380272,8392,NA,381606,381496,381606,57712,269994,NA,8380,228114,382035,Flanker Task,124,80412,135,yes,1024
91.91176471,91.91176471,595.3897059,595.3897059,black,legacy,legacy,legacy,0,incongruent,uniform,1,undefined,1,h,135,135,0,135,135,0,0,135,135,135,0,0,0,0,0,135,Sun Sep 13 18:13:10 2020,600,The main experiment item,yes,FlankerTask.osexp,C:/Users/chelsea/OneDrive - Tarleton State University/psych 5316- adv/flanker test,no,mono,no,18,no,white,no,yes,768,legacy,55,79,C:/Users/chelsea/OneDrive - Tarleton State University/psych 5316- adv/flanker test/JH subject-1.csv,legacy,Lentiform Loewenfeld,3.3.3,0,h,NA,s,NA,h,s,561,NA,49317,NA,561,41875,2,legacy,1024,2,48000,-16,experiment,SSHSS,1,odd,365193,375993,NA,383419,382195,8392,NA,383523,383414,383523,57712,269994,NA,8380,228114,384091,Flanker Task,125,80973,136,yes,1024
91.97080292,91.97080292,594.7153285,594.7153285,black,legacy,legacy,legacy,0,incongruent,uniform,1,undefined,1,s,136,136,0,136,136,0,0,136,136,136,0,0,0,0,0,136,Sun Sep 13 18:13:10 2020,600,The main experiment item,yes,FlankerTask.osexp,C:/Users/chelsea/OneDrive - Tarleton State University/psych 5316- adv/flanker test,no,mono,no,18,no,white,no,yes,768,legacy,56,79,C:/Users/chelsea/OneDrive - Tarleton State University/psych 5316- adv/flanker test/JH subject-1.csv,legacy,Lentiform Loewenfeld,3.3.3,0,s,NA,s,NA,s,s,503,NA,49317,NA,503,41875,2,legacy,1024,2,48000,-16,experiment,HHSHH,1,odd,365193,375993,NA,385445,384221,8392,NA,385549,385439,385549,57712,269994,NA,8380,228114,386059,Flanker Task,126,81476,137,yes,1024
92.02898551,92.02898551,593.9565217,593.9565217,black,legacy,legacy,legacy,0,congruent,uniform,1,undefined,1,h,137,137,0,137,137,0,0,137,137,137,0,0,0,0,0,137,Sun Sep 13 18:13:10 2020,600,The main experiment item,yes,FlankerTask.osexp,C:/Users/chelsea/OneDrive - Tarleton State University/psych 5316- adv/flanker test,no,mono,no,18,no,white,no,yes,768,legacy,57,79,C:/Users/chelsea/OneDrive - Tarleton State University/psych 5316- adv/flanker test/JH subject-1.csv,legacy,Lentiform Loewenfeld,3.3.3,0,h,NA,s,NA,h,s,490,NA,49317,NA,490,41875,2,legacy,1024,2,48000,-16,experiment,HHHHH,1,odd,365193,375993,NA,387401,386177,8392,NA,387506,387396,387506,57712,269994,NA,8380,228114,388003,Flanker Task,127,81966,138,yes,1024
92.08633094,92.08633094,593.3093525,593.3093525,black,legacy,legacy,legacy,0,congruent,uniform,1,undefined,1,s,138,138,0,138,138,0,0,138,138,138,0,0,0,0,0,138,Sun Sep 13 18:13:10 2020,600,The main experiment item,yes,FlankerTask.osexp,C:/Users/chelsea/OneDrive - Tarleton State University/psych 5316- adv/flanker test,no,mono,no,18,no,white,no,yes,768,legacy,58,79,C:/Users/chelsea/OneDrive - Tarleton State University/psych 5316- adv/flanker test/JH subject-1.csv,legacy,Lentiform Loewenfeld,3.3.3,0,s,NA,s,NA,s,s,504,NA,49317,NA,504,41875,2,legacy,1024,2,48000,-16,experiment,SSSSS,1,odd,365193,375993,NA,389299,388074,8392,NA,389404,389294,389404,57712,269994,NA,8380,228114,389915,Flanker Task,128,82470,139,yes,1024
92.14285714,92.14285714,592.0642857,592.0642857,black,legacy,legacy,legacy,0,congruent,uniform,1,undefined,1,s,139,139,0,139,139,0,0,139,139,139,0,0,0,0,0,139,Sun Sep 13 18:13:10 2020,600,The main experiment item,yes,FlankerTask.osexp,C:/Users/chelsea/OneDrive - Tarleton State University/psych 5316- adv/flanker test,no,mono,no,18,no,white,no,yes,768,legacy,59,79,C:/Users/chelsea/OneDrive - Tarleton State University/psych 5316- adv/flanker test/JH subject-1.csv,legacy,Lentiform Loewenfeld,3.3.3,0,s,NA,s,NA,s,s,419,NA,49317,NA,419,41875,2,legacy,1024,2,48000,-16,experiment,SSSSS,1,odd,365193,375993,NA,391233,390010,8392,NA,391337,391228,391337,57712,269994,NA,8380,228114,391763,Flanker Task,129,82889,140,yes,1024
