"acc","accuracy","average_response_time","avg_rt","background","canvas_backend","clock_backend","color_backend","compensation","condition","coordinates","correct","correct_instructions1","correct_keyboard_response","correct_response","count_ISI","count_block1","count_block2","count_block3","count_errorFeedback","count_experiment","count_faster","count_finish","count_fixation","count_instructions1","count_instructions2","count_instructions3","count_keyboard_response","count_new_logger","count_sequence","count_stimulus","datetime","deadline","description","disable_garbage_collection","experiment_file","experiment_path","font_bold","font_family","font_italic","font_size","font_underline","foreground","form_clicks","fullscreen","height","keyboard_backend","live_row","live_row_block1","logfile","mouse_backend","opensesame_codename","opensesame_version","repeat_cycle","response","response_finish","response_instructions1","response_instructions2","response_instructions3","response_keyboard_response","response_time","response_time_finish","response_time_instructions1","response_time_instructions2","response_time_instructions3","response_time_keyboard_response","round_decimals","sampler_backend","sound_buf_size","sound_channels","sound_freq","sound_sample_size","start","stimulus","subject_nr","subject_parity","time_ISI","time_block1","time_block2","time_block3","time_errorFeedback","time_experiment","time_faster","time_finish","time_fixation","time_instructions1","time_instructions2","time_instructions3","time_keyboard_response","time_new_logger","time_sequence","time_stimulus","title","total_correct","total_response_time","total_responses","uniform_coordinates","width"
"0","0","479","479","black","legacy","legacy","legacy","0","incongruent","uniform","0","undefined","0","s","0","0","0","0","0","0","0","0","0","0","0","0","0","0","0","0","Mon Sep 21 18:36:37 2020","1500","The main experiment item","yes","Flankertask.osexp","/Users/annielenoir/Desktop","no","mono","no","18","no","white","no","no","768","legacy","0","0","/Users/annielenoir/Desktop/AL-subject-3.csv","legacy","Lentiform Loewenfeld","3.3.3","0","h","NA","s","NA","NA","h","479","NA","24428","NA","NA","479","2","legacy","1024","2","48000","-16","experiment","HHSHH","3","odd","NA","26528","NA","NA","NA","1928","NA","NA","26706","2084","NA","NA","26951","27431","26569","26951","Flanker task","0","479","1","yes","1024"
"50","50","514.5","514.5","black","legacy","legacy","legacy","0","incongruent","uniform","1","undefined","1","h","1","0","0","0","1","0","1","0","1","0","0","0","1","1","1","1","Mon Sep 21 18:36:37 2020","1500","The main experiment item","yes","Flankertask.osexp","/Users/annielenoir/Desktop","no","mono","no","18","no","white","no","no","768","legacy","1","1","/Users/annielenoir/Desktop/AL-subject-3.csv","legacy","Lentiform Loewenfeld","3.3.3","0","h","NA","s","NA","NA","h","550","NA","24428","NA","NA","550","2","legacy","1024","2","48000","-16","experiment","SSHSS","3","odd","28226","26528","NA","NA","27578","1928","NA","NA","29446","2084","NA","NA","29692","30243","29306","29692","Flanker task","1","1029","2","yes","1024"
"66.66666666666667","66.66666666666667","526.3333333333334","526.3333333333334","black","legacy","legacy","legacy","0","incongruent","uniform","1","undefined","1","s","2","0","0","0","2","0","2","0","2","0","0","0","2","2","2","2","Mon Sep 21 18:36:37 2020","1500","The main experiment item","yes","Flankertask.osexp","/Users/annielenoir/Desktop","no","mono","no","18","no","white","no","no","768","legacy","2","2","/Users/annielenoir/Desktop/AL-subject-3.csv","legacy","Lentiform Loewenfeld","3.3.3","0","s","NA","s","NA","NA","s","550","NA","24428","NA","NA","550","2","legacy","1024","2","48000","-16","experiment","HHSHH","3","odd","30391","26528","NA","NA","27578","1928","NA","NA","31592","2084","NA","NA","31835","32386","31443","31835","Flanker task","2","1579","3","yes","1024"
"75","75","479.25","479.25","black","legacy","legacy","legacy","0","incongruent","uniform","1","undefined","1","h","3","0","0","0","3","0","3","0","3","0","0","0","3","3","3","3","Mon Sep 21 18:36:37 2020","1500","The main experiment item","yes","Flankertask.osexp","/Users/annielenoir/Desktop","no","mono","no","18","no","white","no","no","768","legacy","3","3","/Users/annielenoir/Desktop/AL-subject-3.csv","legacy","Lentiform Loewenfeld","3.3.3","0","h","NA","s","NA","NA","h","338","NA","24428","NA","NA","338","2","legacy","1024","2","48000","-16","experiment","SSHSS","3","odd","32531","26528","NA","NA","27578","1928","NA","NA","33724","2084","NA","NA","33972","34311","33584","33972","Flanker task","3","1917","4","yes","1024"
"80","80","481.6","481.6","black","legacy","legacy","legacy","0","congruent","uniform","1","undefined","1","h","4","0","0","0","4","0","4","0","4","0","0","0","4","4","4","4","Mon Sep 21 18:36:37 2020","1500","The main experiment item","yes","Flankertask.osexp","/Users/annielenoir/Desktop","no","mono","no","18","no","white","no","no","768","legacy","4","4","/Users/annielenoir/Desktop/AL-subject-3.csv","legacy","Lentiform Loewenfeld","3.3.3","0","h","NA","s","NA","NA","h","491","NA","24428","NA","NA","491","2","legacy","1024","2","48000","-16","experiment","HHHHH","3","odd","34462","26528","NA","NA","27578","1928","NA","NA","35659","2084","NA","NA","35906","36398","35516","35906","Flanker task","4","2408","5","yes","1024"
"83.33333333333333","83.33333333333333","477.1666666666667","477.1666666666667","black","legacy","legacy","legacy","0","incongruent","uniform","1","undefined","1","h","5","0","0","0","5","0","5","0","5","0","0","0","5","5","5","5","Mon Sep 21 18:36:37 2020","1500","The main experiment item","yes","Flankertask.osexp","/Users/annielenoir/Desktop","no","mono","no","18","no","white","no","no","768","legacy","5","5","/Users/annielenoir/Desktop/AL-subject-3.csv","legacy","Lentiform Loewenfeld","3.3.3","0","h","NA","s","NA","NA","h","455","NA","24428","NA","NA","455","2","legacy","1024","2","48000","-16","experiment","SSHSS","3","odd","36545","26528","NA","NA","27578","1928","NA","NA","37746","2084","NA","NA","37992","38448","37601","37992","Flanker task","5","2863","6","yes","1024"
"71.42857142857143","71.42857142857143","461.7142857142857","461.7142857142857","black","legacy","legacy","legacy","0","incongruent","uniform","0","undefined","0","s","6","0","0","0","6","0","6","0","6","0","0","0","6","6","6","6","Mon Sep 21 18:36:37 2020","1500","The main experiment item","yes","Flankertask.osexp","/Users/annielenoir/Desktop","no","mono","no","18","no","white","no","no","768","legacy","6","6","/Users/annielenoir/Desktop/AL-subject-3.csv","legacy","Lentiform Loewenfeld","3.3.3","0","h","NA","s","NA","NA","h","369","NA","24428","NA","NA","369","2","legacy","1024","2","48000","-16","experiment","HHSHH","3","odd","38594","26528","NA","NA","27578","1928","NA","NA","39794","2084","NA","NA","40041","40411","39648","40041","Flanker task","5","3232","7","yes","1024"
"75","75","459.875","459.875","black","legacy","legacy","legacy","0","incongruent","uniform","1","undefined","1","s","7","0","0","0","7","0","7","0","7","0","0","0","7","7","7","7","Mon Sep 21 18:36:37 2020","1500","The main experiment item","yes","Flankertask.osexp","/Users/annielenoir/Desktop","no","mono","no","18","no","white","no","no","768","legacy","7","7","/Users/annielenoir/Desktop/AL-subject-3.csv","legacy","Lentiform Loewenfeld","3.3.3","0","s","NA","s","NA","NA","s","447","NA","24428","NA","NA","447","2","legacy","1024","2","48000","-16","experiment","HHSHH","3","odd","41207","26528","NA","NA","40559","1928","NA","NA","42410","2084","NA","NA","42658","43107","42263","42657","Flanker task","6","3679","8","yes","1024"
"77.77777777777777","77.77777777777777","453","453","black","legacy","legacy","legacy","0","congruent","uniform","1","undefined","1","s","8","0","0","0","8","0","8","0","8","0","0","0","8","8","8","8","Mon Sep 21 18:36:37 2020","1500","The main experiment item","yes","Flankertask.osexp","/Users/annielenoir/Desktop","no","mono","no","18","no","white","no","no","768","legacy","8","8","/Users/annielenoir/Desktop/AL-subject-3.csv","legacy","Lentiform Loewenfeld","3.3.3","0","s","NA","s","NA","NA","s","398","NA","24428","NA","NA","398","2","legacy","1024","2","48000","-16","experiment","SSSSS","3","odd","43252","26528","NA","NA","40559","1928","NA","NA","44451","2084","NA","NA","44698","45097","44307","44698","Flanker task","7","4077","9","yes","1024"
"80","80","448.6","448.6","black","legacy","legacy","legacy","0","incongruent","uniform","1","undefined","1","s","9","0","0","0","9","0","9","0","9","0","0","0","9","9","9","9","Mon Sep 21 18:36:37 2020","1500","The main experiment item","yes","Flankertask.osexp","/Users/annielenoir/Desktop","no","mono","no","18","no","white","no","no","768","legacy","9","9","/Users/annielenoir/Desktop/AL-subject-3.csv","legacy","Lentiform Loewenfeld","3.3.3","0","s","NA","s","NA","NA","s","409","NA","24428","NA","NA","409","2","legacy","1024","2","48000","-16","experiment","HHSHH","3","odd","45244","26528","NA","NA","40559","1928","NA","NA","46443","2084","NA","NA","46688","47099","46299","46688","Flanker task","8","4486","10","yes","1024"
"81.81818181818181","81.81818181818181","441.72727272727275","441.72727272727275","black","legacy","legacy","legacy","0","incongruent","uniform","1","undefined","1","s","10","0","0","0","10","0","10","0","10","0","0","0","10","10","10","10","Mon Sep 21 18:36:37 2020","1500","The main experiment item","yes","Flankertask.osexp","/Users/annielenoir/Desktop","no","mono","no","18","no","white","no","no","768","legacy","10","10","/Users/annielenoir/Desktop/AL-subject-3.csv","legacy","Lentiform Loewenfeld","3.3.3","0","s","NA","s","NA","NA","s","373","NA","24428","NA","NA","373","2","legacy","1024","2","48000","-16","experiment","HHSHH","3","odd","47246","26528","NA","NA","40559","1928","NA","NA","48446","2084","NA","NA","48693","49067","48301","48693","Flanker task","9","4859","11","yes","1024"
"83.33333333333333","83.33333333333333","460.6666666666667","460.6666666666667","black","legacy","legacy","legacy","0","congruent","uniform","1","undefined","1","h","11","0","0","0","11","0","11","0","11","0","0","0","11","11","11","11","Mon Sep 21 18:36:37 2020","1500","The main experiment item","yes","Flankertask.osexp","/Users/annielenoir/Desktop","no","mono","no","18","no","white","no","no","768","legacy","11","11","/Users/annielenoir/Desktop/AL-subject-3.csv","legacy","Lentiform Loewenfeld","3.3.3","0","h","NA","s","NA","NA","h","669","NA","24428","NA","NA","669","2","legacy","1024","2","48000","-16","experiment","HHHHH","3","odd","49214","26528","NA","NA","40559","1928","NA","NA","50413","2084","NA","NA","50661","51331","50268","50661","Flanker task","10","5528","12","yes","1024"
"84.61538461538461","84.61538461538461","457.46153846153845","457.46153846153845","black","legacy","legacy","legacy","0","incongruent","uniform","1","undefined","1","h","12","0","0","0","12","0","12","0","12","0","0","0","12","12","12","12","Mon Sep 21 18:36:37 2020","1500","The main experiment item","yes","Flankertask.osexp","/Users/annielenoir/Desktop","no","mono","no","18","no","white","no","no","768","legacy","12","12","/Users/annielenoir/Desktop/AL-subject-3.csv","legacy","Lentiform Loewenfeld","3.3.3","0","h","NA","s","NA","NA","h","419","NA","24428","NA","NA","419","2","legacy","1024","2","48000","-16","experiment","SSHSS","3","odd","51479","26528","NA","NA","40559","1928","NA","NA","52680","2084","NA","NA","52928","53348","52533","52928","Flanker task","11","5947","13","yes","1024"
"85.71428571428571","85.71428571428571","458.5","458.5","black","legacy","legacy","legacy","0","incongruent","uniform","1","undefined","1","h","13","0","0","0","13","0","13","0","13","0","0","0","13","13","13","13","Mon Sep 21 18:36:37 2020","1500","The main experiment item","yes","Flankertask.osexp","/Users/annielenoir/Desktop","no","mono","no","18","no","white","no","no","768","legacy","13","13","/Users/annielenoir/Desktop/AL-subject-3.csv","legacy","Lentiform Loewenfeld","3.3.3","0","h","NA","s","NA","NA","h","472","NA","24428","NA","NA","472","2","legacy","1024","2","48000","-16","experiment","SSHSS","3","odd","53494","26528","NA","NA","40559","1928","NA","NA","54695","2084","NA","NA","54943","55416","54549","54943","Flanker task","12","6419","14","yes","1024"
"86.66666666666667","86.66666666666667","464.2","464.2","black","legacy","legacy","legacy","0","congruent","uniform","1","undefined","1","s","14","0","0","0","14","0","14","0","14","0","0","0","14","14","14","14","Mon Sep 21 18:36:37 2020","1500","The main experiment item","yes","Flankertask.osexp","/Users/annielenoir/Desktop","no","mono","no","18","no","white","no","no","768","legacy","14","14","/Users/annielenoir/Desktop/AL-subject-3.csv","legacy","Lentiform Loewenfeld","3.3.3","0","s","NA","s","NA","NA","s","544","NA","24428","NA","NA","544","2","legacy","1024","2","48000","-16","experiment","SSSSS","3","odd","55562","26528","NA","NA","40559","1928","NA","NA","56765","2084","NA","NA","57012","57557","56621","57012","Flanker task","13","6963","15","yes","1024"
"87.5","87.5","459","459","black","legacy","legacy","legacy","0","congruent","uniform","1","undefined","1","h","15","0","0","0","15","0","15","0","15","0","0","0","15","15","15","15","Mon Sep 21 18:36:37 2020","1500","The main experiment item","yes","Flankertask.osexp","/Users/annielenoir/Desktop","no","mono","no","18","no","white","no","no","768","legacy","15","15","/Users/annielenoir/Desktop/AL-subject-3.csv","legacy","Lentiform Loewenfeld","3.3.3","0","h","NA","s","NA","NA","h","381","NA","24428","NA","NA","381","2","legacy","1024","2","48000","-16","experiment","HHHHH","3","odd","57707","26528","NA","NA","40559","1928","NA","NA","58902","2084","NA","NA","59149","59531","58760","59149","Flanker task","14","7344","16","yes","1024"
"88.23529411764706","88.23529411764706","464.2352941176471","464.2352941176471","black","legacy","legacy","legacy","0","incongruent","uniform","1","undefined","1","s","16","0","0","0","16","0","16","0","16","0","0","0","16","16","16","16","Mon Sep 21 18:36:37 2020","1500","The main experiment item","yes","Flankertask.osexp","/Users/annielenoir/Desktop","no","mono","no","18","no","white","no","no","768","legacy","16","16","/Users/annielenoir/Desktop/AL-subject-3.csv","legacy","Lentiform Loewenfeld","3.3.3","0","s","NA","s","NA","NA","s","548","NA","24428","NA","NA","548","2","legacy","1024","2","48000","-16","experiment","HHSHH","3","odd","59681","26528","NA","NA","40559","1928","NA","NA","60884","2084","NA","NA","61130","61679","60740","61130","Flanker task","15","7892","17","yes","1024"
"88.88888888888889","88.88888888888889","459.05555555555554","459.05555555555554","black","legacy","legacy","legacy","0","congruent","uniform","1","undefined","1","h","17","0","0","0","17","0","17","0","17","0","0","0","17","17","17","17","Mon Sep 21 18:36:37 2020","1500","The main experiment item","yes","Flankertask.osexp","/Users/annielenoir/Desktop","no","mono","no","18","no","white","no","no","768","legacy","17","17","/Users/annielenoir/Desktop/AL-subject-3.csv","legacy","Lentiform Loewenfeld","3.3.3","0","h","NA","s","NA","NA","h","371","NA","24428","NA","NA","371","2","legacy","1024","2","48000","-16","experiment","HHHHH","3","odd","61824","26528","NA","NA","40559","1928","NA","NA","63022","2084","NA","NA","63270","63642","62880","63270","Flanker task","16","8263","18","yes","1024"
"89.47368421052632","89.47368421052632","455.57894736842104","455.57894736842104","black","legacy","legacy","legacy","0","congruent","uniform","1","undefined","1","h","18","0","0","0","18","0","18","0","18","0","0","0","18","18","18","18","Mon Sep 21 18:36:37 2020","1500","The main experiment item","yes","Flankertask.osexp","/Users/annielenoir/Desktop","no","mono","no","18","no","white","no","no","768","legacy","18","18","/Users/annielenoir/Desktop/AL-subject-3.csv","legacy","Lentiform Loewenfeld","3.3.3","0","h","NA","s","NA","NA","h","393","NA","24428","NA","NA","393","2","legacy","1024","2","48000","-16","experiment","HHHHH","3","odd","63789","26528","NA","NA","40559","1928","NA","NA","64990","2084","NA","NA","65236","65630","64845","65236","Flanker task","17","8656","19","yes","1024"
"90","90","451.5","451.5","black","legacy","legacy","legacy","0","congruent","uniform","1","undefined","1","h","19","0","0","0","19","0","19","0","19","0","0","0","19","19","19","19","Mon Sep 21 18:36:37 2020","1500","The main experiment item","yes","Flankertask.osexp","/Users/annielenoir/Desktop","no","mono","no","18","no","white","no","no","768","legacy","19","19","/Users/annielenoir/Desktop/AL-subject-3.csv","legacy","Lentiform Loewenfeld","3.3.3","0","h","NA","s","NA","NA","h","374","NA","24428","NA","NA","374","2","legacy","1024","2","48000","-16","experiment","HHHHH","3","odd","65776","26528","NA","NA","40559","1928","NA","NA","67005","2084","NA","NA","67252","67627","66827","67252","Flanker task","18","9030","20","yes","1024"
"90.47619047619048","90.47619047619048","453","453","black","legacy","legacy","legacy","0","congruent","uniform","1","undefined","1","s","20","0","0","0","20","0","20","0","20","0","0","0","20","20","20","20","Mon Sep 21 18:36:37 2020","1500","The main experiment item","yes","Flankertask.osexp","/Users/annielenoir/Desktop","no","mono","no","18","no","white","no","no","768","legacy","20","20","/Users/annielenoir/Desktop/AL-subject-3.csv","legacy","Lentiform Loewenfeld","3.3.3","0","s","NA","s","NA","NA","s","483","NA","24428","NA","NA","483","2","legacy","1024","2","48000","-16","experiment","SSSSS","3","odd","67776","26528","NA","NA","40559","1928","NA","NA","68974","2084","NA","NA","69221","69705","68831","69221","Flanker task","19","9513","21","yes","1024"
"90.9090909090909","90.9090909090909","449.90909090909093","449.90909090909093","black","legacy","legacy","legacy","0","congruent","uniform","1","undefined","1","s","21","0","0","0","21","0","21","0","21","0","0","0","21","21","21","21","Mon Sep 21 18:36:37 2020","1500","The main experiment item","yes","Flankertask.osexp","/Users/annielenoir/Desktop","no","mono","no","18","no","white","no","no","768","legacy","21","21","/Users/annielenoir/Desktop/AL-subject-3.csv","legacy","Lentiform Loewenfeld","3.3.3","0","s","NA","s","NA","NA","s","385","NA","24428","NA","NA","385","2","legacy","1024","2","48000","-16","experiment","SSSSS","3","odd","69852","26528","NA","NA","40559","1928","NA","NA","71050","2084","NA","NA","71297","71683","70908","71297","Flanker task","20","9898","22","yes","1024"
"91.30434782608695","91.30434782608695","449.6521739130435","449.6521739130435","black","legacy","legacy","legacy","0","incongruent","uniform","1","undefined","1","h","22","0","0","0","22","0","22","0","22","0","0","0","22","22","22","22","Mon Sep 21 18:36:37 2020","1500","The main experiment item","yes","Flankertask.osexp","/Users/annielenoir/Desktop","no","mono","no","18","no","white","no","no","768","legacy","22","22","/Users/annielenoir/Desktop/AL-subject-3.csv","legacy","Lentiform Loewenfeld","3.3.3","0","h","NA","s","NA","NA","h","444","NA","24428","NA","NA","444","2","legacy","1024","2","48000","-16","experiment","SSHSS","3","odd","71829","26528","NA","NA","40559","1928","NA","NA","73020","2084","NA","NA","73267","73712","72881","73267","Flanker task","21","10342","23","yes","1024"
"91.66666666666667","91.66666666666667","445.0416666666667","445.0416666666667","black","legacy","legacy","legacy","0","congruent","uniform","1","undefined","1","s","23","0","0","0","23","0","23","0","23","0","0","0","23","23","23","23","Mon Sep 21 18:36:37 2020","1500","The main experiment item","yes","Flankertask.osexp","/Users/annielenoir/Desktop","no","mono","no","18","no","white","no","no","768","legacy","23","23","/Users/annielenoir/Desktop/AL-subject-3.csv","legacy","Lentiform Loewenfeld","3.3.3","0","s","NA","s","NA","NA","s","339","NA","24428","NA","NA","339","2","legacy","1024","2","48000","-16","experiment","SSSSS","3","odd","73859","26528","NA","NA","40559","1928","NA","NA","75051","2084","NA","NA","75298","75638","74910","75298","Flanker task","22","10681","24","yes","1024"
"92","92","444.8","444.8","black","legacy","legacy","legacy","0","congruent","uniform","1","undefined","1","s","24","0","0","0","24","0","24","0","24","0","0","0","24","24","24","24","Mon Sep 21 18:36:37 2020","1500","The main experiment item","yes","Flankertask.osexp","/Users/annielenoir/Desktop","no","mono","no","18","no","white","no","no","768","legacy","24","24","/Users/annielenoir/Desktop/AL-subject-3.csv","legacy","Lentiform Loewenfeld","3.3.3","0","s","NA","s","NA","NA","s","439","NA","24428","NA","NA","439","2","legacy","1024","2","48000","-16","experiment","SSSSS","3","odd","75784","26528","NA","NA","40559","1928","NA","NA","76984","2084","NA","NA","77231","77672","76840","77230","Flanker task","23","11120","25","yes","1024"
"92.3076923076923","92.3076923076923","441.11538461538464","441.11538461538464","black","legacy","legacy","legacy","0","congruent","uniform","1","undefined","1","h","25","0","0","0","25","0","25","0","25","0","0","0","25","25","25","25","Mon Sep 21 18:36:37 2020","1500","The main experiment item","yes","Flankertask.osexp","/Users/annielenoir/Desktop","no","mono","no","18","no","white","no","no","768","legacy","25","25","/Users/annielenoir/Desktop/AL-subject-3.csv","legacy","Lentiform Loewenfeld","3.3.3","0","h","NA","s","NA","NA","h","349","NA","24428","NA","NA","349","2","legacy","1024","2","48000","-16","experiment","HHHHH","3","odd","77821","26528","NA","NA","40559","1928","NA","NA","79019","2084","NA","NA","79265","79616","78876","79265","Flanker task","24","11469","26","yes","1024"
"92.5925925925926","92.5925925925926","439.22222222222223","439.22222222222223","black","legacy","legacy","legacy","0","congruent","uniform","1","undefined","1","h","26","0","0","0","26","0","26","0","26","0","0","0","26","26","26","26","Mon Sep 21 18:36:37 2020","1500","The main experiment item","yes","Flankertask.osexp","/Users/annielenoir/Desktop","no","mono","no","18","no","white","no","no","768","legacy","26","26","/Users/annielenoir/Desktop/AL-subject-3.csv","legacy","Lentiform Loewenfeld","3.3.3","0","h","NA","s","NA","NA","h","390","NA","24428","NA","NA","390","2","legacy","1024","2","48000","-16","experiment","HHHHH","3","odd","79761","26528","NA","NA","40559","1928","NA","NA","80960","2084","NA","NA","81206","81598","80816","81206","Flanker task","25","11859","27","yes","1024"
"92.85714285714286","92.85714285714286","437.85714285714283","437.85714285714283","black","legacy","legacy","legacy","0","incongruent","uniform","1","undefined","1","h","27","0","0","0","27","0","27","0","27","0","0","0","27","27","27","27","Mon Sep 21 18:36:37 2020","1500","The main experiment item","yes","Flankertask.osexp","/Users/annielenoir/Desktop","no","mono","no","18","no","white","no","no","768","legacy","27","27","/Users/annielenoir/Desktop/AL-subject-3.csv","legacy","Lentiform Loewenfeld","3.3.3","0","h","NA","s","NA","NA","h","401","NA","24428","NA","NA","401","2","legacy","1024","2","48000","-16","experiment","SSHSS","3","odd","81744","26528","NA","NA","40559","1928","NA","NA","82945","2084","NA","NA","83192","83595","82800","83192","Flanker task","26","12260","28","yes","1024"
"93.10344827586206","93.10344827586206","438.9655172413793","438.9655172413793","black","legacy","legacy","legacy","0","incongruent","uniform","1","undefined","1","s","28","0","0","0","28","0","28","0","28","0","0","0","28","28","28","28","Mon Sep 21 18:36:37 2020","1500","The main experiment item","yes","Flankertask.osexp","/Users/annielenoir/Desktop","no","mono","no","18","no","white","no","no","768","legacy","28","28","/Users/annielenoir/Desktop/AL-subject-3.csv","legacy","Lentiform Loewenfeld","3.3.3","0","s","NA","s","NA","NA","s","470","NA","24428","NA","NA","470","2","legacy","1024","2","48000","-16","experiment","HHSHH","3","odd","83741","26528","NA","NA","40559","1928","NA","NA","84939","2084","NA","NA","85185","85657","84797","85185","Flanker task","27","12730","29","yes","1024"
"93.33333333333333","93.33333333333333","436.2","436.2","black","legacy","legacy","legacy","0","congruent","uniform","1","undefined","1","h","29","0","0","0","29","0","29","0","29","0","0","0","29","29","29","29","Mon Sep 21 18:36:37 2020","1500","The main experiment item","yes","Flankertask.osexp","/Users/annielenoir/Desktop","no","mono","no","18","no","white","no","no","768","legacy","29","29","/Users/annielenoir/Desktop/AL-subject-3.csv","legacy","Lentiform Loewenfeld","3.3.3","0","h","NA","s","NA","NA","h","356","NA","24428","NA","NA","356","2","legacy","1024","2","48000","-16","experiment","HHHHH","3","odd","85803","26528","NA","NA","40559","1928","NA","NA","87001","2084","NA","NA","87248","87606","86858","87248","Flanker task","28","13086","30","yes","1024"
"90.3225806451613","90.3225806451613","433.64516129032256","433.64516129032256","black","legacy","legacy","legacy","0","incongruent","uniform","0","undefined","0","h","30","0","0","0","30","0","30","0","30","0","0","0","30","30","30","30","Mon Sep 21 18:36:37 2020","1500","The main experiment item","yes","Flankertask.osexp","/Users/annielenoir/Desktop","no","mono","no","18","no","white","no","no","768","legacy","30","30","/Users/annielenoir/Desktop/AL-subject-3.csv","legacy","Lentiform Loewenfeld","3.3.3","0","s","NA","s","NA","NA","s","357","NA","24428","NA","NA","357","2","legacy","1024","2","48000","-16","experiment","SSHSS","3","odd","87753","26528","NA","NA","40559","1928","NA","NA","88950","2084","NA","NA","89196","89555","88807","89196","Flanker task","28","13443","31","yes","1024"
"90.625","90.625","434.15625","434.15625","black","legacy","legacy","legacy","0","congruent","uniform","1","undefined","1","s","31","0","0","0","31","0","31","0","31","0","0","0","31","31","31","31","Mon Sep 21 18:36:37 2020","1500","The main experiment item","yes","Flankertask.osexp","/Users/annielenoir/Desktop","no","mono","no","18","no","white","no","no","768","legacy","31","31","/Users/annielenoir/Desktop/AL-subject-3.csv","legacy","Lentiform Loewenfeld","3.3.3","0","s","NA","s","NA","NA","s","450","NA","24428","NA","NA","450","2","legacy","1024","2","48000","-16","experiment","SSSSS","3","odd","90347","26528","NA","NA","89701","1928","NA","NA","91546","2084","NA","NA","91792","92243","91403","91791","Flanker task","29","13893","32","yes","1024"
"87.87878787878788","87.87878787878788","432.1212121212121","432.1212121212121","black","legacy","legacy","legacy","0","incongruent","uniform","0","undefined","0","s","32","0","0","0","32","0","32","0","32","0","0","0","32","32","32","32","Mon Sep 21 18:36:37 2020","1500","The main experiment item","yes","Flankertask.osexp","/Users/annielenoir/Desktop","no","mono","no","18","no","white","no","no","768","legacy","32","32","/Users/annielenoir/Desktop/AL-subject-3.csv","legacy","Lentiform Loewenfeld","3.3.3","0","h","NA","s","NA","NA","h","367","NA","24428","NA","NA","367","2","legacy","1024","2","48000","-16","experiment","HHSHH","3","odd","92390","26528","NA","NA","89701","1928","NA","NA","93587","2084","NA","NA","93834","94202","93445","93834","Flanker task","29","14260","33","yes","1024"
"88.23529411764706","88.23529411764706","433.1470588235294","433.1470588235294","black","legacy","legacy","legacy","0","incongruent","uniform","1","undefined","1","h","33","0","0","0","33","0","33","0","33","0","0","0","33","33","33","33","Mon Sep 21 18:36:37 2020","1500","The main experiment item","yes","Flankertask.osexp","/Users/annielenoir/Desktop","no","mono","no","18","no","white","no","no","768","legacy","33","33","/Users/annielenoir/Desktop/AL-subject-3.csv","legacy","Lentiform Loewenfeld","3.3.3","0","h","NA","s","NA","NA","h","467","NA","24428","NA","NA","467","2","legacy","1024","2","48000","-16","experiment","SSHSS","3","odd","94995","26528","NA","NA","94349","1928","NA","NA","96197","2084","NA","NA","96443","96911","96051","96442","Flanker task","30","14727","34","yes","1024"
"88.57142857142857","88.57142857142857","432.9428571428571","432.9428571428571","black","legacy","legacy","legacy","0","incongruent","uniform","1","undefined","1","s","34","0","0","0","34","0","34","0","34","0","0","0","34","34","34","34","Mon Sep 21 18:36:37 2020","1500","The main experiment item","yes","Flankertask.osexp","/Users/annielenoir/Desktop","no","mono","no","18","no","white","no","no","768","legacy","34","34","/Users/annielenoir/Desktop/AL-subject-3.csv","legacy","Lentiform Loewenfeld","3.3.3","0","s","NA","s","NA","NA","s","426","NA","24428","NA","NA","426","2","legacy","1024","2","48000","-16","experiment","HHSHH","3","odd","97070","26528","NA","NA","94349","1928","NA","NA","98281","2084","NA","NA","98528","98955","98136","98528","Flanker task","31","15153","35","yes","1024"
"88.88888888888889","88.88888888888889","433.75","433.75","black","legacy","legacy","legacy","0","incongruent","uniform","1","undefined","1","s","35","0","0","0","35","0","35","0","35","0","0","0","35","35","35","35","Mon Sep 21 18:36:37 2020","1500","The main experiment item","yes","Flankertask.osexp","/Users/annielenoir/Desktop","no","mono","no","18","no","white","no","no","768","legacy","35","35","/Users/annielenoir/Desktop/AL-subject-3.csv","legacy","Lentiform Loewenfeld","3.3.3","0","s","NA","s","NA","NA","s","462","NA","24428","NA","NA","462","2","legacy","1024","2","48000","-16","experiment","HHSHH","3","odd","99098","26528","NA","NA","94349","1928","NA","NA","100300","2084","NA","NA","100547","101010","100155","100547","Flanker task","32","15615","36","yes","1024"
"89.1891891891892","89.1891891891892","432.5945945945946","432.5945945945946","black","legacy","legacy","legacy","0","congruent","uniform","1","undefined","1","h","36","0","0","0","36","0","36","0","36","0","0","0","36","36","36","36","Mon Sep 21 18:36:37 2020","1500","The main experiment item","yes","Flankertask.osexp","/Users/annielenoir/Desktop","no","mono","no","18","no","white","no","no","768","legacy","36","36","/Users/annielenoir/Desktop/AL-subject-3.csv","legacy","Lentiform Loewenfeld","3.3.3","0","h","NA","s","NA","NA","h","391","NA","24428","NA","NA","391","2","legacy","1024","2","48000","-16","experiment","HHHHH","3","odd","101156","26528","NA","NA","94349","1928","NA","NA","102362","2084","NA","NA","102609","103000","102219","102608","Flanker task","33","16006","37","yes","1024"
"89.47368421052632","89.47368421052632","432.2368421052632","432.2368421052632","black","legacy","legacy","legacy","0","congruent","uniform","1","undefined","1","h","37","0","0","0","37","0","37","0","37","0","0","0","37","37","37","37","Mon Sep 21 18:36:37 2020","1500","The main experiment item","yes","Flankertask.osexp","/Users/annielenoir/Desktop","no","mono","no","18","no","white","no","no","768","legacy","37","37","/Users/annielenoir/Desktop/AL-subject-3.csv","legacy","Lentiform Loewenfeld","3.3.3","0","h","NA","s","NA","NA","h","419","NA","24428","NA","NA","419","2","legacy","1024","2","48000","-16","experiment","HHHHH","3","odd","103147","26528","NA","NA","94349","1928","NA","NA","104348","2084","NA","NA","104595","105015","104203","104595","Flanker task","34","16425","38","yes","1024"
"89.74358974358974","89.74358974358974","433.28205128205127","433.28205128205127","black","legacy","legacy","legacy","0","incongruent","uniform","1","undefined","1","s","38","0","0","0","38","0","38","0","38","0","0","0","38","38","38","38","Mon Sep 21 18:36:37 2020","1500","The main experiment item","yes","Flankertask.osexp","/Users/annielenoir/Desktop","no","mono","no","18","no","white","no","no","768","legacy","38","38","/Users/annielenoir/Desktop/AL-subject-3.csv","legacy","Lentiform Loewenfeld","3.3.3","0","s","NA","s","NA","NA","s","473","NA","24428","NA","NA","473","2","legacy","1024","2","48000","-16","experiment","HHSHH","3","odd","105162","26528","NA","NA","94349","1928","NA","NA","106363","2084","NA","NA","106610","107084","106218","106609","Flanker task","35","16898","39","yes","1024"
"90","90","431.525","431.525","black","legacy","legacy","legacy","0","congruent","uniform","1","undefined","1","s","39","0","0","0","39","0","39","0","39","0","0","0","39","39","39","39","Mon Sep 21 18:36:37 2020","1500","The main experiment item","yes","Flankertask.osexp","/Users/annielenoir/Desktop","no","mono","no","18","no","white","no","no","768","legacy","39","39","/Users/annielenoir/Desktop/AL-subject-3.csv","legacy","Lentiform Loewenfeld","3.3.3","0","s","NA","s","NA","NA","s","363","NA","24428","NA","NA","363","2","legacy","1024","2","48000","-16","experiment","SSSSS","3","odd","107229","26528","NA","NA","94349","1928","NA","NA","108439","2084","NA","NA","108686","109050","108298","108686","Flanker task","36","17261","40","yes","1024"
"90.2439024390244","90.2439024390244","431.1463414634146","431.1463414634146","black","legacy","legacy","legacy","0","incongruent","uniform","1","undefined","1","h","40","0","0","0","40","0","40","0","40","0","0","0","40","40","40","40","Mon Sep 21 18:36:37 2020","1500","The main experiment item","yes","Flankertask.osexp","/Users/annielenoir/Desktop","no","mono","no","18","no","white","no","no","768","legacy","40","40","/Users/annielenoir/Desktop/AL-subject-3.csv","legacy","Lentiform Loewenfeld","3.3.3","0","h","NA","s","NA","NA","h","416","NA","24428","NA","NA","416","2","legacy","1024","2","48000","-16","experiment","SSHSS","3","odd","109195","26528","NA","NA","94349","1928","NA","NA","110394","2084","NA","NA","110640","111058","110249","110640","Flanker task","37","17677","41","yes","1024"
"90.47619047619048","90.47619047619048","430.9761904761905","430.9761904761905","black","legacy","legacy","legacy","0","congruent","uniform","1","undefined","1","s","41","0","0","0","41","0","41","0","41","0","0","0","41","41","41","41","Mon Sep 21 18:36:37 2020","1500","The main experiment item","yes","Flankertask.osexp","/Users/annielenoir/Desktop","no","mono","no","18","no","white","no","no","768","legacy","41","41","/Users/annielenoir/Desktop/AL-subject-3.csv","legacy","Lentiform Loewenfeld","3.3.3","0","s","NA","s","NA","NA","s","424","NA","24428","NA","NA","424","2","legacy","1024","2","48000","-16","experiment","SSSSS","3","odd","111204","26528","NA","NA","94349","1928","NA","NA","112409","2084","NA","NA","112656","113081","112262","112656","Flanker task","38","18101","42","yes","1024"
"90.69767441860465","90.69767441860465","429.9767441860465","429.9767441860465","black","legacy","legacy","legacy","0","congruent","uniform","1","undefined","1","h","42","0","0","0","42","0","42","0","42","0","0","0","42","42","42","42","Mon Sep 21 18:36:37 2020","1500","The main experiment item","yes","Flankertask.osexp","/Users/annielenoir/Desktop","no","mono","no","18","no","white","no","no","768","legacy","42","42","/Users/annielenoir/Desktop/AL-subject-3.csv","legacy","Lentiform Loewenfeld","3.3.3","0","h","NA","s","NA","NA","h","388","NA","24428","NA","NA","388","2","legacy","1024","2","48000","-16","experiment","HHHHH","3","odd","113227","26528","NA","NA","94349","1928","NA","NA","114430","2084","NA","NA","114677","115067","114285","114676","Flanker task","39","18489","43","yes","1024"
"90.9090909090909","90.9090909090909","434.97727272727275","434.97727272727275","black","legacy","legacy","legacy","0","congruent","uniform","1","undefined","1","s","43","0","0","0","43","0","43","0","43","0","0","0","43","43","43","43","Mon Sep 21 18:36:37 2020","1500","The main experiment item","yes","Flankertask.osexp","/Users/annielenoir/Desktop","no","mono","no","18","no","white","no","no","768","legacy","43","43","/Users/annielenoir/Desktop/AL-subject-3.csv","legacy","Lentiform Loewenfeld","3.3.3","0","s","NA","s","NA","NA","s","650","NA","24428","NA","NA","650","2","legacy","1024","2","48000","-16","experiment","SSSSS","3","odd","115211","26528","NA","NA","94349","1928","NA","NA","116417","2084","NA","NA","116663","117314","116271","116663","Flanker task","40","19139","44","yes","1024"
"88.88888888888889","88.88888888888889","433.06666666666666","433.06666666666666","black","legacy","legacy","legacy","0","congruent","uniform","0","undefined","0","s","44","0","0","0","44","0","44","0","44","0","0","0","44","44","44","44","Mon Sep 21 18:36:37 2020","1500","The main experiment item","yes","Flankertask.osexp","/Users/annielenoir/Desktop","no","mono","no","18","no","white","no","no","768","legacy","44","44","/Users/annielenoir/Desktop/AL-subject-3.csv","legacy","Lentiform Loewenfeld","3.3.3","0","h","NA","s","NA","NA","h","349","NA","24428","NA","NA","349","2","legacy","1024","2","48000","-16","experiment","SSSSS","3","odd","117461","26528","NA","NA","94349","1928","NA","NA","118656","2084","NA","NA","118902","119253","118514","118902","Flanker task","40","19488","45","yes","1024"
"89.1304347826087","89.1304347826087","439.0869565217391","439.0869565217391","black","legacy","legacy","legacy","0","congruent","uniform","1","undefined","1","h","45","0","0","0","45","0","45","0","45","0","0","0","45","45","45","45","Mon Sep 21 18:36:37 2020","1500","The main experiment item","yes","Flankertask.osexp","/Users/annielenoir/Desktop","no","mono","no","18","no","white","no","no","768","legacy","45","45","/Users/annielenoir/Desktop/AL-subject-3.csv","legacy","Lentiform Loewenfeld","3.3.3","0","h","NA","s","NA","NA","h","710","NA","24428","NA","NA","710","2","legacy","1024","2","48000","-16","experiment","HHHHH","3","odd","120045","26528","NA","NA","119400","1928","NA","NA","121245","2084","NA","NA","121494","122206","121102","121494","Flanker task","41","20198","46","yes","1024"
"89.36170212765957","89.36170212765957","439","439","black","legacy","legacy","legacy","0","congruent","uniform","1","undefined","1","s","46","0","0","0","46","0","46","0","46","0","0","0","46","46","46","46","Mon Sep 21 18:36:37 2020","1500","The main experiment item","yes","Flankertask.osexp","/Users/annielenoir/Desktop","no","mono","no","18","no","white","no","no","768","legacy","46","46","/Users/annielenoir/Desktop/AL-subject-3.csv","legacy","Lentiform Loewenfeld","3.3.3","0","s","NA","s","NA","NA","s","435","NA","24428","NA","NA","435","2","legacy","1024","2","48000","-16","experiment","SSSSS","3","odd","122352","26528","NA","NA","119400","1928","NA","NA","123549","2084","NA","NA","123796","124232","123406","123796","Flanker task","42","20633","47","yes","1024"
"89.58333333333333","89.58333333333333","436.9166666666667","436.9166666666667","black","legacy","legacy","legacy","0","congruent","uniform","1","undefined","1","s","47","0","0","0","47","0","47","0","47","0","0","0","47","47","47","47","Mon Sep 21 18:36:37 2020","1500","The main experiment item","yes","Flankertask.osexp","/Users/annielenoir/Desktop","no","mono","no","18","no","white","no","no","768","legacy","47","47","/Users/annielenoir/Desktop/AL-subject-3.csv","legacy","Lentiform Loewenfeld","3.3.3","0","s","NA","s","NA","NA","s","339","NA","24428","NA","NA","339","2","legacy","1024","2","48000","-16","experiment","SSSSS","3","odd","124379","26528","NA","NA","119400","1928","NA","NA","125578","2084","NA","NA","125825","126165","125434","125825","Flanker task","43","20972","48","yes","1024"
"89.79591836734694","89.79591836734694","439.57142857142856","439.57142857142856","black","legacy","legacy","legacy","0","congruent","uniform","1","undefined","1","h","48","0","0","0","48","0","48","0","48","0","0","0","48","48","48","48","Mon Sep 21 18:36:37 2020","1500","The main experiment item","yes","Flankertask.osexp","/Users/annielenoir/Desktop","no","mono","no","18","no","white","no","no","768","legacy","48","48","/Users/annielenoir/Desktop/AL-subject-3.csv","legacy","Lentiform Loewenfeld","3.3.3","0","h","NA","s","NA","NA","h","567","NA","24428","NA","NA","567","2","legacy","1024","2","48000","-16","experiment","HHHHH","3","odd","126312","26528","NA","NA","119400","1928","NA","NA","127512","2084","NA","NA","127759","128327","127367","127759","Flanker task","44","21539","49","yes","1024"
"88","88","439.16","439.16","black","legacy","legacy","legacy","0","incongruent","uniform","0","undefined","0","h","49","0","0","0","49","0","49","0","49","0","0","0","49","49","49","49","Mon Sep 21 18:36:37 2020","1500","The main experiment item","yes","Flankertask.osexp","/Users/annielenoir/Desktop","no","mono","no","18","no","white","no","no","768","legacy","49","49","/Users/annielenoir/Desktop/AL-subject-3.csv","legacy","Lentiform Loewenfeld","3.3.3","0","s","NA","s","NA","NA","s","419","NA","24428","NA","NA","419","2","legacy","1024","2","48000","-16","experiment","SSHSS","3","odd","128478","26528","NA","NA","119400","1928","NA","NA","129682","2084","NA","NA","129929","130349","129541","129929","Flanker task","44","21958","50","yes","1024"
"88.23529411764706","88.23529411764706","444.7647058823529","444.7647058823529","black","legacy","legacy","legacy","0","incongruent","uniform","1","undefined","1","s","50","0","0","0","50","0","50","0","50","0","0","0","50","50","50","50","Mon Sep 21 18:36:37 2020","1500","The main experiment item","yes","Flankertask.osexp","/Users/annielenoir/Desktop","no","mono","no","18","no","white","no","no","768","legacy","50","50","/Users/annielenoir/Desktop/AL-subject-3.csv","legacy","Lentiform Loewenfeld","3.3.3","0","s","NA","s","NA","NA","s","725","NA","24428","NA","NA","725","2","legacy","1024","2","48000","-16","experiment","HHSHH","3","odd","131141","26528","NA","NA","130495","1928","NA","NA","132340","2084","NA","NA","132589","133315","132197","132589","Flanker task","45","22683","51","yes","1024"
"88.46153846153847","88.46153846153847","443.5","443.5","black","legacy","legacy","legacy","0","incongruent","uniform","1","undefined","1","h","51","0","0","0","51","0","51","0","51","0","0","0","51","51","51","51","Mon Sep 21 18:36:37 2020","1500","The main experiment item","yes","Flankertask.osexp","/Users/annielenoir/Desktop","no","mono","no","18","no","white","no","no","768","legacy","51","51","/Users/annielenoir/Desktop/AL-subject-3.csv","legacy","Lentiform Loewenfeld","3.3.3","0","h","NA","s","NA","NA","h","379","NA","24428","NA","NA","379","2","legacy","1024","2","48000","-16","experiment","SSHSS","3","odd","133461","26528","NA","NA","130495","1928","NA","NA","134662","2084","NA","NA","134908","135288","134518","134908","Flanker task","46","23062","52","yes","1024"
"88.67924528301887","88.67924528301887","442.52830188679246","442.52830188679246","black","legacy","legacy","legacy","0","congruent","uniform","1","undefined","1","h","52","0","0","0","52","0","52","0","52","0","0","0","52","52","52","52","Mon Sep 21 18:36:37 2020","1500","The main experiment item","yes","Flankertask.osexp","/Users/annielenoir/Desktop","no","mono","no","18","no","white","no","no","768","legacy","52","52","/Users/annielenoir/Desktop/AL-subject-3.csv","legacy","Lentiform Loewenfeld","3.3.3","0","h","NA","s","NA","NA","h","392","NA","24428","NA","NA","392","2","legacy","1024","2","48000","-16","experiment","HHHHH","3","odd","135434","26528","NA","NA","130495","1928","NA","NA","136639","2084","NA","NA","136885","137278","136492","136885","Flanker task","47","23454","53","yes","1024"
"88.88888888888889","88.88888888888889","442.77777777777777","442.77777777777777","black","legacy","legacy","legacy","0","incongruent","uniform","1","undefined","1","h","53","0","0","0","53","0","53","0","53","0","0","0","53","53","53","53","Mon Sep 21 18:36:37 2020","1500","The main experiment item","yes","Flankertask.osexp","/Users/annielenoir/Desktop","no","mono","no","18","no","white","no","no","768","legacy","53","53","/Users/annielenoir/Desktop/AL-subject-3.csv","legacy","Lentiform Loewenfeld","3.3.3","0","h","NA","s","NA","NA","h","456","NA","24428","NA","NA","456","2","legacy","1024","2","48000","-16","experiment","SSHSS","3","odd","137425","26528","NA","NA","130495","1928","NA","NA","138624","2084","NA","NA","138872","139329","138481","138872","Flanker task","48","23910","54","yes","1024"
"89.0909090909091","89.0909090909091","444.2181818181818","444.2181818181818","black","legacy","legacy","legacy","0","incongruent","uniform","1","undefined","1","s","54","0","0","0","54","0","54","0","54","0","0","0","54","54","54","54","Mon Sep 21 18:36:37 2020","1500","The main experiment item","yes","Flankertask.osexp","/Users/annielenoir/Desktop","no","mono","no","18","no","white","no","no","768","legacy","54","54","/Users/annielenoir/Desktop/AL-subject-3.csv","legacy","Lentiform Loewenfeld","3.3.3","0","s","NA","s","NA","NA","s","522","NA","24428","NA","NA","522","2","legacy","1024","2","48000","-16","experiment","HHSHH","3","odd","139474","26528","NA","NA","130495","1928","NA","NA","140675","2084","NA","NA","140921","141444","140530","140921","Flanker task","49","24432","55","yes","1024"
"89.28571428571429","89.28571428571429","446.57142857142856","446.57142857142856","black","legacy","legacy","legacy","0","incongruent","uniform","1","undefined","1","h","55","0","0","0","55","0","55","0","55","0","0","0","55","55","55","55","Mon Sep 21 18:36:37 2020","1500","The main experiment item","yes","Flankertask.osexp","/Users/annielenoir/Desktop","no","mono","no","18","no","white","no","no","768","legacy","55","55","/Users/annielenoir/Desktop/AL-subject-3.csv","legacy","Lentiform Loewenfeld","3.3.3","0","h","NA","s","NA","NA","h","576","NA","24428","NA","NA","576","2","legacy","1024","2","48000","-16","experiment","SSHSS","3","odd","141590","26528","NA","NA","130495","1928","NA","NA","142788","2084","NA","NA","143034","143611","142645","143034","Flanker task","50","25008","56","yes","1024"
"89.47368421052632","89.47368421052632","447.0877192982456","447.0877192982456","black","legacy","legacy","legacy","0","congruent","uniform","1","undefined","1","s","56","0","0","0","56","0","56","0","56","0","0","0","56","56","56","56","Mon Sep 21 18:36:37 2020","1500","The main experiment item","yes","Flankertask.osexp","/Users/annielenoir/Desktop","no","mono","no","18","no","white","no","no","768","legacy","56","56","/Users/annielenoir/Desktop/AL-subject-3.csv","legacy","Lentiform Loewenfeld","3.3.3","0","s","NA","s","NA","NA","s","476","NA","24428","NA","NA","476","2","legacy","1024","2","48000","-16","experiment","SSSSS","3","odd","143759","26528","NA","NA","130495","1928","NA","NA","144955","2084","NA","NA","145202","145679","144813","145202","Flanker task","51","25484","57","yes","1024"
"89.65517241379311","89.65517241379311","447.4655172413793","447.4655172413793","black","legacy","legacy","legacy","0","congruent","uniform","1","undefined","1","s","57","0","0","0","57","0","57","0","57","0","0","0","57","57","57","57","Mon Sep 21 18:36:37 2020","1500","The main experiment item","yes","Flankertask.osexp","/Users/annielenoir/Desktop","no","mono","no","18","no","white","no","no","768","legacy","57","57","/Users/annielenoir/Desktop/AL-subject-3.csv","legacy","Lentiform Loewenfeld","3.3.3","0","s","NA","s","NA","NA","s","469","NA","24428","NA","NA","469","2","legacy","1024","2","48000","-16","experiment","SSSSS","3","odd","145819","26528","NA","NA","130495","1928","NA","NA","147016","2084","NA","NA","147262","147733","146874","147262","Flanker task","52","25953","58","yes","1024"
"89.83050847457628","89.83050847457628","446.6271186440678","446.6271186440678","black","legacy","legacy","legacy","0","congruent","uniform","1","undefined","1","h","58","0","0","0","58","0","58","0","58","0","0","0","58","58","58","58","Mon Sep 21 18:36:37 2020","1500","The main experiment item","yes","Flankertask.osexp","/Users/annielenoir/Desktop","no","mono","no","18","no","white","no","no","768","legacy","58","58","/Users/annielenoir/Desktop/AL-subject-3.csv","legacy","Lentiform Loewenfeld","3.3.3","0","h","NA","s","NA","NA","h","398","NA","24428","NA","NA","398","2","legacy","1024","2","48000","-16","experiment","HHHHH","3","odd","147876","26528","NA","NA","130495","1928","NA","NA","149078","2084","NA","NA","149326","149726","148933","149326","Flanker task","53","26351","59","yes","1024"
"90","90","446.8","446.8","black","legacy","legacy","legacy","0","incongruent","uniform","1","undefined","1","s","59","0","0","0","59","0","59","0","59","0","0","0","59","59","59","59","Mon Sep 21 18:36:37 2020","1500","The main experiment item","yes","Flankertask.osexp","/Users/annielenoir/Desktop","no","mono","no","18","no","white","no","no","768","legacy","59","59","/Users/annielenoir/Desktop/AL-subject-3.csv","legacy","Lentiform Loewenfeld","3.3.3","0","s","NA","s","NA","NA","s","457","NA","24428","NA","NA","457","2","legacy","1024","2","48000","-16","experiment","HHSHH","3","odd","149875","26528","NA","NA","130495","1928","NA","NA","151074","2084","NA","NA","151322","151780","150930","151322","Flanker task","54","26808","60","yes","1024"
"90.1639344262295","90.1639344262295","444.9016393442623","444.9016393442623","black","legacy","legacy","legacy","0","congruent","uniform","1","undefined","1","h","60","0","0","0","60","0","60","0","60","0","0","0","60","60","60","60","Mon Sep 21 18:36:37 2020","1500","The main experiment item","yes","Flankertask.osexp","/Users/annielenoir/Desktop","no","mono","no","18","no","white","no","no","768","legacy","60","60","/Users/annielenoir/Desktop/AL-subject-3.csv","legacy","Lentiform Loewenfeld","3.3.3","0","h","NA","s","NA","NA","h","331","NA","24428","NA","NA","331","2","legacy","1024","2","48000","-16","experiment","HHHHH","3","odd","151929","26528","NA","NA","130495","1928","NA","NA","153124","2084","NA","NA","153372","153705","152984","153372","Flanker task","55","27139","61","yes","1024"
"90.3225806451613","90.3225806451613","443.64516129032256","443.64516129032256","black","legacy","legacy","legacy","0","congruent","uniform","1","undefined","1","s","61","0","0","0","61","0","61","0","61","0","0","0","61","61","61","61","Mon Sep 21 18:36:37 2020","1500","The main experiment item","yes","Flankertask.osexp","/Users/annielenoir/Desktop","no","mono","no","18","no","white","no","no","768","legacy","61","61","/Users/annielenoir/Desktop/AL-subject-3.csv","legacy","Lentiform Loewenfeld","3.3.3","0","s","NA","s","NA","NA","s","367","NA","24428","NA","NA","367","2","legacy","1024","2","48000","-16","experiment","SSSSS","3","odd","153852","26528","NA","NA","130495","1928","NA","NA","155046","2084","NA","NA","155301","155670","154904","155301","Flanker task","56","27506","62","yes","1024"
"90.47619047619048","90.47619047619048","442.4920634920635","442.4920634920635","black","legacy","legacy","legacy","0","congruent","uniform","1","undefined","1","s","62","0","0","0","62","0","62","0","62","0","0","0","62","62","62","62","Mon Sep 21 18:36:37 2020","1500","The main experiment item","yes","Flankertask.osexp","/Users/annielenoir/Desktop","no","mono","no","18","no","white","no","no","768","legacy","62","62","/Users/annielenoir/Desktop/AL-subject-3.csv","legacy","Lentiform Loewenfeld","3.3.3","0","s","NA","s","NA","NA","s","371","NA","24428","NA","NA","371","2","legacy","1024","2","48000","-16","experiment","SSSSS","3","odd","155815","26528","NA","NA","130495","1928","NA","NA","157050","2084","NA","NA","157298","157671","156884","157298","Flanker task","57","27877","63","yes","1024"
"90.625","90.625","442.28125","442.28125","black","legacy","legacy","legacy","0","congruent","uniform","1","undefined","1","h","63","0","0","0","63","0","63","0","63","0","0","0","63","63","63","63","Mon Sep 21 18:36:37 2020","1500","The main experiment item","yes","Flankertask.osexp","/Users/annielenoir/Desktop","no","mono","no","18","no","white","no","no","768","legacy","63","63","/Users/annielenoir/Desktop/AL-subject-3.csv","legacy","Lentiform Loewenfeld","3.3.3","0","h","NA","s","NA","NA","h","429","NA","24428","NA","NA","429","2","legacy","1024","2","48000","-16","experiment","HHHHH","3","odd","157821","26528","NA","NA","130495","1928","NA","NA","159029","2084","NA","NA","159276","159707","158888","159276","Flanker task","58","28306","64","yes","1024"
"90.76923076923077","90.76923076923077","442.26153846153846","442.26153846153846","black","legacy","legacy","legacy","0","congruent","uniform","1","undefined","1","s","64","0","0","0","64","0","64","0","64","0","0","0","64","64","64","64","Mon Sep 21 18:36:37 2020","1500","The main experiment item","yes","Flankertask.osexp","/Users/annielenoir/Desktop","no","mono","no","18","no","white","no","no","768","legacy","64","64","/Users/annielenoir/Desktop/AL-subject-3.csv","legacy","Lentiform Loewenfeld","3.3.3","0","s","NA","s","NA","NA","s","441","NA","24428","NA","NA","441","2","legacy","1024","2","48000","-16","experiment","SSSSS","3","odd","159851","26528","NA","NA","130495","1928","NA","NA","161060","2084","NA","NA","161308","161750","160918","161307","Flanker task","59","28747","65","yes","1024"
"90.9090909090909","90.9090909090909","442.969696969697","442.969696969697","black","legacy","legacy","legacy","0","incongruent","uniform","1","undefined","1","s","65","0","0","0","65","0","65","0","65","0","0","0","65","65","65","65","Mon Sep 21 18:36:37 2020","1500","The main experiment item","yes","Flankertask.osexp","/Users/annielenoir/Desktop","no","mono","no","18","no","white","no","no","768","legacy","65","65","/Users/annielenoir/Desktop/AL-subject-3.csv","legacy","Lentiform Loewenfeld","3.3.3","0","s","NA","s","NA","NA","s","489","NA","24428","NA","NA","489","2","legacy","1024","2","48000","-16","experiment","HHSHH","3","odd","161895","26528","NA","NA","130495","1928","NA","NA","163099","2084","NA","NA","163345","163836","162959","163345","Flanker task","60","29236","66","yes","1024"
"91.04477611940298","91.04477611940298","444.2686567164179","444.2686567164179","black","legacy","legacy","legacy","0","incongruent","uniform","1","undefined","1","h","66","0","0","0","66","0","66","0","66","0","0","0","66","66","66","66","Mon Sep 21 18:36:37 2020","1500","The main experiment item","yes","Flankertask.osexp","/Users/annielenoir/Desktop","no","mono","no","18","no","white","no","no","768","legacy","66","66","/Users/annielenoir/Desktop/AL-subject-3.csv","legacy","Lentiform Loewenfeld","3.3.3","0","h","NA","s","NA","NA","h","530","NA","24428","NA","NA","530","2","legacy","1024","2","48000","-16","experiment","SSHSS","3","odd","163983","26528","NA","NA","130495","1928","NA","NA","165174","2084","NA","NA","165420","165952","165033","165420","Flanker task","61","29766","67","yes","1024"
"91.17647058823529","91.17647058823529","446.4852941176471","446.4852941176471","black","legacy","legacy","legacy","0","incongruent","uniform","1","undefined","1","s","67","0","0","0","67","0","67","0","67","0","0","0","67","67","67","67","Mon Sep 21 18:36:37 2020","1500","The main experiment item","yes","Flankertask.osexp","/Users/annielenoir/Desktop","no","mono","no","18","no","white","no","no","768","legacy","67","67","/Users/annielenoir/Desktop/AL-subject-3.csv","legacy","Lentiform Loewenfeld","3.3.3","0","s","NA","s","NA","NA","s","595","NA","24428","NA","NA","595","2","legacy","1024","2","48000","-16","experiment","HHSHH","3","odd","166096","26528","NA","NA","130495","1928","NA","NA","167294","2084","NA","NA","167540","168136","167151","167540","Flanker task","62","30361","68","yes","1024"
"91.30434782608695","91.30434782608695","447.8695652173913","447.8695652173913","black","legacy","legacy","legacy","0","incongruent","uniform","1","undefined","1","s","68","0","0","0","68","0","68","0","68","0","0","0","68","68","68","68","Mon Sep 21 18:36:37 2020","1500","The main experiment item","yes","Flankertask.osexp","/Users/annielenoir/Desktop","no","mono","no","18","no","white","no","no","768","legacy","68","68","/Users/annielenoir/Desktop/AL-subject-3.csv","legacy","Lentiform Loewenfeld","3.3.3","0","s","NA","s","NA","NA","s","542","NA","24428","NA","NA","542","2","legacy","1024","2","48000","-16","experiment","HHSHH","3","odd","168283","26528","NA","NA","130495","1928","NA","NA","169485","2084","NA","NA","169733","170276","169342","169733","Flanker task","63","30903","69","yes","1024"
"91.42857142857143","91.42857142857143","446.04285714285714","446.04285714285714","black","legacy","legacy","legacy","0","congruent","uniform","1","undefined","1","h","69","0","0","0","69","0","69","0","69","0","0","0","69","69","69","69","Mon Sep 21 18:36:37 2020","1500","The main experiment item","yes","Flankertask.osexp","/Users/annielenoir/Desktop","no","mono","no","18","no","white","no","no","768","legacy","69","69","/Users/annielenoir/Desktop/AL-subject-3.csv","legacy","Lentiform Loewenfeld","3.3.3","0","h","NA","s","NA","NA","h","320","NA","24428","NA","NA","320","2","legacy","1024","2","48000","-16","experiment","HHHHH","3","odd","170423","26528","NA","NA","130495","1928","NA","NA","171621","2084","NA","NA","171867","172188","171479","171867","Flanker task","64","31223","70","yes","1024"
"91.54929577464789","91.54929577464789","446.1267605633803","446.1267605633803","black","legacy","legacy","legacy","0","incongruent","uniform","1","undefined","1","h","70","0","0","0","70","0","70","0","70","0","0","0","70","70","70","70","Mon Sep 21 18:36:37 2020","1500","The main experiment item","yes","Flankertask.osexp","/Users/annielenoir/Desktop","no","mono","no","18","no","white","no","no","768","legacy","70","70","/Users/annielenoir/Desktop/AL-subject-3.csv","legacy","Lentiform Loewenfeld","3.3.3","0","h","NA","s","NA","NA","h","452","NA","24428","NA","NA","452","2","legacy","1024","2","48000","-16","experiment","SSHSS","3","odd","172335","26528","NA","NA","130495","1928","NA","NA","173532","2084","NA","NA","173779","174233","173390","173779","Flanker task","65","31675","71","yes","1024"
"91.66666666666667","91.66666666666667","445.5138888888889","445.5138888888889","black","legacy","legacy","legacy","0","incongruent","uniform","1","undefined","1","h","71","0","0","0","71","0","71","0","71","0","0","0","71","71","71","71","Mon Sep 21 18:36:37 2020","1500","The main experiment item","yes","Flankertask.osexp","/Users/annielenoir/Desktop","no","mono","no","18","no","white","no","no","768","legacy","71","71","/Users/annielenoir/Desktop/AL-subject-3.csv","legacy","Lentiform Loewenfeld","3.3.3","0","h","NA","s","NA","NA","h","402","NA","24428","NA","NA","402","2","legacy","1024","2","48000","-16","experiment","SSHSS","3","odd","174380","26528","NA","NA","130495","1928","NA","NA","175580","2084","NA","NA","175827","176230","175436","175827","Flanker task","66","32077","72","yes","1024"
"91.78082191780823","91.78082191780823","446.3972602739726","446.3972602739726","black","legacy","legacy","legacy","0","incongruent","uniform","1","undefined","1","h","72","0","0","0","72","0","72","0","72","0","0","0","72","72","72","72","Mon Sep 21 18:36:37 2020","1500","The main experiment item","yes","Flankertask.osexp","/Users/annielenoir/Desktop","no","mono","no","18","no","white","no","no","768","legacy","72","72","/Users/annielenoir/Desktop/AL-subject-3.csv","legacy","Lentiform Loewenfeld","3.3.3","0","h","NA","s","NA","NA","h","510","NA","24428","NA","NA","510","2","legacy","1024","2","48000","-16","experiment","SSHSS","3","odd","176377","26528","NA","NA","130495","1928","NA","NA","177576","2084","NA","NA","177823","178334","177433","177823","Flanker task","67","32587","73","yes","1024"
"91.89189189189189","91.89189189189189","445.5945945945946","445.5945945945946","black","legacy","legacy","legacy","0","congruent","uniform","1","undefined","1","h","73","0","0","0","73","0","73","0","73","0","0","0","73","73","73","73","Mon Sep 21 18:36:37 2020","1500","The main experiment item","yes","Flankertask.osexp","/Users/annielenoir/Desktop","no","mono","no","18","no","white","no","no","768","legacy","73","73","/Users/annielenoir/Desktop/AL-subject-3.csv","legacy","Lentiform Loewenfeld","3.3.3","0","h","NA","s","NA","NA","h","387","NA","24428","NA","NA","387","2","legacy","1024","2","48000","-16","experiment","HHHHH","3","odd","178479","26528","NA","NA","130495","1928","NA","NA","179675","2084","NA","NA","179921","180309","179533","179921","Flanker task","68","32974","74","yes","1024"
"92","92","445.97333333333336","445.97333333333336","black","legacy","legacy","legacy","0","incongruent","uniform","1","undefined","1","h","74","0","0","0","74","0","74","0","74","0","0","0","74","74","74","74","Mon Sep 21 18:36:37 2020","1500","The main experiment item","yes","Flankertask.osexp","/Users/annielenoir/Desktop","no","mono","no","18","no","white","no","no","768","legacy","74","74","/Users/annielenoir/Desktop/AL-subject-3.csv","legacy","Lentiform Loewenfeld","3.3.3","0","h","NA","s","NA","NA","h","474","NA","24428","NA","NA","474","2","legacy","1024","2","48000","-16","experiment","SSHSS","3","odd","180455","26528","NA","NA","130495","1928","NA","NA","181652","2084","NA","NA","181898","182374","181510","181898","Flanker task","69","33448","75","yes","1024"
"92.10526315789474","92.10526315789474","445.8157894736842","445.8157894736842","black","legacy","legacy","legacy","0","incongruent","uniform","1","undefined","1","s","75","0","0","0","75","0","75","0","75","0","0","0","75","75","75","75","Mon Sep 21 18:36:37 2020","1500","The main experiment item","yes","Flankertask.osexp","/Users/annielenoir/Desktop","no","mono","no","18","no","white","no","no","768","legacy","75","75","/Users/annielenoir/Desktop/AL-subject-3.csv","legacy","Lentiform Loewenfeld","3.3.3","0","s","NA","s","NA","NA","s","434","NA","24428","NA","NA","434","2","legacy","1024","2","48000","-16","experiment","HHSHH","3","odd","182520","26528","NA","NA","130495","1928","NA","NA","183716","2084","NA","NA","183963","184399","183574","183963","Flanker task","70","33882","76","yes","1024"
"92.20779220779221","92.20779220779221","445.2077922077922","445.2077922077922","black","legacy","legacy","legacy","0","congruent","uniform","1","undefined","1","s","76","0","0","0","76","0","76","0","76","0","0","0","76","76","76","76","Mon Sep 21 18:36:37 2020","1500","The main experiment item","yes","Flankertask.osexp","/Users/annielenoir/Desktop","no","mono","no","18","no","white","no","no","768","legacy","76","76","/Users/annielenoir/Desktop/AL-subject-3.csv","legacy","Lentiform Loewenfeld","3.3.3","0","s","NA","s","NA","NA","s","399","NA","24428","NA","NA","399","2","legacy","1024","2","48000","-16","experiment","SSSSS","3","odd","184545","26528","NA","NA","130495","1928","NA","NA","185743","2084","NA","NA","185990","186391","185600","185990","Flanker task","71","34281","77","yes","1024"
"92.3076923076923","92.3076923076923","444.34615384615387","444.34615384615387","black","legacy","legacy","legacy","0","incongruent","uniform","1","undefined","1","h","77","0","0","0","77","0","77","0","77","0","0","0","77","77","77","77","Mon Sep 21 18:36:37 2020","1500","The main experiment item","yes","Flankertask.osexp","/Users/annielenoir/Desktop","no","mono","no","18","no","white","no","no","768","legacy","77","77","/Users/annielenoir/Desktop/AL-subject-3.csv","legacy","Lentiform Loewenfeld","3.3.3","0","h","NA","s","NA","NA","h","378","NA","24428","NA","NA","378","2","legacy","1024","2","48000","-16","experiment","SSHSS","3","odd","186536","26528","NA","NA","130495","1928","NA","NA","187734","2084","NA","NA","187980","188360","187590","187980","Flanker task","72","34659","78","yes","1024"
"92.40506329113924","92.40506329113924","444.1392405063291","444.1392405063291","black","legacy","legacy","legacy","0","congruent","uniform","1","undefined","1","s","78","0","0","0","78","0","78","0","78","0","0","0","78","78","78","78","Mon Sep 21 18:36:37 2020","1500","The main experiment item","yes","Flankertask.osexp","/Users/annielenoir/Desktop","no","mono","no","18","no","white","no","no","768","legacy","78","78","/Users/annielenoir/Desktop/AL-subject-3.csv","legacy","Lentiform Loewenfeld","3.3.3","0","s","NA","s","NA","NA","s","428","NA","24428","NA","NA","428","2","legacy","1024","2","48000","-16","experiment","SSSSS","3","odd","188503","26528","NA","NA","130495","1928","NA","NA","189705","2084","NA","NA","189952","190381","189561","189952","Flanker task","73","35087","79","yes","1024"
"92.5","92.5","445.2375","445.2375","black","legacy","legacy","legacy","0","incongruent","uniform","1","undefined","1","s","79","0","0","0","79","0","79","0","79","0","0","0","79","79","79","79","Mon Sep 21 18:36:37 2020","1500","The main experiment item","yes","Flankertask.osexp","/Users/annielenoir/Desktop","no","mono","no","18","no","white","no","no","768","legacy","79","79","/Users/annielenoir/Desktop/AL-subject-3.csv","legacy","Lentiform Loewenfeld","3.3.3","0","s","NA","s","NA","NA","s","532","NA","24428","NA","NA","532","2","legacy","1024","2","48000","-16","experiment","HHSHH","3","odd","190527","26528","NA","NA","130495","1928","NA","NA","191728","2084","NA","NA","191975","192509","191585","191975","Flanker task","74","35619","80","yes","1024"
"92.5925925925926","92.5925925925926","451.0740740740741","451.0740740740741","black","legacy","legacy","legacy","0","incongruent","uniform","1","undefined","1","s","80","0","0","0","80","0","80","0","80","0","0","0","80","80","80","80","Mon Sep 21 18:36:37 2020","600","The main experiment item","yes","Flankertask.osexp","/Users/annielenoir/Desktop","no","mono","no","18","no","white","no","no","768","legacy","0","79","/Users/annielenoir/Desktop/AL-subject-3.csv","legacy","Lentiform Loewenfeld","3.3.3","0","s","NA","s","s","NA","s","918","NA","24428","10445","NA","918","2","legacy","1024","2","48000","-16","experiment","HHSHH","3","odd","192654","26528","204280","NA","130495","1928","NA","NA","204441","2084","193833","NA","204688","205608","204305","204688","Flanker task","75","36537","81","yes","1024"
"92.6829268292683","92.6829268292683","450.8780487804878","450.8780487804878","black","legacy","legacy","legacy","0","incongruent","uniform","1","undefined","1","s","81","0","0","0","81","0","81","0","81","0","0","0","81","81","81","81","Mon Sep 21 18:36:37 2020","600","The main experiment item","yes","Flankertask.osexp","/Users/annielenoir/Desktop","no","mono","no","18","no","white","no","no","768","legacy","1","79","/Users/annielenoir/Desktop/AL-subject-3.csv","legacy","Lentiform Loewenfeld","3.3.3","0","s","NA","s","s","NA","s","435","NA","24428","10445","NA","435","2","legacy","1024","2","48000","-16","experiment","HHSHH","3","odd","206401","26528","204280","NA","130495","1928","205756","NA","207600","2084","193833","NA","207844","208281","207457","207843","Flanker task","76","36972","82","yes","1024"
"92.7710843373494","92.7710843373494","451.26506024096386","451.26506024096386","black","legacy","legacy","legacy","0","incongruent","uniform","1","undefined","1","h","82","0","0","0","82","0","82","0","82","0","0","0","82","82","82","82","Mon Sep 21 18:36:37 2020","600","The main experiment item","yes","Flankertask.osexp","/Users/annielenoir/Desktop","no","mono","no","18","no","white","no","no","768","legacy","2","79","/Users/annielenoir/Desktop/AL-subject-3.csv","legacy","Lentiform Loewenfeld","3.3.3","0","h","NA","s","s","NA","h","483","NA","24428","10445","NA","483","2","legacy","1024","2","48000","-16","experiment","SSHSS","3","odd","208426","26528","204280","NA","130495","1928","205756","NA","209625","2084","193833","NA","209871","210356","209481","209871","Flanker task","77","37455","83","yes","1024"
"92.85714285714286","92.85714285714286","451.3452380952381","451.3452380952381","black","legacy","legacy","legacy","0","incongruent","uniform","1","undefined","1","s","83","0","0","0","83","0","83","0","83","0","0","0","83","83","83","83","Mon Sep 21 18:36:37 2020","600","The main experiment item","yes","Flankertask.osexp","/Users/annielenoir/Desktop","no","mono","no","18","no","white","no","no","768","legacy","3","79","/Users/annielenoir/Desktop/AL-subject-3.csv","legacy","Lentiform Loewenfeld","3.3.3","0","s","NA","s","s","NA","s","458","NA","24428","10445","NA","458","2","legacy","1024","2","48000","-16","experiment","HHSHH","3","odd","210503","26528","204280","NA","130495","1928","205756","NA","211702","2084","193833","NA","211949","212409","211557","211949","Flanker task","78","37913","84","yes","1024"
"92.94117647058823","92.94117647058823","450.7176470588235","450.7176470588235","black","legacy","legacy","legacy","0","congruent","uniform","1","undefined","1","h","84","0","0","0","84","0","84","0","84","0","0","0","84","84","84","84","Mon Sep 21 18:36:37 2020","600","The main experiment item","yes","Flankertask.osexp","/Users/annielenoir/Desktop","no","mono","no","18","no","white","no","no","768","legacy","4","79","/Users/annielenoir/Desktop/AL-subject-3.csv","legacy","Lentiform Loewenfeld","3.3.3","0","h","NA","s","s","NA","h","398","NA","24428","10445","NA","398","2","legacy","1024","2","48000","-16","experiment","HHHHH","3","odd","212557","26528","204280","NA","130495","1928","205756","NA","213753","2084","193833","NA","213998","214398","213611","213998","Flanker task","79","38311","85","yes","1024"
"93.02325581395348","93.02325581395348","449.93023255813955","449.93023255813955","black","legacy","legacy","legacy","0","congruent","uniform","1","undefined","1","s","85","0","0","0","85","0","85","0","85","0","0","0","85","85","85","85","Mon Sep 21 18:36:37 2020","600","The main experiment item","yes","Flankertask.osexp","/Users/annielenoir/Desktop","no","mono","no","18","no","white","no","no","768","legacy","5","79","/Users/annielenoir/Desktop/AL-subject-3.csv","legacy","Lentiform Loewenfeld","3.3.3","0","s","NA","s","s","NA","s","383","NA","24428","10445","NA","383","2","legacy","1024","2","48000","-16","experiment","SSSSS","3","odd","214544","26528","204280","NA","130495","1928","205756","NA","215743","2084","193833","NA","215986","216371","215599","215986","Flanker task","80","38694","86","yes","1024"
"93.10344827586206","93.10344827586206","448.5057471264368","448.5057471264368","black","legacy","legacy","legacy","0","congruent","uniform","1","undefined","1","h","86","0","0","0","86","0","86","0","86","0","0","0","86","86","86","86","Mon Sep 21 18:36:37 2020","600","The main experiment item","yes","Flankertask.osexp","/Users/annielenoir/Desktop","no","mono","no","18","no","white","no","no","768","legacy","6","79","/Users/annielenoir/Desktop/AL-subject-3.csv","legacy","Lentiform Loewenfeld","3.3.3","0","h","NA","s","s","NA","h","326","NA","24428","10445","NA","326","2","legacy","1024","2","48000","-16","experiment","HHHHH","3","odd","216519","26528","204280","NA","130495","1928","205756","NA","217721","2084","193833","NA","217969","218296","217576","217969","Flanker task","81","39020","87","yes","1024"
"93.18181818181819","93.18181818181819","448.14772727272725","448.14772727272725","black","legacy","legacy","legacy","0","congruent","uniform","1","undefined","1","s","87","0","0","0","87","0","87","0","87","0","0","0","87","87","87","87","Mon Sep 21 18:36:37 2020","600","The main experiment item","yes","Flankertask.osexp","/Users/annielenoir/Desktop","no","mono","no","18","no","white","no","no","768","legacy","7","79","/Users/annielenoir/Desktop/AL-subject-3.csv","legacy","Lentiform Loewenfeld","3.3.3","0","s","NA","s","s","NA","s","417","NA","24428","10445","NA","417","2","legacy","1024","2","48000","-16","experiment","SSSSS","3","odd","218448","26528","204280","NA","130495","1928","205756","NA","219648","2084","193833","NA","219899","220317","219502","219899","Flanker task","82","39437","88","yes","1024"
"93.25842696629213","93.25842696629213","447.2808988764045","447.2808988764045","black","legacy","legacy","legacy","0","incongruent","uniform","1","undefined","1","h","88","0","0","0","88","0","88","0","88","0","0","0","88","88","88","88","Mon Sep 21 18:36:37 2020","600","The main experiment item","yes","Flankertask.osexp","/Users/annielenoir/Desktop","no","mono","no","18","no","white","no","no","768","legacy","8","79","/Users/annielenoir/Desktop/AL-subject-3.csv","legacy","Lentiform Loewenfeld","3.3.3","0","h","NA","s","s","NA","h","371","NA","24428","10445","NA","371","2","legacy","1024","2","48000","-16","experiment","SSHSS","3","odd","220465","26528","204280","NA","130495","1928","205756","NA","221665","2084","193833","NA","221915","222287","221519","221915","Flanker task","83","39808","89","yes","1024"
"93.33333333333333","93.33333333333333","447.1333333333333","447.1333333333333","black","legacy","legacy","legacy","0","congruent","uniform","1","undefined","1","s","89","0","0","0","89","0","89","0","89","0","0","0","89","89","89","89","Mon Sep 21 18:36:37 2020","600","The main experiment item","yes","Flankertask.osexp","/Users/annielenoir/Desktop","no","mono","no","18","no","white","no","no","768","legacy","9","79","/Users/annielenoir/Desktop/AL-subject-3.csv","legacy","Lentiform Loewenfeld","3.3.3","0","s","NA","s","s","NA","s","434","NA","24428","10445","NA","434","2","legacy","1024","2","48000","-16","experiment","SSSSS","3","odd","222435","26528","204280","NA","130495","1928","205756","NA","223632","2084","193833","NA","223881","224316","223489","223881","Flanker task","84","40242","90","yes","1024"
"93.4065934065934","93.4065934065934","446.95604395604397","446.95604395604397","black","legacy","legacy","legacy","0","congruent","uniform","1","undefined","1","s","90","0","0","0","90","0","90","0","90","0","0","0","90","90","90","90","Mon Sep 21 18:36:37 2020","600","The main experiment item","yes","Flankertask.osexp","/Users/annielenoir/Desktop","no","mono","no","18","no","white","no","no","768","legacy","10","79","/Users/annielenoir/Desktop/AL-subject-3.csv","legacy","Lentiform Loewenfeld","3.3.3","0","s","NA","s","s","NA","s","431","NA","24428","10445","NA","431","2","legacy","1024","2","48000","-16","experiment","SSSSS","3","odd","224464","26528","204280","NA","130495","1928","205756","NA","225664","2084","193833","NA","225911","226343","225520","225911","Flanker task","85","40673","91","yes","1024"
"93.47826086956522","93.47826086956522","447.44565217391306","447.44565217391306","black","legacy","legacy","legacy","0","incongruent","uniform","1","undefined","1","s","91","0","0","0","91","0","91","0","91","0","0","0","91","91","91","91","Mon Sep 21 18:36:37 2020","600","The main experiment item","yes","Flankertask.osexp","/Users/annielenoir/Desktop","no","mono","no","18","no","white","no","no","768","legacy","11","79","/Users/annielenoir/Desktop/AL-subject-3.csv","legacy","Lentiform Loewenfeld","3.3.3","0","s","NA","s","s","NA","s","492","NA","24428","10445","NA","492","2","legacy","1024","2","48000","-16","experiment","HHSHH","3","odd","226491","26528","204280","NA","130495","1928","205756","NA","227691","2084","193833","NA","227938","228431","227547","227938","Flanker task","86","41165","92","yes","1024"
"93.54838709677419","93.54838709677419","447.18279569892474","447.18279569892474","black","legacy","legacy","legacy","0","incongruent","uniform","1","undefined","1","s","92","0","0","0","92","0","92","0","92","0","0","0","92","92","92","92","Mon Sep 21 18:36:37 2020","600","The main experiment item","yes","Flankertask.osexp","/Users/annielenoir/Desktop","no","mono","no","18","no","white","no","no","768","legacy","12","79","/Users/annielenoir/Desktop/AL-subject-3.csv","legacy","Lentiform Loewenfeld","3.3.3","0","s","NA","s","s","NA","s","423","NA","24428","10445","NA","423","2","legacy","1024","2","48000","-16","experiment","HHSHH","3","odd","228578","26528","204280","NA","130495","1928","205756","NA","229777","2084","193833","NA","230025","230449","229634","230025","Flanker task","87","41588","93","yes","1024"
"93.61702127659575","93.61702127659575","446.71276595744683","446.71276595744683","black","legacy","legacy","legacy","0","incongruent","uniform","1","undefined","1","s","93","0","0","0","93","0","93","0","93","0","0","0","93","93","93","93","Mon Sep 21 18:36:37 2020","600","The main experiment item","yes","Flankertask.osexp","/Users/annielenoir/Desktop","no","mono","no","18","no","white","no","no","768","legacy","13","79","/Users/annielenoir/Desktop/AL-subject-3.csv","legacy","Lentiform Loewenfeld","3.3.3","0","s","NA","s","s","NA","s","403","NA","24428","10445","NA","403","2","legacy","1024","2","48000","-16","experiment","HHSHH","3","odd","230597","26528","204280","NA","130495","1928","205756","NA","231796","2084","193833","NA","232045","232449","231653","232045","Flanker task","88","41991","94","yes","1024"
"93.6842105263158","93.6842105263158","447.17894736842106","447.17894736842106","black","legacy","legacy","legacy","0","incongruent","uniform","1","undefined","1","h","94","0","0","0","94","0","94","0","94","0","0","0","94","94","94","94","Mon Sep 21 18:36:37 2020","600","The main experiment item","yes","Flankertask.osexp","/Users/annielenoir/Desktop","no","mono","no","18","no","white","no","no","768","legacy","14","79","/Users/annielenoir/Desktop/AL-subject-3.csv","legacy","Lentiform Loewenfeld","3.3.3","0","h","NA","s","s","NA","h","491","NA","24428","10445","NA","491","2","legacy","1024","2","48000","-16","experiment","SSHSS","3","odd","232597","26528","204280","NA","130495","1928","205756","NA","233798","2084","193833","NA","234045","234537","233654","234045","Flanker task","89","42482","95","yes","1024"
"93.75","93.75","447.6666666666667","447.6666666666667","black","legacy","legacy","legacy","0","incongruent","uniform","1","undefined","1","s","95","0","0","0","95","0","95","0","95","0","0","0","95","95","95","95","Mon Sep 21 18:36:37 2020","600","The main experiment item","yes","Flankertask.osexp","/Users/annielenoir/Desktop","no","mono","no","18","no","white","no","no","768","legacy","15","79","/Users/annielenoir/Desktop/AL-subject-3.csv","legacy","Lentiform Loewenfeld","3.3.3","0","s","NA","s","s","NA","s","494","NA","24428","10445","NA","494","2","legacy","1024","2","48000","-16","experiment","HHSHH","3","odd","234684","26528","204280","NA","130495","1928","205756","NA","235881","2084","193833","NA","236129","236625","235737","236129","Flanker task","90","42976","96","yes","1024"
"93.81443298969072","93.81443298969072","447.08247422680415","447.08247422680415","black","legacy","legacy","legacy","0","incongruent","uniform","1","undefined","1","h","96","0","0","0","96","0","96","0","96","0","0","0","96","96","96","96","Mon Sep 21 18:36:37 2020","600","The main experiment item","yes","Flankertask.osexp","/Users/annielenoir/Desktop","no","mono","no","18","no","white","no","no","768","legacy","16","79","/Users/annielenoir/Desktop/AL-subject-3.csv","legacy","Lentiform Loewenfeld","3.3.3","0","h","NA","s","s","NA","h","391","NA","24428","10445","NA","391","2","legacy","1024","2","48000","-16","experiment","SSHSS","3","odd","236772","26528","204280","NA","130495","1928","205756","NA","237970","2084","193833","NA","238220","238613","237827","238220","Flanker task","91","43367","97","yes","1024"
"93.87755102040816","93.87755102040816","447.2040816326531","447.2040816326531","black","legacy","legacy","legacy","0","incongruent","uniform","1","undefined","1","s","97","0","0","0","97","0","97","0","97","0","0","0","97","97","97","97","Mon Sep 21 18:36:37 2020","600","The main experiment item","yes","Flankertask.osexp","/Users/annielenoir/Desktop","no","mono","no","18","no","white","no","no","768","legacy","17","79","/Users/annielenoir/Desktop/AL-subject-3.csv","legacy","Lentiform Loewenfeld","3.3.3","0","s","NA","s","s","NA","s","459","NA","24428","10445","NA","459","2","legacy","1024","2","48000","-16","experiment","HHSHH","3","odd","238759","26528","204280","NA","130495","1928","205756","NA","239958","2084","193833","NA","240209","240670","239813","240209","Flanker task","92","43826","98","yes","1024"
"93.93939393939394","93.93939393939394","445.75757575757575","445.75757575757575","black","legacy","legacy","legacy","0","congruent","uniform","1","undefined","1","h","98","0","0","0","98","0","98","0","98","0","0","0","98","98","98","98","Mon Sep 21 18:36:37 2020","600","The main experiment item","yes","Flankertask.osexp","/Users/annielenoir/Desktop","no","mono","no","18","no","white","no","no","768","legacy","18","79","/Users/annielenoir/Desktop/AL-subject-3.csv","legacy","Lentiform Loewenfeld","3.3.3","0","h","NA","s","s","NA","h","304","NA","24428","10445","NA","304","2","legacy","1024","2","48000","-16","experiment","HHHHH","3","odd","240816","26528","204280","NA","130495","1928","205756","NA","242014","2084","193833","NA","242263","242569","241870","242263","Flanker task","93","44130","99","yes","1024"
"94","94","444.77","444.77","black","legacy","legacy","legacy","0","incongruent","uniform","1","undefined","1","h","99","0","0","0","99","0","99","0","99","0","0","0","99","99","99","99","Mon Sep 21 18:36:37 2020","600","The main experiment item","yes","Flankertask.osexp","/Users/annielenoir/Desktop","no","mono","no","18","no","white","no","no","768","legacy","19","79","/Users/annielenoir/Desktop/AL-subject-3.csv","legacy","Lentiform Loewenfeld","3.3.3","0","h","NA","s","s","NA","h","347","NA","24428","10445","NA","347","2","legacy","1024","2","48000","-16","experiment","SSHSS","3","odd","242715","26528","204280","NA","130495","1928","205756","NA","243917","2084","193833","NA","244165","244514","243772","244165","Flanker task","94","44477","100","yes","1024"
"94.05940594059406","94.05940594059406","444.3168316831683","444.3168316831683","black","legacy","legacy","legacy","0","congruent","uniform","1","undefined","1","s","100","0","0","0","100","0","100","0","100","0","0","0","100","100","100","100","Mon Sep 21 18:36:37 2020","600","The main experiment item","yes","Flankertask.osexp","/Users/annielenoir/Desktop","no","mono","no","18","no","white","no","no","768","legacy","20","79","/Users/annielenoir/Desktop/AL-subject-3.csv","legacy","Lentiform Loewenfeld","3.3.3","0","s","NA","s","s","NA","s","399","NA","24428","10445","NA","399","2","legacy","1024","2","48000","-16","experiment","SSSSS","3","odd","244660","26528","204280","NA","130495","1928","205756","NA","245860","2084","193833","NA","246108","246508","245714","246108","Flanker task","95","44876","101","yes","1024"
"94.11764705882354","94.11764705882354","443.8529411764706","443.8529411764706","black","legacy","legacy","legacy","0","incongruent","uniform","1","undefined","1","s","101","0","0","0","101","0","101","0","101","0","0","0","101","101","101","101","Mon Sep 21 18:36:37 2020","600","The main experiment item","yes","Flankertask.osexp","/Users/annielenoir/Desktop","no","mono","no","18","no","white","no","no","768","legacy","21","79","/Users/annielenoir/Desktop/AL-subject-3.csv","legacy","Lentiform Loewenfeld","3.3.3","0","s","NA","s","s","NA","s","397","NA","24428","10445","NA","397","2","legacy","1024","2","48000","-16","experiment","HHSHH","3","odd","246656","26528","204280","NA","130495","1928","205756","NA","247857","2084","193833","NA","248104","248503","247711","248104","Flanker task","96","45273","102","yes","1024"
"94.1747572815534","94.1747572815534","443.00970873786406","443.00970873786406","black","legacy","legacy","legacy","0","congruent","uniform","1","undefined","1","h","102","0","0","0","102","0","102","0","102","0","0","0","102","102","102","102","Mon Sep 21 18:36:37 2020","600","The main experiment item","yes","Flankertask.osexp","/Users/annielenoir/Desktop","no","mono","no","18","no","white","no","no","768","legacy","22","79","/Users/annielenoir/Desktop/AL-subject-3.csv","legacy","Lentiform Loewenfeld","3.3.3","0","h","NA","s","s","NA","h","357","NA","24428","10445","NA","357","2","legacy","1024","2","48000","-16","experiment","HHHHH","3","odd","248655","26528","204280","NA","130495","1928","205756","NA","249855","2084","193833","NA","250102","250461","249709","250102","Flanker task","97","45630","103","yes","1024"
"94.23076923076923","94.23076923076923","442.4230769230769","442.4230769230769","black","legacy","legacy","legacy","0","incongruent","uniform","1","undefined","1","h","103","0","0","0","103","0","103","0","103","0","0","0","103","103","103","103","Mon Sep 21 18:36:37 2020","600","The main experiment item","yes","Flankertask.osexp","/Users/annielenoir/Desktop","no","mono","no","18","no","white","no","no","768","legacy","23","79","/Users/annielenoir/Desktop/AL-subject-3.csv","legacy","Lentiform Loewenfeld","3.3.3","0","h","NA","s","s","NA","h","382","NA","24428","10445","NA","382","2","legacy","1024","2","48000","-16","experiment","SSHSS","3","odd","250608","26528","204280","NA","130495","1928","205756","NA","251807","2084","193833","NA","252053","252437","251662","252053","Flanker task","98","46012","104","yes","1024"
"94.28571428571429","94.28571428571429","442.2952380952381","442.2952380952381","black","legacy","legacy","legacy","0","incongruent","uniform","1","undefined","1","h","104","0","0","0","104","0","104","0","104","0","0","0","104","104","104","104","Mon Sep 21 18:36:37 2020","600","The main experiment item","yes","Flankertask.osexp","/Users/annielenoir/Desktop","no","mono","no","18","no","white","no","no","768","legacy","24","79","/Users/annielenoir/Desktop/AL-subject-3.csv","legacy","Lentiform Loewenfeld","3.3.3","0","h","NA","s","s","NA","h","429","NA","24428","10445","NA","429","2","legacy","1024","2","48000","-16","experiment","SSHSS","3","odd","252586","26528","204280","NA","130495","1928","205756","NA","253786","2084","193833","NA","254032","254463","253642","254032","Flanker task","99","46441","105","yes","1024"
"94.33962264150944","94.33962264150944","441.89622641509436","441.89622641509436","black","legacy","legacy","legacy","0","incongruent","uniform","1","undefined","1","h","105","0","0","0","105","0","105","0","105","0","0","0","105","105","105","105","Mon Sep 21 18:36:37 2020","600","The main experiment item","yes","Flankertask.osexp","/Users/annielenoir/Desktop","no","mono","no","18","no","white","no","no","768","legacy","25","79","/Users/annielenoir/Desktop/AL-subject-3.csv","legacy","Lentiform Loewenfeld","3.3.3","0","h","NA","s","s","NA","h","400","NA","24428","10445","NA","400","2","legacy","1024","2","48000","-16","experiment","SSHSS","3","odd","254611","26528","204280","NA","130495","1928","205756","NA","255810","2084","193833","NA","256058","256459","255665","256058","Flanker task","100","46841","106","yes","1024"
"94.39252336448598","94.39252336448598","442.05607476635515","442.05607476635515","black","legacy","legacy","legacy","0","congruent","uniform","1","undefined","1","s","106","0","0","0","106","0","106","0","106","0","0","0","106","106","106","106","Mon Sep 21 18:36:37 2020","600","The main experiment item","yes","Flankertask.osexp","/Users/annielenoir/Desktop","no","mono","no","18","no","white","no","no","768","legacy","26","79","/Users/annielenoir/Desktop/AL-subject-3.csv","legacy","Lentiform Loewenfeld","3.3.3","0","s","NA","s","s","NA","s","459","NA","24428","10445","NA","459","2","legacy","1024","2","48000","-16","experiment","SSSSS","3","odd","256607","26528","204280","NA","130495","1928","205756","NA","257807","2084","193833","NA","258054","258515","257661","258054","Flanker task","101","47300","107","yes","1024"
"94.44444444444444","94.44444444444444","441.9166666666667","441.9166666666667","black","legacy","legacy","legacy","0","congruent","uniform","1","undefined","1","s","107","0","0","0","107","0","107","0","107","0","0","0","107","107","107","107","Mon Sep 21 18:36:37 2020","600","The main experiment item","yes","Flankertask.osexp","/Users/annielenoir/Desktop","no","mono","no","18","no","white","no","no","768","legacy","27","79","/Users/annielenoir/Desktop/AL-subject-3.csv","legacy","Lentiform Loewenfeld","3.3.3","0","s","NA","s","s","NA","s","427","NA","24428","10445","NA","427","2","legacy","1024","2","48000","-16","experiment","SSSSS","3","odd","258663","26528","204280","NA","130495","1928","205756","NA","259862","2084","193833","NA","260110","260539","259717","260110","Flanker task","102","47727","108","yes","1024"
"94.4954128440367","94.4954128440367","440.9633027522936","440.9633027522936","black","legacy","legacy","legacy","0","congruent","uniform","1","undefined","1","h","108","0","0","0","108","0","108","0","108","0","0","0","108","108","108","108","Mon Sep 21 18:36:37 2020","600","The main experiment item","yes","Flankertask.osexp","/Users/annielenoir/Desktop","no","mono","no","18","no","white","no","no","768","legacy","28","79","/Users/annielenoir/Desktop/AL-subject-3.csv","legacy","Lentiform Loewenfeld","3.3.3","0","h","NA","s","s","NA","h","338","NA","24428","10445","NA","338","2","legacy","1024","2","48000","-16","experiment","HHHHH","3","odd","260687","26528","204280","NA","130495","1928","205756","NA","261888","2084","193833","NA","262135","262474","261742","262135","Flanker task","103","48065","109","yes","1024"
"94.54545454545455","94.54545454545455","440.2909090909091","440.2909090909091","black","legacy","legacy","legacy","0","congruent","uniform","1","undefined","1","h","109","0","0","0","109","0","109","0","109","0","0","0","109","109","109","109","Mon Sep 21 18:36:37 2020","600","The main experiment item","yes","Flankertask.osexp","/Users/annielenoir/Desktop","no","mono","no","18","no","white","no","no","768","legacy","29","79","/Users/annielenoir/Desktop/AL-subject-3.csv","legacy","Lentiform Loewenfeld","3.3.3","0","h","NA","s","s","NA","h","367","NA","24428","10445","NA","367","2","legacy","1024","2","48000","-16","experiment","HHHHH","3","odd","262624","26528","204280","NA","130495","1928","205756","NA","263823","2084","193833","NA","264070","264438","263678","264070","Flanker task","104","48432","110","yes","1024"
"94.5945945945946","94.5945945945946","439.5135135135135","439.5135135135135","black","legacy","legacy","legacy","0","congruent","uniform","1","undefined","1","h","110","0","0","0","110","0","110","0","110","0","0","0","110","110","110","110","Mon Sep 21 18:36:37 2020","600","The main experiment item","yes","Flankertask.osexp","/Users/annielenoir/Desktop","no","mono","no","18","no","white","no","no","768","legacy","30","79","/Users/annielenoir/Desktop/AL-subject-3.csv","legacy","Lentiform Loewenfeld","3.3.3","0","h","NA","s","s","NA","h","354","NA","24428","10445","NA","354","2","legacy","1024","2","48000","-16","experiment","HHHHH","3","odd","264588","26528","204280","NA","130495","1928","205756","NA","265786","2084","193833","NA","266034","266389","265641","266034","Flanker task","105","48786","111","yes","1024"
"94.64285714285714","94.64285714285714","439.66964285714283","439.66964285714283","black","legacy","legacy","legacy","0","incongruent","uniform","1","undefined","1","s","111","0","0","0","111","0","111","0","111","0","0","0","111","111","111","111","Mon Sep 21 18:36:37 2020","600","The main experiment item","yes","Flankertask.osexp","/Users/annielenoir/Desktop","no","mono","no","18","no","white","no","no","768","legacy","31","79","/Users/annielenoir/Desktop/AL-subject-3.csv","legacy","Lentiform Loewenfeld","3.3.3","0","s","NA","s","s","NA","s","457","NA","24428","10445","NA","457","2","legacy","1024","2","48000","-16","experiment","HHSHH","3","odd","266535","26528","204280","NA","130495","1928","205756","NA","267747","2084","193833","NA","267995","268453","267603","267995","Flanker task","106","49243","112","yes","1024"
"94.69026548672566","94.69026548672566","439.95575221238937","439.95575221238937","black","legacy","legacy","legacy","0","incongruent","uniform","1","undefined","1","s","112","0","0","0","112","0","112","0","112","0","0","0","112","112","112","112","Mon Sep 21 18:36:37 2020","600","The main experiment item","yes","Flankertask.osexp","/Users/annielenoir/Desktop","no","mono","no","18","no","white","no","no","768","legacy","32","79","/Users/annielenoir/Desktop/AL-subject-3.csv","legacy","Lentiform Loewenfeld","3.3.3","0","s","NA","s","s","NA","s","472","NA","24428","10445","NA","472","2","legacy","1024","2","48000","-16","experiment","HHSHH","3","odd","268603","26528","204280","NA","130495","1928","205756","NA","269803","2084","193833","NA","270050","270524","269658","270050","Flanker task","107","49715","113","yes","1024"
"93.85964912280701","93.85964912280701","439.2543859649123","439.2543859649123","black","legacy","legacy","legacy","0","congruent","uniform","0","undefined","0","s","113","0","0","0","113","0","113","0","113","0","0","0","113","113","113","113","Mon Sep 21 18:36:37 2020","600","The main experiment item","yes","Flankertask.osexp","/Users/annielenoir/Desktop","no","mono","no","18","no","white","no","no","768","legacy","33","79","/Users/annielenoir/Desktop/AL-subject-3.csv","legacy","Lentiform Loewenfeld","3.3.3","0","h","NA","s","s","NA","h","360","NA","24428","10445","NA","360","2","legacy","1024","2","48000","-16","experiment","SSSSS","3","odd","270672","26528","204280","NA","130495","1928","205756","NA","271870","2084","193833","NA","272117","272478","271725","272117","Flanker task","107","50075","114","yes","1024"
"93.91304347826087","93.91304347826087","439.46086956521737","439.46086956521737","black","legacy","legacy","legacy","0","incongruent","uniform","1","undefined","1","h","114","0","0","0","114","0","114","0","114","0","0","0","114","114","114","114","Mon Sep 21 18:36:37 2020","600","The main experiment item","yes","Flankertask.osexp","/Users/annielenoir/Desktop","no","mono","no","18","no","white","no","no","768","legacy","34","79","/Users/annielenoir/Desktop/AL-subject-3.csv","legacy","Lentiform Loewenfeld","3.3.3","0","h","NA","s","s","NA","h","463","NA","24428","10445","NA","463","2","legacy","1024","2","48000","-16","experiment","SSHSS","3","odd","273276","26528","204280","NA","272627","1928","205756","NA","274475","2084","193833","NA","274728","275193","274330","274728","Flanker task","108","50538","115","yes","1024"
"93.96551724137932","93.96551724137932","440.55172413793105","440.55172413793105","black","legacy","legacy","legacy","0","incongruent","uniform","1","undefined","1","s","115","0","0","0","115","0","115","0","115","0","0","0","115","115","115","115","Mon Sep 21 18:36:37 2020","600","The main experiment item","yes","Flankertask.osexp","/Users/annielenoir/Desktop","no","mono","no","18","no","white","no","no","768","legacy","35","79","/Users/annielenoir/Desktop/AL-subject-3.csv","legacy","Lentiform Loewenfeld","3.3.3","0","s","NA","s","s","NA","s","566","NA","24428","10445","NA","566","2","legacy","1024","2","48000","-16","experiment","HHSHH","3","odd","275347","26528","204280","NA","272627","1928","205756","NA","276545","2084","193833","NA","276794","277362","276401","276793","Flanker task","109","51104","116","yes","1024"
"94.01709401709402","94.01709401709402","440.1880341880342","440.1880341880342","black","legacy","legacy","legacy","0","congruent","uniform","1","undefined","1","s","116","0","0","0","116","0","116","0","116","0","0","0","116","116","116","116","Mon Sep 21 18:36:37 2020","600","The main experiment item","yes","Flankertask.osexp","/Users/annielenoir/Desktop","no","mono","no","18","no","white","no","no","768","legacy","36","79","/Users/annielenoir/Desktop/AL-subject-3.csv","legacy","Lentiform Loewenfeld","3.3.3","0","s","NA","s","s","NA","s","398","NA","24428","10445","NA","398","2","legacy","1024","2","48000","-16","experiment","SSSSS","3","odd","277507","26528","204280","NA","272627","1928","205756","NA","278708","2084","193833","NA","278955","279355","278562","278955","Flanker task","110","51502","117","yes","1024"
"94.0677966101695","94.0677966101695","439.33898305084745","439.33898305084745","black","legacy","legacy","legacy","0","congruent","uniform","1","undefined","1","s","117","0","0","0","117","0","117","0","117","0","0","0","117","117","117","117","Mon Sep 21 18:36:37 2020","600","The main experiment item","yes","Flankertask.osexp","/Users/annielenoir/Desktop","no","mono","no","18","no","white","no","no","768","legacy","37","79","/Users/annielenoir/Desktop/AL-subject-3.csv","legacy","Lentiform Loewenfeld","3.3.3","0","s","NA","s","s","NA","s","340","NA","24428","10445","NA","340","2","legacy","1024","2","48000","-16","experiment","SSSSS","3","odd","279507","26528","204280","NA","272627","1928","205756","NA","280705","2084","193833","NA","280952","281294","280562","280952","Flanker task","111","51842","118","yes","1024"
"94.11764705882354","94.11764705882354","438.96638655462186","438.96638655462186","black","legacy","legacy","legacy","0","congruent","uniform","1","undefined","1","s","118","0","0","0","118","0","118","0","118","0","0","0","118","118","118","118","Mon Sep 21 18:36:37 2020","600","The main experiment item","yes","Flankertask.osexp","/Users/annielenoir/Desktop","no","mono","no","18","no","white","no","no","768","legacy","38","79","/Users/annielenoir/Desktop/AL-subject-3.csv","legacy","Lentiform Loewenfeld","3.3.3","0","s","NA","s","s","NA","s","395","NA","24428","10445","NA","395","2","legacy","1024","2","48000","-16","experiment","SSSSS","3","odd","281442","26528","204280","NA","272627","1928","205756","NA","282641","2084","193833","NA","282889","283286","282497","282889","Flanker task","112","52237","119","yes","1024"
"94.16666666666667","94.16666666666667","438.10833333333335","438.10833333333335","black","legacy","legacy","legacy","0","incongruent","uniform","1","undefined","1","s","119","0","0","0","119","0","119","0","119","0","0","0","119","119","119","119","Mon Sep 21 18:36:37 2020","600","The main experiment item","yes","Flankertask.osexp","/Users/annielenoir/Desktop","no","mono","no","18","no","white","no","no","768","legacy","39","79","/Users/annielenoir/Desktop/AL-subject-3.csv","legacy","Lentiform Loewenfeld","3.3.3","0","s","NA","s","s","NA","s","336","NA","24428","10445","NA","336","2","legacy","1024","2","48000","-16","experiment","HHSHH","3","odd","283431","26528","204280","NA","272627","1928","205756","NA","284636","2084","193833","NA","284887","285225","284487","284887","Flanker task","113","52573","120","yes","1024"
"94.21487603305785","94.21487603305785","438","438","black","legacy","legacy","legacy","0","incongruent","uniform","1","undefined","1","s","120","0","0","0","120","0","120","0","120","0","0","0","120","120","120","120","Mon Sep 21 18:36:37 2020","600","The main experiment item","yes","Flankertask.osexp","/Users/annielenoir/Desktop","no","mono","no","18","no","white","no","no","768","legacy","40","79","/Users/annielenoir/Desktop/AL-subject-3.csv","legacy","Lentiform Loewenfeld","3.3.3","0","s","NA","s","s","NA","s","425","NA","24428","10445","NA","425","2","legacy","1024","2","48000","-16","experiment","HHSHH","3","odd","285373","26528","204280","NA","272627","1928","205756","NA","286570","2084","193833","NA","286821","287248","286427","286821","Flanker task","114","52998","121","yes","1024"
"94.26229508196721","94.26229508196721","438.05737704918033","438.05737704918033","black","legacy","legacy","legacy","0","congruent","uniform","1","undefined","1","h","121","0","0","0","121","0","121","0","121","0","0","0","121","121","121","121","Mon Sep 21 18:36:37 2020","600","The main experiment item","yes","Flankertask.osexp","/Users/annielenoir/Desktop","no","mono","no","18","no","white","no","no","768","legacy","41","79","/Users/annielenoir/Desktop/AL-subject-3.csv","legacy","Lentiform Loewenfeld","3.3.3","0","h","NA","s","s","NA","h","445","NA","24428","10445","NA","445","2","legacy","1024","2","48000","-16","experiment","HHHHH","3","odd","287395","26528","204280","NA","272627","1928","205756","NA","288592","2084","193833","NA","288841","289288","288450","288841","Flanker task","115","53443","122","yes","1024"
