"acc","accuracy","average_response_time","avg_rt","background","canvas_backend","clock_backend","color_backend","compensation","condition","coordinates","correct","correct_Instruction","correct_keyboard_response","correct_response","count_Block1","count_Block2","count_Block3","count_Errorfeedback","count_Finish","count_Fixation","count_ISI","count_Instruction","count_Instruction2","count_Instruction3","count_experiment","count_faster","count_keyboard_response","count_logger","count_sequence","count_stimulus","datetime","deadline","description","disable_garbage_collection","experiment_file","experiment_path","font_bold","font_family","font_italic","font_size","font_underline","foreground","form_clicks","fullscreen","height","keyboard_backend","live_row","live_row_Block1","logfile","mouse_backend","opensesame_codename","opensesame_version","repeat_cycle","response","response_Finish","response_Instruction","response_Instruction2","response_Instruction3","response_keyboard_response","response_time","response_time_Finish","response_time_Instruction","response_time_Instruction2","response_time_Instruction3","response_time_keyboard_response","round_decimals","sampler_backend","sound_buf_size","sound_channels","sound_freq","sound_sample_size","start","stimulus","subject_nr","subject_parity","time_Block1","time_Block2","time_Block3","time_Errorfeedback","time_Finish","time_Fixation","time_ISI","time_Instruction","time_Instruction2","time_Instruction3","time_experiment","time_faster","time_keyboard_response","time_logger","time_sequence","time_stimulus","title","total_correct","total_response_time","total_responses","uniform_coordinates","width"
"0","0","1500","1500","black","legacy","legacy","legacy","0","incongruent ","uniform","0","undefined","0","h","0","0","0","0","0","0","0","0","0","0","0","0","0","0","0","0","Sat Sep 19 10:43:40 2020","1500","The main experiment item","yes","FlankerTask.osexp","/Users/kaylaredder/Desktop","no","mono","no","18","no","white","no","yes","768","legacy","0","0","/Users/kaylaredder/Desktop/fr-subject-2.csv","legacy","Lentiform Loewenfeld","3.3.3","0","None","NA","q","NA","NA","None","1500","NA","58728","NA","NA","1500","2","legacy","1024","2","48000","-16","experiment","SSHSS","2","even","61198","NA","NA","NA","NA","61249","NA","2461","NA","NA","2446","NA","61363","62863","61238","61363","Flanker Task ","0","1500","1","yes","1024"
"50","50","1158","1158","black","legacy","legacy","legacy","0","congruent ","uniform","1","undefined","1","s","0","0","0","1","0","1","1","0","0","0","0","1","1","1","1","1","Sat Sep 19 10:43:40 2020","1500","The main experiment item","yes","FlankerTask.osexp","/Users/kaylaredder/Desktop","no","mono","no","18","no","white","no","yes","768","legacy","1","1","/Users/kaylaredder/Desktop/fr-subject-2.csv","legacy","Lentiform Loewenfeld","3.3.3","0","s","NA","q","NA","NA","s","816","NA","58728","NA","NA","816","2","legacy","1024","2","48000","-16","experiment","SSSSS","2","even","61198","NA","NA","62885","NA","64466","63398","2461","NA","NA","2446","NA","64580","65397","64454","64580","Flanker Task ","1","2316","2","yes","1024"
"66.66666666666667","66.66666666666667","999.6666666666666","999.6666666666666","black","legacy","legacy","legacy","0","incongruent ","uniform","1","undefined","1","h","0","0","0","2","0","2","2","0","0","0","0","2","2","2","2","2","Sat Sep 19 10:43:40 2020","1500","The main experiment item","yes","FlankerTask.osexp","/Users/kaylaredder/Desktop","no","mono","no","18","no","white","no","yes","768","legacy","2","2","/Users/kaylaredder/Desktop/fr-subject-2.csv","legacy","Lentiform Loewenfeld","3.3.3","0","h","NA","q","NA","NA","h","683","NA","58728","NA","NA","683","2","legacy","1024","2","48000","-16","experiment","SSHSS","2","even","61198","NA","NA","62885","NA","66476","65418","2461","NA","NA","2446","NA","66590","67274","66464","66590","Flanker Task ","2","2999","3","yes","1024"
"75","75","916.5","916.5","black","legacy","legacy","legacy","0","incongruent","uniform","1","undefined","1","s","0","0","0","3","0","3","3","0","0","0","0","3","3","3","3","3","Sat Sep 19 10:43:40 2020","1500","The main experiment item","yes","FlankerTask.osexp","/Users/kaylaredder/Desktop","no","mono","no","18","no","white","no","yes","768","legacy","3","3","/Users/kaylaredder/Desktop/fr-subject-2.csv","legacy","Lentiform Loewenfeld","3.3.3","0","s","NA","q","NA","NA","s","667","NA","58728","NA","NA","667","2","legacy","1024","2","48000","-16","experiment","HHSHH","2","even","61198","NA","NA","62885","NA","68352","67294","2461","NA","NA","2446","NA","68466","69134","68340","68466","Flanker Task ","3","3666","4","yes","1024"
"80","80","860.2","860.2","black","legacy","legacy","legacy","0","incongruent ","uniform","1","undefined","1","h","0","0","0","4","0","4","4","0","0","0","0","4","4","4","4","4","Sat Sep 19 10:43:40 2020","1500","The main experiment item","yes","FlankerTask.osexp","/Users/kaylaredder/Desktop","no","mono","no","18","no","white","no","yes","768","legacy","4","4","/Users/kaylaredder/Desktop/fr-subject-2.csv","legacy","Lentiform Loewenfeld","3.3.3","0","h","NA","q","NA","NA","h","635","NA","58728","NA","NA","635","2","legacy","1024","2","48000","-16","experiment","SSHSS","2","even","61198","NA","NA","62885","NA","70210","69154","2461","NA","NA","2446","NA","70324","70960","70199","70324","Flanker Task ","4","4301","5","yes","1024"
"83.33333333333333","83.33333333333333","797.3333333333334","797.3333333333334","black","legacy","legacy","legacy","0","incongruent","uniform","1","undefined","1","s","0","0","0","5","0","5","5","0","0","0","0","5","5","5","5","5","Sat Sep 19 10:43:40 2020","1500","The main experiment item","yes","FlankerTask.osexp","/Users/kaylaredder/Desktop","no","mono","no","18","no","white","no","yes","768","legacy","5","5","/Users/kaylaredder/Desktop/fr-subject-2.csv","legacy","Lentiform Loewenfeld","3.3.3","0","s","NA","q","NA","NA","s","483","NA","58728","NA","NA","483","2","legacy","1024","2","48000","-16","experiment","HHSHH","2","even","61198","NA","NA","62885","NA","72054","70996","2461","NA","NA","2446","NA","72168","72652","72042","72167","Flanker Task ","5","4784","6","yes","1024"
"85.71428571428571","85.71428571428571","761.1428571428571","761.1428571428571","black","legacy","legacy","legacy","0","incongruent ","uniform","1","undefined","1","h","0","0","0","6","0","6","6","0","0","0","0","6","6","6","6","6","Sat Sep 19 10:43:40 2020","1500","The main experiment item","yes","FlankerTask.osexp","/Users/kaylaredder/Desktop","no","mono","no","18","no","white","no","yes","768","legacy","6","6","/Users/kaylaredder/Desktop/fr-subject-2.csv","legacy","Lentiform Loewenfeld","3.3.3","0","h","NA","q","NA","NA","h","544","NA","58728","NA","NA","544","2","legacy","1024","2","48000","-16","experiment","SSHSS","2","even","61198","NA","NA","62885","NA","73730","72673","2461","NA","NA","2446","NA","73843","74388","73719","73843","Flanker Task ","6","5328","7","yes","1024"
"87.5","87.5","742.75","742.75","black","legacy","legacy","legacy","0","congruent","uniform","1","undefined","1","h","0","0","0","7","0","7","7","0","0","0","0","7","7","7","7","7","Sat Sep 19 10:43:40 2020","1500","The main experiment item","yes","FlankerTask.osexp","/Users/kaylaredder/Desktop","no","mono","no","18","no","white","no","yes","768","legacy","7","7","/Users/kaylaredder/Desktop/fr-subject-2.csv","legacy","Lentiform Loewenfeld","3.3.3","0","h","NA","q","NA","NA","h","614","NA","58728","NA","NA","614","2","legacy","1024","2","48000","-16","experiment","HHHHH","2","even","61198","NA","NA","62885","NA","75465","74408","2461","NA","NA","2446","NA","75579","76194","75453","75579","Flanker Task ","7","5942","8","yes","1024"
"88.88888888888889","88.88888888888889","732.4444444444445","732.4444444444445","black","legacy","legacy","legacy","0","incongruent ","uniform","1","undefined","1","h","0","0","0","8","0","8","8","0","0","0","0","8","8","8","8","8","Sat Sep 19 10:43:40 2020","1500","The main experiment item","yes","FlankerTask.osexp","/Users/kaylaredder/Desktop","no","mono","no","18","no","white","no","yes","768","legacy","8","8","/Users/kaylaredder/Desktop/fr-subject-2.csv","legacy","Lentiform Loewenfeld","3.3.3","0","h","NA","q","NA","NA","h","650","NA","58728","NA","NA","650","2","legacy","1024","2","48000","-16","experiment","SSHSS","2","even","61198","NA","NA","62885","NA","77271","76214","2461","NA","NA","2446","NA","77385","78036","77259","77385","Flanker Task ","8","6592","9","yes","1024"
"90","90","705.6","705.6","black","legacy","legacy","legacy","0","congruent ","uniform","1","undefined","1","s","0","0","0","9","0","9","9","0","0","0","0","9","9","9","9","9","Sat Sep 19 10:43:40 2020","1500","The main experiment item","yes","FlankerTask.osexp","/Users/kaylaredder/Desktop","no","mono","no","18","no","white","no","yes","768","legacy","9","9","/Users/kaylaredder/Desktop/fr-subject-2.csv","legacy","Lentiform Loewenfeld","3.3.3","0","s","NA","q","NA","NA","s","464","NA","58728","NA","NA","464","2","legacy","1024","2","48000","-16","experiment","SSSSS","2","even","61198","NA","NA","62885","NA","79113","78056","2461","NA","NA","2446","NA","79227","79692","79101","79227","Flanker Task ","9","7056","10","yes","1024"
"90.9090909090909","90.9090909090909","707.7272727272727","707.7272727272727","black","legacy","legacy","legacy","0","incongruent","uniform","1","undefined","1","s","0","0","0","10","0","10","10","0","0","0","0","10","10","10","10","10","Sat Sep 19 10:43:40 2020","1500","The main experiment item","yes","FlankerTask.osexp","/Users/kaylaredder/Desktop","no","mono","no","18","no","white","no","yes","768","legacy","10","10","/Users/kaylaredder/Desktop/fr-subject-2.csv","legacy","Lentiform Loewenfeld","3.3.3","0","s","NA","q","NA","NA","s","729","NA","58728","NA","NA","729","2","legacy","1024","2","48000","-16","experiment","HHSHH","2","even","61198","NA","NA","62885","NA","80770","79714","2461","NA","NA","2446","NA","80885","81615","80758","80885","Flanker Task ","10","7785","11","yes","1024"
"91.66666666666667","91.66666666666667","709.4166666666666","709.4166666666666","black","legacy","legacy","legacy","0","incongruent","uniform","1","undefined","1","s","0","0","0","11","0","11","11","0","0","0","0","11","11","11","11","11","Sat Sep 19 10:43:40 2020","1500","The main experiment item","yes","FlankerTask.osexp","/Users/kaylaredder/Desktop","no","mono","no","18","no","white","no","yes","768","legacy","11","11","/Users/kaylaredder/Desktop/fr-subject-2.csv","legacy","Lentiform Loewenfeld","3.3.3","0","s","NA","q","NA","NA","s","728","NA","58728","NA","NA","728","2","legacy","1024","2","48000","-16","experiment","HHSHH","2","even","61198","NA","NA","62885","NA","82693","81635","2461","NA","NA","2446","NA","82807","83536","82681","82807","Flanker Task ","11","8513","12","yes","1024"
"92.3076923076923","92.3076923076923","698.2307692307693","698.2307692307693","black","legacy","legacy","legacy","0","congruent","uniform","1","undefined","1","h","0","0","0","12","0","12","12","0","0","0","0","12","12","12","12","12","Sat Sep 19 10:43:40 2020","1500","The main experiment item","yes","FlankerTask.osexp","/Users/kaylaredder/Desktop","no","mono","no","18","no","white","no","yes","768","legacy","12","12","/Users/kaylaredder/Desktop/fr-subject-2.csv","legacy","Lentiform Loewenfeld","3.3.3","0","h","NA","q","NA","NA","h","564","NA","58728","NA","NA","564","2","legacy","1024","2","48000","-16","experiment","HHHHH","2","even","61198","NA","NA","62885","NA","84613","83556","2461","NA","NA","2446","NA","84728","85293","84601","84728","Flanker Task ","12","9077","13","yes","1024"
"92.85714285714286","92.85714285714286","685.2142857142857","685.2142857142857","black","legacy","legacy","legacy","0","congruent ","uniform","1","undefined","1","s","0","0","0","13","0","13","13","0","0","0","0","13","13","13","13","13","Sat Sep 19 10:43:40 2020","1500","The main experiment item","yes","FlankerTask.osexp","/Users/kaylaredder/Desktop","no","mono","no","18","no","white","no","yes","768","legacy","13","13","/Users/kaylaredder/Desktop/fr-subject-2.csv","legacy","Lentiform Loewenfeld","3.3.3","0","s","NA","q","NA","NA","s","516","NA","58728","NA","NA","516","2","legacy","1024","2","48000","-16","experiment","SSSSS","2","even","61198","NA","NA","62885","NA","86371","85313","2461","NA","NA","2446","NA","86485","87002","86359","86485","Flanker Task ","13","9593","14","yes","1024"
"93.33333333333333","93.33333333333333","671.8666666666667","671.8666666666667","black","legacy","legacy","legacy","0","congruent","uniform","1","undefined","1","h","0","0","0","14","0","14","14","0","0","0","0","14","14","14","14","14","Sat Sep 19 10:43:40 2020","1500","The main experiment item","yes","FlankerTask.osexp","/Users/kaylaredder/Desktop","no","mono","no","18","no","white","no","yes","768","legacy","14","14","/Users/kaylaredder/Desktop/fr-subject-2.csv","legacy","Lentiform Loewenfeld","3.3.3","0","h","NA","q","NA","NA","h","485","NA","58728","NA","NA","485","2","legacy","1024","2","48000","-16","experiment","HHHHH","2","even","61198","NA","NA","62885","NA","88080","87022","2461","NA","NA","2446","NA","88194","88681","88068","88194","Flanker Task ","14","10078","15","yes","1024"
"93.75","93.75","658.5","658.5","black","legacy","legacy","legacy","0","congruent","uniform","1","undefined","1","h","0","0","0","15","0","15","15","0","0","0","0","15","15","15","15","15","Sat Sep 19 10:43:40 2020","1500","The main experiment item","yes","FlankerTask.osexp","/Users/kaylaredder/Desktop","no","mono","no","18","no","white","no","yes","768","legacy","15","15","/Users/kaylaredder/Desktop/fr-subject-2.csv","legacy","Lentiform Loewenfeld","3.3.3","0","h","NA","q","NA","NA","h","458","NA","58728","NA","NA","458","2","legacy","1024","2","48000","-16","experiment","HHHHH","2","even","61198","NA","NA","62885","NA","89758","88701","2461","NA","NA","2446","NA","89872","90332","89746","89872","Flanker Task ","15","10536","16","yes","1024"
"94.11764705882354","94.11764705882354","654","654","black","legacy","legacy","legacy","0","incongruent","uniform","1","undefined","1","s","0","0","0","16","0","16","16","0","0","0","0","16","16","16","16","16","Sat Sep 19 10:43:40 2020","1500","The main experiment item","yes","FlankerTask.osexp","/Users/kaylaredder/Desktop","no","mono","no","18","no","white","no","yes","768","legacy","16","16","/Users/kaylaredder/Desktop/fr-subject-2.csv","legacy","Lentiform Loewenfeld","3.3.3","0","s","NA","q","NA","NA","s","582","NA","58728","NA","NA","582","2","legacy","1024","2","48000","-16","experiment","HHSHH","2","even","61198","NA","NA","62885","NA","91409","90351","2461","NA","NA","2446","NA","91523","92107","91398","91523","Flanker Task ","16","11118","17","yes","1024"
"94.44444444444444","94.44444444444444","647.0555555555555","647.0555555555555","black","legacy","legacy","legacy","0","incongruent","uniform","1","undefined","1","s","0","0","0","17","0","17","17","0","0","0","0","17","17","17","17","17","Sat Sep 19 10:43:40 2020","1500","The main experiment item","yes","FlankerTask.osexp","/Users/kaylaredder/Desktop","no","mono","no","18","no","white","no","yes","768","legacy","17","17","/Users/kaylaredder/Desktop/fr-subject-2.csv","legacy","Lentiform Loewenfeld","3.3.3","0","s","NA","q","NA","NA","s","529","NA","58728","NA","NA","529","2","legacy","1024","2","48000","-16","experiment","HHSHH","2","even","61198","NA","NA","62885","NA","93186","92128","2461","NA","NA","2446","NA","93300","93831","93174","93300","Flanker Task ","17","11647","18","yes","1024"
"94.73684210526316","94.73684210526316","640.421052631579","640.421052631579","black","legacy","legacy","legacy","0","congruent","uniform","1","undefined","1","h","0","0","0","18","0","18","18","0","0","0","0","18","18","18","18","18","Sat Sep 19 10:43:40 2020","1500","The main experiment item","yes","FlankerTask.osexp","/Users/kaylaredder/Desktop","no","mono","no","18","no","white","no","yes","768","legacy","18","18","/Users/kaylaredder/Desktop/fr-subject-2.csv","legacy","Lentiform Loewenfeld","3.3.3","0","h","NA","q","NA","NA","h","521","NA","58728","NA","NA","521","2","legacy","1024","2","48000","-16","experiment","HHHHH","2","even","61198","NA","NA","62885","NA","94908","93851","2461","NA","NA","2446","NA","95022","95545","94896","95022","Flanker Task ","18","12168","19","yes","1024"
"95","95","633.95","633.95","black","legacy","legacy","legacy","0","congruent","uniform","1","undefined","1","h","0","0","0","19","0","19","19","0","0","0","0","19","19","19","19","19","Sat Sep 19 10:43:40 2020","1500","The main experiment item","yes","FlankerTask.osexp","/Users/kaylaredder/Desktop","no","mono","no","18","no","white","no","yes","768","legacy","19","19","/Users/kaylaredder/Desktop/fr-subject-2.csv","legacy","Lentiform Loewenfeld","3.3.3","0","h","NA","q","NA","NA","h","511","NA","58728","NA","NA","511","2","legacy","1024","2","48000","-16","experiment","HHHHH","2","even","61198","NA","NA","62885","NA","96623","95565","2461","NA","NA","2446","NA","96737","97250","96611","96737","Flanker Task ","19","12679","20","yes","1024"
"95.23809523809524","95.23809523809524","628.6190476190476","628.6190476190476","black","legacy","legacy","legacy","0","congruent ","uniform","1","undefined","1","s","0","0","0","20","0","20","20","0","0","0","0","20","20","20","20","20","Sat Sep 19 10:43:40 2020","1500","The main experiment item","yes","FlankerTask.osexp","/Users/kaylaredder/Desktop","no","mono","no","18","no","white","no","yes","768","legacy","20","20","/Users/kaylaredder/Desktop/fr-subject-2.csv","legacy","Lentiform Loewenfeld","3.3.3","0","s","NA","q","NA","NA","s","522","NA","58728","NA","NA","522","2","legacy","1024","2","48000","-16","experiment","SSSSS","2","even","61198","NA","NA","62885","NA","98327","97270","2461","NA","NA","2446","NA","98442","98966","98315","98442","Flanker Task ","20","13201","21","yes","1024"
"95.45454545454545","95.45454545454545","625.5","625.5","black","legacy","legacy","legacy","0","incongruent ","uniform","1","undefined","1","h","0","0","0","21","0","21","21","0","0","0","0","21","21","21","21","21","Sat Sep 19 10:43:40 2020","1500","The main experiment item","yes","FlankerTask.osexp","/Users/kaylaredder/Desktop","no","mono","no","18","no","white","no","yes","768","legacy","21","21","/Users/kaylaredder/Desktop/fr-subject-2.csv","legacy","Lentiform Loewenfeld","3.3.3","0","h","NA","q","NA","NA","h","560","NA","58728","NA","NA","560","2","legacy","1024","2","48000","-16","experiment","SSHSS","2","even","61198","NA","NA","62885","NA","100042","98986","2461","NA","NA","2446","NA","100157","100718","100030","100157","Flanker Task ","21","13761","22","yes","1024"
"95.65217391304348","95.65217391304348","616.5652173913044","616.5652173913044","black","legacy","legacy","legacy","0","congruent ","uniform","1","undefined","1","s","0","0","0","22","0","22","22","0","0","0","0","22","22","22","22","22","Sat Sep 19 10:43:40 2020","1500","The main experiment item","yes","FlankerTask.osexp","/Users/kaylaredder/Desktop","no","mono","no","18","no","white","no","yes","768","legacy","22","22","/Users/kaylaredder/Desktop/fr-subject-2.csv","legacy","Lentiform Loewenfeld","3.3.3","0","s","NA","q","NA","NA","s","420","NA","58728","NA","NA","420","2","legacy","1024","2","48000","-16","experiment","SSSSS","2","even","61198","NA","NA","62885","NA","101807","100749","2461","NA","NA","2446","NA","101921","102342","101795","101921","Flanker Task ","22","14181","23","yes","1024"
"95.83333333333333","95.83333333333333","613.75","613.75","black","legacy","legacy","legacy","0","incongruent ","uniform","1","undefined","1","h","0","0","0","23","0","23","23","0","0","0","0","23","23","23","23","23","Sat Sep 19 10:43:40 2020","1500","The main experiment item","yes","FlankerTask.osexp","/Users/kaylaredder/Desktop","no","mono","no","18","no","white","no","yes","768","legacy","23","23","/Users/kaylaredder/Desktop/fr-subject-2.csv","legacy","Lentiform Loewenfeld","3.3.3","0","h","NA","q","NA","NA","h","549","NA","58728","NA","NA","549","2","legacy","1024","2","48000","-16","experiment","SSHSS","2","even","61198","NA","NA","62885","NA","103421","102364","2461","NA","NA","2446","NA","103535","104085","103409","103535","Flanker Task ","23","14730","24","yes","1024"
"96","96","607.84","607.84","black","legacy","legacy","legacy","0","congruent ","uniform","1","undefined","1","s","0","0","0","24","0","24","24","0","0","0","0","24","24","24","24","24","Sat Sep 19 10:43:40 2020","1500","The main experiment item","yes","FlankerTask.osexp","/Users/kaylaredder/Desktop","no","mono","no","18","no","white","no","yes","768","legacy","24","24","/Users/kaylaredder/Desktop/fr-subject-2.csv","legacy","Lentiform Loewenfeld","3.3.3","0","s","NA","q","NA","NA","s","466","NA","58728","NA","NA","466","2","legacy","1024","2","48000","-16","experiment","SSSSS","2","even","61198","NA","NA","62885","NA","105163","104106","2461","NA","NA","2446","NA","105278","105745","105151","105277","Flanker Task ","24","15196","25","yes","1024"
"96.15384615384616","96.15384615384616","603.5","603.5","black","legacy","legacy","legacy","0","congruent ","uniform","1","undefined","1","s","0","0","0","25","0","25","25","0","0","0","0","25","25","25","25","25","Sat Sep 19 10:43:40 2020","1500","The main experiment item","yes","FlankerTask.osexp","/Users/kaylaredder/Desktop","no","mono","no","18","no","white","no","yes","768","legacy","25","25","/Users/kaylaredder/Desktop/fr-subject-2.csv","legacy","Lentiform Loewenfeld","3.3.3","0","s","NA","q","NA","NA","s","495","NA","58728","NA","NA","495","2","legacy","1024","2","48000","-16","experiment","SSSSS","2","even","61198","NA","NA","62885","NA","106823","105766","2461","NA","NA","2446","NA","106937","107433","106811","106937","Flanker Task ","25","15691","26","yes","1024"
"96.29629629629629","96.29629629629629","595.5925925925926","595.5925925925926","black","legacy","legacy","legacy","0","congruent ","uniform","1","undefined","1","s","0","0","0","26","0","26","26","0","0","0","0","26","26","26","26","26","Sat Sep 19 10:43:40 2020","1500","The main experiment item","yes","FlankerTask.osexp","/Users/kaylaredder/Desktop","no","mono","no","18","no","white","no","yes","768","legacy","26","26","/Users/kaylaredder/Desktop/fr-subject-2.csv","legacy","Lentiform Loewenfeld","3.3.3","0","s","NA","q","NA","NA","s","390","NA","58728","NA","NA","390","2","legacy","1024","2","48000","-16","experiment","SSSSS","2","even","61198","NA","NA","62885","NA","108511","107454","2461","NA","NA","2446","NA","108625","109016","108499","108625","Flanker Task ","26","16081","27","yes","1024"
"96.42857142857143","96.42857142857143","590.9642857142857","590.9642857142857","black","legacy","legacy","legacy","0","congruent ","uniform","1","undefined","1","s","0","0","0","27","0","27","27","0","0","0","0","27","27","27","27","27","Sat Sep 19 10:43:40 2020","1500","The main experiment item","yes","FlankerTask.osexp","/Users/kaylaredder/Desktop","no","mono","no","18","no","white","no","yes","768","legacy","27","27","/Users/kaylaredder/Desktop/fr-subject-2.csv","legacy","Lentiform Loewenfeld","3.3.3","0","s","NA","q","NA","NA","s","466","NA","58728","NA","NA","466","2","legacy","1024","2","48000","-16","experiment","SSSSS","2","even","61198","NA","NA","62885","NA","110096","109037","2461","NA","NA","2446","NA","110210","110677","110084","110210","Flanker Task ","27","16547","28","yes","1024"
"93.10344827586206","93.10344827586206","590.5862068965517","590.5862068965517","black","legacy","legacy","legacy","0","incongruent","uniform","0","undefined","0","s","0","0","0","28","0","28","28","0","0","0","0","28","28","28","28","28","Sat Sep 19 10:43:40 2020","1500","The main experiment item","yes","FlankerTask.osexp","/Users/kaylaredder/Desktop","no","mono","no","18","no","white","no","yes","768","legacy","28","28","/Users/kaylaredder/Desktop/fr-subject-2.csv","legacy","Lentiform Loewenfeld","3.3.3","0","h","NA","q","NA","NA","h","580","NA","58728","NA","NA","580","2","legacy","1024","2","48000","-16","experiment","HHSHH","2","even","61198","NA","NA","62885","NA","111755","110698","2461","NA","NA","2446","NA","111870","112451","111744","111870","Flanker Task ","27","17127","29","yes","1024"
"93.33333333333333","93.33333333333333","589.2","589.2","black","legacy","legacy","legacy","0","incongruent ","uniform","1","undefined","1","h","0","0","0","29","0","29","29","0","0","0","0","29","29","29","29","29","Sat Sep 19 10:43:40 2020","1500","The main experiment item","yes","FlankerTask.osexp","/Users/kaylaredder/Desktop","no","mono","no","18","no","white","no","yes","768","legacy","29","29","/Users/kaylaredder/Desktop/fr-subject-2.csv","legacy","Lentiform Loewenfeld","3.3.3","0","h","NA","q","NA","NA","h","549","NA","58728","NA","NA","549","2","legacy","1024","2","48000","-16","experiment","SSHSS","2","even","61198","NA","NA","112472","NA","114042","112986","2461","NA","NA","2446","NA","114156","114706","114030","114156","Flanker Task ","28","17676","30","yes","1024"
"93.54838709677419","93.54838709677419","585.6129032258065","585.6129032258065","black","legacy","legacy","legacy","0","congruent ","uniform","1","undefined","1","s","0","0","0","30","0","30","30","0","0","0","0","30","30","30","30","30","Sat Sep 19 10:43:40 2020","1500","The main experiment item","yes","FlankerTask.osexp","/Users/kaylaredder/Desktop","no","mono","no","18","no","white","no","yes","768","legacy","30","30","/Users/kaylaredder/Desktop/fr-subject-2.csv","legacy","Lentiform Loewenfeld","3.3.3","0","s","NA","q","NA","NA","s","478","NA","58728","NA","NA","478","2","legacy","1024","2","48000","-16","experiment","SSSSS","2","even","61198","NA","NA","112472","NA","115785","114727","2461","NA","NA","2446","NA","115899","116379","115773","115899","Flanker Task ","29","18154","31","yes","1024"
"93.75","93.75","582.84375","582.84375","black","legacy","legacy","legacy","0","congruent","uniform","1","undefined","1","h","0","0","0","31","0","31","31","0","0","0","0","31","31","31","31","31","Sat Sep 19 10:43:40 2020","1500","The main experiment item","yes","FlankerTask.osexp","/Users/kaylaredder/Desktop","no","mono","no","18","no","white","no","yes","768","legacy","31","31","/Users/kaylaredder/Desktop/fr-subject-2.csv","legacy","Lentiform Loewenfeld","3.3.3","0","h","NA","q","NA","NA","h","497","NA","58728","NA","NA","497","2","legacy","1024","2","48000","-16","experiment","HHHHH","2","even","61198","NA","NA","112472","NA","117460","116402","2461","NA","NA","2446","NA","117574","118072","117448","117574","Flanker Task ","30","18651","32","yes","1024"
"93.93939393939394","93.93939393939394","581.969696969697","581.969696969697","black","legacy","legacy","legacy","0","congruent","uniform","1","undefined","1","h","0","0","0","32","0","32","32","0","0","0","0","32","32","32","32","32","Sat Sep 19 10:43:40 2020","1500","The main experiment item","yes","FlankerTask.osexp","/Users/kaylaredder/Desktop","no","mono","no","18","no","white","no","yes","768","legacy","32","32","/Users/kaylaredder/Desktop/fr-subject-2.csv","legacy","Lentiform Loewenfeld","3.3.3","0","h","NA","q","NA","NA","h","554","NA","58728","NA","NA","554","2","legacy","1024","2","48000","-16","experiment","HHHHH","2","even","61198","NA","NA","112472","NA","119150","118093","2461","NA","NA","2446","NA","119264","119819","119138","119264","Flanker Task ","31","19205","33","yes","1024"
"94.11764705882354","94.11764705882354","580.1764705882352","580.1764705882352","black","legacy","legacy","legacy","0","incongruent","uniform","1","undefined","1","s","0","0","0","33","0","33","33","0","0","0","0","33","33","33","33","33","Sat Sep 19 10:43:40 2020","1500","The main experiment item","yes","FlankerTask.osexp","/Users/kaylaredder/Desktop","no","mono","no","18","no","white","no","yes","768","legacy","33","33","/Users/kaylaredder/Desktop/fr-subject-2.csv","legacy","Lentiform Loewenfeld","3.3.3","0","s","NA","q","NA","NA","s","521","NA","58728","NA","NA","521","2","legacy","1024","2","48000","-16","experiment","HHSHH","2","even","61198","NA","NA","112472","NA","120897","119840","2461","NA","NA","2446","NA","121010","121532","120885","121010","Flanker Task ","32","19726","34","yes","1024"
"94.28571428571429","94.28571428571429","577.9714285714285","577.9714285714285","black","legacy","legacy","legacy","0","incongruent","uniform","1","undefined","1","s","0","0","0","34","0","34","34","0","0","0","0","34","34","34","34","34","Sat Sep 19 10:43:40 2020","1500","The main experiment item","yes","FlankerTask.osexp","/Users/kaylaredder/Desktop","no","mono","no","18","no","white","no","yes","768","legacy","34","34","/Users/kaylaredder/Desktop/fr-subject-2.csv","legacy","Lentiform Loewenfeld","3.3.3","0","s","NA","q","NA","NA","s","503","NA","58728","NA","NA","503","2","legacy","1024","2","48000","-16","experiment","HHSHH","2","even","61198","NA","NA","112472","NA","122611","121553","2461","NA","NA","2446","NA","122726","123230","122599","122726","Flanker Task ","33","20229","35","yes","1024"
"94.44444444444444","94.44444444444444","577.4444444444445","577.4444444444445","black","legacy","legacy","legacy","0","congruent","uniform","1","undefined","1","h","0","0","0","35","0","35","35","0","0","0","0","35","35","35","35","35","Sat Sep 19 10:43:40 2020","1500","The main experiment item","yes","FlankerTask.osexp","/Users/kaylaredder/Desktop","no","mono","no","18","no","white","no","yes","768","legacy","35","35","/Users/kaylaredder/Desktop/fr-subject-2.csv","legacy","Lentiform Loewenfeld","3.3.3","0","h","NA","q","NA","NA","h","559","NA","58728","NA","NA","559","2","legacy","1024","2","48000","-16","experiment","HHHHH","2","even","61198","NA","NA","112472","NA","124308","123251","2461","NA","NA","2446","NA","124422","124982","124296","124422","Flanker Task ","34","20788","36","yes","1024"
"94.5945945945946","94.5945945945946","577.5135135135135","577.5135135135135","black","legacy","legacy","legacy","0","congruent ","uniform","1","undefined","1","s","0","0","0","36","0","36","36","0","0","0","0","36","36","36","36","36","Sat Sep 19 10:43:40 2020","1500","The main experiment item","yes","FlankerTask.osexp","/Users/kaylaredder/Desktop","no","mono","no","18","no","white","no","yes","768","legacy","36","36","/Users/kaylaredder/Desktop/fr-subject-2.csv","legacy","Lentiform Loewenfeld","3.3.3","0","s","NA","q","NA","NA","s","580","NA","58728","NA","NA","580","2","legacy","1024","2","48000","-16","experiment","SSSSS","2","even","61198","NA","NA","112472","NA","126058","125002","2461","NA","NA","2446","NA","126171","126752","126047","126171","Flanker Task ","35","21368","37","yes","1024"
"94.73684210526316","94.73684210526316","575.8157894736842","575.8157894736842","black","legacy","legacy","legacy","0","congruent","uniform","1","undefined","1","h","0","0","0","37","0","37","37","0","0","0","0","37","37","37","37","37","Sat Sep 19 10:43:40 2020","1500","The main experiment item","yes","FlankerTask.osexp","/Users/kaylaredder/Desktop","no","mono","no","18","no","white","no","yes","768","legacy","37","37","/Users/kaylaredder/Desktop/fr-subject-2.csv","legacy","Lentiform Loewenfeld","3.3.3","0","h","NA","q","NA","NA","h","513","NA","58728","NA","NA","513","2","legacy","1024","2","48000","-16","experiment","HHHHH","2","even","61198","NA","NA","112472","NA","127830","126773","2461","NA","NA","2446","NA","127944","128458","127818","127944","Flanker Task ","36","21881","38","yes","1024"
"92.3076923076923","92.3076923076923","574.5384615384615","574.5384615384615","black","legacy","legacy","legacy","0","incongruent ","uniform","0","undefined","0","h","0","0","0","38","0","38","38","0","0","0","0","38","38","38","38","38","Sat Sep 19 10:43:40 2020","1500","The main experiment item","yes","FlankerTask.osexp","/Users/kaylaredder/Desktop","no","mono","no","18","no","white","no","yes","768","legacy","38","38","/Users/kaylaredder/Desktop/fr-subject-2.csv","legacy","Lentiform Loewenfeld","3.3.3","0","s","NA","q","NA","NA","s","526","NA","58728","NA","NA","526","2","legacy","1024","2","48000","-16","experiment","SSHSS","2","even","61198","NA","NA","112472","NA","129536","128478","2461","NA","NA","2446","NA","129650","130177","129524","129650","Flanker Task ","36","22407","39","yes","1024"
"92.5","92.5","572.25","572.25","black","legacy","legacy","legacy","0","incongruent ","uniform","1","undefined","1","h","0","0","0","39","0","39","39","0","0","0","0","39","39","39","39","39","Sat Sep 19 10:43:40 2020","1500","The main experiment item","yes","FlankerTask.osexp","/Users/kaylaredder/Desktop","no","mono","no","18","no","white","no","yes","768","legacy","39","39","/Users/kaylaredder/Desktop/fr-subject-2.csv","legacy","Lentiform Loewenfeld","3.3.3","0","h","NA","q","NA","NA","h","483","NA","58728","NA","NA","483","2","legacy","1024","2","48000","-16","experiment","SSHSS","2","even","61198","NA","NA","130198","NA","131769","130712","2461","NA","NA","2446","NA","131884","132368","131758","131884","Flanker Task ","37","22890","40","yes","1024"
"92.6829268292683","92.6829268292683","572.609756097561","572.609756097561","black","legacy","legacy","legacy","0","congruent ","uniform","1","undefined","1","s","0","0","0","40","0","40","40","0","0","0","0","40","40","40","40","40","Sat Sep 19 10:43:40 2020","1500","The main experiment item","yes","FlankerTask.osexp","/Users/kaylaredder/Desktop","no","mono","no","18","no","white","no","yes","768","legacy","40","40","/Users/kaylaredder/Desktop/fr-subject-2.csv","legacy","Lentiform Loewenfeld","3.3.3","0","s","NA","q","NA","NA","s","587","NA","58728","NA","NA","587","2","legacy","1024","2","48000","-16","experiment","SSSSS","2","even","61198","NA","NA","130198","NA","133457","132399","2461","NA","NA","2446","NA","133571","134159","133445","133571","Flanker Task ","38","23477","41","yes","1024"
"92.85714285714286","92.85714285714286","575.3809523809524","575.3809523809524","black","legacy","legacy","legacy","0","congruent ","uniform","1","undefined","1","s","0","0","0","41","0","41","41","0","0","0","0","41","41","41","41","41","Sat Sep 19 10:43:40 2020","1500","The main experiment item","yes","FlankerTask.osexp","/Users/kaylaredder/Desktop","no","mono","no","18","no","white","no","yes","768","legacy","41","41","/Users/kaylaredder/Desktop/fr-subject-2.csv","legacy","Lentiform Loewenfeld","3.3.3","0","s","NA","q","NA","NA","s","689","NA","58728","NA","NA","689","2","legacy","1024","2","48000","-16","experiment","SSSSS","2","even","61198","NA","NA","130198","NA","135237","134180","2461","NA","NA","2446","NA","135351","136041","135225","135351","Flanker Task ","39","24166","42","yes","1024"
"93.02325581395348","93.02325581395348","572.7209302325581","572.7209302325581","black","legacy","legacy","legacy","0","congruent ","uniform","1","undefined","1","s","0","0","0","42","0","42","42","0","0","0","0","42","42","42","42","42","Sat Sep 19 10:43:40 2020","1500","The main experiment item","yes","FlankerTask.osexp","/Users/kaylaredder/Desktop","no","mono","no","18","no","white","no","yes","768","legacy","42","42","/Users/kaylaredder/Desktop/fr-subject-2.csv","legacy","Lentiform Loewenfeld","3.3.3","0","s","NA","q","NA","NA","s","461","NA","58728","NA","NA","461","2","legacy","1024","2","48000","-16","experiment","SSSSS","2","even","61198","NA","NA","130198","NA","137119","136062","2461","NA","NA","2446","NA","137233","137695","137107","137233","Flanker Task ","40","24627","43","yes","1024"
"93.18181818181819","93.18181818181819","573.1136363636364","573.1136363636364","black","legacy","legacy","legacy","0","incongruent ","uniform","1","undefined","1","h","0","0","0","43","0","43","43","0","0","0","0","43","43","43","43","43","Sat Sep 19 10:43:40 2020","1500","The main experiment item","yes","FlankerTask.osexp","/Users/kaylaredder/Desktop","no","mono","no","18","no","white","no","yes","768","legacy","43","43","/Users/kaylaredder/Desktop/fr-subject-2.csv","legacy","Lentiform Loewenfeld","3.3.3","0","h","NA","q","NA","NA","h","590","NA","58728","NA","NA","590","2","legacy","1024","2","48000","-16","experiment","SSHSS","2","even","61198","NA","NA","130198","NA","138773","137716","2461","NA","NA","2446","NA","138887","139478","138761","138887","Flanker Task ","41","25217","44","yes","1024"
"93.33333333333333","93.33333333333333","575.6","575.6","black","legacy","legacy","legacy","0","incongruent","uniform","1","undefined","1","s","0","0","0","44","0","44","44","0","0","0","0","44","44","44","44","44","Sat Sep 19 10:43:40 2020","1500","The main experiment item","yes","FlankerTask.osexp","/Users/kaylaredder/Desktop","no","mono","no","18","no","white","no","yes","768","legacy","44","44","/Users/kaylaredder/Desktop/fr-subject-2.csv","legacy","Lentiform Loewenfeld","3.3.3","0","s","NA","q","NA","NA","s","685","NA","58728","NA","NA","685","2","legacy","1024","2","48000","-16","experiment","HHSHH","2","even","61198","NA","NA","130198","NA","140557","139500","2461","NA","NA","2446","NA","140672","141358","140545","140672","Flanker Task ","42","25902","45","yes","1024"
"93.47826086956522","93.47826086956522","572.695652173913","572.695652173913","black","legacy","legacy","legacy","0","congruent","uniform","1","undefined","1","h","0","0","0","45","0","45","45","0","0","0","0","45","45","45","45","45","Sat Sep 19 10:43:40 2020","1500","The main experiment item","yes","FlankerTask.osexp","/Users/kaylaredder/Desktop","no","mono","no","18","no","white","no","yes","768","legacy","45","45","/Users/kaylaredder/Desktop/fr-subject-2.csv","legacy","Lentiform Loewenfeld","3.3.3","0","h","NA","q","NA","NA","h","442","NA","58728","NA","NA","442","2","legacy","1024","2","48000","-16","experiment","HHHHH","2","even","61198","NA","NA","130198","NA","142435","141378","2461","NA","NA","2446","NA","142549","142992","142424","142549","Flanker Task ","43","26344","46","yes","1024"
"93.61702127659575","93.61702127659575","571.4255319148937","571.4255319148937","black","legacy","legacy","legacy","0","incongruent","uniform","1","undefined","1","s","0","0","0","46","0","46","46","0","0","0","0","46","46","46","46","46","Sat Sep 19 10:43:40 2020","1500","The main experiment item","yes","FlankerTask.osexp","/Users/kaylaredder/Desktop","no","mono","no","18","no","white","no","yes","768","legacy","46","46","/Users/kaylaredder/Desktop/fr-subject-2.csv","legacy","Lentiform Loewenfeld","3.3.3","0","s","NA","q","NA","NA","s","513","NA","58728","NA","NA","513","2","legacy","1024","2","48000","-16","experiment","HHSHH","2","even","61198","NA","NA","130198","NA","144069","143012","2461","NA","NA","2446","NA","144184","144698","144057","144183","Flanker Task ","44","26857","47","yes","1024"
"93.75","93.75","569.75","569.75","black","legacy","legacy","legacy","0","congruent ","uniform","1","undefined","1","s","0","0","0","47","0","47","47","0","0","0","0","47","47","47","47","47","Sat Sep 19 10:43:40 2020","1500","The main experiment item","yes","FlankerTask.osexp","/Users/kaylaredder/Desktop","no","mono","no","18","no","white","no","yes","768","legacy","47","47","/Users/kaylaredder/Desktop/fr-subject-2.csv","legacy","Lentiform Loewenfeld","3.3.3","0","s","NA","q","NA","NA","s","491","NA","58728","NA","NA","491","2","legacy","1024","2","48000","-16","experiment","SSSSS","2","even","61198","NA","NA","130198","NA","145775","144718","2461","NA","NA","2446","NA","145890","146382","145764","145890","Flanker Task ","45","27348","48","yes","1024"
"93.87755102040816","93.87755102040816","567.3061224489796","567.3061224489796","black","legacy","legacy","legacy","0","incongruent ","uniform","1","undefined","1","h","0","0","0","48","0","48","48","0","0","0","0","48","48","48","48","48","Sat Sep 19 10:43:40 2020","1500","The main experiment item","yes","FlankerTask.osexp","/Users/kaylaredder/Desktop","no","mono","no","18","no","white","no","yes","768","legacy","48","48","/Users/kaylaredder/Desktop/fr-subject-2.csv","legacy","Lentiform Loewenfeld","3.3.3","0","h","NA","q","NA","NA","h","450","NA","58728","NA","NA","450","2","legacy","1024","2","48000","-16","experiment","SSHSS","2","even","61198","NA","NA","130198","NA","147459","146402","2461","NA","NA","2446","NA","147573","148024","147447","147573","Flanker Task ","46","27798","49","yes","1024"
"94","94","565.32","565.32","black","legacy","legacy","legacy","0","congruent","uniform","1","undefined","1","h","0","0","0","49","0","49","49","0","0","0","0","49","49","49","49","49","Sat Sep 19 10:43:40 2020","1500","The main experiment item","yes","FlankerTask.osexp","/Users/kaylaredder/Desktop","no","mono","no","18","no","white","no","yes","768","legacy","49","49","/Users/kaylaredder/Desktop/fr-subject-2.csv","legacy","Lentiform Loewenfeld","3.3.3","0","h","NA","q","NA","NA","h","468","NA","58728","NA","NA","468","2","legacy","1024","2","48000","-16","experiment","HHHHH","2","even","61198","NA","NA","130198","NA","149103","148046","2461","NA","NA","2446","NA","149218","149688","149091","149218","Flanker Task ","47","28266","50","yes","1024"
"94.11764705882354","94.11764705882354","562.8627450980392","562.8627450980392","black","legacy","legacy","legacy","0","congruent ","uniform","1","undefined","1","s","0","0","0","50","0","50","50","0","0","0","0","50","50","50","50","50","Sat Sep 19 10:43:40 2020","1500","The main experiment item","yes","FlankerTask.osexp","/Users/kaylaredder/Desktop","no","mono","no","18","no","white","no","yes","768","legacy","50","50","/Users/kaylaredder/Desktop/fr-subject-2.csv","legacy","Lentiform Loewenfeld","3.3.3","0","s","NA","q","NA","NA","s","440","NA","58728","NA","NA","440","2","legacy","1024","2","48000","-16","experiment","SSSSS","2","even","61198","NA","NA","130198","NA","150769","149711","2461","NA","NA","2446","NA","150883","151324","150757","150883","Flanker Task ","48","28706","51","yes","1024"
"94.23076923076923","94.23076923076923","561.8653846153846","561.8653846153846","black","legacy","legacy","legacy","0","congruent","uniform","1","undefined","1","h","0","0","0","51","0","51","51","0","0","0","0","51","51","51","51","51","Sat Sep 19 10:43:40 2020","1500","The main experiment item","yes","FlankerTask.osexp","/Users/kaylaredder/Desktop","no","mono","no","18","no","white","no","yes","768","legacy","51","51","/Users/kaylaredder/Desktop/fr-subject-2.csv","legacy","Lentiform Loewenfeld","3.3.3","0","h","NA","q","NA","NA","h","511","NA","58728","NA","NA","511","2","legacy","1024","2","48000","-16","experiment","HHHHH","2","even","61198","NA","NA","130198","NA","152403","151346","2461","NA","NA","2446","NA","152517","153029","152391","152517","Flanker Task ","49","29217","52","yes","1024"
"94.33962264150944","94.33962264150944","561.3207547169811","561.3207547169811","black","legacy","legacy","legacy","0","incongruent ","uniform","1","undefined","1","h","0","0","0","52","0","52","52","0","0","0","0","52","52","52","52","52","Sat Sep 19 10:43:40 2020","1500","The main experiment item","yes","FlankerTask.osexp","/Users/kaylaredder/Desktop","no","mono","no","18","no","white","no","yes","768","legacy","52","52","/Users/kaylaredder/Desktop/fr-subject-2.csv","legacy","Lentiform Loewenfeld","3.3.3","0","h","NA","q","NA","NA","h","533","NA","58728","NA","NA","533","2","legacy","1024","2","48000","-16","experiment","SSHSS","2","even","61198","NA","NA","130198","NA","154107","153049","2461","NA","NA","2446","NA","154221","154755","154095","154221","Flanker Task ","50","29750","53","yes","1024"
"94.44444444444444","94.44444444444444","559.5","559.5","black","legacy","legacy","legacy","0","incongruent ","uniform","1","undefined","1","h","0","0","0","53","0","53","53","0","0","0","0","53","53","53","53","53","Sat Sep 19 10:43:40 2020","1500","The main experiment item","yes","FlankerTask.osexp","/Users/kaylaredder/Desktop","no","mono","no","18","no","white","no","yes","768","legacy","53","53","/Users/kaylaredder/Desktop/fr-subject-2.csv","legacy","Lentiform Loewenfeld","3.3.3","0","h","NA","q","NA","NA","h","463","NA","58728","NA","NA","463","2","legacy","1024","2","48000","-16","experiment","SSHSS","2","even","61198","NA","NA","130198","NA","155832","154775","2461","NA","NA","2446","NA","155946","156410","155820","155946","Flanker Task ","51","30213","54","yes","1024"
"94.54545454545455","94.54545454545455","557.3090909090909","557.3090909090909","black","legacy","legacy","legacy","0","congruent","uniform","1","undefined","1","h","0","0","0","54","0","54","54","0","0","0","0","54","54","54","54","54","Sat Sep 19 10:43:40 2020","1500","The main experiment item","yes","FlankerTask.osexp","/Users/kaylaredder/Desktop","no","mono","no","18","no","white","no","yes","768","legacy","54","54","/Users/kaylaredder/Desktop/fr-subject-2.csv","legacy","Lentiform Loewenfeld","3.3.3","0","h","NA","q","NA","NA","h","439","NA","58728","NA","NA","439","2","legacy","1024","2","48000","-16","experiment","HHHHH","2","even","61198","NA","NA","130198","NA","157489","156432","2461","NA","NA","2446","NA","157603","158043","157477","157603","Flanker Task ","52","30652","55","yes","1024"
"94.64285714285714","94.64285714285714","558.0892857142857","558.0892857142857","black","legacy","legacy","legacy","0","incongruent","uniform","1","undefined","1","s","0","0","0","55","0","55","55","0","0","0","0","55","55","55","55","55","Sat Sep 19 10:43:40 2020","1500","The main experiment item","yes","FlankerTask.osexp","/Users/kaylaredder/Desktop","no","mono","no","18","no","white","no","yes","768","legacy","55","55","/Users/kaylaredder/Desktop/fr-subject-2.csv","legacy","Lentiform Loewenfeld","3.3.3","0","s","NA","q","NA","NA","s","601","NA","58728","NA","NA","601","2","legacy","1024","2","48000","-16","experiment","HHSHH","2","even","61198","NA","NA","130198","NA","159121","158063","2461","NA","NA","2446","NA","159236","159838","159109","159236","Flanker Task ","53","31253","56","yes","1024"
"94.73684210526316","94.73684210526316","558.4035087719299","558.4035087719299","black","legacy","legacy","legacy","0","incongruent","uniform","1","undefined","1","s","0","0","0","56","0","56","56","0","0","0","0","56","56","56","56","56","Sat Sep 19 10:43:40 2020","1500","The main experiment item","yes","FlankerTask.osexp","/Users/kaylaredder/Desktop","no","mono","no","18","no","white","no","yes","768","legacy","56","56","/Users/kaylaredder/Desktop/fr-subject-2.csv","legacy","Lentiform Loewenfeld","3.3.3","0","s","NA","q","NA","NA","s","576","NA","58728","NA","NA","576","2","legacy","1024","2","48000","-16","experiment","HHSHH","2","even","61198","NA","NA","130198","NA","160916","159858","2461","NA","NA","2446","NA","161030","161608","160904","161030","Flanker Task ","54","31829","57","yes","1024"
"94.82758620689656","94.82758620689656","552.9655172413793","552.9655172413793","black","legacy","legacy","legacy","0","congruent ","uniform","1","undefined","1","s","0","0","0","57","0","57","57","0","0","0","0","57","57","57","57","57","Sat Sep 19 10:43:40 2020","1500","The main experiment item","yes","FlankerTask.osexp","/Users/kaylaredder/Desktop","no","mono","no","18","no","white","no","yes","768","legacy","57","57","/Users/kaylaredder/Desktop/fr-subject-2.csv","legacy","Lentiform Loewenfeld","3.3.3","0","s","NA","q","NA","NA","s","243","NA","58728","NA","NA","243","2","legacy","1024","2","48000","-16","experiment","SSSSS","2","even","61198","NA","NA","130198","NA","162691","161634","2461","NA","NA","2446","NA","162805","163050","162680","162805","Flanker Task ","55","32072","58","yes","1024"
"94.91525423728814","94.91525423728814","551.7796610169491","551.7796610169491","black","legacy","legacy","legacy","0","incongruent","uniform","1","undefined","1","s","0","0","0","58","0","58","58","0","0","0","0","58","58","58","58","58","Sat Sep 19 10:43:40 2020","1500","The main experiment item","yes","FlankerTask.osexp","/Users/kaylaredder/Desktop","no","mono","no","18","no","white","no","yes","768","legacy","58","58","/Users/kaylaredder/Desktop/fr-subject-2.csv","legacy","Lentiform Loewenfeld","3.3.3","0","s","NA","q","NA","NA","s","483","NA","58728","NA","NA","483","2","legacy","1024","2","48000","-16","experiment","HHSHH","2","even","61198","NA","NA","130198","NA","164128","163070","2461","NA","NA","2446","NA","164243","164728","164117","164242","Flanker Task ","56","32555","59","yes","1024"
"95","95","550.5","550.5","black","legacy","legacy","legacy","0","incongruent","uniform","1","undefined","1","s","0","0","0","59","0","59","59","0","0","0","0","59","59","59","59","59","Sat Sep 19 10:43:40 2020","1500","The main experiment item","yes","FlankerTask.osexp","/Users/kaylaredder/Desktop","no","mono","no","18","no","white","no","yes","768","legacy","59","59","/Users/kaylaredder/Desktop/fr-subject-2.csv","legacy","Lentiform Loewenfeld","3.3.3","0","s","NA","q","NA","NA","s","475","NA","58728","NA","NA","475","2","legacy","1024","2","48000","-16","experiment","HHSHH","2","even","61198","NA","NA","130198","NA","165805","164748","2461","NA","NA","2446","NA","165919","166396","165793","165919","Flanker Task ","57","33030","60","yes","1024"
"95.08196721311475","95.08196721311475","548.7704918032787","548.7704918032787","black","legacy","legacy","legacy","0","congruent","uniform","1","undefined","1","h","0","0","0","60","0","60","60","0","0","0","0","60","60","60","60","60","Sat Sep 19 10:43:40 2020","1500","The main experiment item","yes","FlankerTask.osexp","/Users/kaylaredder/Desktop","no","mono","no","18","no","white","no","yes","768","legacy","60","60","/Users/kaylaredder/Desktop/fr-subject-2.csv","legacy","Lentiform Loewenfeld","3.3.3","0","h","NA","q","NA","NA","h","445","NA","58728","NA","NA","445","2","legacy","1024","2","48000","-16","experiment","HHHHH","2","even","61198","NA","NA","130198","NA","167473","166416","2461","NA","NA","2446","NA","167587","168034","167461","167587","Flanker Task ","58","33475","61","yes","1024"
"95.16129032258064","95.16129032258064","546.3387096774194","546.3387096774194","black","legacy","legacy","legacy","0","congruent","uniform","1","undefined","1","h","0","0","0","61","0","61","61","0","0","0","0","61","61","61","61","61","Sat Sep 19 10:43:40 2020","1500","The main experiment item","yes","FlankerTask.osexp","/Users/kaylaredder/Desktop","no","mono","no","18","no","white","no","yes","768","legacy","61","61","/Users/kaylaredder/Desktop/fr-subject-2.csv","legacy","Lentiform Loewenfeld","3.3.3","0","h","NA","q","NA","NA","h","398","NA","58728","NA","NA","398","2","legacy","1024","2","48000","-16","experiment","HHHHH","2","even","61198","NA","NA","130198","NA","169112","168054","2461","NA","NA","2446","NA","169226","169626","169100","169226","Flanker Task ","59","33873","62","yes","1024"
"95.23809523809524","95.23809523809524","543.2539682539683","543.2539682539683","black","legacy","legacy","legacy","0","incongruent ","uniform","1","undefined","1","h","0","0","0","62","0","62","62","0","0","0","0","62","62","62","62","62","Sat Sep 19 10:43:40 2020","1500","The main experiment item","yes","FlankerTask.osexp","/Users/kaylaredder/Desktop","no","mono","no","18","no","white","no","yes","768","legacy","62","62","/Users/kaylaredder/Desktop/fr-subject-2.csv","legacy","Lentiform Loewenfeld","3.3.3","0","h","NA","q","NA","NA","h","352","NA","58728","NA","NA","352","2","legacy","1024","2","48000","-16","experiment","SSHSS","2","even","61198","NA","NA","130198","NA","170704","169646","2461","NA","NA","2446","NA","170818","171172","170692","170818","Flanker Task ","60","34225","63","yes","1024"
"95.3125","95.3125","541.1875","541.1875","black","legacy","legacy","legacy","0","incongruent ","uniform","1","undefined","1","h","0","0","0","63","0","63","63","0","0","0","0","63","63","63","63","63","Sat Sep 19 10:43:40 2020","1500","The main experiment item","yes","FlankerTask.osexp","/Users/kaylaredder/Desktop","no","mono","no","18","no","white","no","yes","768","legacy","63","63","/Users/kaylaredder/Desktop/fr-subject-2.csv","legacy","Lentiform Loewenfeld","3.3.3","0","h","NA","q","NA","NA","h","411","NA","58728","NA","NA","411","2","legacy","1024","2","48000","-16","experiment","SSHSS","2","even","61198","NA","NA","130198","NA","172251","171192","2461","NA","NA","2446","NA","172365","172778","172238","172365","Flanker Task ","61","34636","64","yes","1024"
"93.84615384615384","93.84615384615384","538.7538461538461","538.7538461538461","black","legacy","legacy","legacy","0","incongruent","uniform","0","undefined","0","s","0","0","0","64","0","64","64","0","0","0","0","64","64","64","64","64","Sat Sep 19 10:43:40 2020","1500","The main experiment item","yes","FlankerTask.osexp","/Users/kaylaredder/Desktop","no","mono","no","18","no","white","no","yes","768","legacy","64","64","/Users/kaylaredder/Desktop/fr-subject-2.csv","legacy","Lentiform Loewenfeld","3.3.3","0","h","NA","q","NA","NA","h","383","NA","58728","NA","NA","383","2","legacy","1024","2","48000","-16","experiment","HHSHH","2","even","61198","NA","NA","130198","NA","173856","172798","2461","NA","NA","2446","NA","173971","174356","173845","173971","Flanker Task ","61","35019","65","yes","1024"
"93.93939393939394","93.93939393939394","536","536","black","legacy","legacy","legacy","0","congruent","uniform","1","undefined","1","h","0","0","0","65","0","65","65","0","0","0","0","65","65","65","65","65","Sat Sep 19 10:43:40 2020","1500","The main experiment item","yes","FlankerTask.osexp","/Users/kaylaredder/Desktop","no","mono","no","18","no","white","no","yes","768","legacy","65","65","/Users/kaylaredder/Desktop/fr-subject-2.csv","legacy","Lentiform Loewenfeld","3.3.3","0","h","NA","q","NA","NA","h","357","NA","58728","NA","NA","357","2","legacy","1024","2","48000","-16","experiment","HHHHH","2","even","61198","NA","NA","174376","NA","175946","174889","2461","NA","NA","2446","NA","176060","176419","175934","176060","Flanker Task ","62","35376","66","yes","1024"
"94.02985074626865","94.02985074626865","535.0746268656717","535.0746268656717","black","legacy","legacy","legacy","0","incongruent ","uniform","1","undefined","1","h","0","0","0","66","0","66","66","0","0","0","0","66","66","66","66","66","Sat Sep 19 10:43:40 2020","1500","The main experiment item","yes","FlankerTask.osexp","/Users/kaylaredder/Desktop","no","mono","no","18","no","white","no","yes","768","legacy","66","66","/Users/kaylaredder/Desktop/fr-subject-2.csv","legacy","Lentiform Loewenfeld","3.3.3","0","h","NA","q","NA","NA","h","474","NA","58728","NA","NA","474","2","legacy","1024","2","48000","-16","experiment","SSHSS","2","even","61198","NA","NA","174376","NA","177496","176439","2461","NA","NA","2446","NA","177610","178086","177484","177610","Flanker Task ","63","35850","67","yes","1024"
"94.11764705882354","94.11764705882354","533.7205882352941","533.7205882352941","black","legacy","legacy","legacy","0","congruent ","uniform","1","undefined","1","s","0","0","0","67","0","67","67","0","0","0","0","67","67","67","67","67","Sat Sep 19 10:43:40 2020","1500","The main experiment item","yes","FlankerTask.osexp","/Users/kaylaredder/Desktop","no","mono","no","18","no","white","no","yes","768","legacy","67","67","/Users/kaylaredder/Desktop/fr-subject-2.csv","legacy","Lentiform Loewenfeld","3.3.3","0","s","NA","q","NA","NA","s","443","NA","58728","NA","NA","443","2","legacy","1024","2","48000","-16","experiment","SSSSS","2","even","61198","NA","NA","174376","NA","179163","178106","2461","NA","NA","2446","NA","179277","179722","179151","179277","Flanker Task ","64","36293","68","yes","1024"
"94.20289855072464","94.20289855072464","533.2463768115942","533.2463768115942","black","legacy","legacy","legacy","0","incongruent","uniform","1","undefined","1","s","0","0","0","68","0","68","68","0","0","0","0","68","68","68","68","68","Sat Sep 19 10:43:40 2020","1500","The main experiment item","yes","FlankerTask.osexp","/Users/kaylaredder/Desktop","no","mono","no","18","no","white","no","yes","768","legacy","68","68","/Users/kaylaredder/Desktop/fr-subject-2.csv","legacy","Lentiform Loewenfeld","3.3.3","0","s","NA","q","NA","NA","s","501","NA","58728","NA","NA","501","2","legacy","1024","2","48000","-16","experiment","HHSHH","2","even","61198","NA","NA","174376","NA","180799","179742","2461","NA","NA","2446","NA","180913","181415","180787","180913","Flanker Task ","65","36794","69","yes","1024"
"94.28571428571429","94.28571428571429","533.6142857142858","533.6142857142858","black","legacy","legacy","legacy","0","congruent","uniform","1","undefined","1","h","0","0","0","69","0","69","69","0","0","0","0","69","69","69","69","69","Sat Sep 19 10:43:40 2020","1500","The main experiment item","yes","FlankerTask.osexp","/Users/kaylaredder/Desktop","no","mono","no","18","no","white","no","yes","768","legacy","69","69","/Users/kaylaredder/Desktop/fr-subject-2.csv","legacy","Lentiform Loewenfeld","3.3.3","0","h","NA","q","NA","NA","h","559","NA","58728","NA","NA","559","2","legacy","1024","2","48000","-16","experiment","HHHHH","2","even","61198","NA","NA","174376","NA","182495","181436","2461","NA","NA","2446","NA","182608","183168","182483","182608","Flanker Task ","66","37353","70","yes","1024"
"94.36619718309859","94.36619718309859","532.7464788732394","532.7464788732394","black","legacy","legacy","legacy","0","incongruent ","uniform","1","undefined","1","h","0","0","0","70","0","70","70","0","0","0","0","70","70","70","70","70","Sat Sep 19 10:43:40 2020","1500","The main experiment item","yes","FlankerTask.osexp","/Users/kaylaredder/Desktop","no","mono","no","18","no","white","no","yes","768","legacy","70","70","/Users/kaylaredder/Desktop/fr-subject-2.csv","legacy","Lentiform Loewenfeld","3.3.3","0","h","NA","q","NA","NA","h","472","NA","58728","NA","NA","472","2","legacy","1024","2","48000","-16","experiment","SSHSS","2","even","61198","NA","NA","174376","NA","184247","183190","2461","NA","NA","2446","NA","184361","184835","184235","184361","Flanker Task ","67","37825","71","yes","1024"
"94.44444444444444","94.44444444444444","532.5694444444445","532.5694444444445","black","legacy","legacy","legacy","0","incongruent","uniform","1","undefined","1","s","0","0","0","71","0","71","71","0","0","0","0","71","71","71","71","71","Sat Sep 19 10:43:40 2020","1500","The main experiment item","yes","FlankerTask.osexp","/Users/kaylaredder/Desktop","no","mono","no","18","no","white","no","yes","768","legacy","71","71","/Users/kaylaredder/Desktop/fr-subject-2.csv","legacy","Lentiform Loewenfeld","3.3.3","0","s","NA","q","NA","NA","s","520","NA","58728","NA","NA","520","2","legacy","1024","2","48000","-16","experiment","HHSHH","2","even","61198","NA","NA","174376","NA","185916","184858","2461","NA","NA","2446","NA","186030","186551","185904","186030","Flanker Task ","68","38345","72","yes","1024"
"94.52054794520548","94.52054794520548","533.5068493150685","533.5068493150685","black","legacy","legacy","legacy","0","incongruent ","uniform","1","undefined","1","h","0","0","0","72","0","72","72","0","0","0","0","72","72","72","72","72","Sat Sep 19 10:43:40 2020","1500","The main experiment item","yes","FlankerTask.osexp","/Users/kaylaredder/Desktop","no","mono","no","18","no","white","no","yes","768","legacy","72","72","/Users/kaylaredder/Desktop/fr-subject-2.csv","legacy","Lentiform Loewenfeld","3.3.3","0","h","NA","q","NA","NA","h","601","NA","58728","NA","NA","601","2","legacy","1024","2","48000","-16","experiment","SSHSS","2","even","61198","NA","NA","174376","NA","187630","186572","2461","NA","NA","2446","NA","187744","188346","187618","187744","Flanker Task ","69","38946","73","yes","1024"
"94.5945945945946","94.5945945945946","533.6621621621622","533.6621621621622","black","legacy","legacy","legacy","0","incongruent","uniform","1","undefined","1","s","0","0","0","73","0","73","73","0","0","0","0","73","73","73","73","73","Sat Sep 19 10:43:40 2020","1500","The main experiment item","yes","FlankerTask.osexp","/Users/kaylaredder/Desktop","no","mono","no","18","no","white","no","yes","768","legacy","73","73","/Users/kaylaredder/Desktop/fr-subject-2.csv","legacy","Lentiform Loewenfeld","3.3.3","0","s","NA","q","NA","NA","s","545","NA","58728","NA","NA","545","2","legacy","1024","2","48000","-16","experiment","HHSHH","2","even","61198","NA","NA","174376","NA","189427","188368","2461","NA","NA","2446","NA","189542","190088","189415","189542","Flanker Task ","70","39491","74","yes","1024"
"94.66666666666667","94.66666666666667","532.9866666666667","532.9866666666667","black","legacy","legacy","legacy","0","incongruent","uniform","1","undefined","1","s","0","0","0","74","0","74","74","0","0","0","0","74","74","74","74","74","Sat Sep 19 10:43:40 2020","1500","The main experiment item","yes","FlankerTask.osexp","/Users/kaylaredder/Desktop","no","mono","no","18","no","white","no","yes","768","legacy","74","74","/Users/kaylaredder/Desktop/fr-subject-2.csv","legacy","Lentiform Loewenfeld","3.3.3","0","s","NA","q","NA","NA","s","483","NA","58728","NA","NA","483","2","legacy","1024","2","48000","-16","experiment","HHSHH","2","even","61198","NA","NA","174376","NA","191167","190109","2461","NA","NA","2446","NA","191281","191765","191155","191281","Flanker Task ","71","39974","75","yes","1024"
"94.73684210526316","94.73684210526316","531.8421052631579","531.8421052631579","black","legacy","legacy","legacy","0","congruent","uniform","1","undefined","1","h","0","0","0","75","0","75","75","0","0","0","0","75","75","75","75","75","Sat Sep 19 10:43:40 2020","1500","The main experiment item","yes","FlankerTask.osexp","/Users/kaylaredder/Desktop","no","mono","no","18","no","white","no","yes","768","legacy","75","75","/Users/kaylaredder/Desktop/fr-subject-2.csv","legacy","Lentiform Loewenfeld","3.3.3","0","h","NA","q","NA","NA","h","446","NA","58728","NA","NA","446","2","legacy","1024","2","48000","-16","experiment","HHHHH","2","even","61198","NA","NA","174376","NA","192848","191790","2461","NA","NA","2446","NA","192962","193409","192836","192962","Flanker Task ","72","40420","76","yes","1024"
"94.8051948051948","94.8051948051948","531.0519480519481","531.0519480519481","black","legacy","legacy","legacy","0","congruent","uniform","1","undefined","1","h","0","0","0","76","0","76","76","0","0","0","0","76","76","76","76","76","Sat Sep 19 10:43:40 2020","1500","The main experiment item","yes","FlankerTask.osexp","/Users/kaylaredder/Desktop","no","mono","no","18","no","white","no","yes","768","legacy","76","76","/Users/kaylaredder/Desktop/fr-subject-2.csv","legacy","Lentiform Loewenfeld","3.3.3","0","h","NA","q","NA","NA","h","471","NA","58728","NA","NA","471","2","legacy","1024","2","48000","-16","experiment","HHHHH","2","even","61198","NA","NA","174376","NA","194487","193430","2461","NA","NA","2446","NA","194601","195073","194475","194601","Flanker Task ","73","40891","77","yes","1024"
"94.87179487179488","94.87179487179488","530.8717948717949","530.8717948717949","black","legacy","legacy","legacy","0","incongruent ","uniform","1","undefined","1","h","0","0","0","77","0","77","77","0","0","0","0","77","77","77","77","77","Sat Sep 19 10:43:40 2020","1500","The main experiment item","yes","FlankerTask.osexp","/Users/kaylaredder/Desktop","no","mono","no","18","no","white","no","yes","768","legacy","77","77","/Users/kaylaredder/Desktop/fr-subject-2.csv","legacy","Lentiform Loewenfeld","3.3.3","0","h","NA","q","NA","NA","h","517","NA","58728","NA","NA","517","2","legacy","1024","2","48000","-16","experiment","SSHSS","2","even","61198","NA","NA","174376","NA","196151","195095","2461","NA","NA","2446","NA","196266","196784","196140","196265","Flanker Task ","74","41408","78","yes","1024"
"94.9367088607595","94.9367088607595","529.2405063291139","529.2405063291139","black","legacy","legacy","legacy","0","congruent ","uniform","1","undefined","1","s","0","0","0","78","0","78","78","0","0","0","0","78","78","78","78","78","Sat Sep 19 10:43:40 2020","1500","The main experiment item","yes","FlankerTask.osexp","/Users/kaylaredder/Desktop","no","mono","no","18","no","white","no","yes","768","legacy","78","78","/Users/kaylaredder/Desktop/fr-subject-2.csv","legacy","Lentiform Loewenfeld","3.3.3","0","s","NA","q","NA","NA","s","402","NA","58728","NA","NA","402","2","legacy","1024","2","48000","-16","experiment","SSSSS","2","even","61198","NA","NA","174376","NA","197863","196806","2461","NA","NA","2446","NA","197978","198381","197852","197978","Flanker Task ","75","41810","79","yes","1024"
"95","95","527.6375","527.6375","black","legacy","legacy","legacy","0","congruent ","uniform","1","undefined","1","s","0","0","0","79","0","79","79","0","0","0","0","79","79","79","79","79","Sat Sep 19 10:43:40 2020","1500","The main experiment item","yes","FlankerTask.osexp","/Users/kaylaredder/Desktop","no","mono","no","18","no","white","no","yes","768","legacy","79","79","/Users/kaylaredder/Desktop/fr-subject-2.csv","legacy","Lentiform Loewenfeld","3.3.3","0","s","NA","q","NA","NA","s","401","NA","58728","NA","NA","401","2","legacy","1024","2","48000","-16","experiment","SSSSS","2","even","61198","NA","NA","174376","NA","199460","198402","2461","NA","NA","2446","NA","199576","199978","199449","199576","Flanker Task ","76","42211","80","yes","1024"
"95.06172839506173","95.06172839506173","528.3827160493827","528.3827160493827","black","legacy","legacy","legacy","0","congrunent ","uniform","1","undefined","1","s","0","0","0","80","0","80","80","0","0","0","0","80","80","80","80","80","Sat Sep 19 10:43:40 2020","600","The main experiment item","yes","FlankerTask.osexp","/Users/kaylaredder/Desktop","no","mono","no","18","no","white","no","yes","768","legacy","0","79","/Users/kaylaredder/Desktop/fr-subject-2.csv","legacy","Lentiform Loewenfeld","3.3.3","0","s","NA","q","h","NA","s","588","NA","58728","36807","NA","588","2","legacy","1024","2","48000","-16","experiment","SSSSS","2","even","61198","237842","NA","174376","NA","237881","199999","2461","201033","NA","2446","NA","237994","238583","237869","237994","Flanker Task ","77","42799","81","yes","1024"
"95.1219512195122","95.1219512195122","527.280487804878","527.280487804878","black","legacy","legacy","legacy","0","congrunent ","uniform","1","undefined","1","s","0","0","0","81","0","81","81","0","0","0","0","81","81","81","81","81","Sat Sep 19 10:43:40 2020","600","The main experiment item","yes","FlankerTask.osexp","/Users/kaylaredder/Desktop","no","mono","no","18","no","white","no","yes","768","legacy","1","79","/Users/kaylaredder/Desktop/fr-subject-2.csv","legacy","Lentiform Loewenfeld","3.3.3","0","s","NA","q","h","NA","s","438","NA","58728","36807","NA","438","2","legacy","1024","2","48000","-16","experiment","SSSSS","2","even","61198","237842","NA","174376","NA","239668","238608","2461","201033","NA","2446","NA","239782","240221","239654","239782","Flanker Task ","78","43237","82","yes","1024"
"95.18072289156626","95.18072289156626","527.5301204819277","527.5301204819277","black","legacy","legacy","legacy","0","congruent","uniform","1","undefined","1","h","0","0","0","82","0","82","82","0","0","0","0","82","82","82","82","82","Sat Sep 19 10:43:40 2020","600","The main experiment item","yes","FlankerTask.osexp","/Users/kaylaredder/Desktop","no","mono","no","18","no","white","no","yes","768","legacy","2","79","/Users/kaylaredder/Desktop/fr-subject-2.csv","legacy","Lentiform Loewenfeld","3.3.3","0","h","NA","q","h","NA","h","548","NA","58728","36807","NA","548","2","legacy","1024","2","48000","-16","experiment","HHHHH","2","even","61198","237842","NA","174376","NA","241300","240242","2461","201033","NA","2446","NA","241414","241963","241288","241414","Flanker Task ","79","43785","83","yes","1024"
"95.23809523809524","95.23809523809524","528.9166666666666","528.9166666666666","black","legacy","legacy","legacy","0","incongruent ","uniform","1","undefined","1","h","0","0","0","83","0","83","83","0","0","0","0","83","83","83","83","83","Sat Sep 19 10:43:40 2020","600","The main experiment item","yes","FlankerTask.osexp","/Users/kaylaredder/Desktop","no","mono","no","18","no","white","no","yes","768","legacy","3","79","/Users/kaylaredder/Desktop/fr-subject-2.csv","legacy","Lentiform Loewenfeld","3.3.3","0","h","NA","q","h","NA","h","644","NA","58728","36807","NA","644","2","legacy","1024","2","48000","-16","experiment","SSHSS","2","even","61198","237842","NA","174376","NA","243040","241984","2461","201033","NA","2446","NA","243153","243798","243028","243153","Flanker Task ","80","44429","84","yes","1024"
"95.29411764705883","95.29411764705883","530.4823529411765","530.4823529411765","black","legacy","legacy","legacy","0","incongruent ","uniform","1","undefined","1","h","0","0","0","84","0","84","84","0","0","0","0","84","84","84","84","84","Sat Sep 19 10:43:40 2020","600","The main experiment item","yes","FlankerTask.osexp","/Users/kaylaredder/Desktop","no","mono","no","18","no","white","no","yes","768","legacy","4","79","/Users/kaylaredder/Desktop/fr-subject-2.csv","legacy","Lentiform Loewenfeld","3.3.3","0","h","NA","q","h","NA","h","662","NA","58728","36807","NA","662","2","legacy","1024","2","48000","-16","experiment","SSHSS","2","even","61198","237842","NA","174376","NA","245388","244331","2461","201033","NA","2446","243818","245502","246165","245377","245502","Flanker Task ","81","45091","85","yes","1024"
"95.34883720930233","95.34883720930233","529.2209302325581","529.2209302325581","black","legacy","legacy","legacy","0","congrunent ","uniform","1","undefined","1","s","0","0","0","85","0","85","85","0","0","0","0","85","85","85","85","85","Sat Sep 19 10:43:40 2020","600","The main experiment item","yes","FlankerTask.osexp","/Users/kaylaredder/Desktop","no","mono","no","18","no","white","no","yes","768","legacy","5","79","/Users/kaylaredder/Desktop/fr-subject-2.csv","legacy","Lentiform Loewenfeld","3.3.3","0","s","NA","q","h","NA","s","422","NA","58728","36807","NA","422","2","legacy","1024","2","48000","-16","experiment","SSSSS","2","even","61198","237842","NA","174376","NA","247755","246699","2461","201033","NA","2446","246185","247870","248293","247744","247870","Flanker Task ","82","45513","86","yes","1024"
"95.40229885057471","95.40229885057471","526.9885057471264","526.9885057471264","black","legacy","legacy","legacy","0","congrunent ","uniform","1","undefined","1","s","0","0","0","86","0","86","86","0","0","0","0","86","86","86","86","86","Sat Sep 19 10:43:40 2020","600","The main experiment item","yes","FlankerTask.osexp","/Users/kaylaredder/Desktop","no","mono","no","18","no","white","no","yes","768","legacy","6","79","/Users/kaylaredder/Desktop/fr-subject-2.csv","legacy","Lentiform Loewenfeld","3.3.3","0","s","NA","q","h","NA","s","335","NA","58728","36807","NA","335","2","legacy","1024","2","48000","-16","experiment","SSSSS","2","even","61198","237842","NA","174376","NA","249370","248313","2461","201033","NA","2446","246185","249485","249821","249359","249485","Flanker Task ","83","45848","87","yes","1024"
"94.31818181818181","94.31818181818181","527.1136363636364","527.1136363636364","black","legacy","legacy","legacy","0","incongruent","uniform","0","undefined","0","s","0","0","0","87","0","87","87","0","0","0","0","87","87","87","87","87","Sat Sep 19 10:43:40 2020","600","The main experiment item","yes","FlankerTask.osexp","/Users/kaylaredder/Desktop","no","mono","no","18","no","white","no","yes","768","legacy","7","79","/Users/kaylaredder/Desktop/fr-subject-2.csv","legacy","Lentiform Loewenfeld","3.3.3","0","h","NA","q","h","NA","h","538","NA","58728","36807","NA","538","2","legacy","1024","2","48000","-16","experiment","HHSHH","2","even","61198","237842","NA","174376","NA","250899","249842","2461","201033","NA","2446","246185","251012","251551","250887","251012","Flanker Task ","83","46386","88","yes","1024"
"94.38202247191012","94.38202247191012","527.8089887640449","527.8089887640449","black","legacy","legacy","legacy","0","incongruent ","uniform","1","undefined","1","h","0","0","0","88","0","88","88","0","0","0","0","88","88","88","88","88","Sat Sep 19 10:43:40 2020","600","The main experiment item","yes","FlankerTask.osexp","/Users/kaylaredder/Desktop","no","mono","no","18","no","white","no","yes","768","legacy","8","79","/Users/kaylaredder/Desktop/fr-subject-2.csv","legacy","Lentiform Loewenfeld","3.3.3","0","h","NA","q","h","NA","h","589","NA","58728","36807","NA","589","2","legacy","1024","2","48000","-16","experiment","SSHSS","2","even","61198","237842","NA","251576","NA","253147","252090","2461","201033","NA","2446","246185","253261","253851","253135","253261","Flanker Task ","84","46975","89","yes","1024"
"94.44444444444444","94.44444444444444","527.1222222222223","527.1222222222223","black","legacy","legacy","legacy","0","incongruent ","uniform","1","undefined","1","h","0","0","0","89","0","89","89","0","0","0","0","89","89","89","89","89","Sat Sep 19 10:43:40 2020","600","The main experiment item","yes","FlankerTask.osexp","/Users/kaylaredder/Desktop","no","mono","no","18","no","white","no","yes","768","legacy","9","79","/Users/kaylaredder/Desktop/fr-subject-2.csv","legacy","Lentiform Loewenfeld","3.3.3","0","h","NA","q","h","NA","h","466","NA","58728","36807","NA","466","2","legacy","1024","2","48000","-16","experiment","SSHSS","2","even","61198","237842","NA","251576","NA","254929","253872","2461","201033","NA","2446","246185","255043","255510","254917","255043","Flanker Task ","85","47441","90","yes","1024"
"94.50549450549451","94.50549450549451","525.9230769230769","525.9230769230769","black","legacy","legacy","legacy","0","congrunent ","uniform","1","undefined","1","s","0","0","0","90","0","90","90","0","0","0","0","90","90","90","90","90","Sat Sep 19 10:43:40 2020","600","The main experiment item","yes","FlankerTask.osexp","/Users/kaylaredder/Desktop","no","mono","no","18","no","white","no","yes","768","legacy","10","79","/Users/kaylaredder/Desktop/fr-subject-2.csv","legacy","Lentiform Loewenfeld","3.3.3","0","s","NA","q","h","NA","s","418","NA","58728","36807","NA","418","2","legacy","1024","2","48000","-16","experiment","SSSSS","2","even","61198","237842","NA","251576","NA","256587","255530","2461","201033","NA","2446","246185","256702","257121","256575","256702","Flanker Task ","86","47859","91","yes","1024"
"94.56521739130434","94.56521739130434","525.75","525.75","black","legacy","legacy","legacy","0","congruent","uniform","1","undefined","1","h","0","0","0","91","0","91","91","0","0","0","0","91","91","91","91","91","Sat Sep 19 10:43:40 2020","600","The main experiment item","yes","FlankerTask.osexp","/Users/kaylaredder/Desktop","no","mono","no","18","no","white","no","yes","768","legacy","11","79","/Users/kaylaredder/Desktop/fr-subject-2.csv","legacy","Lentiform Loewenfeld","3.3.3","0","h","NA","q","h","NA","h","510","NA","58728","36807","NA","510","2","legacy","1024","2","48000","-16","experiment","HHHHH","2","even","61198","237842","NA","251576","NA","258198","257141","2461","201033","NA","2446","246185","258312","258823","258186","258312","Flanker Task ","87","48369","92","yes","1024"
"94.6236559139785","94.6236559139785","524.7741935483871","524.7741935483871","black","legacy","legacy","legacy","0","congruent","uniform","1","undefined","1","h","0","0","0","92","0","92","92","0","0","0","0","92","92","92","92","92","Sat Sep 19 10:43:40 2020","600","The main experiment item","yes","FlankerTask.osexp","/Users/kaylaredder/Desktop","no","mono","no","18","no","white","no","yes","768","legacy","12","79","/Users/kaylaredder/Desktop/fr-subject-2.csv","legacy","Lentiform Loewenfeld","3.3.3","0","h","NA","q","h","NA","h","435","NA","58728","36807","NA","435","2","legacy","1024","2","48000","-16","experiment","HHHHH","2","even","61198","237842","NA","251576","NA","259902","258843","2461","201033","NA","2446","246185","260016","260453","259889","260016","Flanker Task ","88","48804","93","yes","1024"
"94.68085106382979","94.68085106382979","522.8191489361702","522.8191489361702","black","legacy","legacy","legacy","0","congruent","uniform","1","undefined","1","h","0","0","0","93","0","93","93","0","0","0","0","93","93","93","93","93","Sat Sep 19 10:43:40 2020","600","The main experiment item","yes","FlankerTask.osexp","/Users/kaylaredder/Desktop","no","mono","no","18","no","white","no","yes","768","legacy","13","79","/Users/kaylaredder/Desktop/fr-subject-2.csv","legacy","Lentiform Loewenfeld","3.3.3","0","h","NA","q","h","NA","h","341","NA","58728","36807","NA","341","2","legacy","1024","2","48000","-16","experiment","HHHHH","2","even","61198","237842","NA","251576","NA","261531","260473","2461","201033","NA","2446","246185","261645","261989","261519","261645","Flanker Task ","89","49145","94","yes","1024"
"93.6842105263158","93.6842105263158","520.5578947368421","520.5578947368421","black","legacy","legacy","legacy","0","congrunent ","uniform","0","undefined","0","s","0","0","0","94","0","94","94","0","0","0","0","94","94","94","94","94","Sat Sep 19 10:43:40 2020","600","The main experiment item","yes","FlankerTask.osexp","/Users/kaylaredder/Desktop","no","mono","no","18","no","white","no","yes","768","legacy","14","79","/Users/kaylaredder/Desktop/fr-subject-2.csv","legacy","Lentiform Loewenfeld","3.3.3","0","h","NA","q","h","NA","h","308","NA","58728","36807","NA","308","2","legacy","1024","2","48000","-16","experiment","SSSSS","2","even","61198","237842","NA","251576","NA","263068","262011","2461","201033","NA","2446","246185","263182","263492","263056","263182","Flanker Task ","89","49453","95","yes","1024"
"92.70833333333333","92.70833333333333","519.40625","519.40625","black","legacy","legacy","legacy","0","incongruent ","uniform","0","undefined","0","h","0","0","0","95","0","95","95","0","0","0","0","95","95","95","95","95","Sat Sep 19 10:43:40 2020","600","The main experiment item","yes","FlankerTask.osexp","/Users/kaylaredder/Desktop","no","mono","no","18","no","white","no","yes","768","legacy","15","79","/Users/kaylaredder/Desktop/fr-subject-2.csv","legacy","Lentiform Loewenfeld","3.3.3","0","s","NA","q","h","NA","s","410","NA","58728","36807","NA","410","2","legacy","1024","2","48000","-16","experiment","SSHSS","2","even","61198","237842","NA","263512","NA","265082","264025","2461","201033","NA","2446","246185","265197","265609","265070","265196","Flanker Task ","89","49863","96","yes","1024"
"92.78350515463917","92.78350515463917","518.9690721649484","518.9690721649484","black","legacy","legacy","legacy","0","incongruent","uniform","1","undefined","1","s","0","0","0","96","0","96","96","0","0","0","0","96","96","96","96","96","Sat Sep 19 10:43:40 2020","600","The main experiment item","yes","FlankerTask.osexp","/Users/kaylaredder/Desktop","no","mono","no","18","no","white","no","yes","768","legacy","16","79","/Users/kaylaredder/Desktop/fr-subject-2.csv","legacy","Lentiform Loewenfeld","3.3.3","0","s","NA","q","h","NA","s","477","NA","58728","36807","NA","477","2","legacy","1024","2","48000","-16","experiment","HHSHH","2","even","61198","237842","NA","265629","NA","267199","266142","2461","201033","NA","2446","246185","267313","267792","267188","267313","Flanker Task ","90","50340","97","yes","1024"
"92.85714285714286","92.85714285714286","518.4285714285714","518.4285714285714","black","legacy","legacy","legacy","0","congrunent ","uniform","1","undefined","1","s","0","0","0","97","0","97","97","0","0","0","0","97","97","97","97","97","Sat Sep 19 10:43:40 2020","600","The main experiment item","yes","FlankerTask.osexp","/Users/kaylaredder/Desktop","no","mono","no","18","no","white","no","yes","768","legacy","17","79","/Users/kaylaredder/Desktop/fr-subject-2.csv","legacy","Lentiform Loewenfeld","3.3.3","0","s","NA","q","h","NA","s","466","NA","58728","36807","NA","466","2","legacy","1024","2","48000","-16","experiment","SSSSS","2","even","61198","237842","NA","265629","NA","268870","267813","2461","201033","NA","2446","246185","268984","269452","268858","268984","Flanker Task ","91","50806","98","yes","1024"
"92.92929292929293","92.92929292929293","518.5353535353536","518.5353535353536","black","legacy","legacy","legacy","0","congrunent ","uniform","1","undefined","1","s","0","0","0","98","0","98","98","0","0","0","0","98","98","98","98","98","Sat Sep 19 10:43:40 2020","600","The main experiment item","yes","FlankerTask.osexp","/Users/kaylaredder/Desktop","no","mono","no","18","no","white","no","yes","768","legacy","18","79","/Users/kaylaredder/Desktop/fr-subject-2.csv","legacy","Lentiform Loewenfeld","3.3.3","0","s","NA","q","h","NA","s","529","NA","58728","36807","NA","529","2","legacy","1024","2","48000","-16","experiment","SSSSS","2","even","61198","237842","NA","265629","NA","270530","269472","2461","201033","NA","2446","246185","270644","271175","270518","270644","Flanker Task ","92","51335","99","yes","1024"
"93","93","517.47","517.47","black","legacy","legacy","legacy","0","congruent","uniform","1","undefined","1","h","0","0","0","99","0","99","99","0","0","0","0","99","99","99","99","99","Sat Sep 19 10:43:40 2020","600","The main experiment item","yes","FlankerTask.osexp","/Users/kaylaredder/Desktop","no","mono","no","18","no","white","no","yes","768","legacy","19","79","/Users/kaylaredder/Desktop/fr-subject-2.csv","legacy","Lentiform Loewenfeld","3.3.3","0","h","NA","q","h","NA","h","412","NA","58728","36807","NA","412","2","legacy","1024","2","48000","-16","experiment","HHHHH","2","even","61198","237842","NA","265629","NA","272253","271195","2461","201033","NA","2446","246185","272368","272782","272241","272368","Flanker Task ","93","51747","100","yes","1024"
"93.06930693069307","93.06930693069307","517.039603960396","517.039603960396","black","legacy","legacy","legacy","0","congruent","uniform","1","undefined","1","h","0","0","0","100","0","100","100","0","0","0","0","100","100","100","100","100","Sat Sep 19 10:43:40 2020","600","The main experiment item","yes","FlankerTask.osexp","/Users/kaylaredder/Desktop","no","mono","no","18","no","white","no","yes","768","legacy","20","79","/Users/kaylaredder/Desktop/fr-subject-2.csv","legacy","Lentiform Loewenfeld","3.3.3","0","h","NA","q","h","NA","h","474","NA","58728","36807","NA","474","2","legacy","1024","2","48000","-16","experiment","HHHHH","2","even","61198","237842","NA","265629","NA","273859","272803","2461","201033","NA","2446","246185","273974","274450","273848","273974","Flanker Task ","94","52221","101","yes","1024"
"92.15686274509804","92.15686274509804","517.0784313725491","517.0784313725491","black","legacy","legacy","legacy","0","incongruent ","uniform","0","undefined","0","h","0","0","0","101","0","101","101","0","0","0","0","101","101","101","101","101","Sat Sep 19 10:43:40 2020","600","The main experiment item","yes","FlankerTask.osexp","/Users/kaylaredder/Desktop","no","mono","no","18","no","white","no","yes","768","legacy","21","79","/Users/kaylaredder/Desktop/fr-subject-2.csv","legacy","Lentiform Loewenfeld","3.3.3","0","s","NA","q","h","NA","s","521","NA","58728","36807","NA","521","2","legacy","1024","2","48000","-16","experiment","SSHSS","2","even","61198","237842","NA","265629","NA","275530","274470","2461","201033","NA","2446","246185","275644","276167","275518","275644","Flanker Task ","94","52742","102","yes","1024"
"92.23300970873787","92.23300970873787","516.1359223300971","516.1359223300971","black","legacy","legacy","legacy","0","congruent","uniform","1","undefined","1","h","0","0","0","102","0","102","102","0","0","0","0","102","102","102","102","102","Sat Sep 19 10:43:40 2020","600","The main experiment item","yes","FlankerTask.osexp","/Users/kaylaredder/Desktop","no","mono","no","18","no","white","no","yes","768","legacy","22","79","/Users/kaylaredder/Desktop/fr-subject-2.csv","legacy","Lentiform Loewenfeld","3.3.3","0","h","NA","q","h","NA","h","420","NA","58728","36807","NA","420","2","legacy","1024","2","48000","-16","experiment","HHHHH","2","even","61198","237842","NA","276187","NA","277757","276700","2461","201033","NA","2446","246185","277872","278294","277745","277872","Flanker Task ","95","53162","103","yes","1024"
"92.3076923076923","92.3076923076923","516.0961538461538","516.0961538461538","black","legacy","legacy","legacy","0","incongruent ","uniform","1","undefined","1","h","0","0","0","103","0","103","103","0","0","0","0","103","103","103","103","103","Sat Sep 19 10:43:40 2020","600","The main experiment item","yes","FlankerTask.osexp","/Users/kaylaredder/Desktop","no","mono","no","18","no","white","no","yes","768","legacy","23","79","/Users/kaylaredder/Desktop/fr-subject-2.csv","legacy","Lentiform Loewenfeld","3.3.3","0","h","NA","q","h","NA","h","512","NA","58728","36807","NA","512","2","legacy","1024","2","48000","-16","experiment","SSHSS","2","even","61198","237842","NA","276187","NA","279371","278315","2461","201033","NA","2446","246185","279486","280000","279360","279486","Flanker Task ","96","53674","104","yes","1024"
"92.38095238095238","92.38095238095238","514.9809523809524","514.9809523809524","black","legacy","legacy","legacy","0","congruent","uniform","1","undefined","1","h","0","0","0","104","0","104","104","0","0","0","0","104","104","104","104","104","Sat Sep 19 10:43:40 2020","600","The main experiment item","yes","FlankerTask.osexp","/Users/kaylaredder/Desktop","no","mono","no","18","no","white","no","yes","768","legacy","24","79","/Users/kaylaredder/Desktop/fr-subject-2.csv","legacy","Lentiform Loewenfeld","3.3.3","0","h","NA","q","h","NA","h","399","NA","58728","36807","NA","399","2","legacy","1024","2","48000","-16","experiment","HHHHH","2","even","61198","237842","NA","276187","NA","281078","280021","2461","201033","NA","2446","246185","281192","281593","281066","281192","Flanker Task ","97","54073","105","yes","1024"
"92.45283018867924","92.45283018867924","513.811320754717","513.811320754717","black","legacy","legacy","legacy","0","congruent","uniform","1","undefined","1","h","0","0","0","105","0","105","105","0","0","0","0","105","105","105","105","105","Sat Sep 19 10:43:40 2020","600","The main experiment item","yes","FlankerTask.osexp","/Users/kaylaredder/Desktop","no","mono","no","18","no","white","no","yes","768","legacy","25","79","/Users/kaylaredder/Desktop/fr-subject-2.csv","legacy","Lentiform Loewenfeld","3.3.3","0","h","NA","q","h","NA","h","391","NA","58728","36807","NA","391","2","legacy","1024","2","48000","-16","experiment","HHHHH","2","even","61198","237842","NA","276187","NA","282675","281617","2461","201033","NA","2446","246185","282789","283182","282663","282789","Flanker Task ","98","54464","106","yes","1024"
"92.5233644859813","92.5233644859813","513.8971962616822","513.8971962616822","black","legacy","legacy","legacy","0","congrunent ","uniform","1","undefined","1","s","0","0","0","106","0","106","106","0","0","0","0","106","106","106","106","106","Sat Sep 19 10:43:40 2020","600","The main experiment item","yes","FlankerTask.osexp","/Users/kaylaredder/Desktop","no","mono","no","18","no","white","no","yes","768","legacy","26","79","/Users/kaylaredder/Desktop/fr-subject-2.csv","legacy","Lentiform Loewenfeld","3.3.3","0","s","NA","q","h","NA","s","523","NA","58728","36807","NA","523","2","legacy","1024","2","48000","-16","experiment","SSSSS","2","even","61198","237842","NA","276187","NA","284259","283202","2461","201033","NA","2446","246185","284373","284898","284247","284373","Flanker Task ","99","54987","107","yes","1024"
"92.5925925925926","92.5925925925926","515.6203703703703","515.6203703703703","black","legacy","legacy","legacy","0","incongruent","uniform","1","undefined","1","s","0","0","0","107","0","107","107","0","0","0","0","107","107","107","107","107","Sat Sep 19 10:43:40 2020","600","The main experiment item","yes","FlankerTask.osexp","/Users/kaylaredder/Desktop","no","mono","no","18","no","white","no","yes","768","legacy","27","79","/Users/kaylaredder/Desktop/fr-subject-2.csv","legacy","Lentiform Loewenfeld","3.3.3","0","s","NA","q","h","NA","s","700","NA","58728","36807","NA","700","2","legacy","1024","2","48000","-16","experiment","HHSHH","2","even","61198","237842","NA","276187","NA","285975","284918","2461","201033","NA","2446","246185","286089","286791","285963","286089","Flanker Task ","100","55687","108","yes","1024"
"91.74311926605505","91.74311926605505","514.4311926605504","514.4311926605504","black","legacy","legacy","legacy","0","incongruent ","uniform","0","undefined","0","h","0","0","0","108","0","108","108","0","0","0","0","108","108","108","108","108","Sat Sep 19 10:43:40 2020","600","The main experiment item","yes","FlankerTask.osexp","/Users/kaylaredder/Desktop","no","mono","no","18","no","white","no","yes","768","legacy","28","79","/Users/kaylaredder/Desktop/fr-subject-2.csv","legacy","Lentiform Loewenfeld","3.3.3","0","s","NA","q","h","NA","s","386","NA","58728","36807","NA","386","2","legacy","1024","2","48000","-16","experiment","SSHSS","2","even","61198","237842","NA","276187","NA","288381","287324","2461","201033","NA","2446","286811","288495","288883","288370","288495","Flanker Task ","100","56073","109","yes","1024"
"91.81818181818181","91.81818181818181","513.4727272727273","513.4727272727273","black","legacy","legacy","legacy","0","incongruent ","uniform","1","undefined","1","h","0","0","0","109","0","109","109","0","0","0","0","109","109","109","109","109","Sat Sep 19 10:43:40 2020","600","The main experiment item","yes","FlankerTask.osexp","/Users/kaylaredder/Desktop","no","mono","no","18","no","white","no","yes","768","legacy","29","79","/Users/kaylaredder/Desktop/fr-subject-2.csv","legacy","Lentiform Loewenfeld","3.3.3","0","h","NA","q","h","NA","h","409","NA","58728","36807","NA","409","2","legacy","1024","2","48000","-16","experiment","SSHSS","2","even","61198","237842","NA","288904","NA","290473","289417","2461","201033","NA","2446","286811","290587","290997","290462","290587","Flanker Task ","101","56482","110","yes","1024"
"91.89189189189189","91.89189189189189","513.1261261261261","513.1261261261261","black","legacy","legacy","legacy","0","incongruent ","uniform","1","undefined","1","h","0","0","0","110","0","110","110","0","0","0","0","110","110","110","110","110","Sat Sep 19 10:43:40 2020","600","The main experiment item","yes","FlankerTask.osexp","/Users/kaylaredder/Desktop","no","mono","no","18","no","white","no","yes","768","legacy","30","79","/Users/kaylaredder/Desktop/fr-subject-2.csv","legacy","Lentiform Loewenfeld","3.3.3","0","h","NA","q","h","NA","h","475","NA","58728","36807","NA","475","2","legacy","1024","2","48000","-16","experiment","SSHSS","2","even","61198","237842","NA","288904","NA","292076","291017","2461","201033","NA","2446","286811","292190","292667","292064","292190","Flanker Task ","102","56957","111","yes","1024"
"91.96428571428571","91.96428571428571","511.86607142857144","511.86607142857144","black","legacy","legacy","legacy","0","incongruent ","uniform","1","undefined","1","h","0","0","0","111","0","111","111","0","0","0","0","111","111","111","111","111","Sat Sep 19 10:43:40 2020","600","The main experiment item","yes","FlankerTask.osexp","/Users/kaylaredder/Desktop","no","mono","no","18","no","white","no","yes","768","legacy","31","79","/Users/kaylaredder/Desktop/fr-subject-2.csv","legacy","Lentiform Loewenfeld","3.3.3","0","h","NA","q","h","NA","h","372","NA","58728","36807","NA","372","2","legacy","1024","2","48000","-16","experiment","SSHSS","2","even","61198","237842","NA","288904","NA","293744","292687","2461","201033","NA","2446","286811","293858","294232","293731","293858","Flanker Task ","103","57329","112","yes","1024"
"92.03539823008849","92.03539823008849","510.94690265486724","510.94690265486724","black","legacy","legacy","legacy","0","congrunent ","uniform","1","undefined","1","s","0","0","0","112","0","112","112","0","0","0","0","112","112","112","112","112","Sat Sep 19 10:43:40 2020","600","The main experiment item","yes","FlankerTask.osexp","/Users/kaylaredder/Desktop","no","mono","no","18","no","white","no","yes","768","legacy","32","79","/Users/kaylaredder/Desktop/fr-subject-2.csv","legacy","Lentiform Loewenfeld","3.3.3","0","s","NA","q","h","NA","s","408","NA","58728","36807","NA","408","2","legacy","1024","2","48000","-16","experiment","SSSSS","2","even","61198","237842","NA","288904","NA","295312","294254","2461","201033","NA","2446","286811","295426","295835","295300","295426","Flanker Task ","104","57737","113","yes","1024"
"92.10526315789474","92.10526315789474","511.12280701754383","511.12280701754383","black","legacy","legacy","legacy","0","incongruent","uniform","1","undefined","1","s","0","0","0","113","0","113","113","0","0","0","0","113","113","113","113","113","Sat Sep 19 10:43:40 2020","600","The main experiment item","yes","FlankerTask.osexp","/Users/kaylaredder/Desktop","no","mono","no","18","no","white","no","yes","768","legacy","33","79","/Users/kaylaredder/Desktop/fr-subject-2.csv","legacy","Lentiform Loewenfeld","3.3.3","0","s","NA","q","h","NA","s","531","NA","58728","36807","NA","531","2","legacy","1024","2","48000","-16","experiment","HHSHH","2","even","61198","237842","NA","288904","NA","296913","295856","2461","201033","NA","2446","286811","297027","297559","296901","297027","Flanker Task ","105","58268","114","yes","1024"
"92.17391304347827","92.17391304347827","510.8608695652174","510.8608695652174","black","legacy","legacy","legacy","0","congrunent ","uniform","1","undefined","1","s","0","0","0","114","0","114","114","0","0","0","0","114","114","114","114","114","Sat Sep 19 10:43:40 2020","600","The main experiment item","yes","FlankerTask.osexp","/Users/kaylaredder/Desktop","no","mono","no","18","no","white","no","yes","768","legacy","34","79","/Users/kaylaredder/Desktop/fr-subject-2.csv","legacy","Lentiform Loewenfeld","3.3.3","0","s","NA","q","h","NA","s","481","NA","58728","36807","NA","481","2","legacy","1024","2","48000","-16","experiment","SSSSS","2","even","61198","237842","NA","288904","NA","298638","297580","2461","201033","NA","2446","286811","298753","299235","298626","298753","Flanker Task ","106","58749","115","yes","1024"
"92.24137931034483","92.24137931034483","509.3965517241379","509.3965517241379","black","legacy","legacy","legacy","0","incongruent","uniform","1","undefined","1","s","0","0","0","115","0","115","115","0","0","0","0","115","115","115","115","115","Sat Sep 19 10:43:40 2020","600","The main experiment item","yes","FlankerTask.osexp","/Users/kaylaredder/Desktop","no","mono","no","18","no","white","no","yes","768","legacy","35","79","/Users/kaylaredder/Desktop/fr-subject-2.csv","legacy","Lentiform Loewenfeld","3.3.3","0","s","NA","q","h","NA","s","341","NA","58728","36807","NA","341","2","legacy","1024","2","48000","-16","experiment","HHSHH","2","even","61198","237842","NA","288904","NA","300315","299256","2461","201033","NA","2446","286811","300428","300770","300303","300428","Flanker Task ","107","59090","116","yes","1024"
"91.45299145299145","91.45299145299145","507.64102564102564","507.64102564102564","black","legacy","legacy","legacy","0","incongruent","uniform","0","undefined","0","s","0","0","0","116","0","116","116","0","0","0","0","116","116","116","116","116","Sat Sep 19 10:43:40 2020","600","The main experiment item","yes","FlankerTask.osexp","/Users/kaylaredder/Desktop","no","mono","no","18","no","white","no","yes","768","legacy","36","79","/Users/kaylaredder/Desktop/fr-subject-2.csv","legacy","Lentiform Loewenfeld","3.3.3","0","h","NA","q","h","NA","h","304","NA","58728","36807","NA","304","2","legacy","1024","2","48000","-16","experiment","HHSHH","2","even","61198","237842","NA","288904","NA","301849","300791","2461","201033","NA","2446","286811","301964","302269","301838","301964","Flanker Task ","107","59394","117","yes","1024"
"91.52542372881356","91.52542372881356","508.04237288135596","508.04237288135596","black","legacy","legacy","legacy","0","incongruent ","uniform","1","undefined","1","h","0","0","0","117","0","117","117","0","0","0","0","117","117","117","117","117","Sat Sep 19 10:43:40 2020","600","The main experiment item","yes","FlankerTask.osexp","/Users/kaylaredder/Desktop","no","mono","no","18","no","white","no","yes","768","legacy","37","79","/Users/kaylaredder/Desktop/fr-subject-2.csv","legacy","Lentiform Loewenfeld","3.3.3","0","h","NA","q","h","NA","h","555","NA","58728","36807","NA","555","2","legacy","1024","2","48000","-16","experiment","SSHSS","2","even","61198","237842","NA","302291","NA","303863","302805","2461","201033","NA","2446","286811","303978","304534","303851","303978","Flanker Task ","108","59949","118","yes","1024"
"91.59663865546219","91.59663865546219","506.97478991596637","506.97478991596637","black","legacy","legacy","legacy","0","incongruent ","uniform","1","undefined","1","h","0","0","0","118","0","118","118","0","0","0","0","118","118","118","118","118","Sat Sep 19 10:43:40 2020","600","The main experiment item","yes","FlankerTask.osexp","/Users/kaylaredder/Desktop","no","mono","no","18","no","white","no","yes","768","legacy","38","79","/Users/kaylaredder/Desktop/fr-subject-2.csv","legacy","Lentiform Loewenfeld","3.3.3","0","h","NA","q","h","NA","h","381","NA","58728","36807","NA","381","2","legacy","1024","2","48000","-16","experiment","SSHSS","2","even","61198","237842","NA","302291","NA","305612","304555","2461","201033","NA","2446","286811","305727","306109","305600","305727","Flanker Task ","109","60330","119","yes","1024"
"91.66666666666667","91.66666666666667","506.975","506.975","black","legacy","legacy","legacy","0","congrunent ","uniform","1","undefined","1","s","0","0","0","119","0","119","119","0","0","0","0","119","119","119","119","119","Sat Sep 19 10:43:40 2020","600","The main experiment item","yes","FlankerTask.osexp","/Users/kaylaredder/Desktop","no","mono","no","18","no","white","no","yes","768","legacy","39","79","/Users/kaylaredder/Desktop/fr-subject-2.csv","legacy","Lentiform Loewenfeld","3.3.3","0","s","NA","q","h","NA","s","507","NA","58728","36807","NA","507","2","legacy","1024","2","48000","-16","experiment","SSSSS","2","even","61198","237842","NA","302291","NA","307189","306131","2461","201033","NA","2446","286811","307304","307812","307176","307304","Flanker Task ","110","60837","120","yes","1024"
"91.73553719008264","91.73553719008264","506.21487603305786","506.21487603305786","black","legacy","legacy","legacy","0","congrunent ","uniform","1","undefined","1","s","0","0","0","120","0","120","120","0","0","0","0","120","120","120","120","120","Sat Sep 19 10:43:40 2020","600","The main experiment item","yes","FlankerTask.osexp","/Users/kaylaredder/Desktop","no","mono","no","18","no","white","no","yes","768","legacy","40","79","/Users/kaylaredder/Desktop/fr-subject-2.csv","legacy","Lentiform Loewenfeld","3.3.3","0","s","NA","q","h","NA","s","415","NA","58728","36807","NA","415","2","legacy","1024","2","48000","-16","experiment","SSSSS","2","even","61198","237842","NA","302291","NA","308891","307833","2461","201033","NA","2446","286811","309004","309420","308878","309004","Flanker Task ","111","61252","121","yes","1024"
"91.80327868852459","91.80327868852459","505.655737704918","505.655737704918","black","legacy","legacy","legacy","0","congrunent ","uniform","1","undefined","1","s","0","0","0","121","0","121","121","0","0","0","0","121","121","121","121","121","Sat Sep 19 10:43:40 2020","600","The main experiment item","yes","FlankerTask.osexp","/Users/kaylaredder/Desktop","no","mono","no","18","no","white","no","yes","768","legacy","41","79","/Users/kaylaredder/Desktop/fr-subject-2.csv","legacy","Lentiform Loewenfeld","3.3.3","0","s","NA","q","h","NA","s","438","NA","58728","36807","NA","438","2","legacy","1024","2","48000","-16","experiment","SSSSS","2","even","61198","237842","NA","302291","NA","310499","309441","2461","201033","NA","2446","286811","310613","311052","310487","310613","Flanker Task ","112","61690","122","yes","1024"
