"acc","accuracy","average_response_time","avg_rt","background","canvas_backend","clock_backend","color_backend","compensation","condition","coordinates","correct","correct_Instructions1","correct_keyboard_response","correct_response","count_Finish","count_ISI","count_Instructions1","count_Instructions2","count_Instructions3","count_block1","count_block2","count_block3","count_errorFeedback","count_experiment","count_faster","count_fixation","count_keyboard_response","count_logger","count_sequence","count_stimulus","datetime","deadline","description","disable_garbage_collection","experiment_file","experiment_path","font_bold","font_family","font_italic","font_size","font_underline","foreground","form_clicks","fullscreen","height","keyboard_backend","live_row","live_row_block1","logfile","mouse_backend","opensesame_codename","opensesame_version","repeat_cycle","response","response_Finish","response_Instructions1","response_Instructions2","response_Instructions3","response_keyboard_response","response_time","response_time_Finish","response_time_Instructions1","response_time_Instructions2","response_time_Instructions3","response_time_keyboard_response","round_decimals","sampler_backend","sound_buf_size","sound_channels","sound_freq","sound_sample_size","start","stimulus","subject_nr","subject_parity","time_Finish","time_ISI","time_Instructions1","time_Instructions2","time_Instructions3","time_block1","time_block2","time_block3","time_errorFeedback","time_experiment","time_faster","time_fixation","time_keyboard_response","time_logger","time_sequence","time_stimulus","title","total_correct","total_response_time","total_responses","uniform_coordinates","width"
"0","0","1500","1500","black","legacy","legacy","legacy","0","incongruent","uniform","0","undefined","0","s","0","0","0","0","0","0","0","0","0","0","0","0","0","0","0","0","09/26/20 13:11:20","1500","The main experiment item","yes","FlankerTask.osexp","C:\Users\Jennifer Wright\Desktop\PSYC5613","no","mono","no","18","no","white","no","yes","768","legacy","0","0","C:/Users/Jennifer Wright/Desktop/PSYC5613/bw-subject-2.csv","legacy","Lentiform Loewenfeld","3.3.3","0","None","NA","s","NA","NA","None","1500","NA","21189","NA","NA","1500","2","legacy","1024","2","48000","-16","experiment","HHSHH","2","even","NA","NA","4821","NA","NA","26013","NA","NA","NA","4812","NA","26293","26400","27900","26286","26400","Flanker Task","0","1500","1","yes","1024"
"50","50","1288.5","1288.5","black","legacy","legacy","legacy","0","incongruent","uniform","1","undefined","1","s","0","1","0","0","0","0","0","0","1","0","1","1","1","1","1","1","09/26/20 13:11:20","1500","The main experiment item","yes","FlankerTask.osexp","C:\Users\Jennifer Wright\Desktop\PSYC5613","no","mono","no","18","no","white","no","yes","768","legacy","1","1","C:/Users/Jennifer Wright/Desktop/PSYC5613/bw-subject-2.csv","legacy","Lentiform Loewenfeld","3.3.3","0","s","NA","s","NA","NA","s","1077","NA","21189","NA","NA","1077","2","legacy","1024","2","48000","-16","experiment","HHSHH","2","even","NA","28726","4821","NA","NA","26013","NA","NA","28218","4812","NA","29934","30042","31121","29929","30041","Flanker Task","1","2577","2","yes","1024"
"66.6666666667","66.6666666667","1087.33333333","1087.33333333","black","legacy","legacy","legacy","0","incongruent","uniform","1","undefined","1","s","0","2","0","0","0","0","0","0","2","0","2","2","2","2","2","2","09/26/20 13:11:20","1500","The main experiment item","yes","FlankerTask.osexp","C:\Users\Jennifer Wright\Desktop\PSYC5613","no","mono","no","18","no","white","no","yes","768","legacy","2","2","C:/Users/Jennifer Wright/Desktop/PSYC5613/bw-subject-2.csv","legacy","Lentiform Loewenfeld","3.3.3","0","s","NA","s","NA","NA","s","685","NA","21189","NA","NA","685","2","legacy","1024","2","48000","-16","experiment","HHSHH","2","even","NA","31175","4821","NA","NA","26013","NA","NA","28218","4812","NA","32368","32475","33161","32362","32475","Flanker Task","2","3262","3","yes","1024"
"75","75","1037.75","1037.75","black","legacy","legacy","legacy","0","incongruent","uniform","1","undefined","1","s","0","3","0","0","0","0","0","0","3","0","3","3","3","3","3","3","09/26/20 13:11:20","1500","The main experiment item","yes","FlankerTask.osexp","C:\Users\Jennifer Wright\Desktop\PSYC5613","no","mono","no","18","no","white","no","yes","768","legacy","3","3","C:/Users/Jennifer Wright/Desktop/PSYC5613/bw-subject-2.csv","legacy","Lentiform Loewenfeld","3.3.3","0","s","NA","s","NA","NA","s","889","NA","21189","NA","NA","889","2","legacy","1024","2","48000","-16","experiment","HHSHH","2","even","NA","33275","4821","NA","NA","26013","NA","NA","28218","4812","NA","34452","34558","35449","34446","34558","Flanker Task","3","4151","4","yes","1024"
"80","80","1106.6","1106.6","black","legacy","legacy","legacy","0","congruent","uniform","1","undefined","1","h","0","4","0","0","0","0","0","0","4","0","4","4","4","4","4","4","09/26/20 13:11:20","1500","The main experiment item","yes","FlankerTask.osexp","C:\Users\Jennifer Wright\Desktop\PSYC5613","no","mono","no","18","no","white","no","yes","768","legacy","4","4","C:/Users/Jennifer Wright/Desktop/PSYC5613/bw-subject-2.csv","legacy","Lentiform Loewenfeld","3.3.3","0","h","NA","s","NA","NA","h","1382","NA","21189","NA","NA","1382","2","legacy","1024","2","48000","-16","experiment","HHHHH","2","even","NA","35488","4821","NA","NA","26013","NA","NA","28218","4812","NA","36690","36796","38180","36683","36795","Flanker Task","4","5533","5","yes","1024"
"83.3333333333","83.3333333333","1138.66666667","1138.66666667","black","legacy","legacy","legacy","0","incongruent","uniform","1","undefined","1","h","0","5","0","0","0","0","0","0","5","0","5","5","5","5","5","5","09/26/20 13:11:20","1500","The main experiment item","yes","FlankerTask.osexp","C:\Users\Jennifer Wright\Desktop\PSYC5613","no","mono","no","18","no","white","no","yes","768","legacy","5","5","C:/Users/Jennifer Wright/Desktop/PSYC5613/bw-subject-2.csv","legacy","Lentiform Loewenfeld","3.3.3","0","h","NA","s","NA","NA","h","1299","NA","21189","NA","NA","1299","2","legacy","1024","2","48000","-16","experiment","SSHSS","2","even","NA","38249","4821","NA","NA","26013","NA","NA","28218","4812","NA","39439","39548","40848","39434","39547","Flanker Task","5","6832","6","yes","1024"
"85.7142857143","85.7142857143","1072.85714286","1072.85714286","black","legacy","legacy","legacy","0","incongruent","uniform","1","undefined","1","h","0","6","0","0","0","0","0","0","6","0","6","6","6","6","6","6","09/26/20 13:11:20","1500","The main experiment item","yes","FlankerTask.osexp","C:\Users\Jennifer Wright\Desktop\PSYC5613","no","mono","no","18","no","white","no","yes","768","legacy","6","6","C:/Users/Jennifer Wright/Desktop/PSYC5613/bw-subject-2.csv","legacy","Lentiform Loewenfeld","3.3.3","0","h","NA","s","NA","NA","h","678","NA","21189","NA","NA","678","2","legacy","1024","2","48000","-16","experiment","SSHSS","2","even","NA","40916","4821","NA","NA","26013","NA","NA","28218","4812","NA","42107","42212","42892","42101","42211","Flanker Task","6","7510","7","yes","1024"
"87.5","87.5","1021.625","1021.625","black","legacy","legacy","legacy","0","incongruent","uniform","1","undefined","1","h","0","7","0","0","0","0","0","0","7","0","7","7","7","7","7","7","09/26/20 13:11:20","1500","The main experiment item","yes","FlankerTask.osexp","C:\Users\Jennifer Wright\Desktop\PSYC5613","no","mono","no","18","no","white","no","yes","768","legacy","7","7","C:/Users/Jennifer Wright/Desktop/PSYC5613/bw-subject-2.csv","legacy","Lentiform Loewenfeld","3.3.3","0","h","NA","s","NA","NA","h","663","NA","21189","NA","NA","663","2","legacy","1024","2","48000","-16","experiment","SSHSS","2","even","NA","43226","4821","NA","NA","26013","NA","NA","28218","4812","NA","44417","44526","45191","44411","44525","Flanker Task","7","8173","8","yes","1024"
"88.8888888889","88.8888888889","1009.44444444","1009.44444444","black","legacy","legacy","legacy","0","congruent","uniform","1","undefined","1","s","0","8","0","0","0","0","0","0","8","0","8","8","8","8","8","8","09/26/20 13:11:20","1500","The main experiment item","yes","FlankerTask.osexp","C:\Users\Jennifer Wright\Desktop\PSYC5613","no","mono","no","18","no","white","no","yes","768","legacy","8","8","C:/Users/Jennifer Wright/Desktop/PSYC5613/bw-subject-2.csv","legacy","Lentiform Loewenfeld","3.3.3","0","s","NA","s","NA","NA","s","912","NA","21189","NA","NA","912","2","legacy","1024","2","48000","-16","experiment","SSSSS","2","even","NA","45232","4821","NA","NA","26013","NA","NA","28218","4812","NA","46435","46543","47456","46428","46543","Flanker Task","8","9085","9","yes","1024"
"90","90","986.1","986.1","black","legacy","legacy","legacy","0","congruent","uniform","1","undefined","1","h","0","9","0","0","0","0","0","0","9","0","9","9","9","9","9","9","09/26/20 13:11:20","1500","The main experiment item","yes","FlankerTask.osexp","C:\Users\Jennifer Wright\Desktop\PSYC5613","no","mono","no","18","no","white","no","yes","768","legacy","9","9","C:/Users/Jennifer Wright/Desktop/PSYC5613/bw-subject-2.csv","legacy","Lentiform Loewenfeld","3.3.3","0","h","NA","s","NA","NA","h","776","NA","21189","NA","NA","776","2","legacy","1024","2","48000","-16","experiment","HHHHH","2","even","NA","47527","4821","NA","NA","26013","NA","NA","28218","4812","NA","48713","48817","49595","48707","48817","Flanker Task","9","9861","10","yes","1024"
"90.9090909091","90.9090909091","950","950","black","legacy","legacy","legacy","0","incongruent","uniform","1","undefined","1","s","0","10","0","0","0","0","0","0","10","0","10","10","10","10","10","10","09/26/20 13:11:20","1500","The main experiment item","yes","FlankerTask.osexp","C:\Users\Jennifer Wright\Desktop\PSYC5613","no","mono","no","18","no","white","no","yes","768","legacy","10","10","C:/Users/Jennifer Wright/Desktop/PSYC5613/bw-subject-2.csv","legacy","Lentiform Loewenfeld","3.3.3","0","s","NA","s","NA","NA","s","589","NA","21189","NA","NA","589","2","legacy","1024","2","48000","-16","experiment","HHSHH","2","even","NA","49651","4821","NA","NA","26013","NA","NA","28218","4812","NA","50849","50961","51551","50842","50960","Flanker Task","10","10450","11","yes","1024"
"83.3333333333","83.3333333333","918.333333333","918.333333333","black","legacy","legacy","legacy","0","incongruent","uniform","0","undefined","0","s","0","11","0","0","0","0","0","0","11","0","11","11","11","11","11","11","09/26/20 13:11:20","1500","The main experiment item","yes","FlankerTask.osexp","C:\Users\Jennifer Wright\Desktop\PSYC5613","no","mono","no","18","no","white","no","yes","768","legacy","11","11","C:/Users/Jennifer Wright/Desktop/PSYC5613/bw-subject-2.csv","legacy","Lentiform Loewenfeld","3.3.3","0","h","NA","s","NA","NA","h","570","NA","21189","NA","NA","570","2","legacy","1024","2","48000","-16","experiment","HHSHH","2","even","NA","51705","4821","NA","NA","26013","NA","NA","28218","4812","NA","52905","53012","53583","52899","53011","Flanker Task","10","11020","12","yes","1024"
"76.9230769231","76.9230769231","963.076923077","963.076923077","black","legacy","legacy","legacy","0","incongruent","uniform","0","undefined","0","h","0","12","0","0","0","0","0","0","12","0","12","12","12","12","12","12","09/26/20 13:11:20","1500","The main experiment item","yes","FlankerTask.osexp","C:\Users\Jennifer Wright\Desktop\PSYC5613","no","mono","no","18","no","white","no","yes","768","legacy","12","12","C:/Users/Jennifer Wright/Desktop/PSYC5613/bw-subject-2.csv","legacy","Lentiform Loewenfeld","3.3.3","0","None","NA","s","NA","NA","None","1500","NA","21189","NA","NA","1500","2","legacy","1024","2","48000","-16","experiment","SSHSS","2","even","NA","54144","4821","NA","NA","26013","NA","NA","53637","4812","NA","55337","55442","56943","55331","55442","Flanker Task","10","12520","13","yes","1024"
"78.5714285714","78.5714285714","947.642857143","947.642857143","black","legacy","legacy","legacy","0","congruent","uniform","1","undefined","1","s","0","13","0","0","0","0","0","0","13","0","13","13","13","13","13","13","09/26/20 13:11:20","1500","The main experiment item","yes","FlankerTask.osexp","C:\Users\Jennifer Wright\Desktop\PSYC5613","no","mono","no","18","no","white","no","yes","768","legacy","13","13","C:/Users/Jennifer Wright/Desktop/PSYC5613/bw-subject-2.csv","legacy","Lentiform Loewenfeld","3.3.3","0","s","NA","s","NA","NA","s","747","NA","21189","NA","NA","747","2","legacy","1024","2","48000","-16","experiment","SSSSS","2","even","NA","57483","4821","NA","NA","26013","NA","NA","56977","4812","NA","58675","58779","59527","58668","58779","Flanker Task","11","13267","14","yes","1024"
"80","80","923.8","923.8","black","legacy","legacy","legacy","0","congruent","uniform","1","undefined","1","s","0","14","0","0","0","0","0","0","14","0","14","14","14","14","14","14","09/26/20 13:11:20","1500","The main experiment item","yes","FlankerTask.osexp","C:\Users\Jennifer Wright\Desktop\PSYC5613","no","mono","no","18","no","white","no","yes","768","legacy","14","14","C:/Users/Jennifer Wright/Desktop/PSYC5613/bw-subject-2.csv","legacy","Lentiform Loewenfeld","3.3.3","0","s","NA","s","NA","NA","s","590","NA","21189","NA","NA","590","2","legacy","1024","2","48000","-16","experiment","SSSSS","2","even","NA","59591","4821","NA","NA","26013","NA","NA","56977","4812","NA","60776","60884","61476","60770","60884","Flanker Task","12","13857","15","yes","1024"
"81.25","81.25","903.8125","903.8125","black","legacy","legacy","legacy","0","congruent","uniform","1","undefined","1","s","0","15","0","0","0","0","0","0","15","0","15","15","15","15","15","15","09/26/20 13:11:20","1500","The main experiment item","yes","FlankerTask.osexp","C:\Users\Jennifer Wright\Desktop\PSYC5613","no","mono","no","18","no","white","no","yes","768","legacy","15","15","C:/Users/Jennifer Wright/Desktop/PSYC5613/bw-subject-2.csv","legacy","Lentiform Loewenfeld","3.3.3","0","s","NA","s","NA","NA","s","604","NA","21189","NA","NA","604","2","legacy","1024","2","48000","-16","experiment","SSSSS","2","even","NA","61540","4821","NA","NA","26013","NA","NA","56977","4812","NA","62735","62841","63447","62729","62840","Flanker Task","13","14461","16","yes","1024"
"82.3529411765","82.3529411765","883.823529412","883.823529412","black","legacy","legacy","legacy","0","congruent","uniform","1","undefined","1","s","0","16","0","0","0","0","0","0","16","0","16","16","16","16","16","16","09/26/20 13:11:20","1500","The main experiment item","yes","FlankerTask.osexp","C:\Users\Jennifer Wright\Desktop\PSYC5613","no","mono","no","18","no","white","no","yes","768","legacy","16","16","C:/Users/Jennifer Wright/Desktop/PSYC5613/bw-subject-2.csv","legacy","Lentiform Loewenfeld","3.3.3","0","s","NA","s","NA","NA","s","564","NA","21189","NA","NA","564","2","legacy","1024","2","48000","-16","experiment","SSSSS","2","even","NA","63526","4821","NA","NA","26013","NA","NA","56977","4812","NA","64712","64825","65390","64707","64824","Flanker Task","14","15025","17","yes","1024"
"83.3333333333","83.3333333333","886.5","886.5","black","legacy","legacy","legacy","0","incongruent","uniform","1","undefined","1","h","0","17","0","0","0","0","0","0","17","0","17","17","17","17","17","17","09/26/20 13:11:20","1500","The main experiment item","yes","FlankerTask.osexp","C:\Users\Jennifer Wright\Desktop\PSYC5613","no","mono","no","18","no","white","no","yes","768","legacy","17","17","C:/Users/Jennifer Wright/Desktop/PSYC5613/bw-subject-2.csv","legacy","Lentiform Loewenfeld","3.3.3","0","h","NA","s","NA","NA","h","932","NA","21189","NA","NA","932","2","legacy","1024","2","48000","-16","experiment","SSHSS","2","even","NA","65435","4821","NA","NA","26013","NA","NA","56977","4812","NA","66626","66737","67671","66620","66737","Flanker Task","15","15957","18","yes","1024"
"84.2105263158","84.2105263158","885.105263158","885.105263158","black","legacy","legacy","legacy","0","congruent","uniform","1","undefined","1","s","0","18","0","0","0","0","0","0","18","0","18","18","18","18","18","18","09/26/20 13:11:20","1500","The main experiment item","yes","FlankerTask.osexp","C:\Users\Jennifer Wright\Desktop\PSYC5613","no","mono","no","18","no","white","no","yes","768","legacy","18","18","C:/Users/Jennifer Wright/Desktop/PSYC5613/bw-subject-2.csv","legacy","Lentiform Loewenfeld","3.3.3","0","s","NA","s","NA","NA","s","860","NA","21189","NA","NA","860","2","legacy","1024","2","48000","-16","experiment","SSSSS","2","even","NA","67752","4821","NA","NA","26013","NA","NA","56977","4812","NA","68937","69042","69904","68931","69041","Flanker Task","16","16817","19","yes","1024"
"85","85","879.1","879.1","black","legacy","legacy","legacy","0","congruent","uniform","1","undefined","1","s","0","19","0","0","0","0","0","0","19","0","19","19","19","19","19","19","09/26/20 13:11:20","1500","The main experiment item","yes","FlankerTask.osexp","C:\Users\Jennifer Wright\Desktop\PSYC5613","no","mono","no","18","no","white","no","yes","768","legacy","19","19","C:/Users/Jennifer Wright/Desktop/PSYC5613/bw-subject-2.csv","legacy","Lentiform Loewenfeld","3.3.3","0","s","NA","s","NA","NA","s","765","NA","21189","NA","NA","765","2","legacy","1024","2","48000","-16","experiment","SSSSS","2","even","NA","69940","4821","NA","NA","26013","NA","NA","56977","4812","NA","71144","71250","72016","71137","71249","Flanker Task","17","17582","20","yes","1024"
"85.7142857143","85.7142857143","866","866","black","legacy","legacy","legacy","0","incongruent","uniform","1","undefined","1","s","0","20","0","0","0","0","0","0","20","0","20","20","20","20","20","20","09/26/20 13:11:20","1500","The main experiment item","yes","FlankerTask.osexp","C:\Users\Jennifer Wright\Desktop\PSYC5613","no","mono","no","18","no","white","no","yes","768","legacy","20","20","C:/Users/Jennifer Wright/Desktop/PSYC5613/bw-subject-2.csv","legacy","Lentiform Loewenfeld","3.3.3","0","s","NA","s","NA","NA","s","604","NA","21189","NA","NA","604","2","legacy","1024","2","48000","-16","experiment","HHSHH","2","even","NA","72116","4821","NA","NA","26013","NA","NA","56977","4812","NA","73314","73421","74027","73308","73421","Flanker Task","18","18186","21","yes","1024"
"86.3636363636","86.3636363636","864.318181818","864.318181818","black","legacy","legacy","legacy","0","incongruent","uniform","1","undefined","1","s","0","21","0","0","0","0","0","0","21","0","21","21","21","21","21","21","09/26/20 13:11:20","1500","The main experiment item","yes","FlankerTask.osexp","C:\Users\Jennifer Wright\Desktop\PSYC5613","no","mono","no","18","no","white","no","yes","768","legacy","21","21","C:/Users/Jennifer Wright/Desktop/PSYC5613/bw-subject-2.csv","legacy","Lentiform Loewenfeld","3.3.3","0","s","NA","s","NA","NA","s","829","NA","21189","NA","NA","829","2","legacy","1024","2","48000","-16","experiment","HHSHH","2","even","NA","74264","4821","NA","NA","26013","NA","NA","56977","4812","NA","75447","75555","76386","75441","75555","Flanker Task","19","19015","22","yes","1024"
"86.9565217391","86.9565217391","857.47826087","857.47826087","black","legacy","legacy","legacy","0","congruent","uniform","1","undefined","1","s","0","22","0","0","0","0","0","0","22","0","22","22","22","22","22","22","09/26/20 13:11:20","1500","The main experiment item","yes","FlankerTask.osexp","C:\Users\Jennifer Wright\Desktop\PSYC5613","no","mono","no","18","no","white","no","yes","768","legacy","22","22","C:/Users/Jennifer Wright/Desktop/PSYC5613/bw-subject-2.csv","legacy","Lentiform Loewenfeld","3.3.3","0","s","NA","s","NA","NA","s","707","NA","21189","NA","NA","707","2","legacy","1024","2","48000","-16","experiment","SSSSS","2","even","NA","76418","4821","NA","NA","26013","NA","NA","56977","4812","NA","77605","77711","78420","77599","77711","Flanker Task","20","19722","23","yes","1024"
"87.5","87.5","863.833333333","863.833333333","black","legacy","legacy","legacy","0","incongruent","uniform","1","undefined","1","h","0","23","0","0","0","0","0","0","23","0","23","23","23","23","23","23","09/26/20 13:11:20","1500","The main experiment item","yes","FlankerTask.osexp","C:\Users\Jennifer Wright\Desktop\PSYC5613","no","mono","no","18","no","white","no","yes","768","legacy","23","23","C:/Users/Jennifer Wright/Desktop/PSYC5613/bw-subject-2.csv","legacy","Lentiform Loewenfeld","3.3.3","0","h","NA","s","NA","NA","h","1010","NA","21189","NA","NA","1010","2","legacy","1024","2","48000","-16","experiment","SSHSS","2","even","NA","78523","4821","NA","NA","26013","NA","NA","56977","4812","NA","79704","79811","80823","79699","79811","Flanker Task","21","20732","24","yes","1024"
"88","88","865.84","865.84","black","legacy","legacy","legacy","0","congruent","uniform","1","undefined","1","h","0","24","0","0","0","0","0","0","24","0","24","24","24","24","24","24","09/26/20 13:11:20","1500","The main experiment item","yes","FlankerTask.osexp","C:\Users\Jennifer Wright\Desktop\PSYC5613","no","mono","no","18","no","white","no","yes","768","legacy","24","24","C:/Users/Jennifer Wright/Desktop/PSYC5613/bw-subject-2.csv","legacy","Lentiform Loewenfeld","3.3.3","0","h","NA","s","NA","NA","h","914","NA","21189","NA","NA","914","2","legacy","1024","2","48000","-16","experiment","HHHHH","2","even","NA","80880","4821","NA","NA","26013","NA","NA","56977","4812","NA","82066","82171","83087","82060","82171","Flanker Task","22","21646","25","yes","1024"
"88.4615384615","88.4615384615","856.576923077","856.576923077","black","legacy","legacy","legacy","0","incongruent","uniform","1","undefined","1","s","0","25","0","0","0","0","0","0","25","0","25","25","25","25","25","25","09/26/20 13:11:20","1500","The main experiment item","yes","FlankerTask.osexp","C:\Users\Jennifer Wright\Desktop\PSYC5613","no","mono","no","18","no","white","no","yes","768","legacy","25","25","C:/Users/Jennifer Wright/Desktop/PSYC5613/bw-subject-2.csv","legacy","Lentiform Loewenfeld","3.3.3","0","s","NA","s","NA","NA","s","625","NA","21189","NA","NA","625","2","legacy","1024","2","48000","-16","experiment","HHSHH","2","even","NA","83186","4821","NA","NA","26013","NA","NA","56977","4812","NA","84367","84479","85107","84361","84478","Flanker Task","23","22271","26","yes","1024"
"88.8888888889","88.8888888889","862.407407407","862.407407407","black","legacy","legacy","legacy","0","congruent","uniform","1","undefined","1","s","0","26","0","0","0","0","0","0","26","0","26","26","26","26","26","26","09/26/20 13:11:20","1500","The main experiment item","yes","FlankerTask.osexp","C:\Users\Jennifer Wright\Desktop\PSYC5613","no","mono","no","18","no","white","no","yes","768","legacy","26","26","C:/Users/Jennifer Wright/Desktop/PSYC5613/bw-subject-2.csv","legacy","Lentiform Loewenfeld","3.3.3","0","s","NA","s","NA","NA","s","1014","NA","21189","NA","NA","1014","2","legacy","1024","2","48000","-16","experiment","SSSSS","2","even","NA","85163","4821","NA","NA","26013","NA","NA","56977","4812","NA","86365","86474","87490","86359","86474","Flanker Task","24","23285","27","yes","1024"
"89.2857142857","89.2857142857","863.678571429","863.678571429","black","legacy","legacy","legacy","0","incongruent","uniform","1","undefined","1","s","0","27","0","0","0","0","0","0","27","0","27","27","27","27","27","27","09/26/20 13:11:20","1500","The main experiment item","yes","FlankerTask.osexp","C:\Users\Jennifer Wright\Desktop\PSYC5613","no","mono","no","18","no","white","no","yes","768","legacy","27","27","C:/Users/Jennifer Wright/Desktop/PSYC5613/bw-subject-2.csv","legacy","Lentiform Loewenfeld","3.3.3","0","s","NA","s","NA","NA","s","898","NA","21189","NA","NA","898","2","legacy","1024","2","48000","-16","experiment","HHSHH","2","even","NA","87566","4821","NA","NA","26013","NA","NA","56977","4812","NA","88750","88856","89756","88745","88855","Flanker Task","25","24183","28","yes","1024"
"89.6551724138","89.6551724138","856.75862069","856.75862069","black","legacy","legacy","legacy","0","congruent","uniform","1","undefined","1","h","0","28","0","0","0","0","0","0","28","0","28","28","28","28","28","28","09/26/20 13:11:20","1500","The main experiment item","yes","FlankerTask.osexp","C:\Users\Jennifer Wright\Desktop\PSYC5613","no","mono","no","18","no","white","no","yes","768","legacy","28","28","C:/Users/Jennifer Wright/Desktop/PSYC5613/bw-subject-2.csv","legacy","Lentiform Loewenfeld","3.3.3","0","h","NA","s","NA","NA","h","663","NA","21189","NA","NA","663","2","legacy","1024","2","48000","-16","experiment","HHHHH","2","even","NA","89813","4821","NA","NA","26013","NA","NA","56977","4812","NA","91005","91112","91777","90998","91111","Flanker Task","26","24846","29","yes","1024"
"90","90","858.433333333","858.433333333","black","legacy","legacy","legacy","0","incongruent","uniform","1","undefined","1","s","0","29","0","0","0","0","0","0","29","0","29","29","29","29","29","29","09/26/20 13:11:20","1500","The main experiment item","yes","FlankerTask.osexp","C:\Users\Jennifer Wright\Desktop\PSYC5613","no","mono","no","18","no","white","no","yes","768","legacy","29","29","C:/Users/Jennifer Wright/Desktop/PSYC5613/bw-subject-2.csv","legacy","Lentiform Loewenfeld","3.3.3","0","s","NA","s","NA","NA","s","907","NA","21189","NA","NA","907","2","legacy","1024","2","48000","-16","experiment","HHSHH","2","even","NA","91828","4821","NA","NA","26013","NA","NA","56977","4812","NA","93009","93119","94028","93003","93118","Flanker Task","27","25753","30","yes","1024"
"90.3225806452","90.3225806452","848.612903226","848.612903226","black","legacy","legacy","legacy","0","congruent","uniform","1","undefined","1","h","0","30","0","0","0","0","0","0","30","0","30","30","30","30","30","30","09/26/20 13:11:20","1500","The main experiment item","yes","FlankerTask.osexp","C:\Users\Jennifer Wright\Desktop\PSYC5613","no","mono","no","18","no","white","no","yes","768","legacy","30","30","C:/Users/Jennifer Wright/Desktop/PSYC5613/bw-subject-2.csv","legacy","Lentiform Loewenfeld","3.3.3","0","h","NA","s","NA","NA","h","554","NA","21189","NA","NA","554","2","legacy","1024","2","48000","-16","experiment","HHHHH","2","even","NA","94086","4821","NA","NA","26013","NA","NA","56977","4812","NA","95281","95386","95942","95275","95385","Flanker Task","28","26307","31","yes","1024"
"90.625","90.625","843.5625","843.5625","black","legacy","legacy","legacy","0","congruent","uniform","1","undefined","1","s","0","31","0","0","0","0","0","0","31","0","31","31","31","31","31","31","09/26/20 13:11:20","1500","The main experiment item","yes","FlankerTask.osexp","C:\Users\Jennifer Wright\Desktop\PSYC5613","no","mono","no","18","no","white","no","yes","768","legacy","31","31","C:/Users/Jennifer Wright/Desktop/PSYC5613/bw-subject-2.csv","legacy","Lentiform Loewenfeld","3.3.3","0","s","NA","s","NA","NA","s","687","NA","21189","NA","NA","687","2","legacy","1024","2","48000","-16","experiment","SSSSS","2","even","NA","96001","4821","NA","NA","26013","NA","NA","56977","4812","NA","97197","97319","98008","97191","97318","Flanker Task","29","26994","32","yes","1024"
"90.9090909091","90.9090909091","838.484848485","838.484848485","black","legacy","legacy","legacy","0","incongruent","uniform","1","undefined","1","s","0","32","0","0","0","0","0","0","32","0","32","32","32","32","32","32","09/26/20 13:11:20","1500","The main experiment item","yes","FlankerTask.osexp","C:\Users\Jennifer Wright\Desktop\PSYC5613","no","mono","no","18","no","white","no","yes","768","legacy","32","32","C:/Users/Jennifer Wright/Desktop/PSYC5613/bw-subject-2.csv","legacy","Lentiform Loewenfeld","3.3.3","0","s","NA","s","NA","NA","s","676","NA","21189","NA","NA","676","2","legacy","1024","2","48000","-16","experiment","HHSHH","2","even","NA","98035","4821","NA","NA","26013","NA","NA","56977","4812","NA","99223","99329","100007","99217","99328","Flanker Task","30","27670","33","yes","1024"
"91.1764705882","91.1764705882","837.147058824","837.147058824","black","legacy","legacy","legacy","0","congruent","uniform","1","undefined","1","h","0","33","0","0","0","0","0","0","33","0","33","33","33","33","33","33","09/26/20 13:11:20","1500","The main experiment item","yes","FlankerTask.osexp","C:\Users\Jennifer Wright\Desktop\PSYC5613","no","mono","no","18","no","white","no","yes","768","legacy","33","33","C:/Users/Jennifer Wright/Desktop/PSYC5613/bw-subject-2.csv","legacy","Lentiform Loewenfeld","3.3.3","0","h","NA","s","NA","NA","h","793","NA","21189","NA","NA","793","2","legacy","1024","2","48000","-16","experiment","HHHHH","2","even","NA","100065","4821","NA","NA","26013","NA","NA","56977","4812","NA","101257","101366","102161","101251","101366","Flanker Task","31","28463","34","yes","1024"
"91.4285714286","91.4285714286","827.8","827.8","black","legacy","legacy","legacy","0","incongruent","uniform","1","undefined","1","h","0","34","0","0","0","0","0","0","34","0","34","34","34","34","34","34","09/26/20 13:11:20","1500","The main experiment item","yes","FlankerTask.osexp","C:\Users\Jennifer Wright\Desktop\PSYC5613","no","mono","no","18","no","white","no","yes","768","legacy","34","34","C:/Users/Jennifer Wright/Desktop/PSYC5613/bw-subject-2.csv","legacy","Lentiform Loewenfeld","3.3.3","0","h","NA","s","NA","NA","h","510","NA","21189","NA","NA","510","2","legacy","1024","2","48000","-16","experiment","SSHSS","2","even","NA","102226","4821","NA","NA","26013","NA","NA","56977","4812","NA","103421","103528","104040","103414","103527","Flanker Task","32","28973","35","yes","1024"
"91.6666666667","91.6666666667","819.583333333","819.583333333","black","legacy","legacy","legacy","0","incongruent","uniform","1","undefined","1","h","0","35","0","0","0","0","0","0","35","0","35","35","35","35","35","35","09/26/20 13:11:20","1500","The main experiment item","yes","FlankerTask.osexp","C:\Users\Jennifer Wright\Desktop\PSYC5613","no","mono","no","18","no","white","no","yes","768","legacy","35","35","C:/Users/Jennifer Wright/Desktop/PSYC5613/bw-subject-2.csv","legacy","Lentiform Loewenfeld","3.3.3","0","h","NA","s","NA","NA","h","532","NA","21189","NA","NA","532","2","legacy","1024","2","48000","-16","experiment","SSHSS","2","even","NA","104108","4821","NA","NA","26013","NA","NA","56977","4812","NA","105311","105419","105953","105303","105418","Flanker Task","33","29505","36","yes","1024"
"91.8918918919","91.8918918919","812.972972973","812.972972973","black","legacy","legacy","legacy","0","incongruent","uniform","1","undefined","1","h","0","36","0","0","0","0","0","0","36","0","36","36","36","36","36","36","09/26/20 13:11:20","1500","The main experiment item","yes","FlankerTask.osexp","C:\Users\Jennifer Wright\Desktop\PSYC5613","no","mono","no","18","no","white","no","yes","768","legacy","36","36","C:/Users/Jennifer Wright/Desktop/PSYC5613/bw-subject-2.csv","legacy","Lentiform Loewenfeld","3.3.3","0","h","NA","s","NA","NA","h","575","NA","21189","NA","NA","575","2","legacy","1024","2","48000","-16","experiment","SSHSS","2","even","NA","106009","4821","NA","NA","26013","NA","NA","56977","4812","NA","107206","107312","107889","107198","107311","Flanker Task","34","30080","37","yes","1024"
"92.1052631579","92.1052631579","812.447368421","812.447368421","black","legacy","legacy","legacy","0","congruent","uniform","1","undefined","1","s","0","37","0","0","0","0","0","0","37","0","37","37","37","37","37","37","09/26/20 13:11:20","1500","The main experiment item","yes","FlankerTask.osexp","C:\Users\Jennifer Wright\Desktop\PSYC5613","no","mono","no","18","no","white","no","yes","768","legacy","37","37","C:/Users/Jennifer Wright/Desktop/PSYC5613/bw-subject-2.csv","legacy","Lentiform Loewenfeld","3.3.3","0","s","NA","s","NA","NA","s","793","NA","21189","NA","NA","793","2","legacy","1024","2","48000","-16","experiment","SSSSS","2","even","NA","107946","4821","NA","NA","26013","NA","NA","56977","4812","NA","109152","109257","110052","109145","109257","Flanker Task","35","30873","38","yes","1024"
"92.3076923077","92.3076923077","827.076923077","827.076923077","black","legacy","legacy","legacy","0","congruent","uniform","1","undefined","1","h","0","38","0","0","0","0","0","0","38","0","38","38","38","38","38","38","09/26/20 13:11:20","1500","The main experiment item","yes","FlankerTask.osexp","C:\Users\Jennifer Wright\Desktop\PSYC5613","no","mono","no","18","no","white","no","yes","768","legacy","38","38","C:/Users/Jennifer Wright/Desktop/PSYC5613/bw-subject-2.csv","legacy","Lentiform Loewenfeld","3.3.3","0","h","NA","s","NA","NA","h","1383","NA","21189","NA","NA","1383","2","legacy","1024","2","48000","-16","experiment","HHHHH","2","even","NA","110105","4821","NA","NA","26013","NA","NA","56977","4812","NA","111297","111410","112795","111290","111409","Flanker Task","36","32256","39","yes","1024"
"92.5","92.5","827.65","827.65","black","legacy","legacy","legacy","0","incongruent","uniform","1","undefined","1","s","0","39","0","0","0","0","0","0","39","0","39","39","39","39","39","39","09/26/20 13:11:20","1500","The main experiment item","yes","FlankerTask.osexp","C:\Users\Jennifer Wright\Desktop\PSYC5613","no","mono","no","18","no","white","no","yes","768","legacy","39","39","C:/Users/Jennifer Wright/Desktop/PSYC5613/bw-subject-2.csv","legacy","Lentiform Loewenfeld","3.3.3","0","s","NA","s","NA","NA","s","850","NA","21189","NA","NA","850","2","legacy","1024","2","48000","-16","experiment","HHSHH","2","even","NA","112849","4821","NA","NA","26013","NA","NA","56977","4812","NA","114053","114163","115015","114046","114162","Flanker Task","37","33106","40","yes","1024"
"92.6829268293","92.6829268293","830.390243902","830.390243902","black","legacy","legacy","legacy","0","congruent","uniform","1","undefined","1","h","0","40","0","0","0","0","0","0","40","0","40","40","40","40","40","40","09/26/20 13:11:20","1500","The main experiment item","yes","FlankerTask.osexp","C:\Users\Jennifer Wright\Desktop\PSYC5613","no","mono","no","18","no","white","no","yes","768","legacy","40","40","C:/Users/Jennifer Wright/Desktop/PSYC5613/bw-subject-2.csv","legacy","Lentiform Loewenfeld","3.3.3","0","h","NA","s","NA","NA","h","940","NA","21189","NA","NA","940","2","legacy","1024","2","48000","-16","experiment","HHHHH","2","even","NA","115081","4821","NA","NA","26013","NA","NA","56977","4812","NA","116275","116379","117321","116268","116379","Flanker Task","38","34046","41","yes","1024"
"92.8571428571","92.8571428571","826.547619048","826.547619048","black","legacy","legacy","legacy","0","congruent","uniform","1","undefined","1","h","0","41","0","0","0","0","0","0","41","0","41","41","41","41","41","41","09/26/20 13:11:20","1500","The main experiment item","yes","FlankerTask.osexp","C:\Users\Jennifer Wright\Desktop\PSYC5613","no","mono","no","18","no","white","no","yes","768","legacy","41","41","C:/Users/Jennifer Wright/Desktop/PSYC5613/bw-subject-2.csv","legacy","Lentiform Loewenfeld","3.3.3","0","h","NA","s","NA","NA","h","669","NA","21189","NA","NA","669","2","legacy","1024","2","48000","-16","experiment","HHHHH","2","even","NA","117385","4821","NA","NA","26013","NA","NA","56977","4812","NA","118572","118678","119349","118565","118678","Flanker Task","39","34715","42","yes","1024"
"93.023255814","93.023255814","824.511627907","824.511627907","black","legacy","legacy","legacy","0","congruent","uniform","1","undefined","1","h","0","42","0","0","0","0","0","0","42","0","42","42","42","42","42","42","09/26/20 13:11:20","1500","The main experiment item","yes","FlankerTask.osexp","C:\Users\Jennifer Wright\Desktop\PSYC5613","no","mono","no","18","no","white","no","yes","768","legacy","42","42","C:/Users/Jennifer Wright/Desktop/PSYC5613/bw-subject-2.csv","legacy","Lentiform Loewenfeld","3.3.3","0","h","NA","s","NA","NA","h","739","NA","21189","NA","NA","739","2","legacy","1024","2","48000","-16","experiment","HHHHH","2","even","NA","119412","4821","NA","NA","26013","NA","NA","56977","4812","NA","120605","120710","121452","120598","120710","Flanker Task","40","35454","43","yes","1024"
"93.1818181818","93.1818181818","820.704545455","820.704545455","black","legacy","legacy","legacy","0","incongruent","uniform","1","undefined","1","h","0","43","0","0","0","0","0","0","43","0","43","43","43","43","43","43","09/26/20 13:11:20","1500","The main experiment item","yes","FlankerTask.osexp","C:\Users\Jennifer Wright\Desktop\PSYC5613","no","mono","no","18","no","white","no","yes","768","legacy","43","43","C:/Users/Jennifer Wright/Desktop/PSYC5613/bw-subject-2.csv","legacy","Lentiform Loewenfeld","3.3.3","0","h","NA","s","NA","NA","h","657","NA","21189","NA","NA","657","2","legacy","1024","2","48000","-16","experiment","SSHSS","2","even","NA","121514","4821","NA","NA","26013","NA","NA","56977","4812","NA","122710","122817","123476","122703","122817","Flanker Task","41","36111","44","yes","1024"
"93.3333333333","93.3333333333","820.111111111","820.111111111","black","legacy","legacy","legacy","0","incongruent","uniform","1","undefined","1","h","0","44","0","0","0","0","0","0","44","0","44","44","44","44","44","44","09/26/20 13:11:20","1500","The main experiment item","yes","FlankerTask.osexp","C:\Users\Jennifer Wright\Desktop\PSYC5613","no","mono","no","18","no","white","no","yes","768","legacy","44","44","C:/Users/Jennifer Wright/Desktop/PSYC5613/bw-subject-2.csv","legacy","Lentiform Loewenfeld","3.3.3","0","h","NA","s","NA","NA","h","794","NA","21189","NA","NA","794","2","legacy","1024","2","48000","-16","experiment","SSHSS","2","even","NA","123508","4821","NA","NA","26013","NA","NA","56977","4812","NA","124697","124803","125600","124690","124803","Flanker Task","42","36905","45","yes","1024"
"93.4782608696","93.4782608696","817.717391304","817.717391304","black","legacy","legacy","legacy","0","incongruent","uniform","1","undefined","1","h","0","45","0","0","0","0","0","0","45","0","45","45","45","45","45","45","09/26/20 13:11:20","1500","The main experiment item","yes","FlankerTask.osexp","C:\Users\Jennifer Wright\Desktop\PSYC5613","no","mono","no","18","no","white","no","yes","768","legacy","45","45","C:/Users/Jennifer Wright/Desktop/PSYC5613/bw-subject-2.csv","legacy","Lentiform Loewenfeld","3.3.3","0","h","NA","s","NA","NA","h","710","NA","21189","NA","NA","710","2","legacy","1024","2","48000","-16","experiment","SSHSS","2","even","NA","125668","4821","NA","NA","26013","NA","NA","56977","4812","NA","126853","126958","127671","126847","126958","Flanker Task","43","37615","46","yes","1024"
"93.6170212766","93.6170212766","819.489361702","819.489361702","black","legacy","legacy","legacy","0","congruent","uniform","1","undefined","1","h","0","46","0","0","0","0","0","0","46","0","46","46","46","46","46","46","09/26/20 13:11:20","1500","The main experiment item","yes","FlankerTask.osexp","C:\Users\Jennifer Wright\Desktop\PSYC5613","no","mono","no","18","no","white","no","yes","768","legacy","46","46","C:/Users/Jennifer Wright/Desktop/PSYC5613/bw-subject-2.csv","legacy","Lentiform Loewenfeld","3.3.3","0","h","NA","s","NA","NA","h","901","NA","21189","NA","NA","901","2","legacy","1024","2","48000","-16","experiment","HHHHH","2","even","NA","127735","4821","NA","NA","26013","NA","NA","56977","4812","NA","128923","129030","129934","128917","129030","Flanker Task","44","38516","47","yes","1024"
"93.75","93.75","815.6875","815.6875","black","legacy","legacy","legacy","0","incongruent","uniform","1","undefined","1","s","0","47","0","0","0","0","0","0","47","0","47","47","47","47","47","47","09/26/20 13:11:20","1500","The main experiment item","yes","FlankerTask.osexp","C:\Users\Jennifer Wright\Desktop\PSYC5613","no","mono","no","18","no","white","no","yes","768","legacy","47","47","C:/Users/Jennifer Wright/Desktop/PSYC5613/bw-subject-2.csv","legacy","Lentiform Loewenfeld","3.3.3","0","s","NA","s","NA","NA","s","637","NA","21189","NA","NA","637","2","legacy","1024","2","48000","-16","experiment","HHSHH","2","even","NA","130006","4821","NA","NA","26013","NA","NA","56977","4812","NA","131211","131315","131954","131204","131315","Flanker Task","45","39153","48","yes","1024"
"93.8775510204","93.8775510204","814.632653061","814.632653061","black","legacy","legacy","legacy","0","congruent","uniform","1","undefined","1","h","0","48","0","0","0","0","0","0","48","0","48","48","48","48","48","48","09/26/20 13:11:20","1500","The main experiment item","yes","FlankerTask.osexp","C:\Users\Jennifer Wright\Desktop\PSYC5613","no","mono","no","18","no","white","no","yes","768","legacy","48","48","C:/Users/Jennifer Wright/Desktop/PSYC5613/bw-subject-2.csv","legacy","Lentiform Loewenfeld","3.3.3","0","h","NA","s","NA","NA","h","764","NA","21189","NA","NA","764","2","legacy","1024","2","48000","-16","experiment","HHHHH","2","even","NA","132017","4821","NA","NA","26013","NA","NA","56977","4812","NA","133210","133315","134081","133204","133314","Flanker Task","46","39917","49","yes","1024"
"94","94","807.52","807.52","black","legacy","legacy","legacy","0","incongruent","uniform","1","undefined","1","s","0","49","0","0","0","0","0","0","49","0","49","49","49","49","49","49","09/26/20 13:11:20","1500","The main experiment item","yes","FlankerTask.osexp","C:\Users\Jennifer Wright\Desktop\PSYC5613","no","mono","no","18","no","white","no","yes","768","legacy","49","49","C:/Users/Jennifer Wright/Desktop/PSYC5613/bw-subject-2.csv","legacy","Lentiform Loewenfeld","3.3.3","0","s","NA","s","NA","NA","s","459","NA","21189","NA","NA","459","2","legacy","1024","2","48000","-16","experiment","HHSHH","2","even","NA","134145","4821","NA","NA","26013","NA","NA","56977","4812","NA","135354","135464","135925","135348","135463","Flanker Task","47","40376","50","yes","1024"
"94.1176470588","94.1176470588","806.862745098","806.862745098","black","legacy","legacy","legacy","0","congruent","uniform","1","undefined","1","s","0","50","0","0","0","0","0","0","50","0","50","50","50","50","50","50","09/26/20 13:11:20","1500","The main experiment item","yes","FlankerTask.osexp","C:\Users\Jennifer Wright\Desktop\PSYC5613","no","mono","no","18","no","white","no","yes","768","legacy","50","50","C:/Users/Jennifer Wright/Desktop/PSYC5613/bw-subject-2.csv","legacy","Lentiform Loewenfeld","3.3.3","0","s","NA","s","NA","NA","s","774","NA","21189","NA","NA","774","2","legacy","1024","2","48000","-16","experiment","SSSSS","2","even","NA","135962","4821","NA","NA","26013","NA","NA","56977","4812","NA","137155","137263","138040","137149","137263","Flanker Task","48","41150","51","yes","1024"
"94.2307692308","94.2307692308","804.423076923","804.423076923","black","legacy","legacy","legacy","0","congruent","uniform","1","undefined","1","h","0","51","0","0","0","0","0","0","51","0","51","51","51","51","51","51","09/26/20 13:11:20","1500","The main experiment item","yes","FlankerTask.osexp","C:\Users\Jennifer Wright\Desktop\PSYC5613","no","mono","no","18","no","white","no","yes","768","legacy","51","51","C:/Users/Jennifer Wright/Desktop/PSYC5613/bw-subject-2.csv","legacy","Lentiform Loewenfeld","3.3.3","0","h","NA","s","NA","NA","h","680","NA","21189","NA","NA","680","2","legacy","1024","2","48000","-16","experiment","HHHHH","2","even","NA","138131","4821","NA","NA","26013","NA","NA","56977","4812","NA","139323","139430","140112","139317","139430","Flanker Task","49","41830","52","yes","1024"
"94.3396226415","94.3396226415","797.452830189","797.452830189","black","legacy","legacy","legacy","0","congruent","uniform","1","undefined","1","h","0","52","0","0","0","0","0","0","52","0","52","52","52","52","52","52","09/26/20 13:11:20","1500","The main experiment item","yes","FlankerTask.osexp","C:\Users\Jennifer Wright\Desktop\PSYC5613","no","mono","no","18","no","white","no","yes","768","legacy","52","52","C:/Users/Jennifer Wright/Desktop/PSYC5613/bw-subject-2.csv","legacy","Lentiform Loewenfeld","3.3.3","0","h","NA","s","NA","NA","h","435","NA","21189","NA","NA","435","2","legacy","1024","2","48000","-16","experiment","HHHHH","2","even","NA","140178","4821","NA","NA","26013","NA","NA","56977","4812","NA","141359","141463","141901","141352","141463","Flanker Task","50","42265","53","yes","1024"
"94.4444444444","94.4444444444","803.388888889","803.388888889","black","legacy","legacy","legacy","0","incongruent","uniform","1","undefined","1","s","0","53","0","0","0","0","0","0","53","0","53","53","53","53","53","53","09/26/20 13:11:20","1500","The main experiment item","yes","FlankerTask.osexp","C:\Users\Jennifer Wright\Desktop\PSYC5613","no","mono","no","18","no","white","no","yes","768","legacy","53","53","C:/Users/Jennifer Wright/Desktop/PSYC5613/bw-subject-2.csv","legacy","Lentiform Loewenfeld","3.3.3","0","s","NA","s","NA","NA","s","1118","NA","21189","NA","NA","1118","2","legacy","1024","2","48000","-16","experiment","HHSHH","2","even","NA","141969","4821","NA","NA","26013","NA","NA","56977","4812","NA","143150","143255","144376","143144","143255","Flanker Task","51","43383","54","yes","1024"
"94.5454545455","94.5454545455","806.327272727","806.327272727","black","legacy","legacy","legacy","0","congruent","uniform","1","undefined","1","h","0","54","0","0","0","0","0","0","54","0","54","54","54","54","54","54","09/26/20 13:11:20","1500","The main experiment item","yes","FlankerTask.osexp","C:\Users\Jennifer Wright\Desktop\PSYC5613","no","mono","no","18","no","white","no","yes","768","legacy","54","54","C:/Users/Jennifer Wright/Desktop/PSYC5613/bw-subject-2.csv","legacy","Lentiform Loewenfeld","3.3.3","0","h","NA","s","NA","NA","h","965","NA","21189","NA","NA","965","2","legacy","1024","2","48000","-16","experiment","HHHHH","2","even","NA","144441","4821","NA","NA","26013","NA","NA","56977","4812","NA","145621","145725","146692","145614","145725","Flanker Task","52","44348","55","yes","1024"
"94.6428571429","94.6428571429","802.642857143","802.642857143","black","legacy","legacy","legacy","0","congruent","uniform","1","undefined","1","h","0","55","0","0","0","0","0","0","55","0","55","55","55","55","55","55","09/26/20 13:11:20","1500","The main experiment item","yes","FlankerTask.osexp","C:\Users\Jennifer Wright\Desktop\PSYC5613","no","mono","no","18","no","white","no","yes","768","legacy","55","55","C:/Users/Jennifer Wright/Desktop/PSYC5613/bw-subject-2.csv","legacy","Lentiform Loewenfeld","3.3.3","0","h","NA","s","NA","NA","h","600","NA","21189","NA","NA","600","2","legacy","1024","2","48000","-16","experiment","HHHHH","2","even","NA","146754","4821","NA","NA","26013","NA","NA","56977","4812","NA","147956","148063","148665","147948","148062","Flanker Task","53","44948","56","yes","1024"
"94.7368421053","94.7368421053","801.421052632","801.421052632","black","legacy","legacy","legacy","0","congruent","uniform","1","undefined","1","s","0","56","0","0","0","0","0","0","56","0","56","56","56","56","56","56","09/26/20 13:11:20","1500","The main experiment item","yes","FlankerTask.osexp","C:\Users\Jennifer Wright\Desktop\PSYC5613","no","mono","no","18","no","white","no","yes","768","legacy","56","56","C:/Users/Jennifer Wright/Desktop/PSYC5613/bw-subject-2.csv","legacy","Lentiform Loewenfeld","3.3.3","0","s","NA","s","NA","NA","s","733","NA","21189","NA","NA","733","2","legacy","1024","2","48000","-16","experiment","SSSSS","2","even","NA","148703","4821","NA","NA","26013","NA","NA","56977","4812","NA","149892","149999","150735","149885","149998","Flanker Task","54","45681","57","yes","1024"
"94.8275862069","94.8275862069","802.5","802.5","black","legacy","legacy","legacy","0","incongruent","uniform","1","undefined","1","h","0","57","0","0","0","0","0","0","57","0","57","57","57","57","57","57","09/26/20 13:11:20","1500","The main experiment item","yes","FlankerTask.osexp","C:\Users\Jennifer Wright\Desktop\PSYC5613","no","mono","no","18","no","white","no","yes","768","legacy","57","57","C:/Users/Jennifer Wright/Desktop/PSYC5613/bw-subject-2.csv","legacy","Lentiform Loewenfeld","3.3.3","0","h","NA","s","NA","NA","h","864","NA","21189","NA","NA","864","2","legacy","1024","2","48000","-16","experiment","SSHSS","2","even","NA","150807","4821","NA","NA","26013","NA","NA","56977","4812","NA","151999","152107","152974","151992","152107","Flanker Task","55","46545","58","yes","1024"
"94.9152542373","94.9152542373","805.220338983","805.220338983","black","legacy","legacy","legacy","0","incongruent","uniform","1","undefined","1","h","0","58","0","0","0","0","0","0","58","0","58","58","58","58","58","58","09/26/20 13:11:20","1500","The main experiment item","yes","FlankerTask.osexp","C:\Users\Jennifer Wright\Desktop\PSYC5613","no","mono","no","18","no","white","no","yes","768","legacy","58","58","C:/Users/Jennifer Wright/Desktop/PSYC5613/bw-subject-2.csv","legacy","Lentiform Loewenfeld","3.3.3","0","h","NA","s","NA","NA","h","963","NA","21189","NA","NA","963","2","legacy","1024","2","48000","-16","experiment","SSHSS","2","even","NA","153058","4821","NA","NA","26013","NA","NA","56977","4812","NA","154243","154347","155314","154236","154347","Flanker Task","56","47508","59","yes","1024"
"95","95","802","802","black","legacy","legacy","legacy","0","congruent","uniform","1","undefined","1","h","0","59","0","0","0","0","0","0","59","0","59","59","59","59","59","59","09/26/20 13:11:20","1500","The main experiment item","yes","FlankerTask.osexp","C:\Users\Jennifer Wright\Desktop\PSYC5613","no","mono","no","18","no","white","no","yes","768","legacy","59","59","C:/Users/Jennifer Wright/Desktop/PSYC5613/bw-subject-2.csv","legacy","Lentiform Loewenfeld","3.3.3","0","h","NA","s","NA","NA","h","612","NA","21189","NA","NA","612","2","legacy","1024","2","48000","-16","experiment","HHHHH","2","even","NA","155378","4821","NA","NA","26013","NA","NA","56977","4812","NA","156581","156692","157307","156574","156692","Flanker Task","57","48120","60","yes","1024"
"95.0819672131","95.0819672131","799.016393443","799.016393443","black","legacy","legacy","legacy","0","incongruent","uniform","1","undefined","1","h","0","60","0","0","0","0","0","0","60","0","60","60","60","60","60","60","09/26/20 13:11:20","1500","The main experiment item","yes","FlankerTask.osexp","C:\Users\Jennifer Wright\Desktop\PSYC5613","no","mono","no","18","no","white","no","yes","768","legacy","60","60","C:/Users/Jennifer Wright/Desktop/PSYC5613/bw-subject-2.csv","legacy","Lentiform Loewenfeld","3.3.3","0","h","NA","s","NA","NA","h","620","NA","21189","NA","NA","620","2","legacy","1024","2","48000","-16","experiment","SSHSS","2","even","NA","157333","4821","NA","NA","26013","NA","NA","56977","4812","NA","158520","158626","159248","158514","158626","Flanker Task","58","48740","61","yes","1024"
"95.1612903226","95.1612903226","799.516129032","799.516129032","black","legacy","legacy","legacy","0","congruent","uniform","1","undefined","1","s","0","61","0","0","0","0","0","0","61","0","61","61","61","61","61","61","09/26/20 13:11:20","1500","The main experiment item","yes","FlankerTask.osexp","C:\Users\Jennifer Wright\Desktop\PSYC5613","no","mono","no","18","no","white","no","yes","768","legacy","61","61","C:/Users/Jennifer Wright/Desktop/PSYC5613/bw-subject-2.csv","legacy","Lentiform Loewenfeld","3.3.3","0","s","NA","s","NA","NA","s","830","NA","21189","NA","NA","830","2","legacy","1024","2","48000","-16","experiment","SSSSS","2","even","NA","159319","4821","NA","NA","26013","NA","NA","56977","4812","NA","160516","160626","161459","160510","160625","Flanker Task","59","49570","62","yes","1024"
"95.2380952381","95.2380952381","800.079365079","800.079365079","black","legacy","legacy","legacy","0","incongruent","uniform","1","undefined","1","h","0","62","0","0","0","0","0","0","62","0","62","62","62","62","62","62","09/26/20 13:11:20","1500","The main experiment item","yes","FlankerTask.osexp","C:\Users\Jennifer Wright\Desktop\PSYC5613","no","mono","no","18","no","white","no","yes","768","legacy","62","62","C:/Users/Jennifer Wright/Desktop/PSYC5613/bw-subject-2.csv","legacy","Lentiform Loewenfeld","3.3.3","0","h","NA","s","NA","NA","h","835","NA","21189","NA","NA","835","2","legacy","1024","2","48000","-16","experiment","SSHSS","2","even","NA","161521","4821","NA","NA","26013","NA","NA","56977","4812","NA","162704","162809","163647","162697","162809","Flanker Task","60","50405","63","yes","1024"
"95.3125","95.3125","798.25","798.25","black","legacy","legacy","legacy","0","congruent","uniform","1","undefined","1","h","0","63","0","0","0","0","0","0","63","0","63","63","63","63","63","63","09/26/20 13:11:20","1500","The main experiment item","yes","FlankerTask.osexp","C:\Users\Jennifer Wright\Desktop\PSYC5613","no","mono","no","18","no","white","no","yes","768","legacy","63","63","C:/Users/Jennifer Wright/Desktop/PSYC5613/bw-subject-2.csv","legacy","Lentiform Loewenfeld","3.3.3","0","h","NA","s","NA","NA","h","683","NA","21189","NA","NA","683","2","legacy","1024","2","48000","-16","experiment","HHHHH","2","even","NA","163677","4821","NA","NA","26013","NA","NA","56977","4812","NA","164877","164981","165667","164869","164981","Flanker Task","61","51088","64","yes","1024"
"95.3846153846","95.3846153846","798.2","798.2","black","legacy","legacy","legacy","0","incongruent","uniform","1","undefined","1","s","0","64","0","0","0","0","0","0","64","0","64","64","64","64","64","64","09/26/20 13:11:20","1500","The main experiment item","yes","FlankerTask.osexp","C:\Users\Jennifer Wright\Desktop\PSYC5613","no","mono","no","18","no","white","no","yes","768","legacy","64","64","C:/Users/Jennifer Wright/Desktop/PSYC5613/bw-subject-2.csv","legacy","Lentiform Loewenfeld","3.3.3","0","s","NA","s","NA","NA","s","795","NA","21189","NA","NA","795","2","legacy","1024","2","48000","-16","experiment","HHSHH","2","even","NA","165739","4821","NA","NA","26013","NA","NA","56977","4812","NA","166938","167045","167843","166930","167045","Flanker Task","62","51883","65","yes","1024"
"95.4545454545","95.4545454545","797.848484848","797.848484848","black","legacy","legacy","legacy","0","congruent","uniform","1","undefined","1","s","0","65","0","0","0","0","0","0","65","0","65","65","65","65","65","65","09/26/20 13:11:20","1500","The main experiment item","yes","FlankerTask.osexp","C:\Users\Jennifer Wright\Desktop\PSYC5613","no","mono","no","18","no","white","no","yes","768","legacy","65","65","C:/Users/Jennifer Wright/Desktop/PSYC5613/bw-subject-2.csv","legacy","Lentiform Loewenfeld","3.3.3","0","s","NA","s","NA","NA","s","775","NA","21189","NA","NA","775","2","legacy","1024","2","48000","-16","experiment","SSSSS","2","even","NA","167909","4821","NA","NA","26013","NA","NA","56977","4812","NA","169095","169203","169981","169089","169202","Flanker Task","63","52658","66","yes","1024"
"95.5223880597","95.5223880597","797.23880597","797.23880597","black","legacy","legacy","legacy","0","incongruent","uniform","1","undefined","1","h","0","66","0","0","0","0","0","0","66","0","66","66","66","66","66","66","09/26/20 13:11:20","1500","The main experiment item","yes","FlankerTask.osexp","C:\Users\Jennifer Wright\Desktop\PSYC5613","no","mono","no","18","no","white","no","yes","768","legacy","66","66","C:/Users/Jennifer Wright/Desktop/PSYC5613/bw-subject-2.csv","legacy","Lentiform Loewenfeld","3.3.3","0","h","NA","s","NA","NA","h","757","NA","21189","NA","NA","757","2","legacy","1024","2","48000","-16","experiment","SSHSS","2","even","NA","170013","4821","NA","NA","26013","NA","NA","56977","4812","NA","171214","171320","172079","171207","171320","Flanker Task","64","53415","67","yes","1024"
"95.5882352941","95.5882352941","794.632352941","794.632352941","black","legacy","legacy","legacy","0","incongruent","uniform","1","undefined","1","h","0","67","0","0","0","0","0","0","67","0","67","67","67","67","67","67","09/26/20 13:11:20","1500","The main experiment item","yes","FlankerTask.osexp","C:\Users\Jennifer Wright\Desktop\PSYC5613","no","mono","no","18","no","white","no","yes","768","legacy","67","67","C:/Users/Jennifer Wright/Desktop/PSYC5613/bw-subject-2.csv","legacy","Lentiform Loewenfeld","3.3.3","0","h","NA","s","NA","NA","h","620","NA","21189","NA","NA","620","2","legacy","1024","2","48000","-16","experiment","SSHSS","2","even","NA","172228","4821","NA","NA","26013","NA","NA","56977","4812","NA","173412","173519","174142","173406","173518","Flanker Task","65","54035","68","yes","1024"
"95.652173913","95.652173913","795.420289855","795.420289855","black","legacy","legacy","legacy","0","incongruent","uniform","1","undefined","1","s","0","68","0","0","0","0","0","0","68","0","68","68","68","68","68","68","09/26/20 13:11:20","1500","The main experiment item","yes","FlankerTask.osexp","C:\Users\Jennifer Wright\Desktop\PSYC5613","no","mono","no","18","no","white","no","yes","768","legacy","68","68","C:/Users/Jennifer Wright/Desktop/PSYC5613/bw-subject-2.csv","legacy","Lentiform Loewenfeld","3.3.3","0","s","NA","s","NA","NA","s","849","NA","21189","NA","NA","849","2","legacy","1024","2","48000","-16","experiment","HHSHH","2","even","NA","174207","4821","NA","NA","26013","NA","NA","56977","4812","NA","175396","175503","176356","175390","175502","Flanker Task","66","54884","69","yes","1024"
"95.7142857143","95.7142857143","804.585714286","804.585714286","black","legacy","legacy","legacy","0","congruent","uniform","1","undefined","1","s","0","69","0","0","0","0","0","0","69","0","69","69","69","69","69","69","09/26/20 13:11:20","1500","The main experiment item","yes","FlankerTask.osexp","C:\Users\Jennifer Wright\Desktop\PSYC5613","no","mono","no","18","no","white","no","yes","768","legacy","69","69","C:/Users/Jennifer Wright/Desktop/PSYC5613/bw-subject-2.csv","legacy","Lentiform Loewenfeld","3.3.3","0","s","NA","s","NA","NA","s","1437","NA","21189","NA","NA","1437","2","legacy","1024","2","48000","-16","experiment","SSSSS","2","even","NA","176389","4821","NA","NA","26013","NA","NA","56977","4812","NA","177586","177691","179131","177580","177691","Flanker Task","67","56321","70","yes","1024"
"95.7746478873","95.7746478873","801.098591549","801.098591549","black","legacy","legacy","legacy","0","congruent","uniform","1","undefined","1","s","0","70","0","0","0","0","0","0","70","0","70","70","70","70","70","70","09/26/20 13:11:20","1500","The main experiment item","yes","FlankerTask.osexp","C:\Users\Jennifer Wright\Desktop\PSYC5613","no","mono","no","18","no","white","no","yes","768","legacy","70","70","C:/Users/Jennifer Wright/Desktop/PSYC5613/bw-subject-2.csv","legacy","Lentiform Loewenfeld","3.3.3","0","s","NA","s","NA","NA","s","557","NA","21189","NA","NA","557","2","legacy","1024","2","48000","-16","experiment","SSSSS","2","even","NA","179232","4821","NA","NA","26013","NA","NA","56977","4812","NA","180431","180539","181099","180424","180538","Flanker Task","68","56878","71","yes","1024"
"95.8333333333","95.8333333333","799.402777778","799.402777778","black","legacy","legacy","legacy","0","incongruent","uniform","1","undefined","1","h","0","71","0","0","0","0","0","0","71","0","71","71","71","71","71","71","09/26/20 13:11:20","1500","The main experiment item","yes","FlankerTask.osexp","C:\Users\Jennifer Wright\Desktop\PSYC5613","no","mono","no","18","no","white","no","yes","768","legacy","71","71","C:/Users/Jennifer Wright/Desktop/PSYC5613/bw-subject-2.csv","legacy","Lentiform Loewenfeld","3.3.3","0","h","NA","s","NA","NA","h","679","NA","21189","NA","NA","679","2","legacy","1024","2","48000","-16","experiment","SSHSS","2","even","NA","181173","4821","NA","NA","26013","NA","NA","56977","4812","NA","182363","182470","183152","182357","182470","Flanker Task","69","57557","72","yes","1024"
"95.8904109589","95.8904109589","798.849315068","798.849315068","black","legacy","legacy","legacy","0","congruent","uniform","1","undefined","1","h","0","72","0","0","0","0","0","0","72","0","72","72","72","72","72","72","09/26/20 13:11:20","1500","The main experiment item","yes","FlankerTask.osexp","C:\Users\Jennifer Wright\Desktop\PSYC5613","no","mono","no","18","no","white","no","yes","768","legacy","72","72","C:/Users/Jennifer Wright/Desktop/PSYC5613/bw-subject-2.csv","legacy","Lentiform Loewenfeld","3.3.3","0","h","NA","s","NA","NA","h","759","NA","21189","NA","NA","759","2","legacy","1024","2","48000","-16","experiment","HHHHH","2","even","NA","183219","4821","NA","NA","26013","NA","NA","56977","4812","NA","184410","184514","185277","184403","184514","Flanker Task","70","58316","73","yes","1024"
"95.9459459459","95.9459459459","797.594594595","797.594594595","black","legacy","legacy","legacy","0","congruent","uniform","1","undefined","1","s","0","73","0","0","0","0","0","0","73","0","73","73","73","73","73","73","09/26/20 13:11:20","1500","The main experiment item","yes","FlankerTask.osexp","C:\Users\Jennifer Wright\Desktop\PSYC5613","no","mono","no","18","no","white","no","yes","768","legacy","73","73","C:/Users/Jennifer Wright/Desktop/PSYC5613/bw-subject-2.csv","legacy","Lentiform Loewenfeld","3.3.3","0","s","NA","s","NA","NA","s","706","NA","21189","NA","NA","706","2","legacy","1024","2","48000","-16","experiment","SSSSS","2","even","NA","185356","4821","NA","NA","26013","NA","NA","56977","4812","NA","186572","186678","187387","186564","186677","Flanker Task","71","59022","74","yes","1024"
"96","96","796.413333333","796.413333333","black","legacy","legacy","legacy","0","congruent","uniform","1","undefined","1","s","0","74","0","0","0","0","0","0","74","0","74","74","74","74","74","74","09/26/20 13:11:20","1500","The main experiment item","yes","FlankerTask.osexp","C:\Users\Jennifer Wright\Desktop\PSYC5613","no","mono","no","18","no","white","no","yes","768","legacy","74","74","C:/Users/Jennifer Wright/Desktop/PSYC5613/bw-subject-2.csv","legacy","Lentiform Loewenfeld","3.3.3","0","s","NA","s","NA","NA","s","709","NA","21189","NA","NA","709","2","legacy","1024","2","48000","-16","experiment","SSSSS","2","even","NA","187459","4821","NA","NA","26013","NA","NA","56977","4812","NA","188649","188758","189470","188643","188756","Flanker Task","72","59731","75","yes","1024"
"96.0526315789","96.0526315789","795.592105263","795.592105263","black","legacy","legacy","legacy","0","incongruent","uniform","1","undefined","1","h","0","75","0","0","0","0","0","0","75","0","75","75","75","75","75","75","09/26/20 13:11:20","1500","The main experiment item","yes","FlankerTask.osexp","C:\Users\Jennifer Wright\Desktop\PSYC5613","no","mono","no","18","no","white","no","yes","768","legacy","75","75","C:/Users/Jennifer Wright/Desktop/PSYC5613/bw-subject-2.csv","legacy","Lentiform Loewenfeld","3.3.3","0","h","NA","s","NA","NA","h","734","NA","21189","NA","NA","734","2","legacy","1024","2","48000","-16","experiment","SSHSS","2","even","NA","189537","4821","NA","NA","26013","NA","NA","56977","4812","NA","190749","190854","191592","190742","190854","Flanker Task","73","60465","76","yes","1024"
"96.1038961039","96.1038961039","798.441558442","798.441558442","black","legacy","legacy","legacy","0","incongruent","uniform","1","undefined","1","s","0","76","0","0","0","0","0","0","76","0","76","76","76","76","76","76","09/26/20 13:11:20","1500","The main experiment item","yes","FlankerTask.osexp","C:\Users\Jennifer Wright\Desktop\PSYC5613","no","mono","no","18","no","white","no","yes","768","legacy","76","76","C:/Users/Jennifer Wright/Desktop/PSYC5613/bw-subject-2.csv","legacy","Lentiform Loewenfeld","3.3.3","0","s","NA","s","NA","NA","s","1015","NA","21189","NA","NA","1015","2","legacy","1024","2","48000","-16","experiment","HHSHH","2","even","NA","191619","4821","NA","NA","26013","NA","NA","56977","4812","NA","192835","192940","193960","192828","192940","Flanker Task","74","61480","77","yes","1024"
"96.1538461538","96.1538461538","800.756410256","800.756410256","black","legacy","legacy","legacy","0","congruent","uniform","1","undefined","1","s","0","77","0","0","0","0","0","0","77","0","77","77","77","77","77","77","09/26/20 13:11:20","1500","The main experiment item","yes","FlankerTask.osexp","C:\Users\Jennifer Wright\Desktop\PSYC5613","no","mono","no","18","no","white","no","yes","768","legacy","77","77","C:/Users/Jennifer Wright/Desktop/PSYC5613/bw-subject-2.csv","legacy","Lentiform Loewenfeld","3.3.3","0","s","NA","s","NA","NA","s","979","NA","21189","NA","NA","979","2","legacy","1024","2","48000","-16","experiment","SSSSS","2","even","NA","194001","4821","NA","NA","26013","NA","NA","56977","4812","NA","195203","195308","196296","195196","195308","Flanker Task","75","62459","78","yes","1024"
"96.2025316456","96.2025316456","798.848101266","798.848101266","black","legacy","legacy","legacy","0","congruent","uniform","1","undefined","1","h","0","78","0","0","0","0","0","0","78","0","78","78","78","78","78","78","09/26/20 13:11:20","1500","The main experiment item","yes","FlankerTask.osexp","C:\Users\Jennifer Wright\Desktop\PSYC5613","no","mono","no","18","no","white","no","yes","768","legacy","78","78","C:/Users/Jennifer Wright/Desktop/PSYC5613/bw-subject-2.csv","legacy","Lentiform Loewenfeld","3.3.3","0","h","NA","s","NA","NA","h","650","NA","21189","NA","NA","650","2","legacy","1024","2","48000","-16","experiment","HHHHH","2","even","NA","196337","4821","NA","NA","26013","NA","NA","56977","4812","NA","197551","197656","198309","197542","197656","Flanker Task","76","63109","79","yes","1024"
"96.25","96.25","797.1625","797.1625","black","legacy","legacy","legacy","0","incongruent","uniform","1","undefined","1","s","0","79","0","0","0","0","0","0","79","0","79","79","79","79","79","79","09/26/20 13:11:20","1500","The main experiment item","yes","FlankerTask.osexp","C:\Users\Jennifer Wright\Desktop\PSYC5613","no","mono","no","18","no","white","no","yes","768","legacy","79","79","C:/Users/Jennifer Wright/Desktop/PSYC5613/bw-subject-2.csv","legacy","Lentiform Loewenfeld","3.3.3","0","s","NA","s","NA","NA","s","664","NA","21189","NA","NA","664","2","legacy","1024","2","48000","-16","experiment","HHSHH","2","even","NA","198373","4821","NA","NA","26013","NA","NA","56977","4812","NA","199556","199660","200327","199549","199660","Flanker Task","77","63773","80","yes","1024"
"96.2962962963","96.2962962963","804","804","black","legacy","legacy","legacy","0","incongruent","uniform","1","undefined","1","s","0","80","0","0","0","0","0","0","80","0","80","80","80","80","80","80","09/26/20 13:11:20","600","The main experiment item","yes","FlankerTask.osexp","C:\Users\Jennifer Wright\Desktop\PSYC5613","no","mono","no","18","no","white","no","yes","768","legacy","0","79","C:/Users/Jennifer Wright/Desktop/PSYC5613/bw-subject-2.csv","legacy","Lentiform Loewenfeld","3.3.3","0","s","NA","s","s","NA","s","1351","NA","21189","8639","NA","1351","2","legacy","1024","2","48000","-16","experiment","HHSHH","2","even","NA","200398","4821","201449","NA","26013","210091","NA","56977","4812","NA","210267","210378","211732","210262","210374","Flanker Task","78","65124","81","yes","1024"
"96.3414634146","96.3414634146","804.207317073","804.207317073","black","legacy","legacy","legacy","0","incongruent","uniform","1","undefined","1","s","0","81","0","0","0","0","0","0","81","0","81","81","81","81","81","81","09/26/20 13:11:20","600","The main experiment item","yes","FlankerTask.osexp","C:\Users\Jennifer Wright\Desktop\PSYC5613","no","mono","no","18","no","white","no","yes","768","legacy","1","79","C:/Users/Jennifer Wright/Desktop/PSYC5613/bw-subject-2.csv","legacy","Lentiform Loewenfeld","3.3.3","0","s","NA","s","s","NA","s","821","NA","21189","8639","NA","821","2","legacy","1024","2","48000","-16","experiment","HHSHH","2","even","NA","211837","4821","201449","NA","26013","210091","NA","56977","4812","NA","213045","213152","213977","213038","213151","Flanker Task","79","65945","82","yes","1024"
"96.3855421687","96.3855421687","802.590361446","802.590361446","black","legacy","legacy","legacy","0","congruent","uniform","1","undefined","1","s","0","82","0","0","0","0","0","0","82","0","82","82","82","82","82","82","09/26/20 13:11:20","600","The main experiment item","yes","FlankerTask.osexp","C:\Users\Jennifer Wright\Desktop\PSYC5613","no","mono","no","18","no","white","no","yes","768","legacy","2","79","C:/Users/Jennifer Wright/Desktop/PSYC5613/bw-subject-2.csv","legacy","Lentiform Loewenfeld","3.3.3","0","s","NA","s","s","NA","s","670","NA","21189","8639","NA","670","2","legacy","1024","2","48000","-16","experiment","SSSSS","2","even","NA","214049","4821","201449","NA","26013","210091","NA","56977","4812","NA","215233","215339","216012","215227","215338","Flanker Task","80","66615","83","yes","1024"
"96.4285714286","96.4285714286","801.071428571","801.071428571","black","legacy","legacy","legacy","0","congruent","uniform","1","undefined","1","h","0","83","0","0","0","0","0","0","83","0","83","83","83","83","83","83","09/26/20 13:11:20","600","The main experiment item","yes","FlankerTask.osexp","C:\Users\Jennifer Wright\Desktop\PSYC5613","no","mono","no","18","no","white","no","yes","768","legacy","3","79","C:/Users/Jennifer Wright/Desktop/PSYC5613/bw-subject-2.csv","legacy","Lentiform Loewenfeld","3.3.3","0","h","NA","s","s","NA","h","675","NA","21189","8639","NA","675","2","legacy","1024","2","48000","-16","experiment","HHHHH","2","even","NA","216075","4821","201449","NA","26013","210091","NA","56977","4812","NA","217274","217379","218058","217266","217379","Flanker Task","81","67290","84","yes","1024"
"96.4705882353","96.4705882353","798.529411765","798.529411765","black","legacy","legacy","legacy","0","congruent","uniform","1","undefined","1","h","0","84","0","0","0","0","0","0","84","0","84","84","84","84","84","84","09/26/20 13:11:20","600","The main experiment item","yes","FlankerTask.osexp","C:\Users\Jennifer Wright\Desktop\PSYC5613","no","mono","no","18","no","white","no","yes","768","legacy","4","79","C:/Users/Jennifer Wright/Desktop/PSYC5613/bw-subject-2.csv","legacy","Lentiform Loewenfeld","3.3.3","0","h","NA","s","s","NA","h","585","NA","21189","8639","NA","585","2","legacy","1024","2","48000","-16","experiment","HHHHH","2","even","NA","218122","4821","201449","NA","26013","210091","NA","56977","4812","NA","219303","219407","219996","219297","219407","Flanker Task","82","67875","85","yes","1024"
"96.511627907","96.511627907","798.372093023","798.372093023","black","legacy","legacy","legacy","0","incongruent","uniform","1","undefined","1","h","0","85","0","0","0","0","0","0","85","0","85","85","85","85","85","85","09/26/20 13:11:20","600","The main experiment item","yes","FlankerTask.osexp","C:\Users\Jennifer Wright\Desktop\PSYC5613","no","mono","no","18","no","white","no","yes","768","legacy","5","79","C:/Users/Jennifer Wright/Desktop/PSYC5613/bw-subject-2.csv","legacy","Lentiform Loewenfeld","3.3.3","0","h","NA","s","s","NA","h","785","NA","21189","8639","NA","785","2","legacy","1024","2","48000","-16","experiment","SSHSS","2","even","NA","220060","4821","201449","NA","26013","210091","NA","56977","4812","NA","221260","221365","222153","221253","221365","Flanker Task","83","68660","86","yes","1024"
"96.5517241379","96.5517241379","796.712643678","796.712643678","black","legacy","legacy","legacy","0","congruent","uniform","1","undefined","1","s","0","86","0","0","0","0","0","0","86","0","86","86","86","86","86","86","09/26/20 13:11:20","600","The main experiment item","yes","FlankerTask.osexp","C:\Users\Jennifer Wright\Desktop\PSYC5613","no","mono","no","18","no","white","no","yes","768","legacy","6","79","C:/Users/Jennifer Wright/Desktop/PSYC5613/bw-subject-2.csv","legacy","Lentiform Loewenfeld","3.3.3","0","s","NA","s","s","NA","s","654","NA","21189","8639","NA","654","2","legacy","1024","2","48000","-16","experiment","SSSSS","2","even","NA","222209","4821","201449","NA","26013","210091","NA","56977","4812","NA","223398","223506","224163","223391","223506","Flanker Task","84","69314","87","yes","1024"
"96.5909090909","96.5909090909","795.670454545","795.670454545","black","legacy","legacy","legacy","0","incongruent","uniform","1","undefined","1","h","0","87","0","0","0","0","0","0","87","0","87","87","87","87","87","87","09/26/20 13:11:20","600","The main experiment item","yes","FlankerTask.osexp","C:\Users\Jennifer Wright\Desktop\PSYC5613","no","mono","no","18","no","white","no","yes","768","legacy","7","79","C:/Users/Jennifer Wright/Desktop/PSYC5613/bw-subject-2.csv","legacy","Lentiform Loewenfeld","3.3.3","0","h","NA","s","s","NA","h","705","NA","21189","8639","NA","705","2","legacy","1024","2","48000","-16","experiment","SSHSS","2","even","NA","224233","4821","201449","NA","26013","210091","NA","56977","4812","NA","225428","225534","226242","225421","225533","Flanker Task","85","70019","88","yes","1024"
"96.6292134831","96.6292134831","798.730337079","798.730337079","black","legacy","legacy","legacy","0","congruent","uniform","1","undefined","1","h","0","88","0","0","0","0","0","0","88","0","88","88","88","88","88","88","09/26/20 13:11:20","600","The main experiment item","yes","FlankerTask.osexp","C:\Users\Jennifer Wright\Desktop\PSYC5613","no","mono","no","18","no","white","no","yes","768","legacy","8","79","C:/Users/Jennifer Wright/Desktop/PSYC5613/bw-subject-2.csv","legacy","Lentiform Loewenfeld","3.3.3","0","h","NA","s","s","NA","h","1068","NA","21189","8639","NA","1068","2","legacy","1024","2","48000","-16","experiment","HHHHH","2","even","NA","226304","4821","201449","NA","26013","210091","NA","56977","4812","NA","227489","227596","228667","227482","227596","Flanker Task","86","71087","89","yes","1024"
"96.6666666667","96.6666666667","800.055555556","800.055555556","black","legacy","legacy","legacy","0","congruent","uniform","1","undefined","1","h","0","89","0","0","0","0","0","0","89","0","89","89","89","89","89","89","09/26/20 13:11:20","600","The main experiment item","yes","FlankerTask.osexp","C:\Users\Jennifer Wright\Desktop\PSYC5613","no","mono","no","18","no","white","no","yes","768","legacy","9","79","C:/Users/Jennifer Wright/Desktop/PSYC5613/bw-subject-2.csv","legacy","Lentiform Loewenfeld","3.3.3","0","h","NA","s","s","NA","h","918","NA","21189","8639","NA","918","2","legacy","1024","2","48000","-16","experiment","HHHHH","2","even","NA","228738","4821","201449","NA","26013","210091","NA","56977","4812","NA","229930","230036","230958","229924","230035","Flanker Task","87","72005","90","yes","1024"
"96.7032967033","96.7032967033","799.384615385","799.384615385","black","legacy","legacy","legacy","0","incongruent","uniform","1","undefined","1","s","0","90","0","0","0","0","0","0","90","0","90","90","90","90","90","90","09/26/20 13:11:20","600","The main experiment item","yes","FlankerTask.osexp","C:\Users\Jennifer Wright\Desktop\PSYC5613","no","mono","no","18","no","white","no","yes","768","legacy","10","79","C:/Users/Jennifer Wright/Desktop/PSYC5613/bw-subject-2.csv","legacy","Lentiform Loewenfeld","3.3.3","0","s","NA","s","s","NA","s","739","NA","21189","8639","NA","739","2","legacy","1024","2","48000","-16","experiment","HHSHH","2","even","NA","231027","4821","201449","NA","26013","210091","NA","56977","4812","NA","232228","232341","233083","232221","232341","Flanker Task","88","72744","91","yes","1024"
"96.7391304348","96.7391304348","798.054347826","798.054347826","black","legacy","legacy","legacy","0","congruent","uniform","1","undefined","1","s","0","91","0","0","0","0","0","0","91","0","91","91","91","91","91","91","09/26/20 13:11:20","600","The main experiment item","yes","FlankerTask.osexp","C:\Users\Jennifer Wright\Desktop\PSYC5613","no","mono","no","18","no","white","no","yes","768","legacy","11","79","C:/Users/Jennifer Wright/Desktop/PSYC5613/bw-subject-2.csv","legacy","Lentiform Loewenfeld","3.3.3","0","s","NA","s","s","NA","s","677","NA","21189","8639","NA","677","2","legacy","1024","2","48000","-16","experiment","SSSSS","2","even","NA","233201","4821","201449","NA","26013","210091","NA","56977","4812","NA","234391","234497","235179","234385","234496","Flanker Task","89","73421","92","yes","1024"
"96.7741935484","96.7741935484","796.731182796","796.731182796","black","legacy","legacy","legacy","0","incongruent","uniform","1","undefined","1","s","0","92","0","0","0","0","0","0","92","0","92","92","92","92","92","92","09/26/20 13:11:20","600","The main experiment item","yes","FlankerTask.osexp","C:\Users\Jennifer Wright\Desktop\PSYC5613","no","mono","no","18","no","white","no","yes","768","legacy","12","79","C:/Users/Jennifer Wright/Desktop/PSYC5613/bw-subject-2.csv","legacy","Lentiform Loewenfeld","3.3.3","0","s","NA","s","s","NA","s","675","NA","21189","8639","NA","675","2","legacy","1024","2","48000","-16","experiment","HHSHH","2","even","NA","235272","4821","201449","NA","26013","210091","NA","56977","4812","NA","236464","236568","237247","236458","236568","Flanker Task","90","74096","93","yes","1024"
"96.8085106383","96.8085106383","796.085106383","796.085106383","black","legacy","legacy","legacy","0","incongruent","uniform","1","undefined","1","s","0","93","0","0","0","0","0","0","93","0","93","93","93","93","93","93","09/26/20 13:11:20","600","The main experiment item","yes","FlankerTask.osexp","C:\Users\Jennifer Wright\Desktop\PSYC5613","no","mono","no","18","no","white","no","yes","768","legacy","13","79","C:/Users/Jennifer Wright/Desktop/PSYC5613/bw-subject-2.csv","legacy","Lentiform Loewenfeld","3.3.3","0","s","NA","s","s","NA","s","736","NA","21189","8639","NA","736","2","legacy","1024","2","48000","-16","experiment","HHSHH","2","even","NA","237317","4821","201449","NA","26013","210091","NA","56977","4812","NA","238523","238629","239370","238517","238628","Flanker Task","91","74832","94","yes","1024"
"96.8421052632","96.8421052632","798.378947368","798.378947368","black","legacy","legacy","legacy","0","incongruent","uniform","1","undefined","1","h","0","94","0","0","0","0","0","0","94","0","94","94","94","94","94","94","09/26/20 13:11:20","600","The main experiment item","yes","FlankerTask.osexp","C:\Users\Jennifer Wright\Desktop\PSYC5613","no","mono","no","18","no","white","no","yes","768","legacy","14","79","C:/Users/Jennifer Wright/Desktop/PSYC5613/bw-subject-2.csv","legacy","Lentiform Loewenfeld","3.3.3","0","h","NA","s","s","NA","h","1014","NA","21189","8639","NA","1014","2","legacy","1024","2","48000","-16","experiment","SSHSS","2","even","NA","239432","4821","201449","NA","26013","210091","NA","56977","4812","NA","240615","240720","241739","240609","240720","Flanker Task","92","75846","95","yes","1024"
"96.875","96.875","800.5","800.5","black","legacy","legacy","legacy","0","congruent","uniform","1","undefined","1","h","0","95","0","0","0","0","0","0","95","0","95","95","95","95","95","95","09/26/20 13:11:20","600","The main experiment item","yes","FlankerTask.osexp","C:\Users\Jennifer Wright\Desktop\PSYC5613","no","mono","no","18","no","white","no","yes","768","legacy","15","79","C:/Users/Jennifer Wright/Desktop/PSYC5613/bw-subject-2.csv","legacy","Lentiform Loewenfeld","3.3.3","0","h","NA","s","s","NA","h","1002","NA","21189","8639","NA","1002","2","legacy","1024","2","48000","-16","experiment","HHHHH","2","even","NA","241822","4821","201449","NA","26013","210091","NA","56977","4812","NA","243030","243137","244143","243023","243137","Flanker Task","93","76848","96","yes","1024"
"96.9072164948","96.9072164948","799.804123711","799.804123711","black","legacy","legacy","legacy","0","incongruent","uniform","1","undefined","1","h","0","96","0","0","0","0","0","0","96","0","96","96","96","96","96","96","09/26/20 13:11:20","600","The main experiment item","yes","FlankerTask.osexp","C:\Users\Jennifer Wright\Desktop\PSYC5613","no","mono","no","18","no","white","no","yes","768","legacy","16","79","C:/Users/Jennifer Wright/Desktop/PSYC5613/bw-subject-2.csv","legacy","Lentiform Loewenfeld","3.3.3","0","h","NA","s","s","NA","h","733","NA","21189","8639","NA","733","2","legacy","1024","2","48000","-16","experiment","SSHSS","2","even","NA","244216","4821","201449","NA","26013","210091","NA","56977","4812","NA","245401","245506","246243","245394","245506","Flanker Task","94","77581","97","yes","1024"
"95.9183673469","95.9183673469","806.948979592","806.948979592","black","legacy","legacy","legacy","0","incongruent","uniform","0","undefined","0","s","0","97","0","0","0","0","0","0","97","0","97","97","97","97","97","97","09/26/20 13:11:20","600","The main experiment item","yes","FlankerTask.osexp","C:\Users\Jennifer Wright\Desktop\PSYC5613","no","mono","no","18","no","white","no","yes","768","legacy","17","79","C:/Users/Jennifer Wright/Desktop/PSYC5613/bw-subject-2.csv","legacy","Lentiform Loewenfeld","3.3.3","0","None","NA","s","s","NA","None","1500","NA","21189","8639","NA","1500","2","legacy","1024","2","48000","-16","experiment","HHSHH","2","even","NA","246306","4821","201449","NA","26013","210091","NA","56977","4812","NA","247496","247603","249106","247489","247603","Flanker Task","94","79081","98","yes","1024"
"94.9494949495","94.9494949495","813.949494949","813.949494949","black","legacy","legacy","legacy","0","incongruent","uniform","0","undefined","0","h","0","98","0","0","0","0","0","0","98","0","98","98","98","98","98","98","09/26/20 13:11:20","600","The main experiment item","yes","FlankerTask.osexp","C:\Users\Jennifer Wright\Desktop\PSYC5613","no","mono","no","18","no","white","no","yes","768","legacy","18","79","C:/Users/Jennifer Wright/Desktop/PSYC5613/bw-subject-2.csv","legacy","Lentiform Loewenfeld","3.3.3","0","None","NA","s","s","NA","None","1500","NA","21189","8639","NA","1500","2","legacy","1024","2","48000","-16","experiment","SSHSS","2","even","NA","249684","4821","201449","NA","26013","210091","NA","249174","4812","NA","250868","250977","252480","250861","250976","Flanker Task","94","80581","99","yes","1024"
"95","95","813.33","813.33","black","legacy","legacy","legacy","0","congruent","uniform","1","undefined","1","h","0","99","0","0","0","0","0","0","99","0","99","99","99","99","99","99","09/26/20 13:11:20","600","The main experiment item","yes","FlankerTask.osexp","C:\Users\Jennifer Wright\Desktop\PSYC5613","no","mono","no","18","no","white","no","yes","768","legacy","19","79","C:/Users/Jennifer Wright/Desktop/PSYC5613/bw-subject-2.csv","legacy","Lentiform Loewenfeld","3.3.3","0","h","NA","s","s","NA","h","752","NA","21189","8639","NA","752","2","legacy","1024","2","48000","-16","experiment","HHHHH","2","even","NA","253066","4821","201449","NA","26013","210091","NA","252560","4812","NA","254257","254364","255120","254250","254364","Flanker Task","95","81333","100","yes","1024"
"95.0495049505","95.0495049505","812.346534653","812.346534653","black","legacy","legacy","legacy","0","incongruent","uniform","1","undefined","1","h","0","100","0","0","0","0","0","0","100","0","100","100","100","100","100","100","09/26/20 13:11:20","600","The main experiment item","yes","FlankerTask.osexp","C:\Users\Jennifer Wright\Desktop\PSYC5613","no","mono","no","18","no","white","no","yes","768","legacy","20","79","C:/Users/Jennifer Wright/Desktop/PSYC5613/bw-subject-2.csv","legacy","Lentiform Loewenfeld","3.3.3","0","h","NA","s","s","NA","h","714","NA","21189","8639","NA","714","2","legacy","1024","2","48000","-16","experiment","SSHSS","2","even","NA","255186","4821","201449","NA","26013","210091","NA","252560","4812","NA","256378","256484","257202","256371","256484","Flanker Task","96","82047","101","yes","1024"
"95.0980392157","95.0980392157","810.31372549","810.31372549","black","legacy","legacy","legacy","0","congruent","uniform","1","undefined","1","s","0","101","0","0","0","0","0","0","101","0","101","101","101","101","101","101","09/26/20 13:11:20","600","The main experiment item","yes","FlankerTask.osexp","C:\Users\Jennifer Wright\Desktop\PSYC5613","no","mono","no","18","no","white","no","yes","768","legacy","21","79","C:/Users/Jennifer Wright/Desktop/PSYC5613/bw-subject-2.csv","legacy","Lentiform Loewenfeld","3.3.3","0","s","NA","s","s","NA","s","605","NA","21189","8639","NA","605","2","legacy","1024","2","48000","-16","experiment","SSSSS","2","even","NA","257233","4821","201449","NA","26013","210091","NA","252560","4812","NA","258436","258541","259150","258430","258541","Flanker Task","97","82652","102","yes","1024"
"95.145631068","95.145631068","812.427184466","812.427184466","black","legacy","legacy","legacy","0","congruent","uniform","1","undefined","1","h","0","102","0","0","0","0","0","0","102","0","102","102","102","102","102","102","09/26/20 13:11:20","600","The main experiment item","yes","FlankerTask.osexp","C:\Users\Jennifer Wright\Desktop\PSYC5613","no","mono","no","18","no","white","no","yes","768","legacy","22","79","C:/Users/Jennifer Wright/Desktop/PSYC5613/bw-subject-2.csv","legacy","Lentiform Loewenfeld","3.3.3","0","h","NA","s","s","NA","h","1028","NA","21189","8639","NA","1028","2","legacy","1024","2","48000","-16","experiment","HHHHH","2","even","NA","259214","4821","201449","NA","26013","210091","NA","252560","4812","NA","260417","260523","261556","260411","260522","Flanker Task","98","83680","103","yes","1024"
"95.1923076923","95.1923076923","812.259615385","812.259615385","black","legacy","legacy","legacy","0","incongruent","uniform","1","undefined","1","s","0","103","0","0","0","0","0","0","103","0","103","103","103","103","103","103","09/26/20 13:11:20","600","The main experiment item","yes","FlankerTask.osexp","C:\Users\Jennifer Wright\Desktop\PSYC5613","no","mono","no","18","no","white","no","yes","768","legacy","23","79","C:/Users/Jennifer Wright/Desktop/PSYC5613/bw-subject-2.csv","legacy","Lentiform Loewenfeld","3.3.3","0","s","NA","s","s","NA","s","795","NA","21189","8639","NA","795","2","legacy","1024","2","48000","-16","experiment","HHSHH","2","even","NA","261627","4821","201449","NA","26013","210091","NA","252560","4812","NA","262819","262923","263722","262812","262923","Flanker Task","99","84475","104","yes","1024"
"95.2380952381","95.2380952381","814.476190476","814.476190476","black","legacy","legacy","legacy","0","incongruent","uniform","1","undefined","1","s","0","104","0","0","0","0","0","0","104","0","104","104","104","104","104","104","09/26/20 13:11:20","600","The main experiment item","yes","FlankerTask.osexp","C:\Users\Jennifer Wright\Desktop\PSYC5613","no","mono","no","18","no","white","no","yes","768","legacy","24","79","C:/Users/Jennifer Wright/Desktop/PSYC5613/bw-subject-2.csv","legacy","Lentiform Loewenfeld","3.3.3","0","s","NA","s","s","NA","s","1045","NA","21189","8639","NA","1045","2","legacy","1024","2","48000","-16","experiment","HHSHH","2","even","NA","263798","4821","201449","NA","26013","210091","NA","252560","4812","NA","264982","265086","266135","264976","265086","Flanker Task","100","85520","105","yes","1024"
"95.2830188679","95.2830188679","812.58490566","812.58490566","black","legacy","legacy","legacy","0","incongruent","uniform","1","undefined","1","s","0","105","0","0","0","0","0","0","105","0","105","105","105","105","105","105","09/26/20 13:11:20","600","The main experiment item","yes","FlankerTask.osexp","C:\Users\Jennifer Wright\Desktop\PSYC5613","no","mono","no","18","no","white","no","yes","768","legacy","25","79","C:/Users/Jennifer Wright/Desktop/PSYC5613/bw-subject-2.csv","legacy","Lentiform Loewenfeld","3.3.3","0","s","NA","s","s","NA","s","614","NA","21189","8639","NA","614","2","legacy","1024","2","48000","-16","experiment","HHSHH","2","even","NA","266198","4821","201449","NA","26013","210091","NA","252560","4812","NA","267399","267506","268124","267393","267506","Flanker Task","101","86134","106","yes","1024"
"95.3271028037","95.3271028037","811.448598131","811.448598131","black","legacy","legacy","legacy","0","congruent","uniform","1","undefined","1","h","0","106","0","0","0","0","0","0","106","0","106","106","106","106","106","106","09/26/20 13:11:20","600","The main experiment item","yes","FlankerTask.osexp","C:\Users\Jennifer Wright\Desktop\PSYC5613","no","mono","no","18","no","white","no","yes","768","legacy","26","79","C:/Users/Jennifer Wright/Desktop/PSYC5613/bw-subject-2.csv","legacy","Lentiform Loewenfeld","3.3.3","0","h","NA","s","s","NA","h","691","NA","21189","8639","NA","691","2","legacy","1024","2","48000","-16","experiment","HHHHH","2","even","NA","268158","4821","201449","NA","26013","210091","NA","252560","4812","NA","269358","269467","270163","269351","269467","Flanker Task","102","86825","107","yes","1024"
"95.3703703704","95.3703703704","810.638888889","810.638888889","black","legacy","legacy","legacy","0","congruent","uniform","1","undefined","1","s","0","107","0","0","0","0","0","0","107","0","107","107","107","107","107","107","09/26/20 13:11:20","600","The main experiment item","yes","FlankerTask.osexp","C:\Users\Jennifer Wright\Desktop\PSYC5613","no","mono","no","18","no","white","no","yes","768","legacy","27","79","C:/Users/Jennifer Wright/Desktop/PSYC5613/bw-subject-2.csv","legacy","Lentiform Loewenfeld","3.3.3","0","s","NA","s","s","NA","s","724","NA","21189","8639","NA","724","2","legacy","1024","2","48000","-16","experiment","SSSSS","2","even","NA","270386","4821","201449","NA","26013","210091","NA","252560","4812","NA","271572","271679","272408","271565","271679","Flanker Task","103","87549","108","yes","1024"
"95.4128440367","95.4128440367","810.403669725","810.403669725","black","legacy","legacy","legacy","0","congruent","uniform","1","undefined","1","s","0","108","0","0","0","0","0","0","108","0","108","108","108","108","108","108","09/26/20 13:11:20","600","The main experiment item","yes","FlankerTask.osexp","C:\Users\Jennifer Wright\Desktop\PSYC5613","no","mono","no","18","no","white","no","yes","768","legacy","28","79","C:/Users/Jennifer Wright/Desktop/PSYC5613/bw-subject-2.csv","legacy","Lentiform Loewenfeld","3.3.3","0","s","NA","s","s","NA","s","785","NA","21189","8639","NA","785","2","legacy","1024","2","48000","-16","experiment","SSSSS","2","even","NA","272485","4821","201449","NA","26013","210091","NA","252560","4812","NA","273671","273779","274568","273664","273779","Flanker Task","104","88334","109","yes","1024"
"95.4545454545","95.4545454545","810.518181818","810.518181818","black","legacy","legacy","legacy","0","congruent","uniform","1","undefined","1","h","0","109","0","0","0","0","0","0","109","0","109","109","109","109","109","109","09/26/20 13:11:20","600","The main experiment item","yes","FlankerTask.osexp","C:\Users\Jennifer Wright\Desktop\PSYC5613","no","mono","no","18","no","white","no","yes","768","legacy","29","79","C:/Users/Jennifer Wright/Desktop/PSYC5613/bw-subject-2.csv","legacy","Lentiform Loewenfeld","3.3.3","0","h","NA","s","s","NA","h","823","NA","21189","8639","NA","823","2","legacy","1024","2","48000","-16","experiment","HHHHH","2","even","NA","274638","4821","201449","NA","26013","210091","NA","252560","4812","NA","275829","275936","276763","275823","275936","Flanker Task","105","89157","110","yes","1024"
"95.4954954955","95.4954954955","810.783783784","810.783783784","black","legacy","legacy","legacy","0","incongruent","uniform","1","undefined","1","s","0","110","0","0","0","0","0","0","110","0","110","110","110","110","110","110","09/26/20 13:11:20","600","The main experiment item","yes","FlankerTask.osexp","C:\Users\Jennifer Wright\Desktop\PSYC5613","no","mono","no","18","no","white","no","yes","768","legacy","30","79","C:/Users/Jennifer Wright/Desktop/PSYC5613/bw-subject-2.csv","legacy","Lentiform Loewenfeld","3.3.3","0","s","NA","s","s","NA","s","840","NA","21189","8639","NA","840","2","legacy","1024","2","48000","-16","experiment","HHSHH","2","even","NA","276826","4821","201449","NA","26013","210091","NA","252560","4812","NA","278014","278118","278962","278007","278118","Flanker Task","106","89997","111","yes","1024"
"95.5357142857","95.5357142857","814.732142857","814.732142857","black","legacy","legacy","legacy","0","congruent","uniform","1","undefined","1","h","0","111","0","0","0","0","0","0","111","0","111","111","111","111","111","111","09/26/20 13:11:20","600","The main experiment item","yes","FlankerTask.osexp","C:\Users\Jennifer Wright\Desktop\PSYC5613","no","mono","no","18","no","white","no","yes","768","legacy","31","79","C:/Users/Jennifer Wright/Desktop/PSYC5613/bw-subject-2.csv","legacy","Lentiform Loewenfeld","3.3.3","0","h","NA","s","s","NA","h","1253","NA","21189","8639","NA","1253","2","legacy","1024","2","48000","-16","experiment","HHHHH","2","even","NA","279028","4821","201449","NA","26013","210091","NA","252560","4812","NA","280227","280332","281589","280220","280331","Flanker Task","107","91250","112","yes","1024"
"95.5752212389","95.5752212389","813.681415929","813.681415929","black","legacy","legacy","legacy","0","incongruent","uniform","1","undefined","1","h","0","112","0","0","0","0","0","0","112","0","112","112","112","112","112","112","09/26/20 13:11:20","600","The main experiment item","yes","FlankerTask.osexp","C:\Users\Jennifer Wright\Desktop\PSYC5613","no","mono","no","18","no","white","no","yes","768","legacy","32","79","C:/Users/Jennifer Wright/Desktop/PSYC5613/bw-subject-2.csv","legacy","Lentiform Loewenfeld","3.3.3","0","h","NA","s","s","NA","h","696","NA","21189","8639","NA","696","2","legacy","1024","2","48000","-16","experiment","SSHSS","2","even","NA","281652","4821","201449","NA","26013","210091","NA","252560","4812","NA","282850","282958","283658","282843","282958","Flanker Task","108","91946","113","yes","1024"
"95.6140350877","95.6140350877","812.657894737","812.657894737","black","legacy","legacy","legacy","0","congruent","uniform","1","undefined","1","s","0","113","0","0","0","0","0","0","113","0","113","113","113","113","113","113","09/26/20 13:11:20","600","The main experiment item","yes","FlankerTask.osexp","C:\Users\Jennifer Wright\Desktop\PSYC5613","no","mono","no","18","no","white","no","yes","768","legacy","33","79","C:/Users/Jennifer Wright/Desktop/PSYC5613/bw-subject-2.csv","legacy","Lentiform Loewenfeld","3.3.3","0","s","NA","s","s","NA","s","697","NA","21189","8639","NA","697","2","legacy","1024","2","48000","-16","experiment","SSSSS","2","even","NA","283722","4821","201449","NA","26013","210091","NA","252560","4812","NA","284925","285031","285733","284918","285031","Flanker Task","109","92643","114","yes","1024"
"94.7826086957","94.7826086957","818.634782609","818.634782609","black","legacy","legacy","legacy","0","incongruent","uniform","0","undefined","0","s","0","114","0","0","0","0","0","0","114","0","114","114","114","114","114","114","09/26/20 13:11:20","600","The main experiment item","yes","FlankerTask.osexp","C:\Users\Jennifer Wright\Desktop\PSYC5613","no","mono","no","18","no","white","no","yes","768","legacy","34","79","C:/Users/Jennifer Wright/Desktop/PSYC5613/bw-subject-2.csv","legacy","Lentiform Loewenfeld","3.3.3","0","None","NA","s","s","NA","None","1500","NA","21189","8639","NA","1500","2","legacy","1024","2","48000","-16","experiment","HHSHH","2","even","NA","285771","4821","201449","NA","26013","210091","NA","252560","4812","NA","286979","287084","288587","286971","287084","Flanker Task","109","94143","115","yes","1024"
"94.8275862069","94.8275862069","819.129310345","819.129310345","black","legacy","legacy","legacy","0","congruent","uniform","1","undefined","1","s","0","115","0","0","0","0","0","0","115","0","115","115","115","115","115","115","09/26/20 13:11:20","600","The main experiment item","yes","FlankerTask.osexp","C:\Users\Jennifer Wright\Desktop\PSYC5613","no","mono","no","18","no","white","no","yes","768","legacy","35","79","C:/Users/Jennifer Wright/Desktop/PSYC5613/bw-subject-2.csv","legacy","Lentiform Loewenfeld","3.3.3","0","s","NA","s","s","NA","s","876","NA","21189","8639","NA","876","2","legacy","1024","2","48000","-16","experiment","SSSSS","2","even","NA","289125","4821","201449","NA","26013","210091","NA","288615","4812","NA","290328","290440","291321","290321","290439","Flanker Task","110","95019","116","yes","1024"
"94.8717948718","94.8717948718","818.88034188","818.88034188","black","legacy","legacy","legacy","0","congruent","uniform","1","undefined","1","s","0","116","0","0","0","0","0","0","116","0","116","116","116","116","116","116","09/26/20 13:11:20","600","The main experiment item","yes","FlankerTask.osexp","C:\Users\Jennifer Wright\Desktop\PSYC5613","no","mono","no","18","no","white","no","yes","768","legacy","36","79","C:/Users/Jennifer Wright/Desktop/PSYC5613/bw-subject-2.csv","legacy","Lentiform Loewenfeld","3.3.3","0","s","NA","s","s","NA","s","790","NA","21189","8639","NA","790","2","legacy","1024","2","48000","-16","experiment","SSSSS","2","even","NA","291384","4821","201449","NA","26013","210091","NA","288615","4812","NA","292577","292690","293485","292570","292689","Flanker Task","111","95809","117","yes","1024"
"94.9152542373","94.9152542373","820.601694915","820.601694915","black","legacy","legacy","legacy","0","incongruent","uniform","1","undefined","1","h","0","117","0","0","0","0","0","0","117","0","117","117","117","117","117","117","09/26/20 13:11:20","600","The main experiment item","yes","FlankerTask.osexp","C:\Users\Jennifer Wright\Desktop\PSYC5613","no","mono","no","18","no","white","no","yes","768","legacy","37","79","C:/Users/Jennifer Wright/Desktop/PSYC5613/bw-subject-2.csv","legacy","Lentiform Loewenfeld","3.3.3","0","h","NA","s","s","NA","h","1022","NA","21189","8639","NA","1022","2","legacy","1024","2","48000","-16","experiment","SSHSS","2","even","NA","293556","4821","201449","NA","26013","210091","NA","288615","4812","NA","294749","294855","295881","294742","294854","Flanker Task","112","96831","118","yes","1024"
"94.9579831933","94.9579831933","821.100840336","821.100840336","black","legacy","legacy","legacy","0","congruent","uniform","1","undefined","1","s","0","118","0","0","0","0","0","0","118","0","118","118","118","118","118","118","09/26/20 13:11:20","600","The main experiment item","yes","FlankerTask.osexp","C:\Users\Jennifer Wright\Desktop\PSYC5613","no","mono","no","18","no","white","no","yes","768","legacy","38","79","C:/Users/Jennifer Wright/Desktop/PSYC5613/bw-subject-2.csv","legacy","Lentiform Loewenfeld","3.3.3","0","s","NA","s","s","NA","s","880","NA","21189","8639","NA","880","2","legacy","1024","2","48000","-16","experiment","SSSSS","2","even","NA","295943","4821","201449","NA","26013","210091","NA","288615","4812","NA","297148","297253","298139","297141","297253","Flanker Task","113","97711","119","yes","1024"
"94.1666666667","94.1666666667","826.758333333","826.758333333","black","legacy","legacy","legacy","0","incongruent","uniform","0","undefined","0","s","0","119","0","0","0","0","0","0","119","0","119","119","119","119","119","119","09/26/20 13:11:20","600","The main experiment item","yes","FlankerTask.osexp","C:\Users\Jennifer Wright\Desktop\PSYC5613","no","mono","no","18","no","white","no","yes","768","legacy","39","79","C:/Users/Jennifer Wright/Desktop/PSYC5613/bw-subject-2.csv","legacy","Lentiform Loewenfeld","3.3.3","0","None","NA","s","s","NA","None","1500","NA","21189","8639","NA","1500","2","legacy","1024","2","48000","-16","experiment","HHSHH","2","even","NA","298181","4821","201449","NA","26013","210091","NA","288615","4812","NA","299363","299468","300971","299356","299468","Flanker Task","113","99211","120","yes","1024"
"94.2148760331","94.2148760331","826.561983471","826.561983471","black","legacy","legacy","legacy","0","incongruent","uniform","1","undefined","1","h","0","120","0","0","0","0","0","0","120","0","120","120","120","120","120","120","09/26/20 13:11:20","600","The main experiment item","yes","FlankerTask.osexp","C:\Users\Jennifer Wright\Desktop\PSYC5613","no","mono","no","18","no","white","no","yes","768","legacy","40","79","C:/Users/Jennifer Wright/Desktop/PSYC5613/bw-subject-2.csv","legacy","Lentiform Loewenfeld","3.3.3","0","h","NA","s","s","NA","h","803","NA","21189","8639","NA","803","2","legacy","1024","2","48000","-16","experiment","SSHSS","2","even","NA","301550","4821","201449","NA","26013","210091","NA","301042","4812","NA","302744","302850","303657","302737","302850","Flanker Task","114","100014","121","yes","1024"
