Stimulus,acc,accuracy,average_response_time,avg_rt,background,canvas_backend,clock_backend,color_backend,compensation,condition,coordinates,correct,correct_instructions1,correct_keyboard_response,correct_response,count_Block3,count_ErrorFeedback,count_ISI,count_Logger,count_block1,count_block2,count_experiment,count_faster,count_finish,count_fixation,count_instruction2,count_instructions1,count_instructions3,count_keyboard_response,count_sequence,count_stimulus,datetime,deadline,description,disable_garbage_collection,experiment_file,experiment_path,font_bold,font_family,font_italic,font_size,font_underline,foreground,form_clicks,fullscreen,height,keyboard_backend,live_row,live_row_block1,logfile,mouse_backend,opensesame_codename,opensesame_version,repeat_cycle,response,response_finish,response_instruction2,response_instructions1,response_instructions3,response_keyboard_response,response_time,response_time_finish,response_time_instruction2,response_time_instructions1,response_time_instructions3,response_time_keyboard_response,round_decimals,sampler_backend,sound_buf_size,sound_channels,sound_freq,sound_sample_size,start,subject_nr,subject_parity,time_Block3,time_ErrorFeedback,time_ISI,time_Logger,time_block1,time_block2,time_experiment,time_faster,time_finish,time_fixation,time_instruction2,time_instructions1,time_instructions3,time_keyboard_response,time_sequence,time_stimulus,title,total_correct,total_response_time,total_responses,uniform_coordinates,width
HHHHH,100,100,667,667,black,legacy,legacy,legacy,0,congruent,uniform,1,undefined,1,h,0,0,0,0,0,0,0,0,0,0,0,0,0,0,0,0,Sat Sep 19 00:32:55 2020,1500,The main experiment item,yes,FlankerTask.osexp,C:\Users\Owner\Documents,no,mono,no,18,no,white,no,yes,768,legacy,0,0,C:/Users/Owner/Documents/SMPsubject-2.csv,legacy,Lentiform Loewenfeld,3.3.3,0,h,NA,NA,s,NA,h,667,NA,NA,17977,NA,667,2,legacy,1024,2,48000,-16,experiment,2,even,NA,NA,NA,21753,20867,NA,2885,NA,NA,20981,NA,2889,NA,21085,20980,21084,Flanker Test,1,667,1,yes,1024
SSSSS,100,100,572.5,572.5,black,legacy,legacy,legacy,0,congruent,uniform,1,undefined,1,s,0,1,1,1,0,0,0,1,0,1,0,0,0,1,1,1,Sat Sep 19 00:32:55 2020,1500,The main experiment item,yes,FlankerTask.osexp,C:\Users\Owner\Documents,no,mono,no,18,no,white,no,yes,768,legacy,1,1,C:/Users/Owner/Documents/SMPsubject-2.csv,legacy,Lentiform Loewenfeld,3.3.3,0,s,NA,NA,s,NA,s,478,NA,NA,17977,NA,478,2,legacy,1024,2,48000,-16,experiment,2,even,NA,NA,21759,23448,20867,NA,2885,NA,NA,22866,NA,2889,NA,22970,22864,22969,Flanker Test,2,1145,2,yes,1024
SSSSS,100,100,532.6666667,532.6666667,black,legacy,legacy,legacy,0,congruent,uniform,1,undefined,1,s,0,2,2,2,0,0,0,2,0,2,0,0,0,2,2,2,Sat Sep 19 00:32:55 2020,1500,The main experiment item,yes,FlankerTask.osexp,C:\Users\Owner\Documents,no,mono,no,18,no,white,no,yes,768,legacy,2,2,C:/Users/Owner/Documents/SMPsubject-2.csv,legacy,Lentiform Loewenfeld,3.3.3,0,s,NA,NA,s,NA,s,453,NA,NA,17977,NA,453,2,legacy,1024,2,48000,-16,experiment,2,even,NA,NA,23451,25108,20867,NA,2885,NA,NA,24550,NA,2889,NA,24654,24549,24654,Flanker Test,3,1598,3,yes,1024
HHSHH,100,100,542.25,542.25,black,legacy,legacy,legacy,0,incongruent,uniform,1,undefined,1,s,0,3,3,3,0,0,0,3,0,3,0,0,0,3,3,3,Sat Sep 19 00:32:55 2020,1500,The main experiment item,yes,FlankerTask.osexp,C:\Users\Owner\Documents,no,mono,no,18,no,white,no,yes,768,legacy,3,3,C:/Users/Owner/Documents/SMPsubject-2.csv,legacy,Lentiform Loewenfeld,3.3.3,0,s,NA,NA,s,NA,s,571,NA,NA,17977,NA,571,2,legacy,1024,2,48000,-16,experiment,2,even,NA,NA,25112,26892,20867,NA,2885,NA,NA,26216,NA,2889,NA,26320,26214,26320,Flanker Test,4,2169,4,yes,1024
SSSSS,100,100,521.6,521.6,black,legacy,legacy,legacy,0,congruent,uniform,1,undefined,1,s,0,4,4,4,0,0,0,4,0,4,0,0,0,4,4,4,Sat Sep 19 00:32:55 2020,1500,The main experiment item,yes,FlankerTask.osexp,C:\Users\Owner\Documents,no,mono,no,18,no,white,no,yes,768,legacy,4,4,C:/Users/Owner/Documents/SMPsubject-2.csv,legacy,Lentiform Loewenfeld,3.3.3,0,s,NA,NA,s,NA,s,439,NA,NA,17977,NA,439,2,legacy,1024,2,48000,-16,experiment,2,even,NA,NA,26896,28546,20867,NA,2885,NA,NA,28003,NA,2889,NA,28106,28002,28106,Flanker Test,5,2608,5,yes,1024
SSSSS,100,100,502.8333333,502.8333333,black,legacy,legacy,legacy,0,congruent,uniform,1,undefined,1,s,0,5,5,5,0,0,0,5,0,5,0,0,0,5,5,5,Sat Sep 19 00:32:55 2020,1500,The main experiment item,yes,FlankerTask.osexp,C:\Users\Owner\Documents,no,mono,no,18,no,white,no,yes,768,legacy,5,5,C:/Users/Owner/Documents/SMPsubject-2.csv,legacy,Lentiform Loewenfeld,3.3.3,0,s,NA,NA,s,NA,s,409,NA,NA,17977,NA,409,2,legacy,1024,2,48000,-16,experiment,2,even,NA,NA,28549,30168,20867,NA,2885,NA,NA,29655,NA,2889,NA,29758,29653,29758,Flanker Test,6,3017,6,yes,1024
SSHSS,85.71428571,85.71428571,488.7142857,488.7142857,black,legacy,legacy,legacy,0,incongruent,uniform,0,undefined,0,h,0,6,6,6,0,0,0,6,0,6,0,0,0,6,6,6,Sat Sep 19 00:32:55 2020,1500,The main experiment item,yes,FlankerTask.osexp,C:\Users\Owner\Documents,no,mono,no,18,no,white,no,yes,768,legacy,6,6,C:/Users/Owner/Documents/SMPsubject-2.csv,legacy,Lentiform Loewenfeld,3.3.3,0,s,NA,NA,s,NA,s,404,NA,NA,17977,NA,404,2,legacy,1024,2,48000,-16,experiment,2,even,NA,NA,30171,31732,20867,NA,2885,NA,NA,31226,NA,2889,NA,31327,31225,31327,Flanker Test,6,3421,7,yes,1024
SSHSS,87.5,87.5,500.5,500.5,black,legacy,legacy,legacy,0,incongruent,uniform,1,undefined,1,h,0,7,7,7,0,0,0,7,0,7,0,0,0,7,7,7,Sat Sep 19 00:32:55 2020,1500,The main experiment item,yes,FlankerTask.osexp,C:\Users\Owner\Documents,no,mono,no,18,no,white,no,yes,768,legacy,7,7,C:/Users/Owner/Documents/SMPsubject-2.csv,legacy,Lentiform Loewenfeld,3.3.3,0,h,NA,NA,s,NA,h,583,NA,NA,17977,NA,583,2,legacy,1024,2,48000,-16,experiment,2,even,NA,31740,32244,34038,20867,NA,2885,NA,NA,33351,NA,2889,NA,33454,33350,33454,Flanker Test,7,4004,8,yes,1024
HHSHH,88.88888889,88.88888889,487.2222222,487.2222222,black,legacy,legacy,legacy,0,incongruent,uniform,1,undefined,1,s,0,8,8,8,0,0,0,8,0,8,0,0,0,8,8,8,Sat Sep 19 00:32:55 2020,1500,The main experiment item,yes,FlankerTask.osexp,C:\Users\Owner\Documents,no,mono,no,18,no,white,no,yes,768,legacy,8,8,C:/Users/Owner/Documents/SMPsubject-2.csv,legacy,Lentiform Loewenfeld,3.3.3,0,s,NA,NA,s,NA,s,381,NA,NA,17977,NA,381,2,legacy,1024,2,48000,-16,experiment,2,even,NA,31740,34041,35645,20867,NA,2885,NA,NA,35160,NA,2889,NA,35263,35158,35263,Flanker Test,8,4385,9,yes,1024
SSHSS,80,80,484.2,484.2,black,legacy,legacy,legacy,0,incongruent,uniform,0,undefined,0,h,0,9,9,9,0,0,0,9,0,9,0,0,0,9,9,9,Sat Sep 19 00:32:55 2020,1500,The main experiment item,yes,FlankerTask.osexp,C:\Users\Owner\Documents,no,mono,no,18,no,white,no,yes,768,legacy,9,9,C:/Users/Owner/Documents/SMPsubject-2.csv,legacy,Lentiform Loewenfeld,3.3.3,0,s,NA,NA,s,NA,s,457,NA,NA,17977,NA,457,2,legacy,1024,2,48000,-16,experiment,2,even,NA,31740,35649,37313,20867,NA,2885,NA,NA,36752,NA,2889,NA,36855,36750,36855,Flanker Test,8,4842,10,yes,1024
HHHHH,81.81818182,81.81818182,483.9090909,483.9090909,black,legacy,legacy,legacy,0,congruent,uniform,1,undefined,1,h,0,10,10,10,0,0,0,10,0,10,0,0,0,10,10,10,Sat Sep 19 00:32:55 2020,1500,The main experiment item,yes,FlankerTask.osexp,C:\Users\Owner\Documents,no,mono,no,18,no,white,no,yes,768,legacy,10,10,C:/Users/Owner/Documents/SMPsubject-2.csv,legacy,Lentiform Loewenfeld,3.3.3,0,h,NA,NA,s,NA,h,481,NA,NA,17977,NA,481,2,legacy,1024,2,48000,-16,experiment,2,even,NA,37316,37820,39480,20867,NA,2885,NA,NA,38894,NA,2889,NA,38998,38892,38998,Flanker Test,9,5323,11,yes,1024
SSSSS,83.33333333,83.33333333,475.75,475.75,black,legacy,legacy,legacy,0,congruent,uniform,1,undefined,1,s,0,11,11,11,0,0,0,11,0,11,0,0,0,11,11,11,Sat Sep 19 00:32:55 2020,1500,The main experiment item,yes,FlankerTask.osexp,C:\Users\Owner\Documents,no,mono,no,18,no,white,no,yes,768,legacy,11,11,C:/Users/Owner/Documents/SMPsubject-2.csv,legacy,Lentiform Loewenfeld,3.3.3,0,s,NA,NA,s,NA,s,386,NA,NA,17977,NA,386,2,legacy,1024,2,48000,-16,experiment,2,even,NA,37316,39484,41026,20867,NA,2885,NA,NA,40536,NA,2889,NA,40639,40535,40639,Flanker Test,10,5709,12,yes,1024
HHHHH,84.61538462,84.61538462,472.9230769,472.9230769,black,legacy,legacy,legacy,0,congruent,uniform,1,undefined,1,h,0,12,12,12,0,0,0,12,0,12,0,0,0,12,12,12,Sat Sep 19 00:32:55 2020,1500,The main experiment item,yes,FlankerTask.osexp,C:\Users\Owner\Documents,no,mono,no,18,no,white,no,yes,768,legacy,12,12,C:/Users/Owner/Documents/SMPsubject-2.csv,legacy,Lentiform Loewenfeld,3.3.3,0,h,NA,NA,s,NA,h,439,NA,NA,17977,NA,439,2,legacy,1024,2,48000,-16,experiment,2,even,NA,37316,41029,42680,20867,NA,2885,NA,NA,42137,NA,2889,NA,42240,42136,42240,Flanker Test,11,6148,13,yes,1024
SSHSS,78.57142857,78.57142857,467,467,black,legacy,legacy,legacy,0,incongruent,uniform,0,undefined,0,h,0,13,13,13,0,0,0,13,0,13,0,0,0,13,13,13,Sat Sep 19 00:32:55 2020,1500,The main experiment item,yes,FlankerTask.osexp,C:\Users\Owner\Documents,no,mono,no,18,no,white,no,yes,768,legacy,13,13,C:/Users/Owner/Documents/SMPsubject-2.csv,legacy,Lentiform Loewenfeld,3.3.3,0,s,NA,NA,s,NA,s,390,NA,NA,17977,NA,390,2,legacy,1024,2,48000,-16,experiment,2,even,NA,37316,42683,44280,20867,NA,2885,NA,NA,43786,NA,2889,NA,43889,43784,43889,Flanker Test,11,6538,14,yes,1024
HHSHH,80,80,468.9333333,468.9333333,black,legacy,legacy,legacy,0,incongruent,uniform,1,undefined,1,s,0,14,14,14,0,0,0,14,0,14,0,0,0,14,14,14,Sat Sep 19 00:32:55 2020,1500,The main experiment item,yes,FlankerTask.osexp,C:\Users\Owner\Documents,no,mono,no,18,no,white,no,yes,768,legacy,14,14,C:/Users/Owner/Documents/SMPsubject-2.csv,legacy,Lentiform Loewenfeld,3.3.3,0,s,NA,NA,s,NA,s,496,NA,NA,17977,NA,496,2,legacy,1024,2,48000,-16,experiment,2,even,NA,44283,44784,46460,20867,NA,2885,NA,NA,45859,NA,2889,NA,45963,45858,45963,Flanker Test,12,7034,15,yes,1024
SSSSS,81.25,81.25,466.25,466.25,black,legacy,legacy,legacy,0,congruent,uniform,1,undefined,1,s,0,15,15,15,0,0,0,15,0,15,0,0,0,15,15,15,Sat Sep 19 00:32:55 2020,1500,The main experiment item,yes,FlankerTask.osexp,C:\Users\Owner\Documents,no,mono,no,18,no,white,no,yes,768,legacy,15,15,C:/Users/Owner/Documents/SMPsubject-2.csv,legacy,Lentiform Loewenfeld,3.3.3,0,s,NA,NA,s,NA,s,426,NA,NA,17977,NA,426,2,legacy,1024,2,48000,-16,experiment,2,even,NA,44283,46463,48098,20867,NA,2885,NA,NA,47568,NA,2889,NA,47671,47566,47671,Flanker Test,13,7460,16,yes,1024
SSHSS,82.35294118,82.35294118,472.8235294,472.8235294,black,legacy,legacy,legacy,0,incongruent,uniform,1,undefined,1,h,0,16,16,16,0,0,0,16,0,16,0,0,0,16,16,16,Sat Sep 19 00:32:55 2020,1500,The main experiment item,yes,FlankerTask.osexp,C:\Users\Owner\Documents,no,mono,no,18,no,white,no,yes,768,legacy,16,16,C:/Users/Owner/Documents/SMPsubject-2.csv,legacy,Lentiform Loewenfeld,3.3.3,0,h,NA,NA,s,NA,h,578,NA,NA,17977,NA,578,2,legacy,1024,2,48000,-16,experiment,2,even,NA,44283,48101,49865,20867,NA,2885,NA,NA,49184,NA,2889,NA,49286,49183,49286,Flanker Test,14,8038,17,yes,1024
HHSHH,83.33333333,83.33333333,474.9444444,474.9444444,black,legacy,legacy,legacy,0,incongruent,uniform,1,undefined,1,s,0,17,17,17,0,0,0,17,0,17,0,0,0,17,17,17,Sat Sep 19 00:32:55 2020,1500,The main experiment item,yes,FlankerTask.osexp,C:\Users\Owner\Documents,no,mono,no,18,no,white,no,yes,768,legacy,17,17,C:/Users/Owner/Documents/SMPsubject-2.csv,legacy,Lentiform Loewenfeld,3.3.3,0,s,NA,NA,s,NA,s,511,NA,NA,17977,NA,511,2,legacy,1024,2,48000,-16,experiment,2,even,NA,44283,49868,51588,20867,NA,2885,NA,NA,50974,NA,2889,NA,51077,50972,51077,Flanker Test,15,8549,18,yes,1024
HHHHH,84.21052632,84.21052632,477.1052632,477.1052632,black,legacy,legacy,legacy,0,congruent,uniform,1,undefined,1,h,0,18,18,18,0,0,0,18,0,18,0,0,0,18,18,18,Sat Sep 19 00:32:55 2020,1500,The main experiment item,yes,FlankerTask.osexp,C:\Users\Owner\Documents,no,mono,no,18,no,white,no,yes,768,legacy,18,18,C:/Users/Owner/Documents/SMPsubject-2.csv,legacy,Lentiform Loewenfeld,3.3.3,0,h,NA,NA,s,NA,h,516,NA,NA,17977,NA,516,2,legacy,1024,2,48000,-16,experiment,2,even,NA,44283,51592,53329,20867,NA,2885,NA,NA,52709,NA,2889,NA,52812,52708,52812,Flanker Test,16,9065,19,yes,1024
HHHHH,85,85,477.5,477.5,black,legacy,legacy,legacy,0,congruent,uniform,1,undefined,1,h,0,19,19,19,0,0,0,19,0,19,0,0,0,19,19,19,Sat Sep 19 00:32:55 2020,1500,The main experiment item,yes,FlankerTask.osexp,C:\Users\Owner\Documents,no,mono,no,18,no,white,no,yes,768,legacy,19,19,C:/Users/Owner/Documents/SMPsubject-2.csv,legacy,Lentiform Loewenfeld,3.3.3,0,h,NA,NA,s,NA,h,485,NA,NA,17977,NA,485,2,legacy,1024,2,48000,-16,experiment,2,even,NA,44283,53333,54979,20867,NA,2885,NA,NA,54388,NA,2889,NA,54492,54387,54492,Flanker Test,17,9550,20,yes,1024
HHHHH,85.71428571,85.71428571,477.4285714,477.4285714,black,legacy,legacy,legacy,0,congruent,uniform,1,undefined,1,h,0,20,20,20,0,0,0,20,0,20,0,0,0,20,20,20,Sat Sep 19 00:32:55 2020,1500,The main experiment item,yes,FlankerTask.osexp,C:\Users\Owner\Documents,no,mono,no,18,no,white,no,yes,768,legacy,20,20,C:/Users/Owner/Documents/SMPsubject-2.csv,legacy,Lentiform Loewenfeld,3.3.3,0,h,NA,NA,s,NA,h,476,NA,NA,17977,NA,476,2,legacy,1024,2,48000,-16,experiment,2,even,NA,44283,54982,56675,20867,NA,2885,NA,NA,56094,NA,2889,NA,56198,56092,56198,Flanker Test,18,10026,21,yes,1024
HHHHH,86.36363636,86.36363636,474.3181818,474.3181818,black,legacy,legacy,legacy,0,congruent,uniform,1,undefined,1,h,0,21,21,21,0,0,0,21,0,21,0,0,0,21,21,21,Sat Sep 19 00:32:55 2020,1500,The main experiment item,yes,FlankerTask.osexp,C:\Users\Owner\Documents,no,mono,no,18,no,white,no,yes,768,legacy,21,21,C:/Users/Owner/Documents/SMPsubject-2.csv,legacy,Lentiform Loewenfeld,3.3.3,0,h,NA,NA,s,NA,h,409,NA,NA,17977,NA,409,2,legacy,1024,2,48000,-16,experiment,2,even,NA,44283,56678,58243,20867,NA,2885,NA,NA,57731,NA,2889,NA,57833,57730,57833,Flanker Test,19,10435,22,yes,1024
SSHSS,86.95652174,86.95652174,478.8695652,478.8695652,black,legacy,legacy,legacy,0,incongruent,uniform,1,undefined,1,h,0,22,22,22,0,0,0,22,0,22,0,0,0,22,22,22,Sat Sep 19 00:32:55 2020,1500,The main experiment item,yes,FlankerTask.osexp,C:\Users\Owner\Documents,no,mono,no,18,no,white,no,yes,768,legacy,22,22,C:/Users/Owner/Documents/SMPsubject-2.csv,legacy,Lentiform Loewenfeld,3.3.3,0,h,NA,NA,s,NA,h,579,NA,NA,17977,NA,579,2,legacy,1024,2,48000,-16,experiment,2,even,NA,44283,58247,59994,20867,NA,2885,NA,NA,59313,NA,2889,NA,59414,59311,59414,Flanker Test,20,11014,23,yes,1024
HHHHH,87.5,87.5,478.3333333,478.3333333,black,legacy,legacy,legacy,0,congruent,uniform,1,undefined,1,h,0,23,23,23,0,0,0,23,0,23,0,0,0,23,23,23,Sat Sep 19 00:32:55 2020,1500,The main experiment item,yes,FlankerTask.osexp,C:\Users\Owner\Documents,no,mono,no,18,no,white,no,yes,768,legacy,23,23,C:/Users/Owner/Documents/SMPsubject-2.csv,legacy,Lentiform Loewenfeld,3.3.3,0,h,NA,NA,s,NA,h,466,NA,NA,17977,NA,466,2,legacy,1024,2,48000,-16,experiment,2,even,NA,44283,59998,61675,20867,NA,2885,NA,NA,61104,NA,2889,NA,61208,61103,61208,Flanker Test,21,11480,24,yes,1024
HHHHH,88,88,476.24,476.24,black,legacy,legacy,legacy,0,congruent,uniform,1,undefined,1,h,0,24,24,24,0,0,0,24,0,24,0,0,0,24,24,24,Sat Sep 19 00:32:55 2020,1500,The main experiment item,yes,FlankerTask.osexp,C:\Users\Owner\Documents,no,mono,no,18,no,white,no,yes,768,legacy,24,24,C:/Users/Owner/Documents/SMPsubject-2.csv,legacy,Lentiform Loewenfeld,3.3.3,0,h,NA,NA,s,NA,h,426,NA,NA,17977,NA,426,2,legacy,1024,2,48000,-16,experiment,2,even,NA,44283,61678,63317,20867,NA,2885,NA,NA,62787,NA,2889,NA,62890,62786,62890,Flanker Test,22,11906,25,yes,1024
SSSSS,88.46153846,88.46153846,474.5384615,474.5384615,black,legacy,legacy,legacy,0,congruent,uniform,1,undefined,1,s,0,25,25,25,0,0,0,25,0,25,0,0,0,25,25,25,Sat Sep 19 00:32:55 2020,1500,The main experiment item,yes,FlankerTask.osexp,C:\Users\Owner\Documents,no,mono,no,18,no,white,no,yes,768,legacy,25,25,C:/Users/Owner/Documents/SMPsubject-2.csv,legacy,Lentiform Loewenfeld,3.3.3,0,s,NA,NA,s,NA,s,432,NA,NA,17977,NA,432,2,legacy,1024,2,48000,-16,experiment,2,even,NA,44283,63321,64923,20867,NA,2885,NA,NA,64386,NA,2889,NA,64490,64385,64490,Flanker Test,23,12338,26,yes,1024
HHSHH,88.88888889,88.88888889,477.3703704,477.3703704,black,legacy,legacy,legacy,0,incongruent,uniform,1,undefined,1,s,0,26,26,26,0,0,0,26,0,26,0,0,0,26,26,26,Sat Sep 19 00:32:55 2020,1500,The main experiment item,yes,FlankerTask.osexp,C:\Users\Owner\Documents,no,mono,no,18,no,white,no,yes,768,legacy,26,26,C:/Users/Owner/Documents/SMPsubject-2.csv,legacy,Lentiform Loewenfeld,3.3.3,0,s,NA,NA,s,NA,s,551,NA,NA,17977,NA,551,2,legacy,1024,2,48000,-16,experiment,2,even,NA,44283,64926,66653,20867,NA,2885,NA,NA,65997,NA,2889,NA,66101,65994,66101,Flanker Test,24,12889,27,yes,1024
HHHHH,89.28571429,89.28571429,478.8928571,478.8928571,black,legacy,legacy,legacy,0,congruent,uniform,1,undefined,1,h,0,27,27,27,0,0,0,27,0,27,0,0,0,27,27,27,Sat Sep 19 00:32:55 2020,1500,The main experiment item,yes,FlankerTask.osexp,C:\Users\Owner\Documents,no,mono,no,18,no,white,no,yes,768,legacy,27,27,C:/Users/Owner/Documents/SMPsubject-2.csv,legacy,Lentiform Loewenfeld,3.3.3,0,h,NA,NA,s,NA,h,520,NA,NA,17977,NA,520,2,legacy,1024,2,48000,-16,experiment,2,even,NA,44283,66657,68389,20867,NA,2885,NA,NA,67765,NA,2889,NA,67868,67764,67868,Flanker Test,25,13409,28,yes,1024
SSHSS,89.65517241,89.65517241,482.2068966,482.2068966,black,legacy,legacy,legacy,0,incongruent,uniform,1,undefined,1,h,0,28,28,28,0,0,0,28,0,28,0,0,0,28,28,28,Sat Sep 19 00:32:55 2020,1500,The main experiment item,yes,FlankerTask.osexp,C:\Users\Owner\Documents,no,mono,no,18,no,white,no,yes,768,legacy,28,28,C:/Users/Owner/Documents/SMPsubject-2.csv,legacy,Lentiform Loewenfeld,3.3.3,0,h,NA,NA,s,NA,h,575,NA,NA,17977,NA,575,2,legacy,1024,2,48000,-16,experiment,2,even,NA,44283,68393,70190,20867,NA,2885,NA,NA,69511,NA,2889,NA,69613,69509,69613,Flanker Test,26,13984,29,yes,1024
SSHSS,86.66666667,86.66666667,480.9,480.9,black,legacy,legacy,legacy,0,incongruent,uniform,0,undefined,0,h,0,29,29,29,0,0,0,29,0,29,0,0,0,29,29,29,Sat Sep 19 00:32:55 2020,1500,The main experiment item,yes,FlankerTask.osexp,C:\Users\Owner\Documents,no,mono,no,18,no,white,no,yes,768,legacy,29,29,C:/Users/Owner/Documents/SMPsubject-2.csv,legacy,Lentiform Loewenfeld,3.3.3,0,s,NA,NA,s,NA,s,443,NA,NA,17977,NA,443,2,legacy,1024,2,48000,-16,experiment,2,even,NA,44283,70193,71827,20867,NA,2885,NA,NA,71280,NA,2889,NA,71383,71278,71383,Flanker Test,26,14427,30,yes,1024
SSSSS,87.09677419,87.09677419,477.6129032,477.6129032,black,legacy,legacy,legacy,0,congruent,uniform,1,undefined,1,s,0,30,30,30,0,0,0,30,0,30,0,0,0,30,30,30,Sat Sep 19 00:32:55 2020,1500,The main experiment item,yes,FlankerTask.osexp,C:\Users\Owner\Documents,no,mono,no,18,no,white,no,yes,768,legacy,30,30,C:/Users/Owner/Documents/SMPsubject-2.csv,legacy,Lentiform Loewenfeld,3.3.3,0,s,NA,NA,s,NA,s,379,NA,NA,17977,NA,379,2,legacy,1024,2,48000,-16,experiment,2,even,NA,71831,72333,73917,20867,NA,2885,NA,NA,73434,NA,2889,NA,73537,73432,73537,Flanker Test,27,14806,31,yes,1024
HHSHH,84.375,84.375,474.4375,474.4375,black,legacy,legacy,legacy,0,incongruent,uniform,0,undefined,0,s,0,31,31,31,0,0,0,31,0,31,0,0,0,31,31,31,Sat Sep 19 00:32:55 2020,1500,The main experiment item,yes,FlankerTask.osexp,C:\Users\Owner\Documents,no,mono,no,18,no,white,no,yes,768,legacy,31,31,C:/Users/Owner/Documents/SMPsubject-2.csv,legacy,Lentiform Loewenfeld,3.3.3,0,h,NA,NA,s,NA,h,376,NA,NA,17977,NA,376,2,legacy,1024,2,48000,-16,experiment,2,even,NA,71831,73920,75501,20867,NA,2885,NA,NA,75022,NA,2889,NA,75124,75021,75124,Flanker Test,27,15182,32,yes,1024
SSSSS,84.84848485,84.84848485,473.8181818,473.8181818,black,legacy,legacy,legacy,0,congruent,uniform,1,undefined,1,s,0,32,32,32,0,0,0,32,0,32,0,0,0,32,32,32,Sat Sep 19 00:32:55 2020,1500,The main experiment item,yes,FlankerTask.osexp,C:\Users\Owner\Documents,no,mono,no,18,no,white,no,yes,768,legacy,32,32,C:/Users/Owner/Documents/SMPsubject-2.csv,legacy,Lentiform Loewenfeld,3.3.3,0,s,NA,NA,s,NA,s,454,NA,NA,17977,NA,454,2,legacy,1024,2,48000,-16,experiment,2,even,NA,75504,76008,77673,20867,NA,2885,NA,NA,77117,NA,2889,NA,77218,77115,77218,Flanker Test,28,15636,33,yes,1024
HHSHH,85.29411765,85.29411765,475.6764706,475.6764706,black,legacy,legacy,legacy,0,incongruent,uniform,1,undefined,1,s,0,33,33,33,0,0,0,33,0,33,0,0,0,33,33,33,Sat Sep 19 00:32:55 2020,1500,The main experiment item,yes,FlankerTask.osexp,C:\Users\Owner\Documents,no,mono,no,18,no,white,no,yes,768,legacy,33,33,C:/Users/Owner/Documents/SMPsubject-2.csv,legacy,Lentiform Loewenfeld,3.3.3,0,s,NA,NA,s,NA,s,537,NA,NA,17977,NA,537,2,legacy,1024,2,48000,-16,experiment,2,even,NA,75504,77677,79416,20867,NA,2885,NA,NA,78775,NA,2889,NA,78878,78773,78878,Flanker Test,29,16173,34,yes,1024
SSHSS,85.71428571,85.71428571,476,476,black,legacy,legacy,legacy,0,incongruent,uniform,1,undefined,1,h,0,34,34,34,0,0,0,34,0,34,0,0,0,34,34,34,Sat Sep 19 00:32:55 2020,1500,The main experiment item,yes,FlankerTask.osexp,C:\Users\Owner\Documents,no,mono,no,18,no,white,no,yes,768,legacy,34,34,C:/Users/Owner/Documents/SMPsubject-2.csv,legacy,Lentiform Loewenfeld,3.3.3,0,h,NA,NA,s,NA,h,487,NA,NA,17977,NA,487,2,legacy,1024,2,48000,-16,experiment,2,even,NA,75504,79422,81133,20867,NA,2885,NA,NA,80542,NA,2889,NA,80645,80541,80645,Flanker Test,30,16660,35,yes,1024
HHSHH,86.11111111,86.11111111,474.75,474.75,black,legacy,legacy,legacy,0,incongruent,uniform,1,undefined,1,s,0,35,35,35,0,0,0,35,0,35,0,0,0,35,35,35,Sat Sep 19 00:32:55 2020,1500,The main experiment item,yes,FlankerTask.osexp,C:\Users\Owner\Documents,no,mono,no,18,no,white,no,yes,768,legacy,35,35,C:/Users/Owner/Documents/SMPsubject-2.csv,legacy,Lentiform Loewenfeld,3.3.3,0,s,NA,NA,s,NA,s,431,NA,NA,17977,NA,431,2,legacy,1024,2,48000,-16,experiment,2,even,NA,75504,81137,82788,20867,NA,2885,NA,NA,82255,NA,2889,NA,82356,82254,82356,Flanker Test,31,17091,36,yes,1024
HHSHH,86.48648649,86.48648649,473.2702703,473.2702703,black,legacy,legacy,legacy,0,incongruent,uniform,1,undefined,1,s,0,36,36,36,0,0,0,36,0,36,0,0,0,36,36,36,Sat Sep 19 00:32:55 2020,1500,The main experiment item,yes,FlankerTask.osexp,C:\Users\Owner\Documents,no,mono,no,18,no,white,no,yes,768,legacy,36,36,C:/Users/Owner/Documents/SMPsubject-2.csv,legacy,Lentiform Loewenfeld,3.3.3,0,s,NA,NA,s,NA,s,420,NA,NA,17977,NA,420,2,legacy,1024,2,48000,-16,experiment,2,even,NA,75504,82791,84421,20867,NA,2885,NA,NA,83898,NA,2889,NA,84001,83896,84001,Flanker Test,32,17511,37,yes,1024
HHSHH,86.84210526,86.84210526,472.1052632,472.1052632,black,legacy,legacy,legacy,0,incongruent,uniform,1,undefined,1,s,0,37,37,37,0,0,0,37,0,37,0,0,0,37,37,37,Sat Sep 19 00:32:55 2020,1500,The main experiment item,yes,FlankerTask.osexp,C:\Users\Owner\Documents,no,mono,no,18,no,white,no,yes,768,legacy,37,37,C:/Users/Owner/Documents/SMPsubject-2.csv,legacy,Lentiform Loewenfeld,3.3.3,0,s,NA,NA,s,NA,s,429,NA,NA,17977,NA,429,2,legacy,1024,2,48000,-16,experiment,2,even,NA,75504,84425,86075,20867,NA,2885,NA,NA,85541,NA,2889,NA,85644,85540,85644,Flanker Test,33,17940,38,yes,1024
HHHHH,87.17948718,87.17948718,474.1282051,474.1282051,black,legacy,legacy,legacy,0,congruent,uniform,1,undefined,1,h,0,38,38,38,0,0,0,38,0,38,0,0,0,38,38,38,Sat Sep 19 00:32:55 2020,1500,The main experiment item,yes,FlankerTask.osexp,C:\Users\Owner\Documents,no,mono,no,18,no,white,no,yes,768,legacy,38,38,C:/Users/Owner/Documents/SMPsubject-2.csv,legacy,Lentiform Loewenfeld,3.3.3,0,h,NA,NA,s,NA,h,551,NA,NA,17977,NA,551,2,legacy,1024,2,48000,-16,experiment,2,even,NA,75504,86078,87836,20867,NA,2885,NA,NA,87182,NA,2889,NA,87284,87181,87284,Flanker Test,34,18491,39,yes,1024
SSSSS,87.5,87.5,471.225,471.225,black,legacy,legacy,legacy,0,congruent,uniform,1,undefined,1,s,0,39,39,39,0,0,0,39,0,39,0,0,0,39,39,39,Sat Sep 19 00:32:55 2020,1500,The main experiment item,yes,FlankerTask.osexp,C:\Users\Owner\Documents,no,mono,no,18,no,white,no,yes,768,legacy,39,39,C:/Users/Owner/Documents/SMPsubject-2.csv,legacy,Lentiform Loewenfeld,3.3.3,0,s,NA,NA,s,NA,s,358,NA,NA,17977,NA,358,2,legacy,1024,2,48000,-16,experiment,2,even,NA,75504,87842,89406,20867,NA,2885,NA,NA,88944,NA,2889,NA,89047,88942,89047,Flanker Test,35,18849,40,yes,1024
SSSSS,87.80487805,87.80487805,470.4146341,470.4146341,black,legacy,legacy,legacy,0,congruent,uniform,1,undefined,1,s,0,40,40,40,0,0,0,40,0,40,0,0,0,40,40,40,Sat Sep 19 00:32:55 2020,1500,The main experiment item,yes,FlankerTask.osexp,C:\Users\Owner\Documents,no,mono,no,18,no,white,no,yes,768,legacy,40,40,C:/Users/Owner/Documents/SMPsubject-2.csv,legacy,Lentiform Loewenfeld,3.3.3,0,s,NA,NA,s,NA,s,438,NA,NA,17977,NA,438,2,legacy,1024,2,48000,-16,experiment,2,even,NA,75504,89412,91058,20867,NA,2885,NA,NA,90516,NA,2889,NA,90619,90514,90619,Flanker Test,36,19287,41,yes,1024
SSSSS,88.0952381,88.0952381,469.5238095,469.5238095,black,legacy,legacy,legacy,0,congruent,uniform,1,undefined,1,s,0,41,41,41,0,0,0,41,0,41,0,0,0,41,41,41,Sat Sep 19 00:32:55 2020,1500,The main experiment item,yes,FlankerTask.osexp,C:\Users\Owner\Documents,no,mono,no,18,no,white,no,yes,768,legacy,41,41,C:/Users/Owner/Documents/SMPsubject-2.csv,legacy,Lentiform Loewenfeld,3.3.3,0,s,NA,NA,s,NA,s,433,NA,NA,17977,NA,433,2,legacy,1024,2,48000,-16,experiment,2,even,NA,75504,91062,92701,20867,NA,2885,NA,NA,92165,NA,2889,NA,92268,92164,92268,Flanker Test,37,19720,42,yes,1024
HHSHH,88.37209302,88.37209302,468.1627907,468.1627907,black,legacy,legacy,legacy,0,incongruent,uniform,1,undefined,1,s,0,42,42,42,0,0,0,42,0,42,0,0,0,42,42,42,Sat Sep 19 00:32:55 2020,1500,The main experiment item,yes,FlankerTask.osexp,C:\Users\Owner\Documents,no,mono,no,18,no,white,no,yes,768,legacy,42,42,C:/Users/Owner/Documents/SMPsubject-2.csv,legacy,Lentiform Loewenfeld,3.3.3,0,s,NA,NA,s,NA,s,411,NA,NA,17977,NA,411,2,legacy,1024,2,48000,-16,experiment,2,even,NA,75504,92705,94285,20867,NA,2885,NA,NA,93769,NA,2889,NA,93873,93767,93873,Flanker Test,38,20131,43,yes,1024
SSHSS,88.63636364,88.63636364,470.4545455,470.4545455,black,legacy,legacy,legacy,0,incongruent,uniform,1,undefined,1,h,0,43,43,43,0,0,0,43,0,43,0,0,0,43,43,43,Sat Sep 19 00:32:55 2020,1500,The main experiment item,yes,FlankerTask.osexp,C:\Users\Owner\Documents,no,mono,no,18,no,white,no,yes,768,legacy,43,43,C:/Users/Owner/Documents/SMPsubject-2.csv,legacy,Lentiform Loewenfeld,3.3.3,0,h,NA,NA,s,NA,h,569,NA,NA,17977,NA,569,2,legacy,1024,2,48000,-16,experiment,2,even,NA,75504,94289,96066,20867,NA,2885,NA,NA,95393,NA,2889,NA,95496,95391,95496,Flanker Test,39,20700,44,yes,1024
HHSHH,88.88888889,88.88888889,468.6222222,468.6222222,black,legacy,legacy,legacy,0,incongruent,uniform,1,undefined,1,s,0,44,44,44,0,0,0,44,0,44,0,0,0,44,44,44,Sat Sep 19 00:32:55 2020,1500,The main experiment item,yes,FlankerTask.osexp,C:\Users\Owner\Documents,no,mono,no,18,no,white,no,yes,768,legacy,44,44,C:/Users/Owner/Documents/SMPsubject-2.csv,legacy,Lentiform Loewenfeld,3.3.3,0,s,NA,NA,s,NA,s,388,NA,NA,17977,NA,388,2,legacy,1024,2,48000,-16,experiment,2,even,NA,75504,96070,97667,20867,NA,2885,NA,NA,97174,NA,2889,NA,97277,97172,97277,Flanker Test,40,21088,45,yes,1024
HHHHH,89.13043478,89.13043478,468.1521739,468.1521739,black,legacy,legacy,legacy,0,congruent,uniform,1,undefined,1,h,0,45,45,45,0,0,0,45,0,45,0,0,0,45,45,45,Sat Sep 19 00:32:55 2020,1500,The main experiment item,yes,FlankerTask.osexp,C:\Users\Owner\Documents,no,mono,no,18,no,white,no,yes,768,legacy,45,45,C:/Users/Owner/Documents/SMPsubject-2.csv,legacy,Lentiform Loewenfeld,3.3.3,0,h,NA,NA,s,NA,h,447,NA,NA,17977,NA,447,2,legacy,1024,2,48000,-16,experiment,2,even,NA,75504,97670,99321,20867,NA,2885,NA,NA,98770,NA,2889,NA,98873,98768,98873,Flanker Test,41,21535,46,yes,1024
SSSSS,89.36170213,89.36170213,467.3829787,467.3829787,black,legacy,legacy,legacy,0,congruent,uniform,1,undefined,1,s,0,46,46,46,0,0,0,46,0,46,0,0,0,46,46,46,Sat Sep 19 00:32:55 2020,1500,The main experiment item,yes,FlankerTask.osexp,C:\Users\Owner\Documents,no,mono,no,18,no,white,no,yes,768,legacy,46,46,C:/Users/Owner/Documents/SMPsubject-2.csv,legacy,Lentiform Loewenfeld,3.3.3,0,s,NA,NA,s,NA,s,432,NA,NA,17977,NA,432,2,legacy,1024,2,48000,-16,experiment,2,even,NA,75504,99327,100920,20867,NA,2885,NA,NA,100383,NA,2889,NA,100487,100382,100487,Flanker Test,42,21967,47,yes,1024
HHHHH,89.58333333,89.58333333,465.7083333,465.7083333,black,legacy,legacy,legacy,0,congruent,uniform,1,undefined,1,h,0,47,47,47,0,0,0,47,0,47,0,0,0,47,47,47,Sat Sep 19 00:32:55 2020,1500,The main experiment item,yes,FlankerTask.osexp,C:\Users\Owner\Documents,no,mono,no,18,no,white,no,yes,768,legacy,47,47,C:/Users/Owner/Documents/SMPsubject-2.csv,legacy,Lentiform Loewenfeld,3.3.3,0,h,NA,NA,s,NA,h,387,NA,NA,17977,NA,387,2,legacy,1024,2,48000,-16,experiment,2,even,NA,75504,100923,102532,20867,NA,2885,NA,NA,102042,NA,2889,NA,102145,102040,102145,Flanker Test,43,22354,48,yes,1024
HHHHH,89.79591837,89.79591837,464.7142857,464.7142857,black,legacy,legacy,legacy,0,congruent,uniform,1,undefined,1,h,0,48,48,48,0,0,0,48,0,48,0,0,0,48,48,48,Sat Sep 19 00:32:55 2020,1500,The main experiment item,yes,FlankerTask.osexp,C:\Users\Owner\Documents,no,mono,no,18,no,white,no,yes,768,legacy,48,48,C:/Users/Owner/Documents/SMPsubject-2.csv,legacy,Lentiform Loewenfeld,3.3.3,0,h,NA,NA,s,NA,h,417,NA,NA,17977,NA,417,2,legacy,1024,2,48000,-16,experiment,2,even,NA,75504,102536,104163,20867,NA,2885,NA,NA,103642,NA,2889,NA,103745,103640,103745,Flanker Test,44,22771,49,yes,1024
HHHHH,90,90,463.48,463.48,black,legacy,legacy,legacy,0,congruent,uniform,1,undefined,1,h,0,49,49,49,0,0,0,49,0,49,0,0,0,49,49,49,Sat Sep 19 00:32:55 2020,1500,The main experiment item,yes,FlankerTask.osexp,C:\Users\Owner\Documents,no,mono,no,18,no,white,no,yes,768,legacy,49,49,C:/Users/Owner/Documents/SMPsubject-2.csv,legacy,Lentiform Loewenfeld,3.3.3,0,h,NA,NA,s,NA,h,403,NA,NA,17977,NA,403,2,legacy,1024,2,48000,-16,experiment,2,even,NA,75504,104166,105788,20867,NA,2885,NA,NA,105281,NA,2889,NA,105384,105279,105384,Flanker Test,45,23174,50,yes,1024
SSHSS,90.19607843,90.19607843,466.3921569,466.3921569,black,legacy,legacy,legacy,0,incongruent,uniform,1,undefined,1,h,0,50,50,50,0,0,0,50,0,50,0,0,0,50,50,50,Sat Sep 19 00:32:55 2020,1500,The main experiment item,yes,FlankerTask.osexp,C:\Users\Owner\Documents,no,mono,no,18,no,white,no,yes,768,legacy,50,50,C:/Users/Owner/Documents/SMPsubject-2.csv,legacy,Lentiform Loewenfeld,3.3.3,0,h,NA,NA,s,NA,h,612,NA,NA,17977,NA,612,2,legacy,1024,2,48000,-16,experiment,2,even,NA,75504,105790,107614,20867,NA,2885,NA,NA,106897,NA,2889,NA,107000,106896,107000,Flanker Test,46,23786,51,yes,1024
HHSHH,90.38461538,90.38461538,465.2115385,465.2115385,black,legacy,legacy,legacy,0,incongruent,uniform,1,undefined,1,s,0,51,51,51,0,0,0,51,0,51,0,0,0,51,51,51,Sat Sep 19 00:32:55 2020,1500,The main experiment item,yes,FlankerTask.osexp,C:\Users\Owner\Documents,no,mono,no,18,no,white,no,yes,768,legacy,51,51,C:/Users/Owner/Documents/SMPsubject-2.csv,legacy,Lentiform Loewenfeld,3.3.3,0,s,NA,NA,s,NA,s,405,NA,NA,17977,NA,405,2,legacy,1024,2,48000,-16,experiment,2,even,NA,75504,107618,109183,20867,NA,2885,NA,NA,108673,NA,2889,NA,108777,108672,108777,Flanker Test,47,24191,52,yes,1024
HHSHH,90.56603774,90.56603774,464.4339623,464.4339623,black,legacy,legacy,legacy,0,incongruent,uniform,1,undefined,1,s,0,52,52,52,0,0,0,52,0,52,0,0,0,52,52,52,Sat Sep 19 00:32:55 2020,1500,The main experiment item,yes,FlankerTask.osexp,C:\Users\Owner\Documents,no,mono,no,18,no,white,no,yes,768,legacy,52,52,C:/Users/Owner/Documents/SMPsubject-2.csv,legacy,Lentiform Loewenfeld,3.3.3,0,s,NA,NA,s,NA,s,424,NA,NA,17977,NA,424,2,legacy,1024,2,48000,-16,experiment,2,even,NA,75504,109187,110816,20867,NA,2885,NA,NA,110289,NA,2889,NA,110391,110287,110390,Flanker Test,48,24615,53,yes,1024
SSSSS,90.74074074,90.74074074,463.5,463.5,black,legacy,legacy,legacy,0,congruent,uniform,1,undefined,1,s,0,53,53,53,0,0,0,53,0,53,0,0,0,53,53,53,Sat Sep 19 00:32:55 2020,1500,The main experiment item,yes,FlankerTask.osexp,C:\Users\Owner\Documents,no,mono,no,18,no,white,no,yes,768,legacy,53,53,C:/Users/Owner/Documents/SMPsubject-2.csv,legacy,Lentiform Loewenfeld,3.3.3,0,s,NA,NA,s,NA,s,414,NA,NA,17977,NA,414,2,legacy,1024,2,48000,-16,experiment,2,even,NA,75504,110819,112396,20867,NA,2885,NA,NA,111876,NA,2889,NA,111980,111874,111980,Flanker Test,49,25029,54,yes,1024
HHHHH,90.90909091,90.90909091,462.3454545,462.3454545,black,legacy,legacy,legacy,0,congruent,uniform,1,undefined,1,h,0,54,54,54,0,0,0,54,0,54,0,0,0,54,54,54,Sat Sep 19 00:32:55 2020,1500,The main experiment item,yes,FlankerTask.osexp,C:\Users\Owner\Documents,no,mono,no,18,no,white,no,yes,768,legacy,54,54,C:/Users/Owner/Documents/SMPsubject-2.csv,legacy,Lentiform Loewenfeld,3.3.3,0,h,NA,NA,s,NA,h,400,NA,NA,17977,NA,400,2,legacy,1024,2,48000,-16,experiment,2,even,NA,75504,112399,114012,20867,NA,2885,NA,NA,113508,NA,2889,NA,113611,113507,113610,Flanker Test,50,25429,55,yes,1024
SSSSS,91.07142857,91.07142857,461.3928571,461.3928571,black,legacy,legacy,legacy,0,congruent,uniform,1,undefined,1,s,0,55,55,55,0,0,0,55,0,55,0,0,0,55,55,55,Sat Sep 19 00:32:55 2020,1500,The main experiment item,yes,FlankerTask.osexp,C:\Users\Owner\Documents,no,mono,no,18,no,white,no,yes,768,legacy,55,55,C:/Users/Owner/Documents/SMPsubject-2.csv,legacy,Lentiform Loewenfeld,3.3.3,0,s,NA,NA,s,NA,s,409,NA,NA,17977,NA,409,2,legacy,1024,2,48000,-16,experiment,2,even,NA,75504,114016,115633,20867,NA,2885,NA,NA,115121,NA,2889,NA,115223,115120,115223,Flanker Test,51,25838,56,yes,1024
SSHSS,91.22807018,91.22807018,460.245614,460.245614,black,legacy,legacy,legacy,0,incongruent,uniform,1,undefined,1,h,0,56,56,56,0,0,0,56,0,56,0,0,0,56,56,56,Sat Sep 19 00:32:55 2020,1500,The main experiment item,yes,FlankerTask.osexp,C:\Users\Owner\Documents,no,mono,no,18,no,white,no,yes,768,legacy,56,56,C:/Users/Owner/Documents/SMPsubject-2.csv,legacy,Lentiform Loewenfeld,3.3.3,0,h,NA,NA,s,NA,h,396,NA,NA,17977,NA,396,2,legacy,1024,2,48000,-16,experiment,2,even,NA,75504,115637,117240,20867,NA,2885,NA,NA,116740,NA,2889,NA,116843,116739,116843,Flanker Test,52,26234,57,yes,1024
SSSSS,91.37931034,91.37931034,459.6034483,459.6034483,black,legacy,legacy,legacy,0,congruent,uniform,1,undefined,1,s,0,57,57,57,0,0,0,57,0,57,0,0,0,57,57,57,Sat Sep 19 00:32:55 2020,1500,The main experiment item,yes,FlankerTask.osexp,C:\Users\Owner\Documents,no,mono,no,18,no,white,no,yes,768,legacy,57,57,C:/Users/Owner/Documents/SMPsubject-2.csv,legacy,Lentiform Loewenfeld,3.3.3,0,s,NA,NA,s,NA,s,423,NA,NA,17977,NA,423,2,legacy,1024,2,48000,-16,experiment,2,even,NA,75504,117244,118878,20867,NA,2885,NA,NA,118349,NA,2889,NA,118453,118348,118453,Flanker Test,53,26657,58,yes,1024
SSHSS,91.52542373,91.52542373,460.3389831,460.3389831,black,legacy,legacy,legacy,0,incongruent,uniform,1,undefined,1,h,0,58,58,58,0,0,0,58,0,58,0,0,0,58,58,58,Sat Sep 19 00:32:55 2020,1500,The main experiment item,yes,FlankerTask.osexp,C:\Users\Owner\Documents,no,mono,no,18,no,white,no,yes,768,legacy,58,58,C:/Users/Owner/Documents/SMPsubject-2.csv,legacy,Lentiform Loewenfeld,3.3.3,0,h,NA,NA,s,NA,h,503,NA,NA,17977,NA,503,2,legacy,1024,2,48000,-16,experiment,2,even,NA,75504,118881,120601,20867,NA,2885,NA,NA,119995,NA,2889,NA,120097,119994,120097,Flanker Test,54,27160,59,yes,1024
HHHHH,91.66666667,91.66666667,459.4833333,459.4833333,black,legacy,legacy,legacy,0,congruent,uniform,1,undefined,1,h,0,59,59,59,0,0,0,59,0,59,0,0,0,59,59,59,Sat Sep 19 00:32:55 2020,1500,The main experiment item,yes,FlankerTask.osexp,C:\Users\Owner\Documents,no,mono,no,18,no,white,no,yes,768,legacy,59,59,C:/Users/Owner/Documents/SMPsubject-2.csv,legacy,Lentiform Loewenfeld,3.3.3,0,h,NA,NA,s,NA,h,409,NA,NA,17977,NA,409,2,legacy,1024,2,48000,-16,experiment,2,even,NA,75504,120605,122224,20867,NA,2885,NA,NA,121711,NA,2889,NA,121814,121710,121814,Flanker Test,55,27569,60,yes,1024
SSSSS,91.80327869,91.80327869,458.442623,458.442623,black,legacy,legacy,legacy,0,congruent,uniform,1,undefined,1,s,0,60,60,60,0,0,0,60,0,60,0,0,0,60,60,60,Sat Sep 19 00:32:55 2020,1500,The main experiment item,yes,FlankerTask.osexp,C:\Users\Owner\Documents,no,mono,no,18,no,white,no,yes,768,legacy,60,60,C:/Users/Owner/Documents/SMPsubject-2.csv,legacy,Lentiform Loewenfeld,3.3.3,0,s,NA,NA,s,NA,s,396,NA,NA,17977,NA,396,2,legacy,1024,2,48000,-16,experiment,2,even,NA,75504,122228,123830,20867,NA,2885,NA,NA,123331,NA,2889,NA,123432,123330,123432,Flanker Test,56,27965,61,yes,1024
SSHSS,91.93548387,91.93548387,459.3387097,459.3387097,black,legacy,legacy,legacy,0,incongruent,uniform,1,undefined,1,h,0,61,61,61,0,0,0,61,0,61,0,0,0,61,61,61,Sat Sep 19 00:32:55 2020,1500,The main experiment item,yes,FlankerTask.osexp,C:\Users\Owner\Documents,no,mono,no,18,no,white,no,yes,768,legacy,61,61,C:/Users/Owner/Documents/SMPsubject-2.csv,legacy,Lentiform Loewenfeld,3.3.3,0,h,NA,NA,s,NA,h,514,NA,NA,17977,NA,514,2,legacy,1024,2,48000,-16,experiment,2,even,NA,75504,123834,125563,20867,NA,2885,NA,NA,124943,NA,2889,NA,125047,124941,125047,Flanker Test,57,28479,62,yes,1024
SSHSS,92.06349206,92.06349206,459.984127,459.984127,black,legacy,legacy,legacy,0,incongruent,uniform,1,undefined,1,h,0,62,62,62,0,0,0,62,0,62,0,0,0,62,62,62,Sat Sep 19 00:32:55 2020,1500,The main experiment item,yes,FlankerTask.osexp,C:\Users\Owner\Documents,no,mono,no,18,no,white,no,yes,768,legacy,62,62,C:/Users/Owner/Documents/SMPsubject-2.csv,legacy,Lentiform Loewenfeld,3.3.3,0,h,NA,NA,s,NA,h,500,NA,NA,17977,NA,500,2,legacy,1024,2,48000,-16,experiment,2,even,NA,75504,125566,127234,20867,NA,2885,NA,NA,126628,NA,2889,NA,126732,126626,126732,Flanker Test,58,28979,63,yes,1024
SSSSS,92.1875,92.1875,460.015625,460.015625,black,legacy,legacy,legacy,0,congruent,uniform,1,undefined,1,s,0,63,63,63,0,0,0,63,0,63,0,0,0,63,63,63,Sat Sep 19 00:32:55 2020,1500,The main experiment item,yes,FlankerTask.osexp,C:\Users\Owner\Documents,no,mono,no,18,no,white,no,yes,768,legacy,63,63,C:/Users/Owner/Documents/SMPsubject-2.csv,legacy,Lentiform Loewenfeld,3.3.3,0,s,NA,NA,s,NA,s,462,NA,NA,17977,NA,462,2,legacy,1024,2,48000,-16,experiment,2,even,NA,75504,127237,128910,20867,NA,2885,NA,NA,128343,NA,2889,NA,128446,128341,128446,Flanker Test,59,29441,64,yes,1024
HHSHH,92.30769231,92.30769231,460.4615385,460.4615385,black,legacy,legacy,legacy,0,incongruent,uniform,1,undefined,1,s,0,64,64,64,0,0,0,64,0,64,0,0,0,64,64,64,Sat Sep 19 00:32:55 2020,1500,The main experiment item,yes,FlankerTask.osexp,C:\Users\Owner\Documents,no,mono,no,18,no,white,no,yes,768,legacy,64,64,C:/Users/Owner/Documents/SMPsubject-2.csv,legacy,Lentiform Loewenfeld,3.3.3,0,s,NA,NA,s,NA,s,489,NA,NA,17977,NA,489,2,legacy,1024,2,48000,-16,experiment,2,even,NA,75504,128913,130611,20867,NA,2885,NA,NA,130018,NA,2889,NA,130121,130017,130121,Flanker Test,60,29930,65,yes,1024
SSSSS,92.42424242,92.42424242,460.2272727,460.2272727,black,legacy,legacy,legacy,0,congruent,uniform,1,undefined,1,s,0,65,65,65,0,0,0,65,0,65,0,0,0,65,65,65,Sat Sep 19 00:32:55 2020,1500,The main experiment item,yes,FlankerTask.osexp,C:\Users\Owner\Documents,no,mono,no,18,no,white,no,yes,768,legacy,65,65,C:/Users/Owner/Documents/SMPsubject-2.csv,legacy,Lentiform Loewenfeld,3.3.3,0,s,NA,NA,s,NA,s,445,NA,NA,17977,NA,445,2,legacy,1024,2,48000,-16,experiment,2,even,NA,75504,130614,132283,20867,NA,2885,NA,NA,131734,NA,2889,NA,131836,131733,131836,Flanker Test,61,30375,66,yes,1024
HHSHH,92.53731343,92.53731343,462.9701493,462.9701493,black,legacy,legacy,legacy,0,incongruent,uniform,1,undefined,1,s,0,66,66,66,0,0,0,66,0,66,0,0,0,66,66,66,Sat Sep 19 00:32:55 2020,1500,The main experiment item,yes,FlankerTask.osexp,C:\Users\Owner\Documents,no,mono,no,18,no,white,no,yes,768,legacy,66,66,C:/Users/Owner/Documents/SMPsubject-2.csv,legacy,Lentiform Loewenfeld,3.3.3,0,s,NA,NA,s,NA,s,644,NA,NA,17977,NA,644,2,legacy,1024,2,48000,-16,experiment,2,even,NA,75504,132286,134142,20867,NA,2885,NA,NA,133394,NA,2889,NA,133497,133393,133497,Flanker Test,62,31019,67,yes,1024
HHHHH,92.64705882,92.64705882,463.0588235,463.0588235,black,legacy,legacy,legacy,0,congruent,uniform,1,undefined,1,h,0,67,67,67,0,0,0,67,0,67,0,0,0,67,67,67,Sat Sep 19 00:32:55 2020,1500,The main experiment item,yes,FlankerTask.osexp,C:\Users\Owner\Documents,no,mono,no,18,no,white,no,yes,768,legacy,67,67,C:/Users/Owner/Documents/SMPsubject-2.csv,legacy,Lentiform Loewenfeld,3.3.3,0,h,NA,NA,s,NA,h,469,NA,NA,17977,NA,469,2,legacy,1024,2,48000,-16,experiment,2,even,NA,75504,134146,135795,20867,NA,2885,NA,NA,135222,NA,2889,NA,135325,135220,135325,Flanker Test,63,31488,68,yes,1024
HHHHH,92.75362319,92.75362319,463.942029,463.942029,black,legacy,legacy,legacy,0,congruent,uniform,1,undefined,1,h,0,68,68,68,0,0,0,68,0,68,0,0,0,68,68,68,Sat Sep 19 00:32:55 2020,1500,The main experiment item,yes,FlankerTask.osexp,C:\Users\Owner\Documents,no,mono,no,18,no,white,no,yes,768,legacy,68,68,C:/Users/Owner/Documents/SMPsubject-2.csv,legacy,Lentiform Loewenfeld,3.3.3,0,h,NA,NA,s,NA,h,524,NA,NA,17977,NA,524,2,legacy,1024,2,48000,-16,experiment,2,even,NA,75504,135799,137533,20867,NA,2885,NA,NA,136907,NA,2889,NA,137009,136905,137009,Flanker Test,64,32012,69,yes,1024
SSHSS,92.85714286,92.85714286,465.3,465.3,black,legacy,legacy,legacy,0,incongruent,uniform,1,undefined,1,h,0,69,69,69,0,0,0,69,0,69,0,0,0,69,69,69,Sat Sep 19 00:32:55 2020,1500,The main experiment item,yes,FlankerTask.osexp,C:\Users\Owner\Documents,no,mono,no,18,no,white,no,yes,768,legacy,69,69,C:/Users/Owner/Documents/SMPsubject-2.csv,legacy,Lentiform Loewenfeld,3.3.3,0,h,NA,NA,s,NA,h,559,NA,NA,17977,NA,559,2,legacy,1024,2,48000,-16,experiment,2,even,NA,75504,137537,139302,20867,NA,2885,NA,NA,138639,NA,2889,NA,138742,138637,138742,Flanker Test,65,32571,70,yes,1024
SSHSS,91.54929577,91.54929577,464.3661972,464.3661972,black,legacy,legacy,legacy,0,incongruent,uniform,0,undefined,0,h,0,70,70,70,0,0,0,70,0,70,0,0,0,70,70,70,Sat Sep 19 00:32:55 2020,1500,The main experiment item,yes,FlankerTask.osexp,C:\Users\Owner\Documents,no,mono,no,18,no,white,no,yes,768,legacy,70,70,C:/Users/Owner/Documents/SMPsubject-2.csv,legacy,Lentiform Loewenfeld,3.3.3,0,s,NA,NA,s,NA,s,399,NA,NA,17977,NA,399,2,legacy,1024,2,48000,-16,experiment,2,even,NA,75504,139306,140903,20867,NA,2885,NA,NA,140398,NA,2889,NA,140502,140396,140502,Flanker Test,65,32970,71,yes,1024
SSHSS,90.27777778,90.27777778,463.75,463.75,black,legacy,legacy,legacy,0,incongruent,uniform,0,undefined,0,h,0,71,71,71,0,0,0,71,0,71,0,0,0,71,71,71,Sat Sep 19 00:32:55 2020,1500,The main experiment item,yes,FlankerTask.osexp,C:\Users\Owner\Documents,no,mono,no,18,no,white,no,yes,768,legacy,71,71,C:/Users/Owner/Documents/SMPsubject-2.csv,legacy,Lentiform Loewenfeld,3.3.3,0,s,NA,NA,s,NA,s,420,NA,NA,17977,NA,420,2,legacy,1024,2,48000,-16,experiment,2,even,NA,140911,141415,143017,20867,NA,2885,NA,NA,142493,NA,2889,NA,142596,142491,142596,Flanker Test,65,33390,72,yes,1024
HHSHH,90.4109589,90.4109589,465.2328767,465.2328767,black,legacy,legacy,legacy,0,incongruent,uniform,1,undefined,1,s,0,72,72,72,0,0,0,72,0,72,0,0,0,72,72,72,Sat Sep 19 00:32:55 2020,1500,The main experiment item,yes,FlankerTask.osexp,C:\Users\Owner\Documents,no,mono,no,18,no,white,no,yes,768,legacy,72,72,C:/Users/Owner/Documents/SMPsubject-2.csv,legacy,Lentiform Loewenfeld,3.3.3,0,s,NA,NA,s,NA,s,572,NA,NA,17977,NA,572,2,legacy,1024,2,48000,-16,experiment,2,even,NA,143022,143527,145307,20867,NA,2885,NA,NA,144632,NA,2889,NA,144734,144631,144734,Flanker Test,66,33962,73,yes,1024
HHHHH,90.54054054,90.54054054,464.1216216,464.1216216,black,legacy,legacy,legacy,0,congruent,uniform,1,undefined,1,h,0,73,73,73,0,0,0,73,0,73,0,0,0,73,73,73,Sat Sep 19 00:32:55 2020,1500,The main experiment item,yes,FlankerTask.osexp,C:\Users\Owner\Documents,no,mono,no,18,no,white,no,yes,768,legacy,73,73,C:/Users/Owner/Documents/SMPsubject-2.csv,legacy,Lentiform Loewenfeld,3.3.3,0,h,NA,NA,s,NA,h,383,NA,NA,17977,NA,383,2,legacy,1024,2,48000,-16,experiment,2,even,NA,143022,145311,146899,20867,NA,2885,NA,NA,146411,NA,2889,NA,146515,146409,146515,Flanker Test,67,34345,74,yes,1024
HHSHH,90.66666667,90.66666667,463.6266667,463.6266667,black,legacy,legacy,legacy,0,incongruent,uniform,1,undefined,1,s,0,74,74,74,0,0,0,74,0,74,0,0,0,74,74,74,Sat Sep 19 00:32:55 2020,1500,The main experiment item,yes,FlankerTask.osexp,C:\Users\Owner\Documents,no,mono,no,18,no,white,no,yes,768,legacy,74,74,C:/Users/Owner/Documents/SMPsubject-2.csv,legacy,Lentiform Loewenfeld,3.3.3,0,s,NA,NA,s,NA,s,427,NA,NA,17977,NA,427,2,legacy,1024,2,48000,-16,experiment,2,even,NA,143022,146902,148540,20867,NA,2885,NA,NA,148009,NA,2889,NA,148112,148007,148112,Flanker Test,68,34772,75,yes,1024
SSSSS,90.78947368,90.78947368,463.2368421,463.2368421,black,legacy,legacy,legacy,0,congruent,uniform,1,undefined,1,s,0,75,75,75,0,0,0,75,0,75,0,0,0,75,75,75,Sat Sep 19 00:32:55 2020,1500,The main experiment item,yes,FlankerTask.osexp,C:\Users\Owner\Documents,no,mono,no,18,no,white,no,yes,768,legacy,75,75,C:/Users/Owner/Documents/SMPsubject-2.csv,legacy,Lentiform Loewenfeld,3.3.3,0,s,NA,NA,s,NA,s,434,NA,NA,17977,NA,434,2,legacy,1024,2,48000,-16,experiment,2,even,NA,143022,148543,150187,20867,NA,2885,NA,NA,149649,NA,2889,NA,149752,149647,149752,Flanker Test,69,35206,76,yes,1024
HHSHH,90.90909091,90.90909091,463.0909091,463.0909091,black,legacy,legacy,legacy,0,incongruent,uniform,1,undefined,1,s,0,76,76,76,0,0,0,76,0,76,0,0,0,76,76,76,Sat Sep 19 00:32:55 2020,1500,The main experiment item,yes,FlankerTask.osexp,C:\Users\Owner\Documents,no,mono,no,18,no,white,no,yes,768,legacy,76,76,C:/Users/Owner/Documents/SMPsubject-2.csv,legacy,Lentiform Loewenfeld,3.3.3,0,s,NA,NA,s,NA,s,452,NA,NA,17977,NA,452,2,legacy,1024,2,48000,-16,experiment,2,even,NA,143022,150190,151853,20867,NA,2885,NA,NA,151297,NA,2889,NA,151400,151295,151400,Flanker Test,70,35658,77,yes,1024
SSHSS,91.02564103,91.02564103,463.474359,463.474359,black,legacy,legacy,legacy,0,incongruent,uniform,1,undefined,1,h,0,77,77,77,0,0,0,77,0,77,0,0,0,77,77,77,Sat Sep 19 00:32:55 2020,1500,The main experiment item,yes,FlankerTask.osexp,C:\Users\Owner\Documents,no,mono,no,18,no,white,no,yes,768,legacy,77,77,C:/Users/Owner/Documents/SMPsubject-2.csv,legacy,Lentiform Loewenfeld,3.3.3,0,h,NA,NA,s,NA,h,493,NA,NA,17977,NA,493,2,legacy,1024,2,48000,-16,experiment,2,even,NA,143022,151856,153554,20867,NA,2885,NA,NA,152957,NA,2889,NA,153060,152956,153060,Flanker Test,71,36151,78,yes,1024
SSHSS,91.13924051,91.13924051,463.278481,463.278481,black,legacy,legacy,legacy,0,incongruent,uniform,1,undefined,1,h,0,78,78,78,0,0,0,78,0,78,0,0,0,78,78,78,Sat Sep 19 00:32:55 2020,1500,The main experiment item,yes,FlankerTask.osexp,C:\Users\Owner\Documents,no,mono,no,18,no,white,no,yes,768,legacy,78,78,C:/Users/Owner/Documents/SMPsubject-2.csv,legacy,Lentiform Loewenfeld,3.3.3,0,h,NA,NA,s,NA,h,448,NA,NA,17977,NA,448,2,legacy,1024,2,48000,-16,experiment,2,even,NA,143022,153557,155214,20867,NA,2885,NA,NA,154662,NA,2889,NA,154765,154660,154765,Flanker Test,72,36599,79,yes,1024
HHSHH,91.25,91.25,464.725,464.725,black,legacy,legacy,legacy,0,incongruent,uniform,1,undefined,1,s,0,79,79,79,0,0,0,79,0,79,0,0,0,79,79,79,Sat Sep 19 00:32:55 2020,1500,The main experiment item,yes,FlankerTask.osexp,C:\Users\Owner\Documents,no,mono,no,18,no,white,no,yes,768,legacy,79,79,C:/Users/Owner/Documents/SMPsubject-2.csv,legacy,Lentiform Loewenfeld,3.3.3,0,s,NA,NA,s,NA,s,579,NA,NA,17977,NA,579,2,legacy,1024,2,48000,-16,experiment,2,even,NA,143022,155218,157003,20867,NA,2885,NA,NA,156319,NA,2889,NA,156422,156318,156422,Flanker Test,73,37178,80,yes,1024
HHHHH,91.35802469,91.35802469,464.9506173,464.9506173,black,legacy,legacy,legacy,0,congruent,uniform,1,undefined,1,h,0,80,80,80,0,0,0,80,0,80,0,0,0,80,80,80,Sat Sep 19 00:32:55 2020,600,The main experiment item,yes,FlankerTask.osexp,C:\Users\Owner\Documents,no,mono,no,18,no,white,no,yes,768,legacy,0,79,C:/Users/Owner/Documents/SMPsubject-2.csv,legacy,Lentiform Loewenfeld,3.3.3,0,h,NA,h,s,NA,h,483,NA,3329,17977,NA,483,2,legacy,1024,2,48000,-16,experiment,2,even,NA,143022,157006,162012,20867,161382,2885,NA,NA,161423,158052,2889,NA,161527,161422,161526,Flanker Test,74,37661,81,yes,1024
SSSSS,91.46341463,91.46341463,466.5609756,466.5609756,black,legacy,legacy,legacy,0,congruent,uniform,1,undefined,1,s,0,81,81,81,0,0,0,81,0,81,0,0,0,81,81,81,Sat Sep 19 00:32:55 2020,600,The main experiment item,yes,FlankerTask.osexp,C:\Users\Owner\Documents,no,mono,no,18,no,white,no,yes,768,legacy,1,79,C:/Users/Owner/Documents/SMPsubject-2.csv,legacy,Lentiform Loewenfeld,3.3.3,0,s,NA,h,s,NA,s,597,NA,3329,17977,NA,597,2,legacy,1024,2,48000,-16,experiment,2,even,NA,143022,162015,163839,20867,161382,2885,NA,NA,163137,158052,2889,NA,163240,163135,163240,Flanker Test,75,38258,82,yes,1024
HHHHH,91.56626506,91.56626506,466.3614458,466.3614458,black,legacy,legacy,legacy,0,congruent,uniform,1,undefined,1,h,0,82,82,82,0,0,0,82,0,82,0,0,0,82,82,82,Sat Sep 19 00:32:55 2020,600,The main experiment item,yes,FlankerTask.osexp,C:\Users\Owner\Documents,no,mono,no,18,no,white,no,yes,768,legacy,2,79,C:/Users/Owner/Documents/SMPsubject-2.csv,legacy,Lentiform Loewenfeld,3.3.3,0,h,NA,h,s,NA,h,450,NA,3329,17977,NA,450,2,legacy,1024,2,48000,-16,experiment,2,even,NA,143022,163845,165503,20867,161382,2885,NA,NA,164949,158052,2889,NA,165052,164947,165052,Flanker Test,76,38708,83,yes,1024
HHHHH,91.66666667,91.66666667,465.9047619,465.9047619,black,legacy,legacy,legacy,0,congruent,uniform,1,undefined,1,h,0,83,83,83,0,0,0,83,0,83,0,0,0,83,83,83,Sat Sep 19 00:32:55 2020,600,The main experiment item,yes,FlankerTask.osexp,C:\Users\Owner\Documents,no,mono,no,18,no,white,no,yes,768,legacy,3,79,C:/Users/Owner/Documents/SMPsubject-2.csv,legacy,Lentiform Loewenfeld,3.3.3,0,h,NA,h,s,NA,h,428,NA,3329,17977,NA,428,2,legacy,1024,2,48000,-16,experiment,2,even,NA,143022,165507,167094,20867,161382,2885,NA,NA,166561,158052,2889,NA,166665,166560,166665,Flanker Test,77,39136,84,yes,1024
HHSHH,91.76470588,91.76470588,465.6470588,465.6470588,black,legacy,legacy,legacy,0,incongruent,uniform,1,undefined,1,s,0,84,84,84,0,0,0,84,0,84,0,0,0,84,84,84,Sat Sep 19 00:32:55 2020,600,The main experiment item,yes,FlankerTask.osexp,C:\Users\Owner\Documents,no,mono,no,18,no,white,no,yes,768,legacy,4,79,C:/Users/Owner/Documents/SMPsubject-2.csv,legacy,Lentiform Loewenfeld,3.3.3,0,s,NA,h,s,NA,s,444,NA,3329,17977,NA,444,2,legacy,1024,2,48000,-16,experiment,2,even,NA,143022,167097,168749,20867,161382,2885,NA,NA,168202,158052,2889,NA,168304,168201,168304,Flanker Test,78,39580,85,yes,1024
HHSHH,91.86046512,91.86046512,465.6627907,465.6627907,black,legacy,legacy,legacy,0,incongruent,uniform,1,undefined,1,s,0,85,85,85,0,0,0,85,0,85,0,0,0,85,85,85,Sat Sep 19 00:32:55 2020,600,The main experiment item,yes,FlankerTask.osexp,C:\Users\Owner\Documents,no,mono,no,18,no,white,no,yes,768,legacy,5,79,C:/Users/Owner/Documents/SMPsubject-2.csv,legacy,Lentiform Loewenfeld,3.3.3,0,s,NA,h,s,NA,s,467,NA,3329,17977,NA,467,2,legacy,1024,2,48000,-16,experiment,2,even,NA,143022,168752,170426,20867,161382,2885,NA,NA,169854,158052,2889,NA,169957,169852,169957,Flanker Test,79,40047,86,yes,1024
HHHHH,91.95402299,91.95402299,465.9655172,465.9655172,black,legacy,legacy,legacy,0,congruent,uniform,1,undefined,1,h,0,86,86,86,0,0,0,86,0,86,0,0,0,86,86,86,Sat Sep 19 00:32:55 2020,600,The main experiment item,yes,FlankerTask.osexp,C:\Users\Owner\Documents,no,mono,no,18,no,white,no,yes,768,legacy,6,79,C:/Users/Owner/Documents/SMPsubject-2.csv,legacy,Lentiform Loewenfeld,3.3.3,0,h,NA,h,s,NA,h,492,NA,3329,17977,NA,492,2,legacy,1024,2,48000,-16,experiment,2,even,NA,143022,170429,172142,20867,161382,2885,NA,NA,171545,158052,2889,NA,171649,171543,171649,Flanker Test,80,40539,87,yes,1024
SSSSS,92.04545455,92.04545455,465.7613636,465.7613636,black,legacy,legacy,legacy,0,congruent,uniform,1,undefined,1,s,0,87,87,87,0,0,0,87,0,87,0,0,0,87,87,87,Sat Sep 19 00:32:55 2020,600,The main experiment item,yes,FlankerTask.osexp,C:\Users\Owner\Documents,no,mono,no,18,no,white,no,yes,768,legacy,7,79,C:/Users/Owner/Documents/SMPsubject-2.csv,legacy,Lentiform Loewenfeld,3.3.3,0,s,NA,h,s,NA,s,448,NA,3329,17977,NA,448,2,legacy,1024,2,48000,-16,experiment,2,even,NA,143022,172145,173801,20867,161382,2885,NA,NA,173249,158052,2889,NA,173352,173247,173352,Flanker Test,81,40987,88,yes,1024
SSSSS,92.13483146,92.13483146,464.8988764,464.8988764,black,legacy,legacy,legacy,0,congruent,uniform,1,undefined,1,s,0,88,88,88,0,0,0,88,0,88,0,0,0,88,88,88,Sat Sep 19 00:32:55 2020,600,The main experiment item,yes,FlankerTask.osexp,C:\Users\Owner\Documents,no,mono,no,18,no,white,no,yes,768,legacy,8,79,C:/Users/Owner/Documents/SMPsubject-2.csv,legacy,Lentiform Loewenfeld,3.3.3,0,s,NA,h,s,NA,s,389,NA,3329,17977,NA,389,2,legacy,1024,2,48000,-16,experiment,2,even,NA,143022,173803,175403,20867,161382,2885,NA,NA,174910,158052,2889,NA,175013,174908,175013,Flanker Test,82,41376,89,yes,1024
SSSSS,92.22222222,92.22222222,463.9777778,463.9777778,black,legacy,legacy,legacy,0,congruent,uniform,1,undefined,1,s,0,89,89,89,0,0,0,89,0,89,0,0,0,89,89,89,Sat Sep 19 00:32:55 2020,600,The main experiment item,yes,FlankerTask.osexp,C:\Users\Owner\Documents,no,mono,no,18,no,white,no,yes,768,legacy,9,79,C:/Users/Owner/Documents/SMPsubject-2.csv,legacy,Lentiform Loewenfeld,3.3.3,0,s,NA,h,s,NA,s,382,NA,3329,17977,NA,382,2,legacy,1024,2,48000,-16,experiment,2,even,NA,143022,175406,176985,20867,161382,2885,NA,NA,176499,158052,2889,NA,176602,176497,176601,Flanker Test,83,41758,90,yes,1024
SSHSS,91.20879121,91.20879121,463.5164835,463.5164835,black,legacy,legacy,legacy,0,incongruent,uniform,0,undefined,0,h,0,90,90,90,0,0,0,90,0,90,0,0,0,90,90,90,Sat Sep 19 00:32:55 2020,600,The main experiment item,yes,FlankerTask.osexp,C:\Users\Owner\Documents,no,mono,no,18,no,white,no,yes,768,legacy,10,79,C:/Users/Owner/Documents/SMPsubject-2.csv,legacy,Lentiform Loewenfeld,3.3.3,0,s,NA,h,s,NA,s,422,NA,3329,17977,NA,422,2,legacy,1024,2,48000,-16,experiment,2,even,NA,143022,176991,178622,20867,161382,2885,NA,NA,178096,158052,2889,NA,178199,178094,178199,Flanker Test,83,42180,91,yes,1024
HHHHH,91.30434783,91.30434783,463.1413043,463.1413043,black,legacy,legacy,legacy,0,congruent,uniform,1,undefined,1,h,0,91,91,91,0,0,0,91,0,91,0,0,0,91,91,91,Sat Sep 19 00:32:55 2020,600,The main experiment item,yes,FlankerTask.osexp,C:\Users\Owner\Documents,no,mono,no,18,no,white,no,yes,768,legacy,11,79,C:/Users/Owner/Documents/SMPsubject-2.csv,legacy,Lentiform Loewenfeld,3.3.3,0,h,NA,h,s,NA,h,429,NA,3329,17977,NA,429,2,legacy,1024,2,48000,-16,experiment,2,even,NA,178626,179130,180803,20867,161382,2885,NA,NA,180271,158052,2889,NA,180373,180269,180373,Flanker Test,84,42609,92,yes,1024
SSHSS,91.39784946,91.39784946,463.2150538,463.2150538,black,legacy,legacy,legacy,0,incongruent,uniform,1,undefined,1,h,0,92,92,92,0,0,0,92,0,92,0,0,0,92,92,92,Sat Sep 19 00:32:55 2020,600,The main experiment item,yes,FlankerTask.osexp,C:\Users\Owner\Documents,no,mono,no,18,no,white,no,yes,768,legacy,12,79,C:/Users/Owner/Documents/SMPsubject-2.csv,legacy,Lentiform Loewenfeld,3.3.3,0,h,NA,h,s,NA,h,470,NA,3329,17977,NA,470,2,legacy,1024,2,48000,-16,experiment,2,even,NA,178626,180805,182433,20867,161382,2885,NA,NA,181858,158052,2889,NA,181962,181857,181962,Flanker Test,85,43079,93,yes,1024
SSHSS,91.4893617,91.4893617,463.6914894,463.6914894,black,legacy,legacy,legacy,0,incongruent,uniform,1,undefined,1,h,0,93,93,93,0,0,0,93,0,93,0,0,0,93,93,93,Sat Sep 19 00:32:55 2020,600,The main experiment item,yes,FlankerTask.osexp,C:\Users\Owner\Documents,no,mono,no,18,no,white,no,yes,768,legacy,13,79,C:/Users/Owner/Documents/SMPsubject-2.csv,legacy,Lentiform Loewenfeld,3.3.3,0,h,NA,h,s,NA,h,508,NA,3329,17977,NA,508,2,legacy,1024,2,48000,-16,experiment,2,even,NA,178626,182436,184152,20867,161382,2885,NA,NA,183539,158052,2889,NA,183642,183538,183642,Flanker Test,86,43587,94,yes,1024
HHHHH,91.57894737,91.57894737,464.3578947,464.3578947,black,legacy,legacy,legacy,0,congruent,uniform,1,undefined,1,h,0,94,94,94,0,0,0,94,0,94,0,0,0,94,94,94,Sat Sep 19 00:32:55 2020,600,The main experiment item,yes,FlankerTask.osexp,C:\Users\Owner\Documents,no,mono,no,18,no,white,no,yes,768,legacy,14,79,C:/Users/Owner/Documents/SMPsubject-2.csv,legacy,Lentiform Loewenfeld,3.3.3,0,h,NA,h,s,NA,h,527,NA,3329,17977,NA,527,2,legacy,1024,2,48000,-16,experiment,2,even,NA,178626,184155,185891,20867,161382,2885,NA,NA,185260,158052,2889,NA,185363,185259,185363,Flanker Test,87,44114,95,yes,1024
SSSSS,91.66666667,91.66666667,463.5208333,463.5208333,black,legacy,legacy,legacy,0,congruent,uniform,1,undefined,1,s,0,95,95,95,0,0,0,95,0,95,0,0,0,95,95,95,Sat Sep 19 00:32:55 2020,600,The main experiment item,yes,FlankerTask.osexp,C:\Users\Owner\Documents,no,mono,no,18,no,white,no,yes,768,legacy,15,79,C:/Users/Owner/Documents/SMPsubject-2.csv,legacy,Lentiform Loewenfeld,3.3.3,0,s,NA,h,s,NA,s,384,NA,3329,17977,NA,384,2,legacy,1024,2,48000,-16,experiment,2,even,NA,178626,185894,187486,20867,161382,2885,NA,NA,187000,158052,2889,NA,187101,186998,187101,Flanker Test,88,44498,96,yes,1024
SSHSS,91.75257732,91.75257732,463.6804124,463.6804124,black,legacy,legacy,legacy,0,incongruent,uniform,1,undefined,1,h,0,96,96,96,0,0,0,96,0,96,0,0,0,96,96,96,Sat Sep 19 00:32:55 2020,600,The main experiment item,yes,FlankerTask.osexp,C:\Users\Owner\Documents,no,mono,no,18,no,white,no,yes,768,legacy,16,79,C:/Users/Owner/Documents/SMPsubject-2.csv,legacy,Lentiform Loewenfeld,3.3.3,0,h,NA,h,s,NA,h,479,NA,3329,17977,NA,479,2,legacy,1024,2,48000,-16,experiment,2,even,NA,178626,187490,189146,20867,161382,2885,NA,NA,188562,158052,2889,NA,188666,188561,188666,Flanker Test,89,44977,97,yes,1024
SSHSS,91.83673469,91.83673469,464.3061224,464.3061224,black,legacy,legacy,legacy,0,incongruent,uniform,1,undefined,1,h,0,97,97,97,0,0,0,97,0,97,0,0,0,97,97,97,Sat Sep 19 00:32:55 2020,600,The main experiment item,yes,FlankerTask.osexp,C:\Users\Owner\Documents,no,mono,no,18,no,white,no,yes,768,legacy,17,79,C:/Users/Owner/Documents/SMPsubject-2.csv,legacy,Lentiform Loewenfeld,3.3.3,0,h,NA,h,s,NA,h,525,NA,3329,17977,NA,525,2,legacy,1024,2,48000,-16,experiment,2,even,NA,178626,189150,190912,20867,161382,2885,NA,NA,190282,158052,2889,NA,190386,190280,190385,Flanker Test,90,45502,98,yes,1024
SSHSS,91.91919192,91.91919192,464.7878788,464.7878788,black,legacy,legacy,legacy,0,incongruent,uniform,1,undefined,1,h,0,98,98,98,0,0,0,98,0,98,0,0,0,98,98,98,Sat Sep 19 00:32:55 2020,600,The main experiment item,yes,FlankerTask.osexp,C:\Users\Owner\Documents,no,mono,no,18,no,white,no,yes,768,legacy,18,79,C:/Users/Owner/Documents/SMPsubject-2.csv,legacy,Lentiform Loewenfeld,3.3.3,0,h,NA,h,s,NA,h,512,NA,3329,17977,NA,512,2,legacy,1024,2,48000,-16,experiment,2,even,NA,178626,190916,192637,20867,161382,2885,NA,NA,192020,158052,2889,NA,192123,192018,192123,Flanker Test,91,46014,99,yes,1024
SSSSS,92,92,463.98,463.98,black,legacy,legacy,legacy,0,congruent,uniform,1,undefined,1,s,0,99,99,99,0,0,0,99,0,99,0,0,0,99,99,99,Sat Sep 19 00:32:55 2020,600,The main experiment item,yes,FlankerTask.osexp,C:\Users\Owner\Documents,no,mono,no,18,no,white,no,yes,768,legacy,19,79,C:/Users/Owner/Documents/SMPsubject-2.csv,legacy,Lentiform Loewenfeld,3.3.3,0,s,NA,h,s,NA,s,384,NA,3329,17977,NA,384,2,legacy,1024,2,48000,-16,experiment,2,even,NA,178626,192640,194234,20867,161382,2885,NA,NA,193746,158052,2889,NA,193849,193744,193849,Flanker Test,92,46398,100,yes,1024
HHHHH,92.07920792,92.07920792,463.6930693,463.6930693,black,legacy,legacy,legacy,0,congruent,uniform,1,undefined,1,h,0,100,100,100,0,0,0,100,0,100,0,0,0,100,100,100,Sat Sep 19 00:32:55 2020,600,The main experiment item,yes,FlankerTask.osexp,C:\Users\Owner\Documents,no,mono,no,18,no,white,no,yes,768,legacy,20,79,C:/Users/Owner/Documents/SMPsubject-2.csv,legacy,Lentiform Loewenfeld,3.3.3,0,h,NA,h,s,NA,h,435,NA,3329,17977,NA,435,2,legacy,1024,2,48000,-16,experiment,2,even,NA,178626,194237,195856,20867,161382,2885,NA,NA,195317,158052,2889,NA,195419,195316,195419,Flanker Test,93,46833,101,yes,1024
HHHHH,92.15686275,92.15686275,463.9509804,463.9509804,black,legacy,legacy,legacy,0,congruent,uniform,1,undefined,1,h,0,101,101,101,0,0,0,101,0,101,0,0,0,101,101,101,Sat Sep 19 00:32:55 2020,600,The main experiment item,yes,FlankerTask.osexp,C:\Users\Owner\Documents,no,mono,no,18,no,white,no,yes,768,legacy,21,79,C:/Users/Owner/Documents/SMPsubject-2.csv,legacy,Lentiform Loewenfeld,3.3.3,0,h,NA,h,s,NA,h,490,NA,3329,17977,NA,490,2,legacy,1024,2,48000,-16,experiment,2,even,NA,178626,195860,197561,20867,161382,2885,NA,NA,196967,158052,2889,NA,197070,196965,197070,Flanker Test,94,47323,102,yes,1024
SSSSS,92.23300971,92.23300971,463.7669903,463.7669903,black,legacy,legacy,legacy,0,congruent,uniform,1,undefined,1,s,0,102,102,102,0,0,0,102,0,102,0,0,0,102,102,102,Sat Sep 19 00:32:55 2020,600,The main experiment item,yes,FlankerTask.osexp,C:\Users\Owner\Documents,no,mono,no,18,no,white,no,yes,768,legacy,22,79,C:/Users/Owner/Documents/SMPsubject-2.csv,legacy,Lentiform Loewenfeld,3.3.3,0,s,NA,h,s,NA,s,445,NA,3329,17977,NA,445,2,legacy,1024,2,48000,-16,experiment,2,even,NA,178626,197564,199194,20867,161382,2885,NA,NA,198644,158052,2889,NA,198748,198643,198748,Flanker Test,95,47768,103,yes,1024
HHSHH,92.30769231,92.30769231,464,464,black,legacy,legacy,legacy,0,incongruent,uniform,1,undefined,1,s,0,103,103,103,0,0,0,103,0,103,0,0,0,103,103,103,Sat Sep 19 00:32:55 2020,600,The main experiment item,yes,FlankerTask.osexp,C:\Users\Owner\Documents,no,mono,no,18,no,white,no,yes,768,legacy,23,79,C:/Users/Owner/Documents/SMPsubject-2.csv,legacy,Lentiform Loewenfeld,3.3.3,0,s,NA,h,s,NA,s,488,NA,3329,17977,NA,488,2,legacy,1024,2,48000,-16,experiment,2,even,NA,178626,199197,200896,20867,161382,2885,NA,NA,200303,158052,2889,NA,200406,200301,200406,Flanker Test,96,48256,104,yes,1024
HHSHH,92.38095238,92.38095238,463.5333333,463.5333333,black,legacy,legacy,legacy,0,incongruent,uniform,1,undefined,1,s,0,104,104,104,0,0,0,104,0,104,0,0,0,104,104,104,Sat Sep 19 00:32:55 2020,600,The main experiment item,yes,FlankerTask.osexp,C:\Users\Owner\Documents,no,mono,no,18,no,white,no,yes,768,legacy,24,79,C:/Users/Owner/Documents/SMPsubject-2.csv,legacy,Lentiform Loewenfeld,3.3.3,0,s,NA,h,s,NA,s,415,NA,3329,17977,NA,415,2,legacy,1024,2,48000,-16,experiment,2,even,NA,178626,200899,202522,20867,161382,2885,NA,NA,202004,158052,2889,NA,202106,202002,202106,Flanker Test,97,48671,105,yes,1024
HHSHH,92.45283019,92.45283019,464.9339623,464.9339623,black,legacy,legacy,legacy,0,incongruent,uniform,1,undefined,1,s,0,105,105,105,0,0,0,105,0,105,0,0,0,105,105,105,Sat Sep 19 00:32:55 2020,600,The main experiment item,yes,FlankerTask.osexp,C:\Users\Owner\Documents,no,mono,no,18,no,white,no,yes,768,legacy,25,79,C:/Users/Owner/Documents/SMPsubject-2.csv,legacy,Lentiform Loewenfeld,3.3.3,0,s,NA,h,s,NA,s,612,NA,3329,17977,NA,612,2,legacy,1024,2,48000,-16,experiment,2,even,NA,178626,202526,204350,20867,161382,2885,NA,NA,203634,158052,2889,NA,203737,203631,203737,Flanker Test,98,49283,106,yes,1024
SSHSS,92.52336449,92.52336449,464.9065421,464.9065421,black,legacy,legacy,legacy,0,incongruent,uniform,1,undefined,1,h,0,106,106,106,0,0,0,106,0,106,0,0,0,106,106,106,Sat Sep 19 00:32:55 2020,600,The main experiment item,yes,FlankerTask.osexp,C:\Users\Owner\Documents,no,mono,no,18,no,white,no,yes,768,legacy,26,79,C:/Users/Owner/Documents/SMPsubject-2.csv,legacy,Lentiform Loewenfeld,3.3.3,0,h,NA,h,s,NA,h,462,NA,3329,17977,NA,462,2,legacy,1024,2,48000,-16,experiment,2,even,NA,178626,204857,206530,20867,161382,2885,204353,NA,205963,158052,2889,NA,206066,205962,206066,Flanker Test,99,49745,107,yes,1024
SSSSS,92.59259259,92.59259259,464.4351852,464.4351852,black,legacy,legacy,legacy,0,congruent,uniform,1,undefined,1,s,0,107,107,107,0,0,0,107,0,107,0,0,0,107,107,107,Sat Sep 19 00:32:55 2020,600,The main experiment item,yes,FlankerTask.osexp,C:\Users\Owner\Documents,no,mono,no,18,no,white,no,yes,768,legacy,27,79,C:/Users/Owner/Documents/SMPsubject-2.csv,legacy,Lentiform Loewenfeld,3.3.3,0,s,NA,h,s,NA,s,414,NA,3329,17977,NA,414,2,legacy,1024,2,48000,-16,experiment,2,even,NA,178626,206534,208192,20867,161382,2885,204353,NA,207672,158052,2889,NA,207776,207671,207776,Flanker Test,100,50159,108,yes,1024
HHSHH,92.66055046,92.66055046,464.4495413,464.4495413,black,legacy,legacy,legacy,0,incongruent,uniform,1,undefined,1,s,0,108,108,108,0,0,0,108,0,108,0,0,0,108,108,108,Sat Sep 19 00:32:55 2020,600,The main experiment item,yes,FlankerTask.osexp,C:\Users\Owner\Documents,no,mono,no,18,no,white,no,yes,768,legacy,28,79,C:/Users/Owner/Documents/SMPsubject-2.csv,legacy,Lentiform Loewenfeld,3.3.3,0,s,NA,h,s,NA,s,466,NA,3329,17977,NA,466,2,legacy,1024,2,48000,-16,experiment,2,even,NA,178626,208194,209868,20867,161382,2885,204353,NA,209298,158052,2889,NA,209401,209296,209401,Flanker Test,101,50625,109,yes,1024
SSSSS,92.72727273,92.72727273,464.1818182,464.1818182,black,legacy,legacy,legacy,0,congruent,uniform,1,undefined,1,s,0,109,109,109,0,0,0,109,0,109,0,0,0,109,109,109,Sat Sep 19 00:32:55 2020,600,The main experiment item,yes,FlankerTask.osexp,C:\Users\Owner\Documents,no,mono,no,18,no,white,no,yes,768,legacy,29,79,C:/Users/Owner/Documents/SMPsubject-2.csv,legacy,Lentiform Loewenfeld,3.3.3,0,s,NA,h,s,NA,s,435,NA,3329,17977,NA,435,2,legacy,1024,2,48000,-16,experiment,2,even,NA,178626,209872,211475,20867,161382,2885,204353,NA,210938,158052,2889,NA,211039,210936,211039,Flanker Test,102,51060,110,yes,1024
HHHHH,92.79279279,92.79279279,464.4954955,464.4954955,black,legacy,legacy,legacy,0,congruent,uniform,1,undefined,1,h,0,110,110,110,0,0,0,110,0,110,0,0,0,110,110,110,Sat Sep 19 00:32:55 2020,600,The main experiment item,yes,FlankerTask.osexp,C:\Users\Owner\Documents,no,mono,no,18,no,white,no,yes,768,legacy,30,79,C:/Users/Owner/Documents/SMPsubject-2.csv,legacy,Lentiform Loewenfeld,3.3.3,0,h,NA,h,s,NA,h,499,NA,3329,17977,NA,499,2,legacy,1024,2,48000,-16,experiment,2,even,NA,178626,211479,213167,20867,161382,2885,204353,NA,212565,158052,2889,NA,212667,212564,212667,Flanker Test,103,51559,111,yes,1024
SSHSS,92.85714286,92.85714286,464.5982143,464.5982143,black,legacy,legacy,legacy,0,incongruent,uniform,1,undefined,1,h,0,111,111,111,0,0,0,111,0,111,0,0,0,111,111,111,Sat Sep 19 00:32:55 2020,600,The main experiment item,yes,FlankerTask.osexp,C:\Users\Owner\Documents,no,mono,no,18,no,white,no,yes,768,legacy,31,79,C:/Users/Owner/Documents/SMPsubject-2.csv,legacy,Lentiform Loewenfeld,3.3.3,0,h,NA,h,s,NA,h,476,NA,3329,17977,NA,476,2,legacy,1024,2,48000,-16,experiment,2,even,NA,178626,213171,214875,20867,161382,2885,204353,NA,214294,158052,2889,NA,214397,214292,214397,Flanker Test,104,52035,112,yes,1024
HHHHH,92.92035398,92.92035398,464.079646,464.079646,black,legacy,legacy,legacy,0,congruent,uniform,1,undefined,1,h,0,112,112,112,0,0,0,112,0,112,0,0,0,112,112,112,Sat Sep 19 00:32:55 2020,600,The main experiment item,yes,FlankerTask.osexp,C:\Users\Owner\Documents,no,mono,no,18,no,white,no,yes,768,legacy,32,79,C:/Users/Owner/Documents/SMPsubject-2.csv,legacy,Lentiform Loewenfeld,3.3.3,0,h,NA,h,s,NA,h,406,NA,3329,17977,NA,406,2,legacy,1024,2,48000,-16,experiment,2,even,NA,178626,214877,216476,20867,161382,2885,204353,NA,215965,158052,2889,NA,216068,215963,216068,Flanker Test,105,52441,113,yes,1024
SSHSS,92.98245614,92.98245614,464.1754386,464.1754386,black,legacy,legacy,legacy,0,incongruent,uniform,1,undefined,1,h,0,113,113,113,0,0,0,113,0,113,0,0,0,113,113,113,Sat Sep 19 00:32:55 2020,600,The main experiment item,yes,FlankerTask.osexp,C:\Users\Owner\Documents,no,mono,no,18,no,white,no,yes,768,legacy,33,79,C:/Users/Owner/Documents/SMPsubject-2.csv,legacy,Lentiform Loewenfeld,3.3.3,0,h,NA,h,s,NA,h,475,NA,3329,17977,NA,475,2,legacy,1024,2,48000,-16,experiment,2,even,NA,178626,216479,218164,20867,161382,2885,204353,NA,217584,158052,2889,NA,217688,217582,217688,Flanker Test,106,52916,114,yes,1024
HHHHH,93.04347826,93.04347826,463.773913,463.773913,black,legacy,legacy,legacy,0,congruent,uniform,1,undefined,1,h,0,114,114,114,0,0,0,114,0,114,0,0,0,114,114,114,Sat Sep 19 00:32:55 2020,600,The main experiment item,yes,FlankerTask.osexp,C:\Users\Owner\Documents,no,mono,no,18,no,white,no,yes,768,legacy,34,79,C:/Users/Owner/Documents/SMPsubject-2.csv,legacy,Lentiform Loewenfeld,3.3.3,0,h,NA,h,s,NA,h,418,NA,3329,17977,NA,418,2,legacy,1024,2,48000,-16,experiment,2,even,NA,178626,218167,219813,20867,161382,2885,204353,NA,219291,158052,2889,NA,219394,219290,219394,Flanker Test,107,53334,115,yes,1024
SSHSS,93.10344828,93.10344828,464.2413793,464.2413793,black,legacy,legacy,legacy,0,incongruent,uniform,1,undefined,1,h,0,115,115,115,0,0,0,115,0,115,0,0,0,115,115,115,Sat Sep 19 00:32:55 2020,600,The main experiment item,yes,FlankerTask.osexp,C:\Users\Owner\Documents,no,mono,no,18,no,white,no,yes,768,legacy,35,79,C:/Users/Owner/Documents/SMPsubject-2.csv,legacy,Lentiform Loewenfeld,3.3.3,0,h,NA,h,s,NA,h,518,NA,3329,17977,NA,518,2,legacy,1024,2,48000,-16,experiment,2,even,NA,178626,219817,221540,20867,161382,2885,204353,NA,220918,158052,2889,NA,221021,220916,221020,Flanker Test,108,53852,116,yes,1024
HHHHH,93.16239316,93.16239316,463.3076923,463.3076923,black,legacy,legacy,legacy,0,congruent,uniform,1,undefined,1,h,0,116,116,116,0,0,0,116,0,116,0,0,0,116,116,116,Sat Sep 19 00:32:55 2020,600,The main experiment item,yes,FlankerTask.osexp,C:\Users\Owner\Documents,no,mono,no,18,no,white,no,yes,768,legacy,36,79,C:/Users/Owner/Documents/SMPsubject-2.csv,legacy,Lentiform Loewenfeld,3.3.3,0,h,NA,h,s,NA,h,355,NA,3329,17977,NA,355,2,legacy,1024,2,48000,-16,experiment,2,even,NA,178626,221544,223070,20867,161382,2885,204353,NA,222609,158052,2889,NA,222713,222607,222713,Flanker Test,109,54207,117,yes,1024
HHHHH,93.22033898,93.22033898,462.6101695,462.6101695,black,legacy,legacy,legacy,0,congruent,uniform,1,undefined,1,h,0,117,117,117,0,0,0,117,0,117,0,0,0,117,117,117,Sat Sep 19 00:32:55 2020,600,The main experiment item,yes,FlankerTask.osexp,C:\Users\Owner\Documents,no,mono,no,18,no,white,no,yes,768,legacy,37,79,C:/Users/Owner/Documents/SMPsubject-2.csv,legacy,Lentiform Loewenfeld,3.3.3,0,h,NA,h,s,NA,h,381,NA,3329,17977,NA,381,2,legacy,1024,2,48000,-16,experiment,2,even,NA,178626,223073,224664,20867,161382,2885,204353,NA,224178,158052,2889,NA,224281,224177,224281,Flanker Test,110,54588,118,yes,1024
SSSSS,93.27731092,93.27731092,462.4285714,462.4285714,black,legacy,legacy,legacy,0,congruent,uniform,1,undefined,1,s,0,118,118,118,0,0,0,118,0,118,0,0,0,118,118,118,Sat Sep 19 00:32:55 2020,600,The main experiment item,yes,FlankerTask.osexp,C:\Users\Owner\Documents,no,mono,no,18,no,white,no,yes,768,legacy,38,79,C:/Users/Owner/Documents/SMPsubject-2.csv,legacy,Lentiform Loewenfeld,3.3.3,0,s,NA,h,s,NA,s,441,NA,3329,17977,NA,441,2,legacy,1024,2,48000,-16,experiment,2,even,NA,178626,224667,226346,20867,161382,2885,204353,NA,225801,158052,2889,NA,225904,225799,225904,Flanker Test,111,55029,119,yes,1024
HHSHH,93.33333333,93.33333333,462.9166667,462.9166667,black,legacy,legacy,legacy,0,incongruent,uniform,1,undefined,1,s,0,119,119,119,0,0,0,119,0,119,0,0,0,119,119,119,Sat Sep 19 00:32:55 2020,600,The main experiment item,yes,FlankerTask.osexp,C:\Users\Owner\Documents,no,mono,no,18,no,white,no,yes,768,legacy,39,79,C:/Users/Owner/Documents/SMPsubject-2.csv,legacy,Lentiform Loewenfeld,3.3.3,0,s,NA,h,s,NA,s,521,NA,3329,17977,NA,521,2,legacy,1024,2,48000,-16,experiment,2,even,NA,178626,226350,228084,20867,161382,2885,204353,NA,227459,158052,2889,NA,227562,227457,227562,Flanker Test,112,55550,120,yes,1024
SSHSS,92.56198347,92.56198347,462.0909091,462.0909091,black,legacy,legacy,legacy,0,incongruent,uniform,0,undefined,0,h,0,120,120,120,0,0,0,120,0,120,0,0,0,120,120,120,Sat Sep 19 00:32:55 2020,600,The main experiment item,yes,FlankerTask.osexp,C:\Users\Owner\Documents,no,mono,no,18,no,white,no,yes,768,legacy,40,79,C:/Users/Owner/Documents/SMPsubject-2.csv,legacy,Lentiform Loewenfeld,3.3.3,0,s,NA,h,s,NA,s,363,NA,3329,17977,NA,363,2,legacy,1024,2,48000,-16,experiment,2,even,NA,178626,228088,229660,20867,161382,2885,204353,NA,229192,158052,2889,NA,229295,229190,229295,Flanker Test,112,55913,121,yes,1024
HHHHH,92.62295082,92.62295082,461.2459016,461.2459016,black,legacy,legacy,legacy,0,congruent,uniform,1,undefined,1,h,0,121,121,121,0,0,0,121,0,121,0,0,0,121,121,121,Sat Sep 19 00:32:55 2020,600,The main experiment item,yes,FlankerTask.osexp,C:\Users\Owner\Documents,no,mono,no,18,no,white,no,yes,768,legacy,41,79,C:/Users/Owner/Documents/SMPsubject-2.csv,legacy,Lentiform Loewenfeld,3.3.3,0,h,NA,h,s,NA,h,359,NA,3329,17977,NA,359,2,legacy,1024,2,48000,-16,experiment,2,even,NA,229664,230168,231693,20867,161382,2885,204353,NA,231229,158052,2889,NA,231332,231227,231332,Flanker Test,113,56272,122,yes,1024
HHSHH,92.68292683,92.68292683,461.1138211,461.1138211,black,legacy,legacy,legacy,0,incongruent,uniform,1,undefined,1,s,0,122,122,122,0,0,0,122,0,122,0,0,0,122,122,122,Sat Sep 19 00:32:55 2020,600,The main experiment item,yes,FlankerTask.osexp,C:\Users\Owner\Documents,no,mono,no,18,no,white,no,yes,768,legacy,42,79,C:/Users/Owner/Documents/SMPsubject-2.csv,legacy,Lentiform Loewenfeld,3.3.3,0,s,NA,h,s,NA,s,445,NA,3329,17977,NA,445,2,legacy,1024,2,48000,-16,experiment,2,even,NA,229664,231697,233366,20867,161382,2885,204353,NA,232818,158052,2889,NA,232919,232816,232919,Flanker Test,114,56717,123,yes,1024
HHSHH,92.74193548,92.74193548,461.5967742,461.5967742,black,legacy,legacy,legacy,0,incongruent,uniform,1,undefined,1,s,0,123,123,123,0,0,0,123,0,123,0,0,0,123,123,123,Sat Sep 19 00:32:55 2020,600,The main experiment item,yes,FlankerTask.osexp,C:\Users\Owner\Documents,no,mono,no,18,no,white,no,yes,768,legacy,43,79,C:/Users/Owner/Documents/SMPsubject-2.csv,legacy,Lentiform Loewenfeld,3.3.3,0,s,NA,h,s,NA,s,521,NA,3329,17977,NA,521,2,legacy,1024,2,48000,-16,experiment,2,even,NA,229664,233369,235101,20867,161382,2885,204353,NA,234478,158052,2889,NA,234579,234476,234579,Flanker Test,115,57238,124,yes,1024
HHSHH,92,92,460.776,460.776,black,legacy,legacy,legacy,0,incongruent,uniform,0,undefined,0,s,0,124,124,124,0,0,0,124,0,124,0,0,0,124,124,124,Sat Sep 19 00:32:55 2020,600,The main experiment item,yes,FlankerTask.osexp,C:\Users\Owner\Documents,no,mono,no,18,no,white,no,yes,768,legacy,44,79,C:/Users/Owner/Documents/SMPsubject-2.csv,legacy,Lentiform Loewenfeld,3.3.3,0,h,NA,h,s,NA,h,359,NA,3329,17977,NA,359,2,legacy,1024,2,48000,-16,experiment,2,even,NA,229664,235104,236621,20867,161382,2885,204353,NA,236157,158052,2889,NA,236261,236155,236261,Flanker Test,115,57597,125,yes,1024
SSHSS,91.26984127,91.26984127,460.4761905,460.4761905,black,legacy,legacy,legacy,0,incongruent,uniform,0,undefined,0,h,0,125,125,125,0,0,0,125,0,125,0,0,0,125,125,125,Sat Sep 19 00:32:55 2020,600,The main experiment item,yes,FlankerTask.osexp,C:\Users\Owner\Documents,no,mono,no,18,no,white,no,yes,768,legacy,45,79,C:/Users/Owner/Documents/SMPsubject-2.csv,legacy,Lentiform Loewenfeld,3.3.3,0,s,NA,h,s,NA,s,423,NA,3329,17977,NA,423,2,legacy,1024,2,48000,-16,experiment,2,even,NA,236623,237127,238757,20867,161382,2885,204353,NA,238229,158052,2889,NA,238333,238228,238333,Flanker Test,115,58020,126,yes,1024
HHSHH,91.33858268,91.33858268,461.015748,461.015748,black,legacy,legacy,legacy,0,incongruent,uniform,1,undefined,1,s,0,126,126,126,0,0,0,126,0,126,0,0,0,126,126,126,Sat Sep 19 00:32:55 2020,600,The main experiment item,yes,FlankerTask.osexp,C:\Users\Owner\Documents,no,mono,no,18,no,white,no,yes,768,legacy,46,79,C:/Users/Owner/Documents/SMPsubject-2.csv,legacy,Lentiform Loewenfeld,3.3.3,0,s,NA,h,s,NA,s,529,NA,3329,17977,NA,529,2,legacy,1024,2,48000,-16,experiment,2,even,NA,238761,239265,241000,20867,161382,2885,204353,NA,240367,158052,2889,NA,240470,240365,240470,Flanker Test,116,58549,127,yes,1024
SSHSS,91.40625,91.40625,461.3203125,461.3203125,black,legacy,legacy,legacy,0,incongruent,uniform,1,undefined,1,h,0,127,127,127,0,0,0,127,0,127,0,0,0,127,127,127,Sat Sep 19 00:32:55 2020,600,The main experiment item,yes,FlankerTask.osexp,C:\Users\Owner\Documents,no,mono,no,18,no,white,no,yes,768,legacy,47,79,C:/Users/Owner/Documents/SMPsubject-2.csv,legacy,Lentiform Loewenfeld,3.3.3,0,h,NA,h,s,NA,h,500,NA,3329,17977,NA,500,2,legacy,1024,2,48000,-16,experiment,2,even,NA,238761,241004,242695,20867,161382,2885,204353,NA,242090,158052,2889,NA,242194,242089,242194,Flanker Test,117,59049,128,yes,1024
SSSSS,91.47286822,91.47286822,460.6511628,460.6511628,black,legacy,legacy,legacy,0,congruent,uniform,1,undefined,1,s,0,128,128,128,0,0,0,128,0,128,0,0,0,128,128,128,Sat Sep 19 00:32:55 2020,600,The main experiment item,yes,FlankerTask.osexp,C:\Users\Owner\Documents,no,mono,no,18,no,white,no,yes,768,legacy,48,79,C:/Users/Owner/Documents/SMPsubject-2.csv,legacy,Lentiform Loewenfeld,3.3.3,0,s,NA,h,s,NA,s,375,NA,3329,17977,NA,375,2,legacy,1024,2,48000,-16,experiment,2,even,NA,238761,242700,244282,20867,161382,2885,204353,NA,243803,158052,2889,NA,243906,243802,243906,Flanker Test,118,59424,129,yes,1024
SSHSS,90.76923077,90.76923077,459.8692308,459.8692308,black,legacy,legacy,legacy,0,incongruent,uniform,0,undefined,0,h,0,129,129,129,0,0,0,129,0,129,0,0,0,129,129,129,Sat Sep 19 00:32:55 2020,600,The main experiment item,yes,FlankerTask.osexp,C:\Users\Owner\Documents,no,mono,no,18,no,white,no,yes,768,legacy,49,79,C:/Users/Owner/Documents/SMPsubject-2.csv,legacy,Lentiform Loewenfeld,3.3.3,0,s,NA,h,s,NA,s,359,NA,3329,17977,NA,359,2,legacy,1024,2,48000,-16,experiment,2,even,NA,238761,244286,245853,20867,161382,2885,204353,NA,245390,158052,2889,NA,245492,245389,245491,Flanker Test,118,59783,130,yes,1024
SSSSS,90.83969466,90.83969466,459.0305344,459.0305344,black,legacy,legacy,legacy,0,congruent,uniform,1,undefined,1,s,0,130,130,130,0,0,0,130,0,130,0,0,0,130,130,130,Sat Sep 19 00:32:55 2020,600,The main experiment item,yes,FlankerTask.osexp,C:\Users\Owner\Documents,no,mono,no,18,no,white,no,yes,768,legacy,50,79,C:/Users/Owner/Documents/SMPsubject-2.csv,legacy,Lentiform Loewenfeld,3.3.3,0,s,NA,h,s,NA,s,350,NA,3329,17977,NA,350,2,legacy,1024,2,48000,-16,experiment,2,even,NA,245856,246360,247920,20867,161382,2885,204353,NA,247466,158052,2889,NA,247569,247465,247569,Flanker Test,119,60133,131,yes,1024
SSSSS,90.90909091,90.90909091,458.2121212,458.2121212,black,legacy,legacy,legacy,0,congruent,uniform,1,undefined,1,s,0,131,131,131,0,0,0,131,0,131,0,0,0,131,131,131,Sat Sep 19 00:32:55 2020,600,The main experiment item,yes,FlankerTask.osexp,C:\Users\Owner\Documents,no,mono,no,18,no,white,no,yes,768,legacy,51,79,C:/Users/Owner/Documents/SMPsubject-2.csv,legacy,Lentiform Loewenfeld,3.3.3,0,s,NA,h,s,NA,s,351,NA,3329,17977,NA,351,2,legacy,1024,2,48000,-16,experiment,2,even,NA,245856,247923,249448,20867,161382,2885,204353,NA,248992,158052,2889,NA,249096,248990,249096,Flanker Test,120,60484,132,yes,1024
SSSSS,90.97744361,90.97744361,457.2781955,457.2781955,black,legacy,legacy,legacy,0,congruent,uniform,1,undefined,1,s,0,132,132,132,0,0,0,132,0,132,0,0,0,132,132,132,Sat Sep 19 00:32:55 2020,600,The main experiment item,yes,FlankerTask.osexp,C:\Users\Owner\Documents,no,mono,no,18,no,white,no,yes,768,legacy,52,79,C:/Users/Owner/Documents/SMPsubject-2.csv,legacy,Lentiform Loewenfeld,3.3.3,0,s,NA,h,s,NA,s,334,NA,3329,17977,NA,334,2,legacy,1024,2,48000,-16,experiment,2,even,NA,245856,249455,250998,20867,161382,2885,204353,NA,250560,158052,2889,NA,250663,250558,250663,Flanker Test,121,60818,133,yes,1024
SSSSS,91.04477612,91.04477612,456.6268657,456.6268657,black,legacy,legacy,legacy,0,congruent,uniform,1,undefined,1,s,0,133,133,133,0,0,0,133,0,133,0,0,0,133,133,133,Sat Sep 19 00:32:55 2020,600,The main experiment item,yes,FlankerTask.osexp,C:\Users\Owner\Documents,no,mono,no,18,no,white,no,yes,768,legacy,53,79,C:/Users/Owner/Documents/SMPsubject-2.csv,legacy,Lentiform Loewenfeld,3.3.3,0,s,NA,h,s,NA,s,370,NA,3329,17977,NA,370,2,legacy,1024,2,48000,-16,experiment,2,even,NA,245856,251001,252569,20867,161382,2885,204353,NA,252095,158052,2889,NA,252197,252093,252197,Flanker Test,122,61188,134,yes,1024
HHSHH,91.11111111,91.11111111,456.637037,456.637037,black,legacy,legacy,legacy,0,incongruent,uniform,1,undefined,1,s,0,134,134,134,0,0,0,134,0,134,0,0,0,134,134,134,Sat Sep 19 00:32:55 2020,600,The main experiment item,yes,FlankerTask.osexp,C:\Users\Owner\Documents,no,mono,no,18,no,white,no,yes,768,legacy,54,79,C:/Users/Owner/Documents/SMPsubject-2.csv,legacy,Lentiform Loewenfeld,3.3.3,0,s,NA,h,s,NA,s,458,NA,3329,17977,NA,458,2,legacy,1024,2,48000,-16,experiment,2,even,NA,245856,252572,254242,20867,161382,2885,204353,NA,253680,158052,2889,NA,253783,253678,253783,Flanker Test,123,61646,135,yes,1024
HHSHH,91.17647059,91.17647059,456.2279412,456.2279412,black,legacy,legacy,legacy,0,incongruent,uniform,1,undefined,1,s,0,135,135,135,0,0,0,135,0,135,0,0,0,135,135,135,Sat Sep 19 00:32:55 2020,600,The main experiment item,yes,FlankerTask.osexp,C:\Users\Owner\Documents,no,mono,no,18,no,white,no,yes,768,legacy,55,79,C:/Users/Owner/Documents/SMPsubject-2.csv,legacy,Lentiform Loewenfeld,3.3.3,0,s,NA,h,s,NA,s,401,NA,3329,17977,NA,401,2,legacy,1024,2,48000,-16,experiment,2,even,NA,245856,254246,255803,20867,161382,2885,204353,NA,255297,158052,2889,NA,255400,255296,255400,Flanker Test,124,62047,136,yes,1024
HHHHH,91.24087591,91.24087591,457.1021898,457.1021898,black,legacy,legacy,legacy,0,congruent,uniform,1,undefined,1,h,0,136,136,136,0,0,0,136,0,136,0,0,0,136,136,136,Sat Sep 19 00:32:55 2020,600,The main experiment item,yes,FlankerTask.osexp,C:\Users\Owner\Documents,no,mono,no,18,no,white,no,yes,768,legacy,56,79,C:/Users/Owner/Documents/SMPsubject-2.csv,legacy,Lentiform Loewenfeld,3.3.3,0,h,NA,h,s,NA,h,576,NA,3329,17977,NA,576,2,legacy,1024,2,48000,-16,experiment,2,even,NA,245856,255807,257604,20867,161382,2885,204353,NA,256924,158052,2889,NA,257027,256923,257027,Flanker Test,125,62623,137,yes,1024
HHSHH,91.30434783,91.30434783,458.1304348,458.1304348,black,legacy,legacy,legacy,0,incongruent,uniform,1,undefined,1,s,0,137,137,137,0,0,0,137,0,137,0,0,0,137,137,137,Sat Sep 19 00:32:55 2020,600,The main experiment item,yes,FlankerTask.osexp,C:\Users\Owner\Documents,no,mono,no,18,no,white,no,yes,768,legacy,57,79,C:/Users/Owner/Documents/SMPsubject-2.csv,legacy,Lentiform Loewenfeld,3.3.3,0,s,NA,h,s,NA,s,599,NA,3329,17977,NA,599,2,legacy,1024,2,48000,-16,experiment,2,even,NA,245856,257608,259376,20867,161382,2885,204353,NA,258671,158052,2889,NA,258775,258669,258775,Flanker Test,126,63222,138,yes,1024
SSSSS,91.36690647,91.36690647,457.5971223,457.5971223,black,legacy,legacy,legacy,0,congruent,uniform,1,undefined,1,s,0,138,138,138,0,0,0,138,0,138,0,0,0,138,138,138,Sat Sep 19 00:32:55 2020,600,The main experiment item,yes,FlankerTask.osexp,C:\Users\Owner\Documents,no,mono,no,18,no,white,no,yes,768,legacy,58,79,C:/Users/Owner/Documents/SMPsubject-2.csv,legacy,Lentiform Loewenfeld,3.3.3,0,s,NA,h,s,NA,s,384,NA,3329,17977,NA,384,2,legacy,1024,2,48000,-16,experiment,2,even,NA,245856,259379,260987,20867,161382,2885,204353,NA,260500,158052,2889,NA,260601,260498,260601,Flanker Test,127,63606,139,yes,1024
HHHHH,91.42857143,91.42857143,457.4428571,457.4428571,black,legacy,legacy,legacy,0,congruent,uniform,1,undefined,1,h,0,139,139,139,0,0,0,139,0,139,0,0,0,139,139,139,Sat Sep 19 00:32:55 2020,600,The main experiment item,yes,FlankerTask.osexp,C:\Users\Owner\Documents,no,mono,no,18,no,white,no,yes,768,legacy,59,79,C:/Users/Owner/Documents/SMPsubject-2.csv,legacy,Lentiform Loewenfeld,3.3.3,0,h,NA,h,s,NA,h,436,NA,3329,17977,NA,436,2,legacy,1024,2,48000,-16,experiment,2,even,NA,245856,260990,262639,20867,161382,2885,204353,NA,262098,158052,2889,NA,262200,262097,262200,Flanker Test,128,64042,140,yes,1024
SSHSS,90.78014184,90.78014184,456.7163121,456.7163121,black,legacy,legacy,legacy,0,incongruent,uniform,0,undefined,0,h,0,140,140,140,0,0,0,140,0,140,0,0,0,140,140,140,Sat Sep 19 00:32:55 2020,600,The main experiment item,yes,FlankerTask.osexp,C:\Users\Owner\Documents,no,mono,no,18,no,white,no,yes,768,legacy,60,79,C:/Users/Owner/Documents/SMPsubject-2.csv,legacy,Lentiform Loewenfeld,3.3.3,0,s,NA,h,s,NA,s,355,NA,3329,17977,NA,355,2,legacy,1024,2,48000,-16,experiment,2,even,NA,245856,262642,264211,20867,161382,2885,204353,NA,263752,158052,2889,NA,263855,263751,263855,Flanker Test,128,64397,141,yes,1024
HHSHH,90.84507042,90.84507042,456.4929577,456.4929577,black,legacy,legacy,legacy,0,incongruent,uniform,1,undefined,1,s,0,141,141,141,0,0,0,141,0,141,0,0,0,141,141,141,Sat Sep 19 00:32:55 2020,600,The main experiment item,yes,FlankerTask.osexp,C:\Users\Owner\Documents,no,mono,no,18,no,white,no,yes,768,legacy,61,79,C:/Users/Owner/Documents/SMPsubject-2.csv,legacy,Lentiform Loewenfeld,3.3.3,0,s,NA,h,s,NA,s,425,NA,3329,17977,NA,425,2,legacy,1024,2,48000,-16,experiment,2,even,NA,264215,264719,266350,20867,161382,2885,204353,NA,265822,158052,2889,NA,265924,265821,265923,Flanker Test,129,64822,142,yes,1024
SSSSS,90.90909091,90.90909091,456.0699301,456.0699301,black,legacy,legacy,legacy,0,congruent,uniform,1,undefined,1,s,0,142,142,142,0,0,0,142,0,142,0,0,0,142,142,142,Sat Sep 19 00:32:55 2020,600,The main experiment item,yes,FlankerTask.osexp,C:\Users\Owner\Documents,no,mono,no,18,no,white,no,yes,768,legacy,62,79,C:/Users/Owner/Documents/SMPsubject-2.csv,legacy,Lentiform Loewenfeld,3.3.3,0,s,NA,h,s,NA,s,396,NA,3329,17977,NA,396,2,legacy,1024,2,48000,-16,experiment,2,even,NA,264215,266356,267964,20867,161382,2885,204353,NA,267464,158052,2889,NA,267566,267462,267566,Flanker Test,130,65218,143,yes,1024
HHHHH,90.97222222,90.97222222,455.9652778,455.9652778,black,legacy,legacy,legacy,0,congruent,uniform,1,undefined,1,h,0,143,143,143,0,0,0,143,0,143,0,0,0,143,143,143,Sat Sep 19 00:32:55 2020,600,The main experiment item,yes,FlankerTask.osexp,C:\Users\Owner\Documents,no,mono,no,18,no,white,no,yes,768,legacy,63,79,C:/Users/Owner/Documents/SMPsubject-2.csv,legacy,Lentiform Loewenfeld,3.3.3,0,h,NA,h,s,NA,h,441,NA,3329,17977,NA,441,2,legacy,1024,2,48000,-16,experiment,2,even,NA,264215,267968,269603,20867,161382,2885,204353,NA,269057,158052,2889,NA,269160,269055,269160,Flanker Test,131,65659,144,yes,1024
SSHSS,91.03448276,91.03448276,456.6827586,456.6827586,black,legacy,legacy,legacy,0,incongruent,uniform,1,undefined,1,h,0,144,144,144,0,0,0,144,0,144,0,0,0,144,144,144,Sat Sep 19 00:32:55 2020,600,The main experiment item,yes,FlankerTask.osexp,C:\Users\Owner\Documents,no,mono,no,18,no,white,no,yes,768,legacy,64,79,C:/Users/Owner/Documents/SMPsubject-2.csv,legacy,Lentiform Loewenfeld,3.3.3,0,h,NA,h,s,NA,h,560,NA,3329,17977,NA,560,2,legacy,1024,2,48000,-16,experiment,2,even,NA,264215,269607,271339,20867,161382,2885,204353,NA,270673,158052,2889,NA,270778,270672,270778,Flanker Test,132,66219,145,yes,1024
HHSHH,91.09589041,91.09589041,456.8082192,456.8082192,black,legacy,legacy,legacy,0,incongruent,uniform,1,undefined,1,s,0,145,145,145,0,0,0,145,0,145,0,0,0,145,145,145,Sat Sep 19 00:32:55 2020,600,The main experiment item,yes,FlankerTask.osexp,C:\Users\Owner\Documents,no,mono,no,18,no,white,no,yes,768,legacy,65,79,C:/Users/Owner/Documents/SMPsubject-2.csv,legacy,Lentiform Loewenfeld,3.3.3,0,s,NA,h,s,NA,s,475,NA,3329,17977,NA,475,2,legacy,1024,2,48000,-16,experiment,2,even,NA,264215,271343,272994,20867,161382,2885,204353,NA,272414,158052,2889,NA,272517,272412,272517,Flanker Test,133,66694,146,yes,1024
SSHSS,91.15646259,91.15646259,456.8571429,456.8571429,black,legacy,legacy,legacy,0,incongruent,uniform,1,undefined,1,h,0,146,146,146,0,0,0,146,0,146,0,0,0,146,146,146,Sat Sep 19 00:32:55 2020,600,The main experiment item,yes,FlankerTask.osexp,C:\Users\Owner\Documents,no,mono,no,18,no,white,no,yes,768,legacy,66,79,C:/Users/Owner/Documents/SMPsubject-2.csv,legacy,Lentiform Loewenfeld,3.3.3,0,h,NA,h,s,NA,h,464,NA,3329,17977,NA,464,2,legacy,1024,2,48000,-16,experiment,2,even,NA,264215,272997,274669,20867,161382,2885,204353,NA,274100,158052,2889,NA,274203,274098,274203,Flanker Test,134,67158,147,yes,1024
HHSHH,91.21621622,91.21621622,457.3716216,457.3716216,black,legacy,legacy,legacy,0,incongruent,uniform,1,undefined,1,s,0,147,147,147,0,0,0,147,0,147,0,0,0,147,147,147,Sat Sep 19 00:32:55 2020,600,The main experiment item,yes,FlankerTask.osexp,C:\Users\Owner\Documents,no,mono,no,18,no,white,no,yes,768,legacy,67,79,C:/Users/Owner/Documents/SMPsubject-2.csv,legacy,Lentiform Loewenfeld,3.3.3,0,s,NA,h,s,NA,s,533,NA,3329,17977,NA,533,2,legacy,1024,2,48000,-16,experiment,2,even,NA,264215,274672,276417,20867,161382,2885,204353,NA,275779,158052,2889,NA,275882,275778,275882,Flanker Test,135,67691,148,yes,1024
HHSHH,91.27516779,91.27516779,456.9328859,456.9328859,black,legacy,legacy,legacy,0,incongruent,uniform,1,undefined,1,s,0,148,148,148,0,0,0,148,0,148,0,0,0,148,148,148,Sat Sep 19 00:32:55 2020,600,The main experiment item,yes,FlankerTask.osexp,C:\Users\Owner\Documents,no,mono,no,18,no,white,no,yes,768,legacy,68,79,C:/Users/Owner/Documents/SMPsubject-2.csv,legacy,Lentiform Loewenfeld,3.3.3,0,s,NA,h,s,NA,s,392,NA,3329,17977,NA,392,2,legacy,1024,2,48000,-16,experiment,2,even,NA,264215,276420,278021,20867,161382,2885,204353,NA,277525,158052,2889,NA,277628,277524,277628,Flanker Test,136,68083,149,yes,1024
SSHSS,91.33333333,91.33333333,456.9133333,456.9133333,black,legacy,legacy,legacy,0,incongruent,uniform,1,undefined,1,h,0,149,149,149,0,0,0,149,0,149,0,0,0,149,149,149,Sat Sep 19 00:32:55 2020,600,The main experiment item,yes,FlankerTask.osexp,C:\Users\Owner\Documents,no,mono,no,18,no,white,no,yes,768,legacy,69,79,C:/Users/Owner/Documents/SMPsubject-2.csv,legacy,Lentiform Loewenfeld,3.3.3,0,h,NA,h,s,NA,h,454,NA,3329,17977,NA,454,2,legacy,1024,2,48000,-16,experiment,2,even,NA,264215,278025,279689,20867,161382,2885,204353,NA,279131,158052,2889,NA,279234,279129,279233,Flanker Test,137,68537,150,yes,1024
HHHHH,91.39072848,91.39072848,457.0198675,457.0198675,black,legacy,legacy,legacy,0,congruent,uniform,1,undefined,1,h,0,150,150,150,0,0,0,150,0,150,0,0,0,150,150,150,Sat Sep 19 00:32:55 2020,600,The main experiment item,yes,FlankerTask.osexp,C:\Users\Owner\Documents,no,mono,no,18,no,white,no,yes,768,legacy,70,79,C:/Users/Owner/Documents/SMPsubject-2.csv,legacy,Lentiform Loewenfeld,3.3.3,0,h,NA,h,s,NA,h,473,NA,3329,17977,NA,473,2,legacy,1024,2,48000,-16,experiment,2,even,NA,264215,279693,281338,20867,161382,2885,204353,NA,280759,158052,2889,NA,280863,280758,280863,Flanker Test,138,69010,151,yes,1024
SSHSS,91.44736842,91.44736842,457.3157895,457.3157895,black,legacy,legacy,legacy,0,incongruent,uniform,1,undefined,1,h,0,151,151,151,0,0,0,151,0,151,0,0,0,151,151,151,Sat Sep 19 00:32:55 2020,600,The main experiment item,yes,FlankerTask.osexp,C:\Users\Owner\Documents,no,mono,no,18,no,white,no,yes,768,legacy,71,79,C:/Users/Owner/Documents/SMPsubject-2.csv,legacy,Lentiform Loewenfeld,3.3.3,0,h,NA,h,s,NA,h,502,NA,3329,17977,NA,502,2,legacy,1024,2,48000,-16,experiment,2,even,NA,264215,281341,283052,20867,161382,2885,204353,NA,282448,158052,2889,NA,282549,282446,282549,Flanker Test,139,69512,152,yes,1024
HHSHH,91.50326797,91.50326797,457.8562092,457.8562092,black,legacy,legacy,legacy,0,incongruent,uniform,1,undefined,1,s,0,152,152,152,0,0,0,152,0,152,0,0,0,152,152,152,Sat Sep 19 00:32:55 2020,600,The main experiment item,yes,FlankerTask.osexp,C:\Users\Owner\Documents,no,mono,no,18,no,white,no,yes,768,legacy,72,79,C:/Users/Owner/Documents/SMPsubject-2.csv,legacy,Lentiform Loewenfeld,3.3.3,0,s,NA,h,s,NA,s,540,NA,3329,17977,NA,540,2,legacy,1024,2,48000,-16,experiment,2,even,NA,264215,283055,284805,20867,161382,2885,204353,NA,284161,158052,2889,NA,284264,284159,284264,Flanker Test,140,70052,153,yes,1024
SSSSS,91.55844156,91.55844156,457.7597403,457.7597403,black,legacy,legacy,legacy,0,congruent,uniform,1,undefined,1,s,0,153,153,153,0,0,0,153,0,153,0,0,0,153,153,153,Sat Sep 19 00:32:55 2020,600,The main experiment item,yes,FlankerTask.osexp,C:\Users\Owner\Documents,no,mono,no,18,no,white,no,yes,768,legacy,73,79,C:/Users/Owner/Documents/SMPsubject-2.csv,legacy,Lentiform Loewenfeld,3.3.3,0,s,NA,h,s,NA,s,443,NA,3329,17977,NA,443,2,legacy,1024,2,48000,-16,experiment,2,even,NA,264215,284808,286463,20867,161382,2885,204353,NA,285914,158052,2889,NA,286018,285912,286018,Flanker Test,141,70495,154,yes,1024
HHSHH,91.61290323,91.61290323,457.483871,457.483871,black,legacy,legacy,legacy,0,incongruent,uniform,1,undefined,1,s,0,154,154,154,0,0,0,154,0,154,0,0,0,154,154,154,Sat Sep 19 00:32:55 2020,600,The main experiment item,yes,FlankerTask.osexp,C:\Users\Owner\Documents,no,mono,no,18,no,white,no,yes,768,legacy,74,79,C:/Users/Owner/Documents/SMPsubject-2.csv,legacy,Lentiform Loewenfeld,3.3.3,0,s,NA,h,s,NA,s,415,NA,3329,17977,NA,415,2,legacy,1024,2,48000,-16,experiment,2,even,NA,264215,286468,288096,20867,161382,2885,204353,NA,287576,158052,2889,NA,287679,287574,287679,Flanker Test,142,70910,155,yes,1024
SSSSS,91.66666667,91.66666667,457.4166667,457.4166667,black,legacy,legacy,legacy,0,congruent,uniform,1,undefined,1,s,0,155,155,155,0,0,0,155,0,155,0,0,0,155,155,155,Sat Sep 19 00:32:55 2020,600,The main experiment item,yes,FlankerTask.osexp,C:\Users\Owner\Documents,no,mono,no,18,no,white,no,yes,768,legacy,75,79,C:/Users/Owner/Documents/SMPsubject-2.csv,legacy,Lentiform Loewenfeld,3.3.3,0,s,NA,h,s,NA,s,447,NA,3329,17977,NA,447,2,legacy,1024,2,48000,-16,experiment,2,even,NA,264215,288099,289767,20867,161382,2885,204353,NA,289214,158052,2889,NA,289318,289212,289318,Flanker Test,143,71357,156,yes,1024
HHHHH,91.71974522,91.71974522,457.477707,457.477707,black,legacy,legacy,legacy,0,congruent,uniform,1,undefined,1,h,0,156,156,156,0,0,0,156,0,156,0,0,0,156,156,156,Sat Sep 19 00:32:55 2020,600,The main experiment item,yes,FlankerTask.osexp,C:\Users\Owner\Documents,no,mono,no,18,no,white,no,yes,768,legacy,76,79,C:/Users/Owner/Documents/SMPsubject-2.csv,legacy,Lentiform Loewenfeld,3.3.3,0,h,NA,h,s,NA,h,467,NA,3329,17977,NA,467,2,legacy,1024,2,48000,-16,experiment,2,even,NA,264215,289771,291449,20867,161382,2885,204353,NA,290878,158052,2889,NA,290981,290877,290981,Flanker Test,144,71824,157,yes,1024
SSSSS,91.7721519,91.7721519,456.9493671,456.9493671,black,legacy,legacy,legacy,0,congruent,uniform,1,undefined,1,s,0,157,157,157,0,0,0,157,0,157,0,0,0,157,157,157,Sat Sep 19 00:32:55 2020,600,The main experiment item,yes,FlankerTask.osexp,C:\Users\Owner\Documents,no,mono,no,18,no,white,no,yes,768,legacy,77,79,C:/Users/Owner/Documents/SMPsubject-2.csv,legacy,Lentiform Loewenfeld,3.3.3,0,s,NA,h,s,NA,s,374,NA,3329,17977,NA,374,2,legacy,1024,2,48000,-16,experiment,2,even,NA,264215,291453,293035,20867,161382,2885,204353,NA,292557,158052,2889,NA,292658,292556,292658,Flanker Test,145,72198,158,yes,1024
SSHSS,91.19496855,91.19496855,456.9496855,456.9496855,black,legacy,legacy,legacy,0,incongruent,uniform,0,undefined,0,h,0,158,158,158,0,0,0,158,0,158,0,0,0,158,158,158,Sat Sep 19 00:32:55 2020,600,The main experiment item,yes,FlankerTask.osexp,C:\Users\Owner\Documents,no,mono,no,18,no,white,no,yes,768,legacy,78,79,C:/Users/Owner/Documents/SMPsubject-2.csv,legacy,Lentiform Loewenfeld,3.3.3,0,s,NA,h,s,NA,s,457,NA,3329,17977,NA,457,2,legacy,1024,2,48000,-16,experiment,2,even,NA,264215,293038,294705,20867,161382,2885,204353,NA,294143,158052,2889,NA,294246,294141,294246,Flanker Test,145,72655,159,yes,1024
HHHHH,91.25,91.25,457.025,457.025,black,legacy,legacy,legacy,0,congruent,uniform,1,undefined,1,h,0,159,159,159,0,0,0,159,0,159,0,0,0,159,159,159,Sat Sep 19 00:32:55 2020,600,The main experiment item,yes,FlankerTask.osexp,C:\Users\Owner\Documents,no,mono,no,18,no,white,no,yes,768,legacy,79,79,C:/Users/Owner/Documents/SMPsubject-2.csv,legacy,Lentiform Loewenfeld,3.3.3,0,h,NA,h,s,NA,h,469,NA,3329,17977,NA,469,2,legacy,1024,2,48000,-16,experiment,2,even,NA,294709,295213,296867,20867,161382,2885,204353,NA,296293,158052,2889,NA,296396,296291,296396,Flanker Test,146,73124,160,yes,1024
HHHHH,91.30434783,91.30434783,457.3664596,457.3664596,black,legacy,legacy,legacy,0,congruent,uniform,1,undefined,1,h,0,160,160,160,0,0,0,160,0,160,0,0,0,160,160,160,Sat Sep 19 00:32:55 2020,300,The main experiment item,yes,FlankerTask.osexp,C:\Users\Owner\Documents,no,mono,no,18,no,white,no,yes,768,legacy,0,79,C:/Users/Owner/Documents/SMPsubject-2.csv,legacy,Lentiform Loewenfeld,3.3.3,0,h,NA,h,s,h,h,512,NA,3329,17977,2246,512,2,legacy,1024,2,48000,-16,experiment,2,even,300160,294709,296871,300817,20867,161382,2885,204353,NA,300202,158052,2889,297912,300304,300201,300303,Flanker Test,147,73636,161,yes,1024
SSSSS,91.35802469,91.35802469,456.4753086,456.4753086,black,legacy,legacy,legacy,0,congruent,uniform,1,undefined,1,s,0,161,161,161,0,0,0,161,0,161,0,0,0,161,161,161,Sat Sep 19 00:32:55 2020,300,The main experiment item,yes,FlankerTask.osexp,C:\Users\Owner\Documents,no,mono,no,18,no,white,no,yes,768,legacy,1,79,C:/Users/Owner/Documents/SMPsubject-2.csv,legacy,Lentiform Loewenfeld,3.3.3,0,s,NA,h,s,h,s,313,NA,3329,17977,2246,313,2,legacy,1024,2,48000,-16,experiment,2,even,300160,294709,301325,302845,20867,161382,2885,300821,NA,302428,158052,2889,297912,302531,302426,302531,Flanker Test,148,73949,162,yes,1024
HHHHH,90.79754601,90.79754601,455.2147239,455.2147239,black,legacy,legacy,legacy,0,congruent,uniform,0,undefined,0,h,0,162,162,162,0,0,0,162,0,162,0,0,0,162,162,162,Sat Sep 19 00:32:55 2020,300,The main experiment item,yes,FlankerTask.osexp,C:\Users\Owner\Documents,no,mono,no,18,no,white,no,yes,768,legacy,2,79,C:/Users/Owner/Documents/SMPsubject-2.csv,legacy,Lentiform Loewenfeld,3.3.3,0,s,NA,h,s,h,s,251,NA,3329,17977,2246,251,2,legacy,1024,2,48000,-16,experiment,2,even,300160,294709,303353,304792,20867,161382,2885,302849,NA,304438,158052,2889,297912,304539,304437,304539,Flanker Test,148,74200,163,yes,1024
HHSHH,90.85365854,90.85365854,454.2560976,454.2560976,black,legacy,legacy,legacy,0,incongruent,uniform,1,undefined,1,s,0,163,163,163,0,0,0,163,0,163,0,0,0,163,163,163,Sat Sep 19 00:32:55 2020,300,The main experiment item,yes,FlankerTask.osexp,C:\Users\Owner\Documents,no,mono,no,18,no,white,no,yes,768,legacy,3,79,C:/Users/Owner/Documents/SMPsubject-2.csv,legacy,Lentiform Loewenfeld,3.3.3,0,s,NA,h,s,h,s,298,NA,3329,17977,2246,298,2,legacy,1024,2,48000,-16,experiment,2,even,300160,304794,305298,306807,20867,161382,2885,302849,NA,306404,158052,2889,297912,306507,306403,306507,Flanker Test,149,74498,164,yes,1024
HHSHH,90.90909091,90.90909091,454.0848485,454.0848485,black,legacy,legacy,legacy,0,incongruent,uniform,1,undefined,1,s,0,164,164,164,0,0,0,164,0,164,0,0,0,164,164,164,Sat Sep 19 00:32:55 2020,300,The main experiment item,yes,FlankerTask.osexp,C:\Users\Owner\Documents,no,mono,no,18,no,white,no,yes,768,legacy,4,79,C:/Users/Owner/Documents/SMPsubject-2.csv,legacy,Lentiform Loewenfeld,3.3.3,0,s,NA,h,s,h,s,426,NA,3329,17977,2246,426,2,legacy,1024,2,48000,-16,experiment,2,even,300160,304794,306811,308448,20867,161382,2885,302849,NA,307918,158052,2889,297912,308021,307916,308021,Flanker Test,150,74924,165,yes,1024
HHHHH,90.96385542,90.96385542,453.2710843,453.2710843,black,legacy,legacy,legacy,0,congruent,uniform,1,undefined,1,h,0,165,165,165,0,0,0,165,0,165,0,0,0,165,165,165,Sat Sep 19 00:32:55 2020,300,The main experiment item,yes,FlankerTask.osexp,C:\Users\Owner\Documents,no,mono,no,18,no,white,no,yes,768,legacy,5,79,C:/Users/Owner/Documents/SMPsubject-2.csv,legacy,Lentiform Loewenfeld,3.3.3,0,h,NA,h,s,h,h,319,NA,3329,17977,2246,319,2,legacy,1024,2,48000,-16,experiment,2,even,300160,304794,308955,310485,20867,161382,2885,308451,NA,310063,158052,2889,297912,310165,310061,310165,Flanker Test,151,75243,166,yes,1024
SSHSS,90.41916168,90.41916168,452.3413174,452.3413174,black,legacy,legacy,legacy,0,incongruent,uniform,0,undefined,0,h,0,166,166,166,0,0,0,166,0,166,0,0,0,166,166,166,Sat Sep 19 00:32:55 2020,300,The main experiment item,yes,FlankerTask.osexp,C:\Users\Owner\Documents,no,mono,no,18,no,white,no,yes,768,legacy,6,79,C:/Users/Owner/Documents/SMPsubject-2.csv,legacy,Lentiform Loewenfeld,3.3.3,0,s,NA,h,s,h,s,298,NA,3329,17977,2246,298,2,legacy,1024,2,48000,-16,experiment,2,even,300160,304794,310993,312501,20867,161382,2885,310489,NA,312098,158052,2889,297912,312201,312097,312201,Flanker Test,151,75541,167,yes,1024
