"acc","accuracy","average_response_time","avg_rt","background","canvas_backend","clock_backend","color_backend","compensation","condition","coordinates","correct","correct_instructions1","correct_keyboard_response","correct_response","count_Block1","count_Block2","count_Block3","count_Finish","count_ISI","count_Instructions2","count_errorFeedback","count_experiment","count_faster","count_fixation","count_instructions1","count_instructions3","count_keyboard_response","count_logger","count_sequence","count_stimulus","datetime","deadline","description","disable_garbage_collection","experiment_file","experiment_path","font_bold","font_family","font_italic","font_size","font_underline","foreground","form_clicks","fullscreen","height","keyboard_backend","live_row","live_row_Block1","logfile","mouse_backend","opensesame_codename","opensesame_version","repeat_cycle","response","response_Finish","response_Instructions2","response_errorFeedback","response_faster","response_instructions1","response_instructions3","response_keyboard_response","response_time","response_time_Finish","response_time_Instructions2","response_time_errorFeedback","response_time_faster","response_time_instructions1","response_time_instructions3","response_time_keyboard_response","round_decimals","sampler_backend","sound_buf_size","sound_channels","sound_freq","sound_sample_size","start","stimulus","subject_nr","subject_parity","time_Block1","time_Block2","time_Block3","time_Finish","time_ISI","time_Instructions2","time_errorFeedback","time_experiment","time_faster","time_fixation","time_instructions1","time_instructions3","time_keyboard_response","time_logger","time_sequence","time_stimulus","title","total_correct","total_response_time","total_responses","uniform_coordinates","width"
"0","0","1500","1500","black","legacy","legacy","legacy","0","incogruent","uniform","0","undefined","0","s","0","0","0","0","0","0","0","0","0","0","0","0","0","0","0","0","Sun Sep 27 11:58:38 2020","1500","The main experiment item","yes","FlankerTask.osexp","/Users/shelia/Desktop","no","mono","no","18","no","white","no","yes","768","legacy","0","0","/Users/shelia/Desktop/ST-subject-4.csv","legacy","Lentiform Loewenfeld","3.3.3","0","None","NA","NA","NA","NA","s","NA","None","1500","NA","NA","NA","NA","25263","NA","1500","2","legacy","1024","2","48000","-16","experiment","HHSHH","4","even","27709","NA","NA","NA","NA","NA","NA","2417","NA","27767","2432","NA","27888","29388","27754","27888","Flanker Task","0","1500","1","yes","1024"
"50","50","1079.5","1079.5","black","legacy","legacy","legacy","0","incongruent","uniform","1","undefined","1","h","0","0","0","0","1","0","1","0","1","1","0","0","1","1","1","1","Sun Sep 27 11:58:38 2020","1500","The main experiment item","yes","FlankerTask.osexp","/Users/shelia/Desktop","no","mono","no","18","no","white","no","yes","768","legacy","1","1","/Users/shelia/Desktop/ST-subject-4.csv","legacy","Lentiform Loewenfeld","3.3.3","0","h","NA","NA","s","NA","s","NA","h","659","NA","NA","81","NA","25263","NA","659","2","legacy","1024","2","48000","-16","experiment","SSHSS","4","even","27709","NA","NA","NA","29500","NA","29405","2417","NA","30583","2432","NA","30705","31365","30570","30705","Flanker Task","1","2159","2","yes","1024"
"66.66666666666667","66.66666666666667","888.3333333333334","888.3333333333334","black","legacy","legacy","legacy","0","incongruent","uniform","1","undefined","1","h","0","0","0","0","2","0","2","0","2","2","0","0","2","2","2","2","Sun Sep 27 11:58:38 2020","1500","The main experiment item","yes","FlankerTask.osexp","/Users/shelia/Desktop","no","mono","no","18","no","white","no","yes","768","legacy","2","2","/Users/shelia/Desktop/ST-subject-4.csv","legacy","Lentiform Loewenfeld","3.3.3","0","h","NA","NA","s","NA","s","NA","h","506","NA","NA","81","NA","25263","NA","506","2","legacy","1024","2","48000","-16","experiment","SSHSS","4","even","27709","NA","NA","NA","31379","NA","29405","2417","NA","32449","2432","NA","32570","33077","32437","32570","Flanker Task","2","2665","3","yes","1024"
"75","75","857.5","857.5","black","legacy","legacy","legacy","0","congruent","uniform","1","undefined","1","s","0","0","0","0","3","0","3","0","3","3","0","0","3","3","3","3","Sun Sep 27 11:58:38 2020","1500","The main experiment item","yes","FlankerTask.osexp","/Users/shelia/Desktop","no","mono","no","18","no","white","no","yes","768","legacy","3","3","/Users/shelia/Desktop/ST-subject-4.csv","legacy","Lentiform Loewenfeld","3.3.3","0","s","NA","NA","s","NA","s","NA","s","765","NA","NA","81","NA","25263","NA","765","2","legacy","1024","2","48000","-16","experiment","SSSSS","4","even","27709","NA","NA","NA","33092","NA","29405","2417","NA","34162","2432","NA","34282","35048","34149","34282","Flanker Task","3","3430","4","yes","1024"
"80","80","801.4","801.4","black","legacy","legacy","legacy","0","congruent","uniform","1","undefined","1","h","0","0","0","0","4","0","4","0","4","4","0","0","4","4","4","4","Sun Sep 27 11:58:38 2020","1500","The main experiment item","yes","FlankerTask.osexp","/Users/shelia/Desktop","no","mono","no","18","no","white","no","yes","768","legacy","4","4","/Users/shelia/Desktop/ST-subject-4.csv","legacy","Lentiform Loewenfeld","3.3.3","0","h","NA","NA","s","NA","s","NA","h","577","NA","NA","81","NA","25263","NA","577","2","legacy","1024","2","48000","-16","experiment","HHHHH","4","even","27709","NA","NA","NA","35063","NA","29405","2417","NA","36131","2432","NA","36251","36829","36118","36251","Flanker Task","4","4007","5","yes","1024"
"83.33333333333333","83.33333333333333","775","775","black","legacy","legacy","legacy","0","incongruent","uniform","1","undefined","1","h","0","0","0","0","5","0","5","0","5","5","0","0","5","5","5","5","Sun Sep 27 11:58:38 2020","1500","The main experiment item","yes","FlankerTask.osexp","/Users/shelia/Desktop","no","mono","no","18","no","white","no","yes","768","legacy","5","5","/Users/shelia/Desktop/ST-subject-4.csv","legacy","Lentiform Loewenfeld","3.3.3","0","h","NA","NA","s","NA","s","NA","h","643","NA","NA","81","NA","25263","NA","643","2","legacy","1024","2","48000","-16","experiment","SSHSS","4","even","27709","NA","NA","NA","36844","NA","29405","2417","NA","37912","2432","NA","38030","38674","37899","38030","Flanker Task","5","4650","6","yes","1024"
"85.71428571428571","85.71428571428571","754.8571428571429","754.8571428571429","black","legacy","legacy","legacy","0","incogruent","uniform","1","undefined","1","s","0","0","0","0","6","0","6","0","6","6","0","0","6","6","6","6","Sun Sep 27 11:58:38 2020","1500","The main experiment item","yes","FlankerTask.osexp","/Users/shelia/Desktop","no","mono","no","18","no","white","no","yes","768","legacy","6","6","/Users/shelia/Desktop/ST-subject-4.csv","legacy","Lentiform Loewenfeld","3.3.3","0","s","NA","NA","s","NA","s","NA","s","634","NA","NA","81","NA","25263","NA","634","2","legacy","1024","2","48000","-16","experiment","HHSHH","4","even","27709","NA","NA","NA","38688","NA","29405","2417","NA","39760","2432","NA","39877","40512","39747","39877","Flanker Task","6","5284","7","yes","1024"
"87.5","87.5","731.875","731.875","black","legacy","legacy","legacy","0","congruent","uniform","1","undefined","1","h","0","0","0","0","7","0","7","0","7","7","0","0","7","7","7","7","Sun Sep 27 11:58:38 2020","1500","The main experiment item","yes","FlankerTask.osexp","/Users/shelia/Desktop","no","mono","no","18","no","white","no","yes","768","legacy","7","7","/Users/shelia/Desktop/ST-subject-4.csv","legacy","Lentiform Loewenfeld","3.3.3","0","h","NA","NA","s","NA","s","NA","h","571","NA","NA","81","NA","25263","NA","571","2","legacy","1024","2","48000","-16","experiment","HHHHH","4","even","27709","NA","NA","NA","40526","NA","29405","2417","NA","41595","2432","NA","41717","42289","41583","41717","Flanker Task","7","5855","8","yes","1024"
"88.88888888888889","88.88888888888889","720.6666666666666","720.6666666666666","black","legacy","legacy","legacy","0","incogruent","uniform","1","undefined","1","s","0","0","0","0","8","0","8","0","8","8","0","0","8","8","8","8","Sun Sep 27 11:58:38 2020","1500","The main experiment item","yes","FlankerTask.osexp","/Users/shelia/Desktop","no","mono","no","18","no","white","no","yes","768","legacy","8","8","/Users/shelia/Desktop/ST-subject-4.csv","legacy","Lentiform Loewenfeld","3.3.3","0","s","NA","NA","s","NA","s","NA","s","631","NA","NA","81","NA","25263","NA","631","2","legacy","1024","2","48000","-16","experiment","HHSHH","4","even","27709","NA","NA","NA","42304","NA","29405","2417","NA","43372","2432","NA","43493","44125","43359","43493","Flanker Task","8","6486","9","yes","1024"
"90","90","703.2","703.2","black","legacy","legacy","legacy","0","incogruent","uniform","1","undefined","1","s","0","0","0","0","9","0","9","0","9","9","0","0","9","9","9","9","Sun Sep 27 11:58:38 2020","1500","The main experiment item","yes","FlankerTask.osexp","/Users/shelia/Desktop","no","mono","no","18","no","white","no","yes","768","legacy","9","9","/Users/shelia/Desktop/ST-subject-4.csv","legacy","Lentiform Loewenfeld","3.3.3","0","s","NA","NA","s","NA","s","NA","s","546","NA","NA","81","NA","25263","NA","546","2","legacy","1024","2","48000","-16","experiment","HHSHH","4","even","27709","NA","NA","NA","44141","NA","29405","2417","NA","45208","2432","NA","45329","45876","45195","45329","Flanker Task","9","7032","10","yes","1024"
"90.9090909090909","90.9090909090909","682.8181818181819","682.8181818181819","black","legacy","legacy","legacy","0","incogruent","uniform","1","undefined","1","s","0","0","0","0","10","0","10","0","10","10","0","0","10","10","10","10","Sun Sep 27 11:58:38 2020","1500","The main experiment item","yes","FlankerTask.osexp","/Users/shelia/Desktop","no","mono","no","18","no","white","no","yes","768","legacy","10","10","/Users/shelia/Desktop/ST-subject-4.csv","legacy","Lentiform Loewenfeld","3.3.3","0","s","NA","NA","s","NA","s","NA","s","479","NA","NA","81","NA","25263","NA","479","2","legacy","1024","2","48000","-16","experiment","HHSHH","4","even","27709","NA","NA","NA","45891","NA","29405","2417","NA","46961","2432","NA","47082","47561","46948","47082","Flanker Task","10","7511","11","yes","1024"
"91.66666666666667","91.66666666666667","662.75","662.75","black","legacy","legacy","legacy","0","congruent","uniform","1","undefined","1","s","0","0","0","0","11","0","11","0","11","11","0","0","11","11","11","11","Sun Sep 27 11:58:38 2020","1500","The main experiment item","yes","FlankerTask.osexp","/Users/shelia/Desktop","no","mono","no","18","no","white","no","yes","768","legacy","11","11","/Users/shelia/Desktop/ST-subject-4.csv","legacy","Lentiform Loewenfeld","3.3.3","0","s","NA","NA","s","NA","s","NA","s","442","NA","NA","81","NA","25263","NA","442","2","legacy","1024","2","48000","-16","experiment","SSSSS","4","even","27709","NA","NA","NA","47577","NA","29405","2417","NA","48648","2432","NA","48769","49212","48634","48769","Flanker Task","11","7953","12","yes","1024"
"92.3076923076923","92.3076923076923","650.7692307692307","650.7692307692307","black","legacy","legacy","legacy","0","congruent","uniform","1","undefined","1","h","0","0","0","0","12","0","12","0","12","12","0","0","12","12","12","12","Sun Sep 27 11:58:38 2020","1500","The main experiment item","yes","FlankerTask.osexp","/Users/shelia/Desktop","no","mono","no","18","no","white","no","yes","768","legacy","12","12","/Users/shelia/Desktop/ST-subject-4.csv","legacy","Lentiform Loewenfeld","3.3.3","0","h","NA","NA","s","NA","s","NA","h","507","NA","NA","81","NA","25263","NA","507","2","legacy","1024","2","48000","-16","experiment","HHHHH","4","even","27709","NA","NA","NA","49227","NA","29405","2417","NA","50296","2432","NA","50417","50925","50283","50416","Flanker Task","12","8460","13","yes","1024"
"85.71428571428571","85.71428571428571","644.2857142857143","644.2857142857143","black","legacy","legacy","legacy","0","incongruent","uniform","0","undefined","0","h","0","0","0","0","13","0","13","0","13","13","0","0","13","13","13","13","Sun Sep 27 11:58:38 2020","1500","The main experiment item","yes","FlankerTask.osexp","/Users/shelia/Desktop","no","mono","no","18","no","white","no","yes","768","legacy","13","13","/Users/shelia/Desktop/ST-subject-4.csv","legacy","Lentiform Loewenfeld","3.3.3","0","s","NA","NA","s","NA","s","NA","s","560","NA","NA","81","NA","25263","NA","560","2","legacy","1024","2","48000","-16","experiment","SSHSS","4","even","27709","NA","NA","NA","50941","NA","29405","2417","NA","52008","2432","NA","52129","52690","51996","52129","Flanker Task","12","9020","14","yes","1024"
"86.66666666666667","86.66666666666667","637.9333333333333","637.9333333333333","black","legacy","legacy","legacy","0","incongruent","uniform","1","undefined","1","h","0","0","0","0","14","0","14","0","14","14","0","0","14","14","14","14","Sun Sep 27 11:58:38 2020","1500","The main experiment item","yes","FlankerTask.osexp","/Users/shelia/Desktop","no","mono","no","18","no","white","no","yes","768","legacy","14","14","/Users/shelia/Desktop/ST-subject-4.csv","legacy","Lentiform Loewenfeld","3.3.3","0","h","NA","NA","h","NA","s","NA","h","549","NA","NA","45","NA","25263","NA","549","2","legacy","1024","2","48000","-16","experiment","SSHSS","4","even","27709","NA","NA","NA","52764","NA","52705","2417","NA","53835","2432","NA","53956","54506","53822","53956","Flanker Task","13","9569","15","yes","1024"
"87.5","87.5","627.8125","627.8125","black","legacy","legacy","legacy","0","congruent","uniform","1","undefined","1","h","0","0","0","0","15","0","15","0","15","15","0","0","15","15","15","15","Sun Sep 27 11:58:38 2020","1500","The main experiment item","yes","FlankerTask.osexp","/Users/shelia/Desktop","no","mono","no","18","no","white","no","yes","768","legacy","15","15","/Users/shelia/Desktop/ST-subject-4.csv","legacy","Lentiform Loewenfeld","3.3.3","0","h","NA","NA","h","NA","s","NA","h","476","NA","NA","45","NA","25263","NA","476","2","legacy","1024","2","48000","-16","experiment","HHHHH","4","even","27709","NA","NA","NA","54521","NA","52705","2417","NA","55589","2432","NA","55710","56187","55576","55710","Flanker Task","14","10045","16","yes","1024"
"88.23529411764706","88.23529411764706","619.4705882352941","619.4705882352941","black","legacy","legacy","legacy","0","incongruent","uniform","1","undefined","1","h","0","0","0","0","16","0","16","0","16","16","0","0","16","16","16","16","Sun Sep 27 11:58:38 2020","1500","The main experiment item","yes","FlankerTask.osexp","/Users/shelia/Desktop","no","mono","no","18","no","white","no","yes","768","legacy","16","16","/Users/shelia/Desktop/ST-subject-4.csv","legacy","Lentiform Loewenfeld","3.3.3","0","h","NA","NA","h","NA","s","NA","h","486","NA","NA","45","NA","25263","NA","486","2","legacy","1024","2","48000","-16","experiment","SSHSS","4","even","27709","NA","NA","NA","56202","NA","52705","2417","NA","57270","2432","NA","57391","57878","57256","57391","Flanker Task","15","10531","17","yes","1024"
"88.88888888888889","88.88888888888889","611.3888888888889","611.3888888888889","black","legacy","legacy","legacy","0","incongruent","uniform","1","undefined","1","h","0","0","0","0","17","0","17","0","17","17","0","0","17","17","17","17","Sun Sep 27 11:58:38 2020","1500","The main experiment item","yes","FlankerTask.osexp","/Users/shelia/Desktop","no","mono","no","18","no","white","no","yes","768","legacy","17","17","/Users/shelia/Desktop/ST-subject-4.csv","legacy","Lentiform Loewenfeld","3.3.3","0","h","NA","NA","h","NA","s","NA","h","474","NA","NA","45","NA","25263","NA","474","2","legacy","1024","2","48000","-16","experiment","SSHSS","4","even","27709","NA","NA","NA","57893","NA","52705","2417","NA","58962","2432","NA","59082","59557","58949","59082","Flanker Task","16","11005","18","yes","1024"
"89.47368421052632","89.47368421052632","600.4736842105264","600.4736842105264","black","legacy","legacy","legacy","0","incongruent","uniform","1","undefined","1","h","0","0","0","0","18","0","18","0","18","18","0","0","18","18","18","18","Sun Sep 27 11:58:38 2020","1500","The main experiment item","yes","FlankerTask.osexp","/Users/shelia/Desktop","no","mono","no","18","no","white","no","yes","768","legacy","18","18","/Users/shelia/Desktop/ST-subject-4.csv","legacy","Lentiform Loewenfeld","3.3.3","0","h","NA","NA","h","NA","s","NA","h","404","NA","NA","45","NA","25263","NA","404","2","legacy","1024","2","48000","-16","experiment","SSHSS","4","even","27709","NA","NA","NA","59572","NA","52705","2417","NA","60640","2432","NA","60761","61166","60627","60761","Flanker Task","17","11409","19","yes","1024"
"90","90","590.9","590.9","black","legacy","legacy","legacy","0","incongruent","uniform","1","undefined","1","h","0","0","0","0","19","0","19","0","19","19","0","0","19","19","19","19","Sun Sep 27 11:58:38 2020","1500","The main experiment item","yes","FlankerTask.osexp","/Users/shelia/Desktop","no","mono","no","18","no","white","no","yes","768","legacy","19","19","/Users/shelia/Desktop/ST-subject-4.csv","legacy","Lentiform Loewenfeld","3.3.3","0","h","NA","NA","h","NA","s","NA","h","409","NA","NA","45","NA","25263","NA","409","2","legacy","1024","2","48000","-16","experiment","SSHSS","4","even","27709","NA","NA","NA","61181","NA","52705","2417","NA","62249","2432","NA","62370","62780","62236","62370","Flanker Task","18","11818","20","yes","1024"
"90.47619047619048","90.47619047619048","581.8095238095239","581.8095238095239","black","legacy","legacy","legacy","0","congruent","uniform","1","undefined","1","h","0","0","0","0","20","0","20","0","20","20","0","0","20","20","20","20","Sun Sep 27 11:58:38 2020","1500","The main experiment item","yes","FlankerTask.osexp","/Users/shelia/Desktop","no","mono","no","18","no","white","no","yes","768","legacy","20","20","/Users/shelia/Desktop/ST-subject-4.csv","legacy","Lentiform Loewenfeld","3.3.3","0","h","NA","NA","h","NA","s","NA","h","400","NA","NA","45","NA","25263","NA","400","2","legacy","1024","2","48000","-16","experiment","HHHHH","4","even","27709","NA","NA","NA","62795","NA","52705","2417","NA","63863","2432","NA","63984","64385","63850","63984","Flanker Task","19","12218","21","yes","1024"
"90.9090909090909","90.9090909090909","581.4545454545455","581.4545454545455","black","legacy","legacy","legacy","0","incogruent","uniform","1","undefined","1","s","0","0","0","0","21","0","21","0","21","21","0","0","21","21","21","21","Sun Sep 27 11:58:38 2020","1500","The main experiment item","yes","FlankerTask.osexp","/Users/shelia/Desktop","no","mono","no","18","no","white","no","yes","768","legacy","21","21","/Users/shelia/Desktop/ST-subject-4.csv","legacy","Lentiform Loewenfeld","3.3.3","0","s","NA","NA","h","NA","s","NA","s","574","NA","NA","45","NA","25263","NA","574","2","legacy","1024","2","48000","-16","experiment","HHSHH","4","even","27709","NA","NA","NA","64400","NA","52705","2417","NA","65471","2432","NA","65588","66163","65458","65587","Flanker Task","20","12792","22","yes","1024"
"91.30434782608695","91.30434782608695","579.1304347826087","579.1304347826087","black","legacy","legacy","legacy","0","incongruent","uniform","1","undefined","1","h","0","0","0","0","22","0","22","0","22","22","0","0","22","22","22","22","Sun Sep 27 11:58:38 2020","1500","The main experiment item","yes","FlankerTask.osexp","/Users/shelia/Desktop","no","mono","no","18","no","white","no","yes","768","legacy","22","22","/Users/shelia/Desktop/ST-subject-4.csv","legacy","Lentiform Loewenfeld","3.3.3","0","h","NA","NA","h","NA","s","NA","h","528","NA","NA","45","NA","25263","NA","528","2","legacy","1024","2","48000","-16","experiment","SSHSS","4","even","27709","NA","NA","NA","66177","NA","52705","2417","NA","67247","2432","NA","67367","67896","67233","67367","Flanker Task","21","13320","23","yes","1024"
"91.66666666666667","91.66666666666667","574.3333333333334","574.3333333333334","black","legacy","legacy","legacy","0","congruent","uniform","1","undefined","1","s","0","0","0","0","23","0","23","0","23","23","0","0","23","23","23","23","Sun Sep 27 11:58:38 2020","1500","The main experiment item","yes","FlankerTask.osexp","/Users/shelia/Desktop","no","mono","no","18","no","white","no","yes","768","legacy","23","23","/Users/shelia/Desktop/ST-subject-4.csv","legacy","Lentiform Loewenfeld","3.3.3","0","s","NA","NA","h","NA","s","NA","s","464","NA","NA","45","NA","25263","NA","464","2","legacy","1024","2","48000","-16","experiment","SSSSS","4","even","27709","NA","NA","NA","67910","NA","52705","2417","NA","68980","2432","NA","69100","69565","68967","69100","Flanker Task","22","13784","24","yes","1024"
"92","92","571.24","571.24","black","legacy","legacy","legacy","0","incogruent","uniform","1","undefined","1","s","0","0","0","0","24","0","24","0","24","24","0","0","24","24","24","24","Sun Sep 27 11:58:38 2020","1500","The main experiment item","yes","FlankerTask.osexp","/Users/shelia/Desktop","no","mono","no","18","no","white","no","yes","768","legacy","24","24","/Users/shelia/Desktop/ST-subject-4.csv","legacy","Lentiform Loewenfeld","3.3.3","0","s","NA","NA","h","NA","s","NA","s","497","NA","NA","45","NA","25263","NA","497","2","legacy","1024","2","48000","-16","experiment","HHSHH","4","even","27709","NA","NA","NA","69580","NA","52705","2417","NA","70649","2432","NA","70770","71268","70636","70770","Flanker Task","23","14281","25","yes","1024"
"92.3076923076923","92.3076923076923","571.5769230769231","571.5769230769231","black","legacy","legacy","legacy","0","incongruent","uniform","1","undefined","1","h","0","0","0","0","25","0","25","0","25","25","0","0","25","25","25","25","Sun Sep 27 11:58:38 2020","1500","The main experiment item","yes","FlankerTask.osexp","/Users/shelia/Desktop","no","mono","no","18","no","white","no","yes","768","legacy","25","25","/Users/shelia/Desktop/ST-subject-4.csv","legacy","Lentiform Loewenfeld","3.3.3","0","h","NA","NA","h","NA","s","NA","h","580","NA","NA","45","NA","25263","NA","580","2","legacy","1024","2","48000","-16","experiment","SSHSS","4","even","27709","NA","NA","NA","71283","NA","52705","2417","NA","72353","2432","NA","72474","73055","72340","72473","Flanker Task","24","14861","26","yes","1024"
"92.5925925925926","92.5925925925926","571.2592592592592","571.2592592592592","black","legacy","legacy","legacy","0","incogruent","uniform","1","undefined","1","s","0","0","0","0","26","0","26","0","26","26","0","0","26","26","26","26","Sun Sep 27 11:58:38 2020","1500","The main experiment item","yes","FlankerTask.osexp","/Users/shelia/Desktop","no","mono","no","18","no","white","no","yes","768","legacy","26","26","/Users/shelia/Desktop/ST-subject-4.csv","legacy","Lentiform Loewenfeld","3.3.3","0","s","NA","NA","h","NA","s","NA","s","563","NA","NA","45","NA","25263","NA","563","2","legacy","1024","2","48000","-16","experiment","HHSHH","4","even","27709","NA","NA","NA","73071","NA","52705","2417","NA","74142","2432","NA","74263","74827","74129","74263","Flanker Task","25","15424","27","yes","1024"
"92.85714285714286","92.85714285714286","565.7142857142857","565.7142857142857","black","legacy","legacy","legacy","0","congruent","uniform","1","undefined","1","h","0","0","0","0","27","0","27","0","27","27","0","0","27","27","27","27","Sun Sep 27 11:58:38 2020","1500","The main experiment item","yes","FlankerTask.osexp","/Users/shelia/Desktop","no","mono","no","18","no","white","no","yes","768","legacy","27","27","/Users/shelia/Desktop/ST-subject-4.csv","legacy","Lentiform Loewenfeld","3.3.3","0","h","NA","NA","h","NA","s","NA","h","416","NA","NA","45","NA","25263","NA","416","2","legacy","1024","2","48000","-16","experiment","HHHHH","4","even","27709","NA","NA","NA","74842","NA","52705","2417","NA","75913","2432","NA","76031","76448","75900","76031","Flanker Task","26","15840","28","yes","1024"
"93.10344827586206","93.10344827586206","562.8275862068965","562.8275862068965","black","legacy","legacy","legacy","0","congruent","uniform","1","undefined","1","s","0","0","0","0","28","0","28","0","28","28","0","0","28","28","28","28","Sun Sep 27 11:58:38 2020","1500","The main experiment item","yes","FlankerTask.osexp","/Users/shelia/Desktop","no","mono","no","18","no","white","no","yes","768","legacy","28","28","/Users/shelia/Desktop/ST-subject-4.csv","legacy","Lentiform Loewenfeld","3.3.3","0","s","NA","NA","h","NA","s","NA","s","482","NA","NA","45","NA","25263","NA","482","2","legacy","1024","2","48000","-16","experiment","SSSSS","4","even","27709","NA","NA","NA","76463","NA","52705","2417","NA","77534","2432","NA","77655","78138","77521","77655","Flanker Task","27","16322","29","yes","1024"
"93.33333333333333","93.33333333333333","558.4","558.4","black","legacy","legacy","legacy","0","congruent","uniform","1","undefined","1","s","0","0","0","0","29","0","29","0","29","29","0","0","29","29","29","29","Sun Sep 27 11:58:38 2020","1500","The main experiment item","yes","FlankerTask.osexp","/Users/shelia/Desktop","no","mono","no","18","no","white","no","yes","768","legacy","29","29","/Users/shelia/Desktop/ST-subject-4.csv","legacy","Lentiform Loewenfeld","3.3.3","0","s","NA","NA","h","NA","s","NA","s","430","NA","NA","45","NA","25263","NA","430","2","legacy","1024","2","48000","-16","experiment","SSSSS","4","even","27709","NA","NA","NA","78154","NA","52705","2417","NA","79222","2432","NA","79340","79772","79208","79340","Flanker Task","28","16752","30","yes","1024"
"93.54838709677419","93.54838709677419","555.1935483870968","555.1935483870968","black","legacy","legacy","legacy","0","incogruent","uniform","1","undefined","1","s","0","0","0","0","30","0","30","0","30","30","0","0","30","30","30","30","Sun Sep 27 11:58:38 2020","1500","The main experiment item","yes","FlankerTask.osexp","/Users/shelia/Desktop","no","mono","no","18","no","white","no","yes","768","legacy","30","30","/Users/shelia/Desktop/ST-subject-4.csv","legacy","Lentiform Loewenfeld","3.3.3","0","s","NA","NA","h","NA","s","NA","s","459","NA","NA","45","NA","25263","NA","459","2","legacy","1024","2","48000","-16","experiment","HHSHH","4","even","27709","NA","NA","NA","79787","NA","52705","2417","NA","80858","2432","NA","80979","81439","80844","80979","Flanker Task","29","17211","31","yes","1024"
"93.75","93.75","552.0625","552.0625","black","legacy","legacy","legacy","0","congruent","uniform","1","undefined","1","s","0","0","0","0","31","0","31","0","31","31","0","0","31","31","31","31","Sun Sep 27 11:58:38 2020","1500","The main experiment item","yes","FlankerTask.osexp","/Users/shelia/Desktop","no","mono","no","18","no","white","no","yes","768","legacy","31","31","/Users/shelia/Desktop/ST-subject-4.csv","legacy","Lentiform Loewenfeld","3.3.3","0","s","NA","NA","h","NA","s","NA","s","455","NA","NA","45","NA","25263","NA","455","2","legacy","1024","2","48000","-16","experiment","SSSSS","4","even","27709","NA","NA","NA","81454","NA","52705","2417","NA","82525","2432","NA","82645","83101","82511","82645","Flanker Task","30","17666","32","yes","1024"
"93.93939393939394","93.93939393939394","547.6666666666666","547.6666666666666","black","legacy","legacy","legacy","0","congruent","uniform","1","undefined","1","s","0","0","0","0","32","0","32","0","32","32","0","0","32","32","32","32","Sun Sep 27 11:58:38 2020","1500","The main experiment item","yes","FlankerTask.osexp","/Users/shelia/Desktop","no","mono","no","18","no","white","no","yes","768","legacy","32","32","/Users/shelia/Desktop/ST-subject-4.csv","legacy","Lentiform Loewenfeld","3.3.3","0","s","NA","NA","h","NA","s","NA","s","407","NA","NA","45","NA","25263","NA","407","2","legacy","1024","2","48000","-16","experiment","SSSSS","4","even","27709","NA","NA","NA","83115","NA","52705","2417","NA","84183","2432","NA","84303","84711","84170","84302","Flanker Task","31","18073","33","yes","1024"
"91.17647058823529","91.17647058823529","546.7647058823529","546.7647058823529","black","legacy","legacy","legacy","0","incogruent","uniform","0","undefined","0","s","0","0","0","0","33","0","33","0","33","33","0","0","33","33","33","33","Sun Sep 27 11:58:38 2020","1500","The main experiment item","yes","FlankerTask.osexp","/Users/shelia/Desktop","no","mono","no","18","no","white","no","yes","768","legacy","33","33","/Users/shelia/Desktop/ST-subject-4.csv","legacy","Lentiform Loewenfeld","3.3.3","0","h","NA","NA","h","NA","s","NA","h","517","NA","NA","45","NA","25263","NA","517","2","legacy","1024","2","48000","-16","experiment","HHSHH","4","even","27709","NA","NA","NA","84727","NA","52705","2417","NA","85795","2432","NA","85916","86434","85782","85916","Flanker Task","31","18590","34","yes","1024"
"91.42857142857143","91.42857142857143","547.5142857142857","547.5142857142857","black","legacy","legacy","legacy","0","incogruent","uniform","1","undefined","1","s","0","0","0","0","34","0","34","0","34","34","0","0","34","34","34","34","Sun Sep 27 11:58:38 2020","1500","The main experiment item","yes","FlankerTask.osexp","/Users/shelia/Desktop","no","mono","no","18","no","white","no","yes","768","legacy","34","34","/Users/shelia/Desktop/ST-subject-4.csv","legacy","Lentiform Loewenfeld","3.3.3","0","s","NA","NA","s","NA","s","NA","s","573","NA","NA","138","NA","25263","NA","573","2","legacy","1024","2","48000","-16","experiment","HHSHH","4","even","27709","NA","NA","NA","86602","NA","86449","2417","NA","87673","2432","NA","87794","88368","87659","87794","Flanker Task","32","19163","35","yes","1024"
"91.66666666666667","91.66666666666667","544.6388888888889","544.6388888888889","black","legacy","legacy","legacy","0","incogruent","uniform","1","undefined","1","s","0","0","0","0","35","0","35","0","35","35","0","0","35","35","35","35","Sun Sep 27 11:58:38 2020","1500","The main experiment item","yes","FlankerTask.osexp","/Users/shelia/Desktop","no","mono","no","18","no","white","no","yes","768","legacy","35","35","/Users/shelia/Desktop/ST-subject-4.csv","legacy","Lentiform Loewenfeld","3.3.3","0","s","NA","NA","s","NA","s","NA","s","444","NA","NA","138","NA","25263","NA","444","2","legacy","1024","2","48000","-16","experiment","HHSHH","4","even","27709","NA","NA","NA","88382","NA","86449","2417","NA","89453","2432","NA","89574","90019","89440","89574","Flanker Task","33","19607","36","yes","1024"
"91.89189189189189","91.89189189189189","540.4054054054054","540.4054054054054","black","legacy","legacy","legacy","0","congruent","uniform","1","undefined","1","s","0","0","0","0","36","0","36","0","36","36","0","0","36","36","36","36","Sun Sep 27 11:58:38 2020","1500","The main experiment item","yes","FlankerTask.osexp","/Users/shelia/Desktop","no","mono","no","18","no","white","no","yes","768","legacy","36","36","/Users/shelia/Desktop/ST-subject-4.csv","legacy","Lentiform Loewenfeld","3.3.3","0","s","NA","NA","s","NA","s","NA","s","388","NA","NA","138","NA","25263","NA","388","2","legacy","1024","2","48000","-16","experiment","SSSSS","4","even","27709","NA","NA","NA","90033","NA","86449","2417","NA","91102","2432","NA","91224","91613","91089","91223","Flanker Task","34","19995","37","yes","1024"
"92.10526315789474","92.10526315789474","541.4736842105264","541.4736842105264","black","legacy","legacy","legacy","0","incongruent","uniform","1","undefined","1","h","0","0","0","0","37","0","37","0","37","37","0","0","37","37","37","37","Sun Sep 27 11:58:38 2020","1500","The main experiment item","yes","FlankerTask.osexp","/Users/shelia/Desktop","no","mono","no","18","no","white","no","yes","768","legacy","37","37","/Users/shelia/Desktop/ST-subject-4.csv","legacy","Lentiform Loewenfeld","3.3.3","0","h","NA","NA","s","NA","s","NA","h","581","NA","NA","138","NA","25263","NA","581","2","legacy","1024","2","48000","-16","experiment","SSHSS","4","even","27709","NA","NA","NA","91628","NA","86449","2417","NA","92699","2432","NA","92819","93401","92685","92819","Flanker Task","35","20576","38","yes","1024"
"92.3076923076923","92.3076923076923","538.8717948717949","538.8717948717949","black","legacy","legacy","legacy","0","incongruent","uniform","1","undefined","1","h","0","0","0","0","38","0","38","0","38","38","0","0","38","38","38","38","Sun Sep 27 11:58:38 2020","1500","The main experiment item","yes","FlankerTask.osexp","/Users/shelia/Desktop","no","mono","no","18","no","white","no","yes","768","legacy","38","38","/Users/shelia/Desktop/ST-subject-4.csv","legacy","Lentiform Loewenfeld","3.3.3","0","h","NA","NA","s","NA","s","NA","h","440","NA","NA","138","NA","25263","NA","440","2","legacy","1024","2","48000","-16","experiment","SSHSS","4","even","27709","NA","NA","NA","93417","NA","86449","2417","NA","94487","2432","NA","94606","95047","94474","94605","Flanker Task","36","21016","39","yes","1024"
"92.5","92.5","537.55","537.55","black","legacy","legacy","legacy","0","congruent","uniform","1","undefined","1","h","0","0","0","0","39","0","39","0","39","39","0","0","39","39","39","39","Sun Sep 27 11:58:38 2020","1500","The main experiment item","yes","FlankerTask.osexp","/Users/shelia/Desktop","no","mono","no","18","no","white","no","yes","768","legacy","39","39","/Users/shelia/Desktop/ST-subject-4.csv","legacy","Lentiform Loewenfeld","3.3.3","0","h","NA","NA","s","NA","s","NA","h","486","NA","NA","138","NA","25263","NA","486","2","legacy","1024","2","48000","-16","experiment","HHHHH","4","even","27709","NA","NA","NA","95062","NA","86449","2417","NA","96129","2432","NA","96250","96737","96116","96250","Flanker Task","37","21502","40","yes","1024"
"92.6829268292683","92.6829268292683","536.2682926829268","536.2682926829268","black","legacy","legacy","legacy","0","incongruent","uniform","1","undefined","1","h","0","0","0","0","40","0","40","0","40","40","0","0","40","40","40","40","Sun Sep 27 11:58:38 2020","1500","The main experiment item","yes","FlankerTask.osexp","/Users/shelia/Desktop","no","mono","no","18","no","white","no","yes","768","legacy","40","40","/Users/shelia/Desktop/ST-subject-4.csv","legacy","Lentiform Loewenfeld","3.3.3","0","h","NA","NA","s","NA","s","NA","h","485","NA","NA","138","NA","25263","NA","485","2","legacy","1024","2","48000","-16","experiment","SSHSS","4","even","27709","NA","NA","NA","96752","NA","86449","2417","NA","97822","2432","NA","97943","98429","97809","97943","Flanker Task","38","21987","41","yes","1024"
"92.85714285714286","92.85714285714286","533.2857142857143","533.2857142857143","black","legacy","legacy","legacy","0","congruent","uniform","1","undefined","1","h","0","0","0","0","41","0","41","0","41","41","0","0","41","41","41","41","Sun Sep 27 11:58:38 2020","1500","The main experiment item","yes","FlankerTask.osexp","/Users/shelia/Desktop","no","mono","no","18","no","white","no","yes","768","legacy","41","41","/Users/shelia/Desktop/ST-subject-4.csv","legacy","Lentiform Loewenfeld","3.3.3","0","h","NA","NA","s","NA","s","NA","h","411","NA","NA","138","NA","25263","NA","411","2","legacy","1024","2","48000","-16","experiment","HHHHH","4","even","27709","NA","NA","NA","98444","NA","86449","2417","NA","99512","2432","NA","99633","100045","99499","99632","Flanker Task","39","22398","42","yes","1024"
"93.02325581395348","93.02325581395348","533.0232558139535","533.0232558139535","black","legacy","legacy","legacy","0","incogruent","uniform","1","undefined","1","s","0","0","0","0","42","0","42","0","42","42","0","0","42","42","42","42","Sun Sep 27 11:58:38 2020","1500","The main experiment item","yes","FlankerTask.osexp","/Users/shelia/Desktop","no","mono","no","18","no","white","no","yes","768","legacy","42","42","/Users/shelia/Desktop/ST-subject-4.csv","legacy","Lentiform Loewenfeld","3.3.3","0","s","NA","NA","s","NA","s","NA","s","522","NA","NA","138","NA","25263","NA","522","2","legacy","1024","2","48000","-16","experiment","HHSHH","4","even","27709","NA","NA","NA","100060","NA","86449","2417","NA","101130","2432","NA","101251","101774","101117","101251","Flanker Task","40","22920","43","yes","1024"
"93.18181818181819","93.18181818181819","535.2045454545455","535.2045454545455","black","legacy","legacy","legacy","0","incongruent","uniform","1","undefined","1","h","0","0","0","0","43","0","43","0","43","43","0","0","43","43","43","43","Sun Sep 27 11:58:38 2020","1500","The main experiment item","yes","FlankerTask.osexp","/Users/shelia/Desktop","no","mono","no","18","no","white","no","yes","768","legacy","43","43","/Users/shelia/Desktop/ST-subject-4.csv","legacy","Lentiform Loewenfeld","3.3.3","0","h","NA","NA","s","NA","s","NA","h","629","NA","NA","138","NA","25263","NA","629","2","legacy","1024","2","48000","-16","experiment","SSHSS","4","even","27709","NA","NA","NA","101790","NA","86449","2417","NA","102858","2432","NA","102979","103609","102845","102979","Flanker Task","41","23549","44","yes","1024"
"93.33333333333333","93.33333333333333","535.7777777777778","535.7777777777778","black","legacy","legacy","legacy","0","incongruent","uniform","1","undefined","1","h","0","0","0","0","44","0","44","0","44","44","0","0","44","44","44","44","Sun Sep 27 11:58:38 2020","1500","The main experiment item","yes","FlankerTask.osexp","/Users/shelia/Desktop","no","mono","no","18","no","white","no","yes","768","legacy","44","44","/Users/shelia/Desktop/ST-subject-4.csv","legacy","Lentiform Loewenfeld","3.3.3","0","h","NA","NA","s","NA","s","NA","h","561","NA","NA","138","NA","25263","NA","561","2","legacy","1024","2","48000","-16","experiment","SSHSS","4","even","27709","NA","NA","NA","103624","NA","86449","2417","NA","104693","2432","NA","104814","105376","104679","104813","Flanker Task","42","24110","45","yes","1024"
"93.47826086956522","93.47826086956522","534.7826086956521","534.7826086956521","black","legacy","legacy","legacy","0","congruent","uniform","1","undefined","1","h","0","0","0","0","45","0","45","0","45","45","0","0","45","45","45","45","Sun Sep 27 11:58:38 2020","1500","The main experiment item","yes","FlankerTask.osexp","/Users/shelia/Desktop","no","mono","no","18","no","white","no","yes","768","legacy","45","45","/Users/shelia/Desktop/ST-subject-4.csv","legacy","Lentiform Loewenfeld","3.3.3","0","h","NA","NA","s","NA","s","NA","h","490","NA","NA","138","NA","25263","NA","490","2","legacy","1024","2","48000","-16","experiment","HHHHH","4","even","27709","NA","NA","NA","105391","NA","86449","2417","NA","106461","2432","NA","106582","107073","106448","106582","Flanker Task","43","24600","46","yes","1024"
"93.61702127659575","93.61702127659575","534.3829787234042","534.3829787234042","black","legacy","legacy","legacy","0","congruent","uniform","1","undefined","1","s","0","0","0","0","46","0","46","0","46","46","0","0","46","46","46","46","Sun Sep 27 11:58:38 2020","1500","The main experiment item","yes","FlankerTask.osexp","/Users/shelia/Desktop","no","mono","no","18","no","white","no","yes","768","legacy","46","46","/Users/shelia/Desktop/ST-subject-4.csv","legacy","Lentiform Loewenfeld","3.3.3","0","s","NA","NA","s","NA","s","NA","s","516","NA","NA","138","NA","25263","NA","516","2","legacy","1024","2","48000","-16","experiment","SSSSS","4","even","27709","NA","NA","NA","107088","NA","86449","2417","NA","108156","2432","NA","108277","108794","108143","108277","Flanker Task","44","25116","47","yes","1024"
"93.75","93.75","531.8333333333334","531.8333333333334","black","legacy","legacy","legacy","0","congruent","uniform","1","undefined","1","h","0","0","0","0","47","0","47","0","47","47","0","0","47","47","47","47","Sun Sep 27 11:58:38 2020","1500","The main experiment item","yes","FlankerTask.osexp","/Users/shelia/Desktop","no","mono","no","18","no","white","no","yes","768","legacy","47","47","/Users/shelia/Desktop/ST-subject-4.csv","legacy","Lentiform Loewenfeld","3.3.3","0","h","NA","NA","s","NA","s","NA","h","412","NA","NA","138","NA","25263","NA","412","2","legacy","1024","2","48000","-16","experiment","HHHHH","4","even","27709","NA","NA","NA","108808","NA","86449","2417","NA","109877","2432","NA","109998","110411","109864","109998","Flanker Task","45","25528","48","yes","1024"
"93.87755102040816","93.87755102040816","532.7755102040817","532.7755102040817","black","legacy","legacy","legacy","0","incogruent","uniform","1","undefined","1","s","0","0","0","0","48","0","48","0","48","48","0","0","48","48","48","48","Sun Sep 27 11:58:38 2020","1500","The main experiment item","yes","FlankerTask.osexp","/Users/shelia/Desktop","no","mono","no","18","no","white","no","yes","768","legacy","48","48","/Users/shelia/Desktop/ST-subject-4.csv","legacy","Lentiform Loewenfeld","3.3.3","0","s","NA","NA","s","NA","s","NA","s","578","NA","NA","138","NA","25263","NA","578","2","legacy","1024","2","48000","-16","experiment","HHSHH","4","even","27709","NA","NA","NA","110426","NA","86449","2417","NA","111494","2432","NA","111615","112194","111481","111615","Flanker Task","46","26106","49","yes","1024"
"94","94","531.94","531.94","black","legacy","legacy","legacy","0","incogruent","uniform","1","undefined","1","s","0","0","0","0","49","0","49","0","49","49","0","0","49","49","49","49","Sun Sep 27 11:58:38 2020","1500","The main experiment item","yes","FlankerTask.osexp","/Users/shelia/Desktop","no","mono","no","18","no","white","no","yes","768","legacy","49","49","/Users/shelia/Desktop/ST-subject-4.csv","legacy","Lentiform Loewenfeld","3.3.3","0","s","NA","NA","s","NA","s","NA","s","491","NA","NA","138","NA","25263","NA","491","2","legacy","1024","2","48000","-16","experiment","HHSHH","4","even","27709","NA","NA","NA","112209","NA","86449","2417","NA","113278","2432","NA","113397","113889","113265","113397","Flanker Task","47","26597","50","yes","1024"
"94.11764705882354","94.11764705882354","531.5686274509804","531.5686274509804","black","legacy","legacy","legacy","0","congruent","uniform","1","undefined","1","s","0","0","0","0","50","0","50","0","50","50","0","0","50","50","50","50","Sun Sep 27 11:58:38 2020","1500","The main experiment item","yes","FlankerTask.osexp","/Users/shelia/Desktop","no","mono","no","18","no","white","no","yes","768","legacy","50","50","/Users/shelia/Desktop/ST-subject-4.csv","legacy","Lentiform Loewenfeld","3.3.3","0","s","NA","NA","s","NA","s","NA","s","513","NA","NA","138","NA","25263","NA","513","2","legacy","1024","2","48000","-16","experiment","SSSSS","4","even","27709","NA","NA","NA","113904","NA","86449","2417","NA","114972","2432","NA","115092","115606","114959","115092","Flanker Task","48","27110","51","yes","1024"
"94.23076923076923","94.23076923076923","531.4423076923077","531.4423076923077","black","legacy","legacy","legacy","0","incogruent","uniform","1","undefined","1","s","0","0","0","0","51","0","51","0","51","51","0","0","51","51","51","51","Sun Sep 27 11:58:38 2020","1500","The main experiment item","yes","FlankerTask.osexp","/Users/shelia/Desktop","no","mono","no","18","no","white","no","yes","768","legacy","51","51","/Users/shelia/Desktop/ST-subject-4.csv","legacy","Lentiform Loewenfeld","3.3.3","0","s","NA","NA","s","NA","s","NA","s","525","NA","NA","138","NA","25263","NA","525","2","legacy","1024","2","48000","-16","experiment","HHSHH","4","even","27709","NA","NA","NA","115621","NA","86449","2417","NA","116689","2432","NA","116811","117338","116676","116811","Flanker Task","49","27635","52","yes","1024"
"94.33962264150944","94.33962264150944","530.433962264151","530.433962264151","black","legacy","legacy","legacy","0","congruent","uniform","1","undefined","1","s","0","0","0","0","52","0","52","0","52","52","0","0","52","52","52","52","Sun Sep 27 11:58:38 2020","1500","The main experiment item","yes","FlankerTask.osexp","/Users/shelia/Desktop","no","mono","no","18","no","white","no","yes","768","legacy","52","52","/Users/shelia/Desktop/ST-subject-4.csv","legacy","Lentiform Loewenfeld","3.3.3","0","s","NA","NA","s","NA","s","NA","s","478","NA","NA","138","NA","25263","NA","478","2","legacy","1024","2","48000","-16","experiment","SSSSS","4","even","27709","NA","NA","NA","117353","NA","86449","2417","NA","118423","2432","NA","118544","119024","118409","118544","Flanker Task","50","28113","53","yes","1024"
"94.44444444444444","94.44444444444444","530.0925925925926","530.0925925925926","black","legacy","legacy","legacy","0","congruent","uniform","1","undefined","1","s","0","0","0","0","53","0","53","0","53","53","0","0","53","53","53","53","Sun Sep 27 11:58:38 2020","1500","The main experiment item","yes","FlankerTask.osexp","/Users/shelia/Desktop","no","mono","no","18","no","white","no","yes","768","legacy","53","53","/Users/shelia/Desktop/ST-subject-4.csv","legacy","Lentiform Loewenfeld","3.3.3","0","s","NA","NA","s","NA","s","NA","s","512","NA","NA","138","NA","25263","NA","512","2","legacy","1024","2","48000","-16","experiment","SSSSS","4","even","27709","NA","NA","NA","119039","NA","86449","2417","NA","120107","2432","NA","120227","120741","120094","120227","Flanker Task","51","28625","54","yes","1024"
"94.54545454545455","94.54545454545455","527.8727272727273","527.8727272727273","black","legacy","legacy","legacy","0","congruent","uniform","1","undefined","1","h","0","0","0","0","54","0","54","0","54","54","0","0","54","54","54","54","Sun Sep 27 11:58:38 2020","1500","The main experiment item","yes","FlankerTask.osexp","/Users/shelia/Desktop","no","mono","no","18","no","white","no","yes","768","legacy","54","54","/Users/shelia/Desktop/ST-subject-4.csv","legacy","Lentiform Loewenfeld","3.3.3","0","h","NA","NA","s","NA","s","NA","h","408","NA","NA","138","NA","25263","NA","408","2","legacy","1024","2","48000","-16","experiment","HHHHH","4","even","27709","NA","NA","NA","120755","NA","86449","2417","NA","121826","2432","NA","121946","122355","121812","121946","Flanker Task","52","29033","55","yes","1024"
"94.64285714285714","94.64285714285714","527.125","527.125","black","legacy","legacy","legacy","0","congruent","uniform","1","undefined","1","s","0","0","0","0","55","0","55","0","55","55","0","0","55","55","55","55","Sun Sep 27 11:58:38 2020","1500","The main experiment item","yes","FlankerTask.osexp","/Users/shelia/Desktop","no","mono","no","18","no","white","no","yes","768","legacy","55","55","/Users/shelia/Desktop/ST-subject-4.csv","legacy","Lentiform Loewenfeld","3.3.3","0","s","NA","NA","s","NA","s","NA","s","486","NA","NA","138","NA","25263","NA","486","2","legacy","1024","2","48000","-16","experiment","SSSSS","4","even","27709","NA","NA","NA","122371","NA","86449","2417","NA","123439","2432","NA","123558","124045","123426","123558","Flanker Task","53","29519","56","yes","1024"
"94.73684210526316","94.73684210526316","526.4035087719299","526.4035087719299","black","legacy","legacy","legacy","0","incogruent","uniform","1","undefined","1","s","0","0","0","0","56","0","56","0","56","56","0","0","56","56","56","56","Sun Sep 27 11:58:38 2020","1500","The main experiment item","yes","FlankerTask.osexp","/Users/shelia/Desktop","no","mono","no","18","no","white","no","yes","768","legacy","56","56","/Users/shelia/Desktop/ST-subject-4.csv","legacy","Lentiform Loewenfeld","3.3.3","0","s","NA","NA","s","NA","s","NA","s","486","NA","NA","138","NA","25263","NA","486","2","legacy","1024","2","48000","-16","experiment","HHSHH","4","even","27709","NA","NA","NA","124060","NA","86449","2417","NA","125129","2432","NA","125250","125737","125116","125249","Flanker Task","54","30005","57","yes","1024"
"94.82758620689656","94.82758620689656","524.0172413793103","524.0172413793103","black","legacy","legacy","legacy","0","congruent","uniform","1","undefined","1","s","0","0","0","0","57","0","57","0","57","57","0","0","57","57","57","57","Sun Sep 27 11:58:38 2020","1500","The main experiment item","yes","FlankerTask.osexp","/Users/shelia/Desktop","no","mono","no","18","no","white","no","yes","768","legacy","57","57","/Users/shelia/Desktop/ST-subject-4.csv","legacy","Lentiform Loewenfeld","3.3.3","0","s","NA","NA","s","NA","s","NA","s","388","NA","NA","138","NA","25263","NA","388","2","legacy","1024","2","48000","-16","experiment","SSSSS","4","even","27709","NA","NA","NA","125752","NA","86449","2417","NA","126824","2432","NA","126944","127333","126811","126944","Flanker Task","55","30393","58","yes","1024"
"94.91525423728814","94.91525423728814","524.2033898305085","524.2033898305085","black","legacy","legacy","legacy","0","incongruent","uniform","1","undefined","1","h","0","0","0","0","58","0","58","0","58","58","0","0","58","58","58","58","Sun Sep 27 11:58:38 2020","1500","The main experiment item","yes","FlankerTask.osexp","/Users/shelia/Desktop","no","mono","no","18","no","white","no","yes","768","legacy","58","58","/Users/shelia/Desktop/ST-subject-4.csv","legacy","Lentiform Loewenfeld","3.3.3","0","h","NA","NA","s","NA","s","NA","h","535","NA","NA","138","NA","25263","NA","535","2","legacy","1024","2","48000","-16","experiment","SSHSS","4","even","27709","NA","NA","NA","127348","NA","86449","2417","NA","128416","2432","NA","128537","129073","128403","128537","Flanker Task","56","30928","59","yes","1024"
"95","95","523.65","523.65","black","legacy","legacy","legacy","0","congruent","uniform","1","undefined","1","h","0","0","0","0","59","0","59","0","59","59","0","0","59","59","59","59","Sun Sep 27 11:58:38 2020","1500","The main experiment item","yes","FlankerTask.osexp","/Users/shelia/Desktop","no","mono","no","18","no","white","no","yes","768","legacy","59","59","/Users/shelia/Desktop/ST-subject-4.csv","legacy","Lentiform Loewenfeld","3.3.3","0","h","NA","NA","s","NA","s","NA","h","491","NA","NA","138","NA","25263","NA","491","2","legacy","1024","2","48000","-16","experiment","HHHHH","4","even","27709","NA","NA","NA","129088","NA","86449","2417","NA","130158","2432","NA","130280","130772","130145","130280","Flanker Task","57","31419","60","yes","1024"
"95.08196721311475","95.08196721311475","522.8524590163935","522.8524590163935","black","legacy","legacy","legacy","0","incongruent","uniform","1","undefined","1","h","0","0","0","0","60","0","60","0","60","60","0","0","60","60","60","60","Sun Sep 27 11:58:38 2020","1500","The main experiment item","yes","FlankerTask.osexp","/Users/shelia/Desktop","no","mono","no","18","no","white","no","yes","768","legacy","60","60","/Users/shelia/Desktop/ST-subject-4.csv","legacy","Lentiform Loewenfeld","3.3.3","0","h","NA","NA","s","NA","s","NA","h","475","NA","NA","138","NA","25263","NA","475","2","legacy","1024","2","48000","-16","experiment","SSHSS","4","even","27709","NA","NA","NA","130787","NA","86449","2417","NA","131856","2432","NA","131978","132454","131843","131977","Flanker Task","58","31894","61","yes","1024"
"95.16129032258064","95.16129032258064","521.1612903225806","521.1612903225806","black","legacy","legacy","legacy","0","congruent","uniform","1","undefined","1","h","0","0","0","0","61","0","61","0","61","61","0","0","61","61","61","61","Sun Sep 27 11:58:38 2020","1500","The main experiment item","yes","FlankerTask.osexp","/Users/shelia/Desktop","no","mono","no","18","no","white","no","yes","768","legacy","61","61","/Users/shelia/Desktop/ST-subject-4.csv","legacy","Lentiform Loewenfeld","3.3.3","0","h","NA","NA","s","NA","s","NA","h","418","NA","NA","138","NA","25263","NA","418","2","legacy","1024","2","48000","-16","experiment","HHHHH","4","even","27709","NA","NA","NA","132469","NA","86449","2417","NA","133539","2432","NA","133660","134080","133526","133660","Flanker Task","59","32312","62","yes","1024"
"95.23809523809524","95.23809523809524","519.1269841269841","519.1269841269841","black","legacy","legacy","legacy","0","congruent","uniform","1","undefined","1","h","0","0","0","0","62","0","62","0","62","62","0","0","62","62","62","62","Sun Sep 27 11:58:38 2020","1500","The main experiment item","yes","FlankerTask.osexp","/Users/shelia/Desktop","no","mono","no","18","no","white","no","yes","768","legacy","62","62","/Users/shelia/Desktop/ST-subject-4.csv","legacy","Lentiform Loewenfeld","3.3.3","0","h","NA","NA","s","NA","s","NA","h","393","NA","NA","138","NA","25263","NA","393","2","legacy","1024","2","48000","-16","experiment","HHHHH","4","even","27709","NA","NA","NA","134094","NA","86449","2417","NA","135164","2432","NA","135285","135679","135151","135284","Flanker Task","60","32705","63","yes","1024"
"95.3125","95.3125","519.328125","519.328125","black","legacy","legacy","legacy","0","congruent","uniform","1","undefined","1","s","0","0","0","0","63","0","63","0","63","63","0","0","63","63","63","63","Sun Sep 27 11:58:38 2020","1500","The main experiment item","yes","FlankerTask.osexp","/Users/shelia/Desktop","no","mono","no","18","no","white","no","yes","768","legacy","63","63","/Users/shelia/Desktop/ST-subject-4.csv","legacy","Lentiform Loewenfeld","3.3.3","0","s","NA","NA","s","NA","s","NA","s","532","NA","NA","138","NA","25263","NA","532","2","legacy","1024","2","48000","-16","experiment","SSSSS","4","even","27709","NA","NA","NA","135696","NA","86449","2417","NA","136765","2432","NA","136887","137420","136752","136886","Flanker Task","61","33237","64","yes","1024"
"95.38461538461539","95.38461538461539","520.4615384615385","520.4615384615385","black","legacy","legacy","legacy","0","incogruent","uniform","1","undefined","1","s","0","0","0","0","64","0","64","0","64","64","0","0","64","64","64","64","Sun Sep 27 11:58:38 2020","1500","The main experiment item","yes","FlankerTask.osexp","/Users/shelia/Desktop","no","mono","no","18","no","white","no","yes","768","legacy","64","64","/Users/shelia/Desktop/ST-subject-4.csv","legacy","Lentiform Loewenfeld","3.3.3","0","s","NA","NA","s","NA","s","NA","s","593","NA","NA","138","NA","25263","NA","593","2","legacy","1024","2","48000","-16","experiment","HHSHH","4","even","27709","NA","NA","NA","137436","NA","86449","2417","NA","138505","2432","NA","138626","139220","138492","138626","Flanker Task","62","33830","65","yes","1024"
"95.45454545454545","95.45454545454545","519.530303030303","519.530303030303","black","legacy","legacy","legacy","0","congruent","uniform","1","undefined","1","h","0","0","0","0","65","0","65","0","65","65","0","0","65","65","65","65","Sun Sep 27 11:58:38 2020","1500","The main experiment item","yes","FlankerTask.osexp","/Users/shelia/Desktop","no","mono","no","18","no","white","no","yes","768","legacy","65","65","/Users/shelia/Desktop/ST-subject-4.csv","legacy","Lentiform Loewenfeld","3.3.3","0","h","NA","NA","s","NA","s","NA","h","459","NA","NA","138","NA","25263","NA","459","2","legacy","1024","2","48000","-16","experiment","HHHHH","4","even","27709","NA","NA","NA","139236","NA","86449","2417","NA","140305","2432","NA","140426","140887","140292","140426","Flanker Task","63","34289","66","yes","1024"
"95.5223880597015","95.5223880597015","519.5074626865671","519.5074626865671","black","legacy","legacy","legacy","0","incongruent","uniform","1","undefined","1","h","0","0","0","0","66","0","66","0","66","66","0","0","66","66","66","66","Sun Sep 27 11:58:38 2020","1500","The main experiment item","yes","FlankerTask.osexp","/Users/shelia/Desktop","no","mono","no","18","no","white","no","yes","768","legacy","66","66","/Users/shelia/Desktop/ST-subject-4.csv","legacy","Lentiform Loewenfeld","3.3.3","0","h","NA","NA","s","NA","s","NA","h","518","NA","NA","138","NA","25263","NA","518","2","legacy","1024","2","48000","-16","experiment","SSHSS","4","even","27709","NA","NA","NA","140901","NA","86449","2417","NA","141971","2432","NA","142092","142612","141958","142091","Flanker Task","64","34807","67","yes","1024"
"95.58823529411765","95.58823529411765","518.9411764705883","518.9411764705883","black","legacy","legacy","legacy","0","congruent","uniform","1","undefined","1","h","0","0","0","0","67","0","67","0","67","67","0","0","67","67","67","67","Sun Sep 27 11:58:38 2020","1500","The main experiment item","yes","FlankerTask.osexp","/Users/shelia/Desktop","no","mono","no","18","no","white","no","yes","768","legacy","67","67","/Users/shelia/Desktop/ST-subject-4.csv","legacy","Lentiform Loewenfeld","3.3.3","0","h","NA","NA","s","NA","s","NA","h","481","NA","NA","138","NA","25263","NA","481","2","legacy","1024","2","48000","-16","experiment","HHHHH","4","even","27709","NA","NA","NA","142627","NA","86449","2417","NA","143697","2432","NA","143817","144299","143683","143817","Flanker Task","65","35288","68","yes","1024"
"95.65217391304348","95.65217391304348","521.2028985507246","521.2028985507246","black","legacy","legacy","legacy","0","incogruent","uniform","1","undefined","1","s","0","0","0","0","68","0","68","0","68","68","0","0","68","68","68","68","Sun Sep 27 11:58:38 2020","1500","The main experiment item","yes","FlankerTask.osexp","/Users/shelia/Desktop","no","mono","no","18","no","white","no","yes","768","legacy","68","68","/Users/shelia/Desktop/ST-subject-4.csv","legacy","Lentiform Loewenfeld","3.3.3","0","s","NA","NA","s","NA","s","NA","s","675","NA","NA","138","NA","25263","NA","675","2","legacy","1024","2","48000","-16","experiment","HHSHH","4","even","27709","NA","NA","NA","144313","NA","86449","2417","NA","145382","2432","NA","145503","146180","145369","145503","Flanker Task","66","35963","69","yes","1024"
"95.71428571428571","95.71428571428571","520.2285714285714","520.2285714285714","black","legacy","legacy","legacy","0","congruent","uniform","1","undefined","1","h","0","0","0","0","69","0","69","0","69","69","0","0","69","69","69","69","Sun Sep 27 11:58:38 2020","1500","The main experiment item","yes","FlankerTask.osexp","/Users/shelia/Desktop","no","mono","no","18","no","white","no","yes","768","legacy","69","69","/Users/shelia/Desktop/ST-subject-4.csv","legacy","Lentiform Loewenfeld","3.3.3","0","h","NA","NA","s","NA","s","NA","h","453","NA","NA","138","NA","25263","NA","453","2","legacy","1024","2","48000","-16","experiment","HHHHH","4","even","27709","NA","NA","NA","146195","NA","86449","2417","NA","147264","2432","NA","147385","147839","147251","147385","Flanker Task","67","36416","70","yes","1024"
"95.77464788732394","95.77464788732394","520.112676056338","520.112676056338","black","legacy","legacy","legacy","0","congruent","uniform","1","undefined","1","s","0","0","0","0","70","0","70","0","70","70","0","0","70","70","70","70","Sun Sep 27 11:58:38 2020","1500","The main experiment item","yes","FlankerTask.osexp","/Users/shelia/Desktop","no","mono","no","18","no","white","no","yes","768","legacy","70","70","/Users/shelia/Desktop/ST-subject-4.csv","legacy","Lentiform Loewenfeld","3.3.3","0","s","NA","NA","s","NA","s","NA","s","512","NA","NA","138","NA","25263","NA","512","2","legacy","1024","2","48000","-16","experiment","SSSSS","4","even","27709","NA","NA","NA","147854","NA","86449","2417","NA","148923","2432","NA","149043","149556","148910","149043","Flanker Task","68","36928","71","yes","1024"
"95.83333333333333","95.83333333333333","519.0972222222222","519.0972222222222","black","legacy","legacy","legacy","0","congruent","uniform","1","undefined","1","h","0","0","0","0","71","0","71","0","71","71","0","0","71","71","71","71","Sun Sep 27 11:58:38 2020","1500","The main experiment item","yes","FlankerTask.osexp","/Users/shelia/Desktop","no","mono","no","18","no","white","no","yes","768","legacy","71","71","/Users/shelia/Desktop/ST-subject-4.csv","legacy","Lentiform Loewenfeld","3.3.3","0","h","NA","NA","s","NA","s","NA","h","447","NA","NA","138","NA","25263","NA","447","2","legacy","1024","2","48000","-16","experiment","HHHHH","4","even","27709","NA","NA","NA","149571","NA","86449","2417","NA","150641","2432","NA","150760","151208","150628","150760","Flanker Task","69","37375","72","yes","1024"
"95.89041095890411","95.89041095890411","518.068493150685","518.068493150685","black","legacy","legacy","legacy","0","congruent","uniform","1","undefined","1","h","0","0","0","0","72","0","72","0","72","72","0","0","72","72","72","72","Sun Sep 27 11:58:38 2020","1500","The main experiment item","yes","FlankerTask.osexp","/Users/shelia/Desktop","no","mono","no","18","no","white","no","yes","768","legacy","72","72","/Users/shelia/Desktop/ST-subject-4.csv","legacy","Lentiform Loewenfeld","3.3.3","0","h","NA","NA","s","NA","s","NA","h","444","NA","NA","138","NA","25263","NA","444","2","legacy","1024","2","48000","-16","experiment","HHHHH","4","even","27709","NA","NA","NA","151224","NA","86449","2417","NA","152293","2432","NA","152413","152859","152280","152413","Flanker Task","70","37819","73","yes","1024"
"95.94594594594595","95.94594594594595","516.4324324324324","516.4324324324324","black","legacy","legacy","legacy","0","congruent","uniform","1","undefined","1","h","0","0","0","0","73","0","73","0","73","73","0","0","73","73","73","73","Sun Sep 27 11:58:38 2020","1500","The main experiment item","yes","FlankerTask.osexp","/Users/shelia/Desktop","no","mono","no","18","no","white","no","yes","768","legacy","73","73","/Users/shelia/Desktop/ST-subject-4.csv","legacy","Lentiform Loewenfeld","3.3.3","0","h","NA","NA","s","NA","s","NA","h","397","NA","NA","138","NA","25263","NA","397","2","legacy","1024","2","48000","-16","experiment","HHHHH","4","even","27709","NA","NA","NA","152874","NA","86449","2417","NA","153945","2432","NA","154063","154461","153931","154063","Flanker Task","71","38216","74","yes","1024"
"96","96","515.3333333333334","515.3333333333334","black","legacy","legacy","legacy","0","congruent","uniform","1","undefined","1","s","0","0","0","0","74","0","74","0","74","74","0","0","74","74","74","74","Sun Sep 27 11:58:38 2020","1500","The main experiment item","yes","FlankerTask.osexp","/Users/shelia/Desktop","no","mono","no","18","no","white","no","yes","768","legacy","74","74","/Users/shelia/Desktop/ST-subject-4.csv","legacy","Lentiform Loewenfeld","3.3.3","0","s","NA","NA","s","NA","s","NA","s","434","NA","NA","138","NA","25263","NA","434","2","legacy","1024","2","48000","-16","experiment","SSSSS","4","even","27709","NA","NA","NA","154476","NA","86449","2417","NA","155546","2432","NA","155665","156100","155533","155665","Flanker Task","72","38650","75","yes","1024"
"94.73684210526316","94.73684210526316","514.6578947368421","514.6578947368421","black","legacy","legacy","legacy","0","incongruent","uniform","0","undefined","0","h","0","0","0","0","75","0","75","0","75","75","0","0","75","75","75","75","Sun Sep 27 11:58:38 2020","1500","The main experiment item","yes","FlankerTask.osexp","/Users/shelia/Desktop","no","mono","no","18","no","white","no","yes","768","legacy","75","75","/Users/shelia/Desktop/ST-subject-4.csv","legacy","Lentiform Loewenfeld","3.3.3","0","s","NA","NA","s","NA","s","NA","s","464","NA","NA","138","NA","25263","NA","464","2","legacy","1024","2","48000","-16","experiment","SSHSS","4","even","27709","NA","NA","NA","156115","NA","86449","2417","NA","157186","2432","NA","157307","157772","157173","157307","Flanker Task","72","39114","76","yes","1024"
"94.8051948051948","94.8051948051948","516.6883116883117","516.6883116883117","black","legacy","legacy","legacy","0","congruent","uniform","1","undefined","1","s","0","0","0","0","76","0","76","0","76","76","0","0","76","76","76","76","Sun Sep 27 11:58:38 2020","1500","The main experiment item","yes","FlankerTask.osexp","/Users/shelia/Desktop","no","mono","no","18","no","white","no","yes","768","legacy","76","76","/Users/shelia/Desktop/ST-subject-4.csv","legacy","Lentiform Loewenfeld","3.3.3","0","s","NA","NA","h","h","s","NA","s","671","NA","NA","3573","3773","25263","NA","671","2","legacy","1024","2","48000","-16","experiment","SSSSS","4","even","27709","NA","NA","NA","165162","NA","157787","2417","161375","166230","2432","NA","166351","167024","166217","166351","Flanker Task","73","39785","77","yes","1024"
"94.87179487179488","94.87179487179488","515.8717948717949","515.8717948717949","black","legacy","legacy","legacy","0","congruent","uniform","1","undefined","1","s","0","0","0","0","77","0","77","0","77","77","0","0","77","77","77","77","Sun Sep 27 11:58:38 2020","1500","The main experiment item","yes","FlankerTask.osexp","/Users/shelia/Desktop","no","mono","no","18","no","white","no","yes","768","legacy","77","77","/Users/shelia/Desktop/ST-subject-4.csv","legacy","Lentiform Loewenfeld","3.3.3","0","s","NA","NA","h","h","s","NA","s","453","NA","NA","3573","3773","25263","NA","453","2","legacy","1024","2","48000","-16","experiment","SSSSS","4","even","27709","NA","NA","NA","167039","NA","157787","2417","161375","168107","2432","NA","168226","168681","168094","168226","Flanker Task","74","40238","78","yes","1024"
"94.9367088607595","94.9367088607595","514.4303797468355","514.4303797468355","black","legacy","legacy","legacy","0","congruent","uniform","1","undefined","1","s","0","0","0","0","78","0","78","0","78","78","0","0","78","78","78","78","Sun Sep 27 11:58:38 2020","1500","The main experiment item","yes","FlankerTask.osexp","/Users/shelia/Desktop","no","mono","no","18","no","white","no","yes","768","legacy","78","78","/Users/shelia/Desktop/ST-subject-4.csv","legacy","Lentiform Loewenfeld","3.3.3","0","s","NA","NA","h","h","s","NA","s","402","NA","NA","3573","3773","25263","NA","402","2","legacy","1024","2","48000","-16","experiment","SSSSS","4","even","27709","NA","NA","NA","168697","NA","157787","2417","161375","169768","2432","NA","169889","170292","169754","169889","Flanker Task","75","40640","79","yes","1024"
"93.75","93.75","514.5625","514.5625","black","legacy","legacy","legacy","0","incogruent","uniform","0","undefined","0","s","0","0","0","0","79","0","79","0","79","79","0","0","79","79","79","79","Sun Sep 27 11:58:38 2020","1500","The main experiment item","yes","FlankerTask.osexp","/Users/shelia/Desktop","no","mono","no","18","no","white","no","yes","768","legacy","79","79","/Users/shelia/Desktop/ST-subject-4.csv","legacy","Lentiform Loewenfeld","3.3.3","0","h","NA","NA","h","h","s","NA","h","525","NA","NA","3573","3773","25263","NA","525","2","legacy","1024","2","48000","-16","experiment","HHSHH","4","even","27709","NA","NA","NA","170307","NA","157787","2417","161375","171375","2432","NA","171495","172021","171362","171495","Flanker Task","75","41165","80","yes","1024"
"93.82716049382717","93.82716049382717","516.5432098765432","516.5432098765432","black","legacy","legacy","legacy","0","incongruent","uniform","1","undefined","1","h","0","0","0","0","80","0","80","0","80","80","0","0","80","80","80","80","Sun Sep 27 11:58:38 2020","600","The main experiment item","yes","FlankerTask.osexp","/Users/shelia/Desktop","no","mono","no","18","no","white","no","yes","768","legacy","0","79","/Users/shelia/Desktop/ST-subject-4.csv","legacy","Lentiform Loewenfeld","3.3.3","0","h","NA","s","h","h","s","NA","h","675","NA","12809","1252","3773","25263","NA","675","2","legacy","1024","2","48000","-16","experiment","SSHSS","4","even","27709","187155","NA","NA","173302","174345","172036","2417","161375","187197","2432","NA","187318","187994","187184","187318","Flanker Task","76","41840","81","yes","1024"
"92.6829268292683","92.6829268292683","515.890243902439","515.890243902439","black","legacy","legacy","legacy","0","incogruent","uniform","0","undefined","0","s","0","0","0","0","81","0","81","0","81","81","0","0","81","81","81","81","Sun Sep 27 11:58:38 2020","600","The main experiment item","yes","FlankerTask.osexp","/Users/shelia/Desktop","no","mono","no","18","no","white","no","yes","768","legacy","1","79","/Users/shelia/Desktop/ST-subject-4.csv","legacy","Lentiform Loewenfeld","3.3.3","0","h","NA","s","h","h","s","NA","h","463","NA","12809","1252","3113","25263","NA","463","2","legacy","1024","2","48000","-16","experiment","HHSHH","4","even","27709","187155","NA","NA","191136","174345","172036","2417","188008","192206","2432","NA","192327","192791","192193","192326","Flanker Task","76","42303","82","yes","1024"
"92.7710843373494","92.7710843373494","516.2168674698795","516.2168674698795","black","legacy","legacy","legacy","0","incongruent","uniform","1","undefined","1","h","0","0","0","0","82","0","82","0","82","82","0","0","82","82","82","82","Sun Sep 27 11:58:38 2020","600","The main experiment item","yes","FlankerTask.osexp","/Users/shelia/Desktop","no","mono","no","18","no","white","no","yes","768","legacy","2","79","/Users/shelia/Desktop/ST-subject-4.csv","legacy","Lentiform Loewenfeld","3.3.3","0","h","NA","s","h","h","s","NA","h","543","NA","12809","1481","3150","25263","NA","543","2","legacy","1024","2","48000","-16","experiment","SSHSS","4","even","27709","187155","NA","NA","197466","174345","192805","2417","194301","198535","2432","NA","198656","199201","198522","198656","Flanker Task","77","42846","83","yes","1024"
"92.85714285714286","92.85714285714286","515.8571428571429","515.8571428571429","black","legacy","legacy","legacy","0","congruent","uniform","1","undefined","1","s","0","0","0","0","83","0","83","0","83","83","0","0","83","83","83","83","Sun Sep 27 11:58:38 2020","600","The main experiment item","yes","FlankerTask.osexp","/Users/shelia/Desktop","no","mono","no","18","no","white","no","yes","768","legacy","3","79","/Users/shelia/Desktop/ST-subject-4.csv","legacy","Lentiform Loewenfeld","3.3.3","0","s","NA","s","h","h","s","NA","s","486","NA","12809","1481","3150","25263","NA","486","2","legacy","1024","2","48000","-16","experiment","SSSSS","4","even","27709","187155","NA","NA","199217","174345","192805","2417","194301","200286","2432","NA","200407","200894","200273","200407","Flanker Task","78","43332","84","yes","1024"
"92.94117647058823","92.94117647058823","514.7764705882353","514.7764705882353","black","legacy","legacy","legacy","0","congruent","uniform","1","undefined","1","h","0","0","0","0","84","0","84","0","84","84","0","0","84","84","84","84","Sun Sep 27 11:58:38 2020","600","The main experiment item","yes","FlankerTask.osexp","/Users/shelia/Desktop","no","mono","no","18","no","white","no","yes","768","legacy","4","79","/Users/shelia/Desktop/ST-subject-4.csv","legacy","Lentiform Loewenfeld","3.3.3","0","h","NA","s","h","h","s","NA","h","424","NA","12809","1481","3150","25263","NA","424","2","legacy","1024","2","48000","-16","experiment","HHHHH","4","even","27709","187155","NA","NA","200910","174345","192805","2417","194301","201979","2432","NA","202100","202525","201965","202100","Flanker Task","79","43756","85","yes","1024"
"93.02325581395348","93.02325581395348","513.2674418604652","513.2674418604652","black","legacy","legacy","legacy","0","congruent","uniform","1","undefined","1","h","0","0","0","0","85","0","85","0","85","85","0","0","85","85","85","85","Sun Sep 27 11:58:38 2020","600","The main experiment item","yes","FlankerTask.osexp","/Users/shelia/Desktop","no","mono","no","18","no","white","no","yes","768","legacy","5","79","/Users/shelia/Desktop/ST-subject-4.csv","legacy","Lentiform Loewenfeld","3.3.3","0","h","NA","s","h","h","s","NA","h","385","NA","12809","1481","3150","25263","NA","385","2","legacy","1024","2","48000","-16","experiment","HHHHH","4","even","27709","187155","NA","NA","202542","174345","192805","2417","194301","203611","2432","NA","203732","204118","203598","203732","Flanker Task","80","44141","86","yes","1024"
"91.95402298850574","91.95402298850574","513.0689655172414","513.0689655172414","black","legacy","legacy","legacy","0","incongruent","uniform","0","undefined","0","h","0","0","0","0","86","0","86","0","86","86","0","0","86","86","86","86","Sun Sep 27 11:58:38 2020","600","The main experiment item","yes","FlankerTask.osexp","/Users/shelia/Desktop","no","mono","no","18","no","white","no","yes","768","legacy","6","79","/Users/shelia/Desktop/ST-subject-4.csv","legacy","Lentiform Loewenfeld","3.3.3","0","s","NA","s","h","h","s","NA","s","496","NA","12809","1481","3150","25263","NA","496","2","legacy","1024","2","48000","-16","experiment","SSHSS","4","even","27709","187155","NA","NA","204134","174345","192805","2417","194301","205203","2432","NA","205324","205822","205190","205324","Flanker Task","80","44637","87","yes","1024"
"92.04545454545455","92.04545454545455","514.9318181818181","514.9318181818181","black","legacy","legacy","legacy","0","incogruent","uniform","1","undefined","1","s","0","0","0","0","87","0","87","0","87","87","0","0","87","87","87","87","Sun Sep 27 11:58:38 2020","600","The main experiment item","yes","FlankerTask.osexp","/Users/shelia/Desktop","no","mono","no","18","no","white","no","yes","768","legacy","7","79","/Users/shelia/Desktop/ST-subject-4.csv","legacy","Lentiform Loewenfeld","3.3.3","0","s","NA","s","h","h","s","NA","s","677","NA","12809","92","3150","25263","NA","677","2","legacy","1024","2","48000","-16","experiment","HHSHH","4","even","27709","187155","NA","NA","205943","174345","205836","2417","194301","207011","2432","NA","207132","207810","206999","207132","Flanker Task","81","45314","88","yes","1024"
"92.13483146067416","92.13483146067416","515.8988764044943","515.8988764044943","black","legacy","legacy","legacy","0","incongruent","uniform","1","undefined","1","h","0","0","0","0","88","0","88","0","88","88","0","0","88","88","88","88","Sun Sep 27 11:58:38 2020","600","The main experiment item","yes","FlankerTask.osexp","/Users/shelia/Desktop","no","mono","no","18","no","white","no","yes","768","legacy","8","79","/Users/shelia/Desktop/ST-subject-4.csv","legacy","Lentiform Loewenfeld","3.3.3","0","h","NA","s","h","h","s","NA","h","601","NA","12809","92","4770","25263","NA","601","2","legacy","1024","2","48000","-16","experiment","SSHSS","4","even","27709","187155","NA","NA","212609","174345","205836","2417","207825","213680","2432","NA","213801","214403","213666","213801","Flanker Task","82","45915","89","yes","1024"
"92.22222222222223","92.22222222222223","515.7222222222222","515.7222222222222","black","legacy","legacy","legacy","0","incongruent","uniform","1","undefined","1","h","0","0","0","0","89","0","89","0","89","89","0","0","89","89","89","89","Sun Sep 27 11:58:38 2020","600","The main experiment item","yes","FlankerTask.osexp","/Users/shelia/Desktop","no","mono","no","18","no","white","no","yes","768","legacy","9","79","/Users/shelia/Desktop/ST-subject-4.csv","legacy","Lentiform Loewenfeld","3.3.3","0","h","NA","s","h","h","s","NA","h","500","NA","12809","92","3796","25263","NA","500","2","legacy","1024","2","48000","-16","experiment","SSHSS","4","even","27709","187155","NA","NA","218229","174345","205836","2417","214419","219298","2432","NA","219419","219920","219285","219419","Flanker Task","83","46415","90","yes","1024"
"92.3076923076923","92.3076923076923","515.2967032967033","515.2967032967033","black","legacy","legacy","legacy","0","congruent","uniform","1","undefined","1","s","0","0","0","0","90","0","90","0","90","90","0","0","90","90","90","90","Sun Sep 27 11:58:38 2020","600","The main experiment item","yes","FlankerTask.osexp","/Users/shelia/Desktop","no","mono","no","18","no","white","no","yes","768","legacy","10","79","/Users/shelia/Desktop/ST-subject-4.csv","legacy","Lentiform Loewenfeld","3.3.3","0","s","NA","s","h","h","s","NA","s","477","NA","12809","92","3796","25263","NA","477","2","legacy","1024","2","48000","-16","experiment","SSSSS","4","even","27709","187155","NA","NA","219934","174345","205836","2417","214419","221003","2432","NA","221123","221602","220990","221123","Flanker Task","84","46892","91","yes","1024"
"92.3913043478261","92.3913043478261","514.4565217391304","514.4565217391304","black","legacy","legacy","legacy","0","congruent","uniform","1","undefined","1","h","0","0","0","0","91","0","91","0","91","91","0","0","91","91","91","91","Sun Sep 27 11:58:38 2020","600","The main experiment item","yes","FlankerTask.osexp","/Users/shelia/Desktop","no","mono","no","18","no","white","no","yes","768","legacy","11","79","/Users/shelia/Desktop/ST-subject-4.csv","legacy","Lentiform Loewenfeld","3.3.3","0","h","NA","s","h","h","s","NA","h","438","NA","12809","92","3796","25263","NA","438","2","legacy","1024","2","48000","-16","experiment","HHHHH","4","even","27709","187155","NA","NA","221617","174345","205836","2417","214419","222685","2432","NA","222804","223243","222672","222804","Flanker Task","85","47330","92","yes","1024"
"92.47311827956989","92.47311827956989","513.7849462365591","513.7849462365591","black","legacy","legacy","legacy","0","incongruent","uniform","1","undefined","1","h","0","0","0","0","92","0","92","0","92","92","0","0","92","92","92","92","Sun Sep 27 11:58:38 2020","600","The main experiment item","yes","FlankerTask.osexp","/Users/shelia/Desktop","no","mono","no","18","no","white","no","yes","768","legacy","12","79","/Users/shelia/Desktop/ST-subject-4.csv","legacy","Lentiform Loewenfeld","3.3.3","0","h","NA","s","h","h","s","NA","h","452","NA","12809","92","3796","25263","NA","452","2","legacy","1024","2","48000","-16","experiment","SSHSS","4","even","27709","187155","NA","NA","223259","174345","205836","2417","214419","224326","2432","NA","224446","224900","224313","224446","Flanker Task","86","47782","93","yes","1024"
"92.55319148936171","92.55319148936171","512.0531914893617","512.0531914893617","black","legacy","legacy","legacy","0","congruent","uniform","1","undefined","1","h","0","0","0","0","93","0","93","0","93","93","0","0","93","93","93","93","Sun Sep 27 11:58:38 2020","600","The main experiment item","yes","FlankerTask.osexp","/Users/shelia/Desktop","no","mono","no","18","no","white","no","yes","768","legacy","13","79","/Users/shelia/Desktop/ST-subject-4.csv","legacy","Lentiform Loewenfeld","3.3.3","0","h","NA","s","h","h","s","NA","h","351","NA","12809","92","3796","25263","NA","351","2","legacy","1024","2","48000","-16","experiment","HHHHH","4","even","27709","187155","NA","NA","224916","174345","205836","2417","214419","225985","2432","NA","226104","226457","225972","226103","Flanker Task","87","48133","94","yes","1024"
"92.63157894736842","92.63157894736842","511.18947368421055","511.18947368421055","black","legacy","legacy","legacy","0","incogruent","uniform","1","undefined","1","s","0","0","0","0","94","0","94","0","94","94","0","0","94","94","94","94","Sun Sep 27 11:58:38 2020","600","The main experiment item","yes","FlankerTask.osexp","/Users/shelia/Desktop","no","mono","no","18","no","white","no","yes","768","legacy","14","79","/Users/shelia/Desktop/ST-subject-4.csv","legacy","Lentiform Loewenfeld","3.3.3","0","s","NA","s","h","h","s","NA","s","430","NA","12809","92","3796","25263","NA","430","2","legacy","1024","2","48000","-16","experiment","HHSHH","4","even","27709","187155","NA","NA","226474","174345","205836","2417","214419","227543","2432","NA","227664","228095","227530","227664","Flanker Task","88","48563","95","yes","1024"
"92.70833333333333","92.70833333333333","509.9166666666667","509.9166666666667","black","legacy","legacy","legacy","0","congruent","uniform","1","undefined","1","h","0","0","0","0","95","0","95","0","95","95","0","0","95","95","95","95","Sun Sep 27 11:58:38 2020","600","The main experiment item","yes","FlankerTask.osexp","/Users/shelia/Desktop","no","mono","no","18","no","white","no","yes","768","legacy","15","79","/Users/shelia/Desktop/ST-subject-4.csv","legacy","Lentiform Loewenfeld","3.3.3","0","h","NA","s","h","h","s","NA","h","389","NA","12809","92","3796","25263","NA","389","2","legacy","1024","2","48000","-16","experiment","HHHHH","4","even","27709","187155","NA","NA","228110","174345","205836","2417","214419","229179","2432","NA","229300","229691","229166","229299","Flanker Task","89","48952","96","yes","1024"
"92.78350515463917","92.78350515463917","509.58762886597935","509.58762886597935","black","legacy","legacy","legacy","0","incongruent","uniform","1","undefined","1","h","0","0","0","0","96","0","96","0","96","96","0","0","96","96","96","96","Sun Sep 27 11:58:38 2020","600","The main experiment item","yes","FlankerTask.osexp","/Users/shelia/Desktop","no","mono","no","18","no","white","no","yes","768","legacy","16","79","/Users/shelia/Desktop/ST-subject-4.csv","legacy","Lentiform Loewenfeld","3.3.3","0","h","NA","s","h","h","s","NA","h","478","NA","12809","92","3796","25263","NA","478","2","legacy","1024","2","48000","-16","experiment","SSHSS","4","even","27709","187155","NA","NA","229707","174345","205836","2417","214419","230777","2432","NA","230898","231377","230764","230898","Flanker Task","90","49430","97","yes","1024"
"92.85714285714286","92.85714285714286","508.8265306122449","508.8265306122449","black","legacy","legacy","legacy","0","incongruent","uniform","1","undefined","1","h","0","0","0","0","97","0","97","0","97","97","0","0","97","97","97","97","Sun Sep 27 11:58:38 2020","600","The main experiment item","yes","FlankerTask.osexp","/Users/shelia/Desktop","no","mono","no","18","no","white","no","yes","768","legacy","17","79","/Users/shelia/Desktop/ST-subject-4.csv","legacy","Lentiform Loewenfeld","3.3.3","0","h","NA","s","h","h","s","NA","h","435","NA","12809","92","3796","25263","NA","435","2","legacy","1024","2","48000","-16","experiment","SSHSS","4","even","27709","187155","NA","NA","231393","174345","205836","2417","214419","232464","2432","NA","232585","233021","232451","232585","Flanker Task","91","49865","98","yes","1024"
"92.92929292929293","92.92929292929293","509.14141414141415","509.14141414141415","black","legacy","legacy","legacy","0","incogruent","uniform","1","undefined","1","s","0","0","0","0","98","0","98","0","98","98","0","0","98","98","98","98","Sun Sep 27 11:58:38 2020","600","The main experiment item","yes","FlankerTask.osexp","/Users/shelia/Desktop","no","mono","no","18","no","white","no","yes","768","legacy","18","79","/Users/shelia/Desktop/ST-subject-4.csv","legacy","Lentiform Loewenfeld","3.3.3","0","s","NA","s","h","h","s","NA","s","540","NA","12809","92","3796","25263","NA","540","2","legacy","1024","2","48000","-16","experiment","HHSHH","4","even","27709","187155","NA","NA","233035","174345","205836","2417","214419","234107","2432","NA","234228","234769","234093","234228","Flanker Task","92","50405","99","yes","1024"
"93","93","508.56","508.56","black","legacy","legacy","legacy","0","congruent","uniform","1","undefined","1","s","0","0","0","0","99","0","99","0","99","99","0","0","99","99","99","99","Sun Sep 27 11:58:38 2020","600","The main experiment item","yes","FlankerTask.osexp","/Users/shelia/Desktop","no","mono","no","18","no","white","no","yes","768","legacy","19","79","/Users/shelia/Desktop/ST-subject-4.csv","legacy","Lentiform Loewenfeld","3.3.3","0","s","NA","s","h","h","s","NA","s","451","NA","12809","92","3796","25263","NA","451","2","legacy","1024","2","48000","-16","experiment","SSSSS","4","even","27709","187155","NA","NA","234784","174345","205836","2417","214419","235853","2432","NA","235973","236425","235840","235973","Flanker Task","93","50856","100","yes","1024"
"93.06930693069307","93.06930693069307","507.94059405940595","507.94059405940595","black","legacy","legacy","legacy","0","congruent","uniform","1","undefined","1","h","0","0","0","0","100","0","100","0","100","100","0","0","100","100","100","100","Sun Sep 27 11:58:38 2020","600","The main experiment item","yes","FlankerTask.osexp","/Users/shelia/Desktop","no","mono","no","18","no","white","no","yes","768","legacy","20","79","/Users/shelia/Desktop/ST-subject-4.csv","legacy","Lentiform Loewenfeld","3.3.3","0","h","NA","s","h","h","s","NA","h","446","NA","12809","92","3796","25263","NA","446","2","legacy","1024","2","48000","-16","experiment","HHHHH","4","even","27709","187155","NA","NA","236440","174345","205836","2417","214419","237508","2432","NA","237629","238076","237496","237628","Flanker Task","94","51302","101","yes","1024"
"93.13725490196079","93.13725490196079","507.80392156862746","507.80392156862746","black","legacy","legacy","legacy","0","incongruent","uniform","1","undefined","1","h","0","0","0","0","101","0","101","0","101","101","0","0","101","101","101","101","Sun Sep 27 11:58:38 2020","600","The main experiment item","yes","FlankerTask.osexp","/Users/shelia/Desktop","no","mono","no","18","no","white","no","yes","768","legacy","21","79","/Users/shelia/Desktop/ST-subject-4.csv","legacy","Lentiform Loewenfeld","3.3.3","0","h","NA","s","h","h","s","NA","h","494","NA","12809","92","3796","25263","NA","494","2","legacy","1024","2","48000","-16","experiment","SSHSS","4","even","27709","187155","NA","NA","238091","174345","205836","2417","214419","239159","2432","NA","239279","239775","239146","239279","Flanker Task","95","51796","102","yes","1024"
"93.20388349514563","93.20388349514563","506.66990291262135","506.66990291262135","black","legacy","legacy","legacy","0","incongruent","uniform","1","undefined","1","h","0","0","0","0","102","0","102","0","102","102","0","0","102","102","102","102","Sun Sep 27 11:58:38 2020","600","The main experiment item","yes","FlankerTask.osexp","/Users/shelia/Desktop","no","mono","no","18","no","white","no","yes","768","legacy","22","79","/Users/shelia/Desktop/ST-subject-4.csv","legacy","Lentiform Loewenfeld","3.3.3","0","h","NA","s","h","h","s","NA","h","391","NA","12809","92","3796","25263","NA","391","2","legacy","1024","2","48000","-16","experiment","SSHSS","4","even","27709","187155","NA","NA","239790","174345","205836","2417","214419","240860","2432","NA","240981","241374","240847","240981","Flanker Task","96","52187","103","yes","1024"
"93.26923076923077","93.26923076923077","505.25961538461536","505.25961538461536","black","legacy","legacy","legacy","0","congruent","uniform","1","undefined","1","h","0","0","0","0","103","0","103","0","103","103","0","0","103","103","103","103","Sun Sep 27 11:58:38 2020","600","The main experiment item","yes","FlankerTask.osexp","/Users/shelia/Desktop","no","mono","no","18","no","white","no","yes","768","legacy","23","79","/Users/shelia/Desktop/ST-subject-4.csv","legacy","Lentiform Loewenfeld","3.3.3","0","h","NA","s","h","h","s","NA","h","360","NA","12809","92","3796","25263","NA","360","2","legacy","1024","2","48000","-16","experiment","HHHHH","4","even","27709","187155","NA","NA","241389","174345","205836","2417","214419","242460","2432","NA","242581","242942","242447","242581","Flanker Task","97","52547","104","yes","1024"
"93.33333333333333","93.33333333333333","504.65714285714284","504.65714285714284","black","legacy","legacy","legacy","0","congruent","uniform","1","undefined","1","s","0","0","0","0","104","0","104","0","104","104","0","0","104","104","104","104","Sun Sep 27 11:58:38 2020","600","The main experiment item","yes","FlankerTask.osexp","/Users/shelia/Desktop","no","mono","no","18","no","white","no","yes","768","legacy","24","79","/Users/shelia/Desktop/ST-subject-4.csv","legacy","Lentiform Loewenfeld","3.3.3","0","s","NA","s","h","h","s","NA","s","442","NA","12809","92","3796","25263","NA","442","2","legacy","1024","2","48000","-16","experiment","SSSSS","4","even","27709","187155","NA","NA","242957","174345","205836","2417","214419","244027","2432","NA","244147","244590","244013","244147","Flanker Task","98","52989","105","yes","1024"
"93.39622641509433","93.39622641509433","504.27358490566036","504.27358490566036","black","legacy","legacy","legacy","0","incongruent","uniform","1","undefined","1","h","0","0","0","0","105","0","105","0","105","105","0","0","105","105","105","105","Sun Sep 27 11:58:38 2020","600","The main experiment item","yes","FlankerTask.osexp","/Users/shelia/Desktop","no","mono","no","18","no","white","no","yes","768","legacy","25","79","/Users/shelia/Desktop/ST-subject-4.csv","legacy","Lentiform Loewenfeld","3.3.3","0","h","NA","s","h","h","s","NA","h","464","NA","12809","92","3796","25263","NA","464","2","legacy","1024","2","48000","-16","experiment","SSHSS","4","even","27709","187155","NA","NA","244604","174345","205836","2417","214419","245665","2432","NA","245784","246249","245652","245784","Flanker Task","99","53453","106","yes","1024"
"93.45794392523365","93.45794392523365","504.3551401869159","504.3551401869159","black","legacy","legacy","legacy","0","incogruent","uniform","1","undefined","1","s","0","0","0","0","106","0","106","0","106","106","0","0","106","106","106","106","Sun Sep 27 11:58:38 2020","600","The main experiment item","yes","FlankerTask.osexp","/Users/shelia/Desktop","no","mono","no","18","no","white","no","yes","768","legacy","26","79","/Users/shelia/Desktop/ST-subject-4.csv","legacy","Lentiform Loewenfeld","3.3.3","0","s","NA","s","h","h","s","NA","s","513","NA","12809","92","3796","25263","NA","513","2","legacy","1024","2","48000","-16","experiment","HHSHH","4","even","27709","187155","NA","NA","246265","174345","205836","2417","214419","247335","2432","NA","247456","247971","247322","247456","Flanker Task","100","53966","107","yes","1024"
"93.51851851851852","93.51851851851852","503.8796296296296","503.8796296296296","black","legacy","legacy","legacy","0","congruent","uniform","1","undefined","1","s","0","0","0","0","107","0","107","0","107","107","0","0","107","107","107","107","Sun Sep 27 11:58:38 2020","600","The main experiment item","yes","FlankerTask.osexp","/Users/shelia/Desktop","no","mono","no","18","no","white","no","yes","768","legacy","27","79","/Users/shelia/Desktop/ST-subject-4.csv","legacy","Lentiform Loewenfeld","3.3.3","0","s","NA","s","h","h","s","NA","s","453","NA","12809","92","3796","25263","NA","453","2","legacy","1024","2","48000","-16","experiment","SSSSS","4","even","27709","187155","NA","NA","247986","174345","205836","2417","214419","249055","2432","NA","249176","249631","249042","249176","Flanker Task","101","54419","108","yes","1024"
"93.57798165137615","93.57798165137615","503.29357798165137","503.29357798165137","black","legacy","legacy","legacy","0","congruent","uniform","1","undefined","1","h","0","0","0","0","108","0","108","0","108","108","0","0","108","108","108","108","Sun Sep 27 11:58:38 2020","600","The main experiment item","yes","FlankerTask.osexp","/Users/shelia/Desktop","no","mono","no","18","no","white","no","yes","768","legacy","28","79","/Users/shelia/Desktop/ST-subject-4.csv","legacy","Lentiform Loewenfeld","3.3.3","0","h","NA","s","h","h","s","NA","h","440","NA","12809","92","3796","25263","NA","440","2","legacy","1024","2","48000","-16","experiment","HHHHH","4","even","27709","187155","NA","NA","249646","174345","205836","2417","214419","250715","2432","NA","250835","251277","250702","250835","Flanker Task","102","54859","109","yes","1024"
"93.63636363636364","93.63636363636364","502.55454545454546","502.55454545454546","black","legacy","legacy","legacy","0","congruent","uniform","1","undefined","1","h","0","0","0","0","109","0","109","0","109","109","0","0","109","109","109","109","Sun Sep 27 11:58:38 2020","600","The main experiment item","yes","FlankerTask.osexp","/Users/shelia/Desktop","no","mono","no","18","no","white","no","yes","768","legacy","29","79","/Users/shelia/Desktop/ST-subject-4.csv","legacy","Lentiform Loewenfeld","3.3.3","0","h","NA","s","h","h","s","NA","h","422","NA","12809","92","3796","25263","NA","422","2","legacy","1024","2","48000","-16","experiment","HHHHH","4","even","27709","187155","NA","NA","251293","174345","205836","2417","214419","252363","2432","NA","252482","252905","252350","252482","Flanker Task","103","55281","110","yes","1024"
"93.69369369369369","93.69369369369369","501.5405405405405","501.5405405405405","black","legacy","legacy","legacy","0","congruent","uniform","1","undefined","1","h","0","0","0","0","110","0","110","0","110","110","0","0","110","110","110","110","Sun Sep 27 11:58:38 2020","600","The main experiment item","yes","FlankerTask.osexp","/Users/shelia/Desktop","no","mono","no","18","no","white","no","yes","768","legacy","30","79","/Users/shelia/Desktop/ST-subject-4.csv","legacy","Lentiform Loewenfeld","3.3.3","0","h","NA","s","h","h","s","NA","h","390","NA","12809","92","3796","25263","NA","390","2","legacy","1024","2","48000","-16","experiment","HHHHH","4","even","27709","187155","NA","NA","252920","174345","205836","2417","214419","253989","2432","NA","254109","254500","253976","254109","Flanker Task","104","55671","111","yes","1024"
"93.75","93.75","502.29464285714283","502.29464285714283","black","legacy","legacy","legacy","0","incongruent","uniform","1","undefined","1","h","0","0","0","0","111","0","111","0","111","111","0","0","111","111","111","111","Sun Sep 27 11:58:38 2020","600","The main experiment item","yes","FlankerTask.osexp","/Users/shelia/Desktop","no","mono","no","18","no","white","no","yes","768","legacy","31","79","/Users/shelia/Desktop/ST-subject-4.csv","legacy","Lentiform Loewenfeld","3.3.3","0","h","NA","s","h","h","s","NA","h","586","NA","12809","92","3796","25263","NA","586","2","legacy","1024","2","48000","-16","experiment","SSHSS","4","even","27709","187155","NA","NA","254517","174345","205836","2417","214419","255587","2432","NA","255709","256296","255574","255708","Flanker Task","105","56257","112","yes","1024"
"92.92035398230088","92.92035398230088","501.20353982300884","501.20353982300884","black","legacy","legacy","legacy","0","incogruent","uniform","0","undefined","0","s","0","0","0","0","112","0","112","0","112","112","0","0","112","112","112","112","Sun Sep 27 11:58:38 2020","600","The main experiment item","yes","FlankerTask.osexp","/Users/shelia/Desktop","no","mono","no","18","no","white","no","yes","768","legacy","32","79","/Users/shelia/Desktop/ST-subject-4.csv","legacy","Lentiform Loewenfeld","3.3.3","0","h","NA","s","h","h","s","NA","h","379","NA","12809","92","3796","25263","NA","379","2","legacy","1024","2","48000","-16","experiment","HHSHH","4","even","27709","187155","NA","NA","256311","174345","205836","2417","214419","257379","2432","NA","257500","257880","257366","257500","Flanker Task","105","56636","113","yes","1024"
"92.98245614035088","92.98245614035088","501.5701754385965","501.5701754385965","black","legacy","legacy","legacy","0","incongruent","uniform","1","undefined","1","h","0","0","0","0","113","0","113","0","113","113","0","0","113","113","113","113","Sun Sep 27 11:58:38 2020","600","The main experiment item","yes","FlankerTask.osexp","/Users/shelia/Desktop","no","mono","no","18","no","white","no","yes","768","legacy","33","79","/Users/shelia/Desktop/ST-subject-4.csv","legacy","Lentiform Loewenfeld","3.3.3","0","h","NA","s","h","h","s","NA","h","543","NA","12809","721","647","25263","NA","543","2","legacy","1024","2","48000","-16","experiment","SSHSS","4","even","27709","187155","NA","NA","259292","174345","257896","2417","258631","260362","2432","NA","260482","261026","260348","260482","Flanker Task","106","57179","114","yes","1024"
"93.04347826086956","93.04347826086956","500.6347826086957","500.6347826086957","black","legacy","legacy","legacy","0","congruent","uniform","1","undefined","1","h","0","0","0","0","114","0","114","0","114","114","0","0","114","114","114","114","Sun Sep 27 11:58:38 2020","600","The main experiment item","yes","FlankerTask.osexp","/Users/shelia/Desktop","no","mono","no","18","no","white","no","yes","768","legacy","34","79","/Users/shelia/Desktop/ST-subject-4.csv","legacy","Lentiform Loewenfeld","3.3.3","0","h","NA","s","h","h","s","NA","h","394","NA","12809","721","647","25263","NA","394","2","legacy","1024","2","48000","-16","experiment","HHHHH","4","even","27709","187155","NA","NA","261041","174345","257896","2417","258631","262109","2432","NA","262229","262624","262096","262229","Flanker Task","107","57573","115","yes","1024"
"93.10344827586206","93.10344827586206","499.6810344827586","499.6810344827586","black","legacy","legacy","legacy","0","congruent","uniform","1","undefined","1","h","0","0","0","0","115","0","115","0","115","115","0","0","115","115","115","115","Sun Sep 27 11:58:38 2020","600","The main experiment item","yes","FlankerTask.osexp","/Users/shelia/Desktop","no","mono","no","18","no","white","no","yes","768","legacy","35","79","/Users/shelia/Desktop/ST-subject-4.csv","legacy","Lentiform Loewenfeld","3.3.3","0","h","NA","s","h","h","s","NA","h","390","NA","12809","721","647","25263","NA","390","2","legacy","1024","2","48000","-16","experiment","HHHHH","4","even","27709","187155","NA","NA","262639","174345","257896","2417","258631","263708","2432","NA","263829","264220","263695","263829","Flanker Task","108","57963","116","yes","1024"
"93.16239316239316","93.16239316239316","499.14529914529913","499.14529914529913","black","legacy","legacy","legacy","0","congruent","uniform","1","undefined","1","s","0","0","0","0","116","0","116","0","116","116","0","0","116","116","116","116","Sun Sep 27 11:58:38 2020","600","The main experiment item","yes","FlankerTask.osexp","/Users/shelia/Desktop","no","mono","no","18","no","white","no","yes","768","legacy","36","79","/Users/shelia/Desktop/ST-subject-4.csv","legacy","Lentiform Loewenfeld","3.3.3","0","s","NA","s","h","h","s","NA","s","437","NA","12809","721","647","25263","NA","437","2","legacy","1024","2","48000","-16","experiment","SSSSS","4","even","27709","187155","NA","NA","264235","174345","257896","2417","258631","265304","2432","NA","265425","265863","265291","265425","Flanker Task","109","58400","117","yes","1024"
"93.22033898305085","93.22033898305085","498.6186440677966","498.6186440677966","black","legacy","legacy","legacy","0","incongruent","uniform","1","undefined","1","h","0","0","0","0","117","0","117","0","117","117","0","0","117","117","117","117","Sun Sep 27 11:58:38 2020","600","The main experiment item","yes","FlankerTask.osexp","/Users/shelia/Desktop","no","mono","no","18","no","white","no","yes","768","legacy","37","79","/Users/shelia/Desktop/ST-subject-4.csv","legacy","Lentiform Loewenfeld","3.3.3","0","h","NA","s","h","h","s","NA","h","437","NA","12809","721","647","25263","NA","437","2","legacy","1024","2","48000","-16","experiment","SSHSS","4","even","27709","187155","NA","NA","265878","174345","257896","2417","258631","266943","2432","NA","267064","267503","266930","267063","Flanker Task","110","58837","118","yes","1024"
"93.27731092436974","93.27731092436974","498.5042016806723","498.5042016806723","black","legacy","legacy","legacy","0","congruent","uniform","1","undefined","1","s","0","0","0","0","118","0","118","0","118","118","0","0","118","118","118","118","Sun Sep 27 11:58:38 2020","600","The main experiment item","yes","FlankerTask.osexp","/Users/shelia/Desktop","no","mono","no","18","no","white","no","yes","768","legacy","38","79","/Users/shelia/Desktop/ST-subject-4.csv","legacy","Lentiform Loewenfeld","3.3.3","0","s","NA","s","h","h","s","NA","s","485","NA","12809","721","647","25263","NA","485","2","legacy","1024","2","48000","-16","experiment","SSSSS","4","even","27709","187155","NA","NA","267518","174345","257896","2417","258631","268588","2432","NA","268710","269197","268574","268709","Flanker Task","111","59322","119","yes","1024"
"93.33333333333333","93.33333333333333","498.6666666666667","498.6666666666667","black","legacy","legacy","legacy","0","incogruent","uniform","1","undefined","1","s","0","0","0","0","119","0","119","0","119","119","0","0","119","119","119","119","Sun Sep 27 11:58:38 2020","600","The main experiment item","yes","FlankerTask.osexp","/Users/shelia/Desktop","no","mono","no","18","no","white","no","yes","768","legacy","39","79","/Users/shelia/Desktop/ST-subject-4.csv","legacy","Lentiform Loewenfeld","3.3.3","0","s","NA","s","h","h","s","NA","s","518","NA","12809","721","647","25263","NA","518","2","legacy","1024","2","48000","-16","experiment","HHSHH","4","even","27709","187155","NA","NA","269212","174345","257896","2417","258631","270280","2432","NA","270401","270920","270267","270400","Flanker Task","112","59840","120","yes","1024"
