"acc","accuracy","average_response_time","avg_rt","background","block","canvas_backend","clock_backend","color_backend","compensation","coordinates","correct","correct_instruction1","correct_keyboard_response","correct_response","count_ISI","count_Instructions2","count_correctFeedback","count_expSequence","count_experiment","count_experimentLoop","count_fixation","count_incorrectFeedback","count_instruction1","count_keyboard_response","count_logger","count_memorySet","count_practiceLoop","count_probe","count_thankYou","datetime","description","disable_garbage_collection","experiment_file","experiment_path","font_bold","font_family","font_italic","font_size","font_underline","foreground","form_clicks","fullscreen","height","keyboard_backend","live_row","live_row_practiceLoop","logfile","mouse_backend","numberSet","opensesame_codename","opensesame_version","posInSet","present","repeat_cycle","response","response_Instructions2","response_instruction1","response_keyboard_response","response_thankYou","response_time","response_time_Instructions2","response_time_instruction1","response_time_keyboard_response","response_time_thankYou","round_decimals","sampler_backend","setSize","sound_buf_size","sound_channels","sound_freq","sound_sample_size","start","subject_nr","subject_parity","target","time_ISI","time_Instructions2","time_correctFeedback","time_expSequence","time_experiment","time_experimentLoop","time_fixation","time_incorrectFeedback","time_instruction1","time_keyboard_response","time_logger","time_memorySet","time_practiceLoop","time_probe","time_thankYou","title","total_correct","total_response_time","total_responses","uniform_coordinates","width"
"100","100","533","533","black","practice","legacy","legacy","legacy","0","uniform","1","undefined","1","left","0","0","0","0","0","0","0","0","0","0","0","0","0","0","0","10/24/20 21:23:14","The main experiment item","yes","Sternbergtask.osexp","C:\Users\solom\Desktop","no","mono","no","18","no","white","no","yes","768","legacy","0","0","C:/Users/solom/Desktop/MW-subject-3(s).csv","legacy","1 7 9 8 5","Lentiform Loewenfeld","3.3.3","4","y","0","left","NA","right","left","NA","533","NA","2303","533","NA","2","legacy","5","1024","2","48000","-16","experiment","3","odd","8","10106","NA","NA","7890","3332","NA","7895","NA","3343","12113","12647","8900","5648","12112","NA","Sternberg task","1","533","1","yes","1024"
"50","50","503","503","black","practice","legacy","legacy","legacy","0","uniform","0","undefined","0","right","1","0","1","1","0","0","1","1","0","1","1","1","0","1","0","10/24/20 21:23:14","The main experiment item","yes","Sternbergtask.osexp","C:\Users\solom\Desktop","no","mono","no","18","no","white","no","yes","768","legacy","1","1","C:/Users/solom/Desktop/MW-subject-3(s).csv","legacy","3 1 9 4","Lentiform Loewenfeld","3.3.3","0","n","0","left","NA","right","left","NA","473","NA","2303","473","NA","2","legacy","4","1024","2","48000","-16","experiment","3","odd","6","16281","NA","12861","14065","3332","NA","14069","NA","3343","18286","18760","15075","5648","18286","NA","Sternberg task","1","1006","2","yes","1024"
"66.6666666667","66.6666666667","503.666666667","503.666666667","black","practice","legacy","legacy","legacy","0","uniform","1","undefined","1","left","2","0","2","2","0","0","2","2","0","2","2","2","0","2","0","10/24/20 21:23:14","The main experiment item","yes","Sternbergtask.osexp","C:\Users\solom\Desktop","no","mono","no","18","no","white","no","yes","768","legacy","2","2","C:/Users/solom/Desktop/MW-subject-3(s).csv","legacy","1 5 2 9","Lentiform Loewenfeld","3.3.3","2","y","0","left","NA","right","left","NA","505","NA","2303","505","NA","2","legacy","4","1024","2","48000","-16","experiment","3","odd","5","22206","NA","12861","19990","3332","NA","19994","18790","3343","24213","24719","21000","5648","24212","NA","Sternberg task","2","1511","3","yes","1024"
"75","75","474.75","474.75","black","practice","legacy","legacy","legacy","0","uniform","1","undefined","1","left","3","0","3","3","0","0","3","3","0","3","3","3","0","3","0","10/24/20 21:23:14","The main experiment item","yes","Sternbergtask.osexp","C:\Users\solom\Desktop","no","mono","no","18","no","white","no","yes","768","legacy","3","3","C:/Users/solom/Desktop/MW-subject-3(s).csv","legacy","2 9 4","Lentiform Loewenfeld","3.3.3","3","y","0","left","NA","right","left","NA","388","NA","2303","388","NA","2","legacy","3","1024","2","48000","-16","experiment","3","odd","4","28180","NA","24768","25965","3332","NA","25969","18790","3343","30186","30575","26974","5648","30186","NA","Sternberg task","3","1899","4","yes","1024"
"80","80","459.2","459.2","black","practice","legacy","legacy","legacy","0","uniform","1","undefined","1","left","4","0","4","4","0","0","4","4","0","4","4","4","0","4","0","10/24/20 21:23:14","The main experiment item","yes","Sternbergtask.osexp","C:\Users\solom\Desktop","no","mono","no","18","no","white","no","yes","768","legacy","4","4","C:/Users/solom/Desktop/MW-subject-3(s).csv","legacy","4 3 1 7 9 8","Lentiform Loewenfeld","3.3.3","1","y","0","left","NA","right","left","NA","397","NA","2303","397","NA","2","legacy","6","1024","2","48000","-16","experiment","3","odd","4","34019","NA","30610","31808","3332","NA","31812","18790","3343","36025","36424","32816","5648","36025","NA","Sternberg task","4","2296","5","yes","1024"
"66.6666666667","66.6666666667","451.333333333","451.333333333","black","practice","legacy","legacy","legacy","0","uniform","0","undefined","0","right","5","0","5","5","0","0","5","5","0","5","5","5","0","5","0","10/24/20 21:23:14","The main experiment item","yes","Sternbergtask.osexp","C:\Users\solom\Desktop","no","mono","no","18","no","white","no","yes","768","legacy","5","5","C:/Users/solom/Desktop/MW-subject-3(s).csv","legacy","5 7 8 4 1 2","Lentiform Loewenfeld","3.3.3","0","n","0","left","NA","right","left","NA","412","NA","2303","412","NA","2","legacy","6","1024","2","48000","-16","experiment","3","odd","6","39869","NA","36453","37654","3332","NA","37658","18790","3343","41875","42288","38663","5648","41875","NA","Sternberg task","4","2708","6","yes","1024"
"71.4285714286","71.4285714286","487.857142857","487.857142857","black","practice","legacy","legacy","legacy","0","uniform","1","undefined","1","right","6","0","6","6","0","0","6","6","0","6","6","6","0","6","0","10/24/20 21:23:14","The main experiment item","yes","Sternbergtask.osexp","C:\Users\solom\Desktop","no","mono","no","18","no","white","no","yes","768","legacy","6","6","C:/Users/solom/Desktop/MW-subject-3(s).csv","legacy","9 6 7 4 5","Lentiform Loewenfeld","3.3.3","0","n","0","right","NA","right","right","NA","707","NA","2303","707","NA","2","legacy","5","1024","2","48000","-16","experiment","3","odd","3","45735","NA","36453","43520","3332","NA","43524","42322","3343","47740","48448","44529","5648","47740","NA","Sternberg task","5","3415","7","yes","1024"
"75","75","483","483","black","practice","legacy","legacy","legacy","0","uniform","1","undefined","1","right","7","0","7","7","0","0","7","7","0","7","7","7","0","7","0","10/24/20 21:23:14","The main experiment item","yes","Sternbergtask.osexp","C:\Users\solom\Desktop","no","mono","no","18","no","white","no","yes","768","legacy","7","7","C:/Users/solom/Desktop/MW-subject-3(s).csv","legacy","2 1","Lentiform Loewenfeld","3.3.3","0","n","0","right","NA","right","right","NA","449","NA","2303","449","NA","2","legacy","2","1024","2","48000","-16","experiment","3","odd","5","51882","NA","48473","49669","3332","NA","49673","42322","3343","53886","54336","50677","5648","53886","NA","Sternberg task","6","3864","8","yes","1024"
"77.7777777778","77.7777777778","468.111111111","468.111111111","black","practice","legacy","legacy","legacy","0","uniform","1","undefined","1","left","8","0","8","8","0","0","8","8","0","8","8","8","0","8","0","10/24/20 21:23:14","The main experiment item","yes","Sternbergtask.osexp","C:\Users\solom\Desktop","no","mono","no","18","no","white","no","yes","768","legacy","8","8","C:/Users/solom/Desktop/MW-subject-3(s).csv","legacy","6","Lentiform Loewenfeld","3.3.3","1","y","0","left","NA","right","left","NA","349","NA","2303","349","NA","2","legacy","1","1024","2","48000","-16","experiment","3","odd","6","57773","NA","54358","55558","3332","NA","55562","42322","3343","59777","60127","56568","5648","59777","NA","Sternberg task","7","4213","9","yes","1024"
"80","80","450.7","450.7","black","practice","legacy","legacy","legacy","0","uniform","1","undefined","1","right","9","0","9","9","0","0","9","9","0","9","9","9","0","9","0","10/24/20 21:23:14","The main experiment item","yes","Sternbergtask.osexp","C:\Users\solom\Desktop","no","mono","no","18","no","white","no","yes","768","legacy","9","9","C:/Users/solom/Desktop/MW-subject-3(s).csv","legacy","5","Lentiform Loewenfeld","3.3.3","0","n","0","right","NA","right","right","NA","294","NA","2303","294","NA","2","legacy","1","1024","2","48000","-16","experiment","3","odd","3","63563","NA","60151","61348","3332","NA","61352","42322","3343","65568","65863","62357","5648","65567","NA","Sternberg task","8","4507","10","yes","1024"
"72.7272727273","72.7272727273","437","437","black","practice","legacy","legacy","legacy","0","uniform","0","undefined","0","right","10","0","10","10","0","0","10","10","0","10","10","10","0","10","0","10/24/20 21:23:14","The main experiment item","yes","Sternbergtask.osexp","C:\Users\solom\Desktop","no","mono","no","18","no","white","no","yes","768","legacy","10","10","C:/Users/solom/Desktop/MW-subject-3(s).csv","legacy","4 1 5","Lentiform Loewenfeld","3.3.3","0","n","0","left","NA","right","left","NA","300","NA","2303","300","NA","2","legacy","3","1024","2","48000","-16","experiment","3","odd","2","69300","NA","65885","67085","3332","NA","67089","42322","3343","71306","71608","68094","5648","71306","NA","Sternberg task","8","4807","11","yes","1024"
"75","75","431.25","431.25","black","practice","legacy","legacy","legacy","0","uniform","1","undefined","1","left","11","0","11","11","0","0","11","11","0","11","11","11","0","11","0","10/24/20 21:23:14","The main experiment item","yes","Sternbergtask.osexp","C:\Users\solom\Desktop","no","mono","no","18","no","white","no","yes","768","legacy","11","11","C:/Users/solom/Desktop/MW-subject-3(s).csv","legacy","4 8","Lentiform Loewenfeld","3.3.3","1","y","0","left","NA","right","left","NA","368","NA","2303","368","NA","2","legacy","2","1024","2","48000","-16","experiment","3","odd","4","75048","NA","65885","72835","3332","NA","72839","71639","3343","77054","77423","73844","5648","77054","NA","Sternberg task","9","5175","12","yes","1024"
"69.2307692308","69.2307692308","433.307692308","433.307692308","black","experiment","legacy","legacy","legacy","0","uniform","0","undefined","0","right","12","0","12","12","0","0","12","12","0","12","12","12","0","12","0","10/24/20 21:23:14","The main experiment item","yes","Sternbergtask.osexp","C:\Users\solom\Desktop","no","mono","no","18","no","white","no","yes","768","legacy","0","11","C:/Users/solom/Desktop/MW-subject-3(s).csv","legacy","2 7 5","Lentiform Loewenfeld","3.3.3","0","n","0","left","right","right","left","NA","458","4749","2303","458","NA","2","legacy","3","1024","2","48000","-16","experiment","3","odd","8","85744","78497","77448","83528","3332","83248","83532","71639","3343","87748","88208","84537","5648","87747","NA","Sternberg task","9","5633","13","yes","1024"
"71.4285714286","71.4285714286","431.357142857","431.357142857","black","experiment","legacy","legacy","legacy","0","uniform","1","undefined","1","right","13","0","13","13","0","0","13","13","0","13","13","13","0","13","0","10/24/20 21:23:14","The main experiment item","yes","Sternbergtask.osexp","C:\Users\solom\Desktop","no","mono","no","18","no","white","no","yes","768","legacy","1","11","C:/Users/solom/Desktop/MW-subject-3(s).csv","legacy","2 8 9 4 1","Lentiform Loewenfeld","3.3.3","0","n","0","right","right","right","right","NA","406","4749","2303","406","NA","2","legacy","5","1024","2","48000","-16","experiment","3","odd","5","91650","78497","77448","89435","3332","83248","89439","88235","3343","93656","94064","90445","5648","93655","NA","Sternberg task","10","6039","14","yes","1024"
"73.3333333333","73.3333333333","425.333333333","425.333333333","black","experiment","legacy","legacy","legacy","0","uniform","1","undefined","1","left","14","0","14","14","0","0","14","14","0","14","14","14","0","14","0","10/24/20 21:23:14","The main experiment item","yes","Sternbergtask.osexp","C:\Users\solom\Desktop","no","mono","no","18","no","white","no","yes","768","legacy","2","11","C:/Users/solom/Desktop/MW-subject-3(s).csv","legacy","3 9 7 6 4","Lentiform Loewenfeld","3.3.3","3","y","0","left","right","right","left","NA","341","4749","2303","341","NA","2","legacy","5","1024","2","48000","-16","experiment","3","odd","7","97500","78497","94086","95284","3332","83248","95288","88235","3343","99505","99848","96293","5648","99505","NA","Sternberg task","11","6380","15","yes","1024"
"75","75","418.9375","418.9375","black","experiment","legacy","legacy","legacy","0","uniform","1","undefined","1","left","15","0","15","15","0","0","15","15","0","15","15","15","0","15","0","10/24/20 21:23:14","The main experiment item","yes","Sternbergtask.osexp","C:\Users\solom\Desktop","no","mono","no","18","no","white","no","yes","768","legacy","3","11","C:/Users/solom/Desktop/MW-subject-3(s).csv","legacy","7 2 3","Lentiform Loewenfeld","3.3.3","3","y","0","left","right","right","left","NA","323","4749","2303","323","NA","2","legacy","3","1024","2","48000","-16","experiment","3","odd","3","103285","78497","99872","101070","3332","83248","101074","88235","3343","105292","105616","102079","5648","105291","NA","Sternberg task","12","6703","16","yes","1024"
"76.4705882353","76.4705882353","417.705882353","417.705882353","black","experiment","legacy","legacy","legacy","0","uniform","1","undefined","1","left","16","0","16","16","0","0","16","16","0","16","16","16","0","16","0","10/24/20 21:23:14","The main experiment item","yes","Sternbergtask.osexp","C:\Users\solom\Desktop","no","mono","no","18","no","white","no","yes","768","legacy","4","11","C:/Users/solom/Desktop/MW-subject-3(s).csv","legacy","4 7 6 8 2 3","Lentiform Loewenfeld","3.3.3","6","y","0","left","right","right","left","NA","398","4749","2303","398","NA","2","legacy","6","1024","2","48000","-16","experiment","3","odd","3","109057","78497","105641","106841","3332","83248","106846","88235","3343","111064","111464","107851","5648","111063","NA","Sternberg task","13","7101","17","yes","1024"
"72.2222222222","72.2222222222","417.111111111","417.111111111","black","experiment","legacy","legacy","legacy","0","uniform","0","undefined","0","right","17","0","17","17","0","0","17","17","0","17","17","17","0","17","0","10/24/20 21:23:14","The main experiment item","yes","Sternbergtask.osexp","C:\Users\solom\Desktop","no","mono","no","18","no","white","no","yes","768","legacy","5","11","C:/Users/solom/Desktop/MW-subject-3(s).csv","legacy","1 7 5 2 9","Lentiform Loewenfeld","3.3.3","0","n","0","left","right","right","left","NA","407","4749","2303","407","NA","2","legacy","5","1024","2","48000","-16","experiment","3","odd","3","114906","78497","111492","112691","3332","83248","112695","88235","3343","116911","117319","113700","5648","116911","NA","Sternberg task","13","7508","18","yes","1024"
"73.6842105263","73.6842105263","420.684210526","420.684210526","black","experiment","legacy","legacy","legacy","0","uniform","1","undefined","1","left","18","0","18","18","0","0","18","18","0","18","18","18","0","18","0","10/24/20 21:23:14","The main experiment item","yes","Sternbergtask.osexp","C:\Users\solom\Desktop","no","mono","no","18","no","white","no","yes","768","legacy","6","11","C:/Users/solom/Desktop/MW-subject-3(s).csv","legacy","7","Lentiform Loewenfeld","3.3.3","1","y","0","left","right","right","left","NA","485","4749","2303","485","NA","2","legacy","1","1024","2","48000","-16","experiment","3","odd","7","120764","78497","111492","118548","3332","83248","118552","117352","3343","122769","123256","119558","5648","122768","NA","Sternberg task","14","7993","19","yes","1024"
"70","70","427.15","427.15","black","experiment","legacy","legacy","legacy","0","uniform","0","undefined","0","left","19","0","19","19","0","0","19","19","0","19","19","19","0","19","0","10/24/20 21:23:14","The main experiment item","yes","Sternbergtask.osexp","C:\Users\solom\Desktop","no","mono","no","18","no","white","no","yes","768","legacy","7","11","C:/Users/solom/Desktop/MW-subject-3(s).csv","legacy","4 9 7 8 5 3","Lentiform Loewenfeld","3.3.3","4","y","0","right","right","right","right","NA","550","4749","2303","550","NA","2","legacy","6","1024","2","48000","-16","experiment","3","odd","8","126692","78497","123278","124479","3332","83248","124483","117352","3343","128697","129248","125487","5648","128697","NA","Sternberg task","14","8543","20","yes","1024"
"66.6666666667","66.6666666667","432.476190476","432.476190476","black","experiment","legacy","legacy","legacy","0","uniform","0","undefined","0","left","20","0","20","20","0","0","20","20","0","20","20","20","0","20","0","10/24/20 21:23:14","The main experiment item","yes","Sternbergtask.osexp","C:\Users\solom\Desktop","no","mono","no","18","no","white","no","yes","768","legacy","8","11","C:/Users/solom/Desktop/MW-subject-3(s).csv","legacy","6 9 7 4 5 1","Lentiform Loewenfeld","3.3.3","2","y","0","right","right","right","right","NA","539","4749","2303","539","NA","2","legacy","6","1024","2","48000","-16","experiment","3","odd","9","132686","78497","123278","130469","3332","83248","130474","129273","3343","134692","135232","131479","5648","134691","NA","Sternberg task","14","9082","21","yes","1024"
"63.6363636364","63.6363636364","442.681818182","442.681818182","black","experiment","legacy","legacy","legacy","0","uniform","0","undefined","0","right","21","0","21","21","0","0","21","21","0","21","21","21","0","21","0","10/24/20 21:23:14","The main experiment item","yes","Sternbergtask.osexp","C:\Users\solom\Desktop","no","mono","no","18","no","white","no","yes","768","legacy","9","11","C:/Users/solom/Desktop/MW-subject-3(s).csv","legacy","9 7 4 5 8","Lentiform Loewenfeld","3.3.3","0","n","0","left","right","right","left","NA","657","4749","2303","657","NA","2","legacy","5","1024","2","48000","-16","experiment","3","odd","6","138679","78497","123278","136464","3332","83248","136468","135258","3343","140685","141344","137474","5648","140685","NA","Sternberg task","14","9739","22","yes","1024"
"60.8695652174","60.8695652174","443.826086957","443.826086957","black","experiment","legacy","legacy","legacy","0","uniform","0","undefined","0","right","22","0","22","22","0","0","22","22","0","22","22","22","0","22","0","10/24/20 21:23:14","The main experiment item","yes","Sternbergtask.osexp","C:\Users\solom\Desktop","no","mono","no","18","no","white","no","yes","768","legacy","10","11","C:/Users/solom/Desktop/MW-subject-3(s).csv","legacy","1 4 9 2 5","Lentiform Loewenfeld","3.3.3","0","n","0","left","right","right","left","NA","469","4749","2303","469","NA","2","legacy","5","1024","2","48000","-16","experiment","3","odd","7","144780","78497","123278","142565","3332","83248","142569","141367","3343","146785","147256","143575","5648","146784","NA","Sternberg task","14","10208","23","yes","1024"
"58.3333333333","58.3333333333","442.541666667","442.541666667","black","experiment","legacy","legacy","legacy","0","uniform","0","undefined","0","right","23","0","23","23","0","0","23","23","0","23","23","23","0","23","0","10/24/20 21:23:14","The main experiment item","yes","Sternbergtask.osexp","C:\Users\solom\Desktop","no","mono","no","18","no","white","no","yes","768","legacy","11","11","C:/Users/solom/Desktop/MW-subject-3(s).csv","legacy","2 8 6 3 1","Lentiform Loewenfeld","3.3.3","0","n","0","left","right","right","left","NA","413","4749","2303","413","NA","2","legacy","5","1024","2","48000","-16","experiment","3","odd","7","150699","78497","123278","148484","3332","83248","148488","147287","3343","152705","153120","149493","5648","152705","NA","Sternberg task","14","10621","24","yes","1024"
"56","56","439.56","439.56","black","experiment","legacy","legacy","legacy","0","uniform","0","undefined","0","left","24","0","24","24","0","0","24","24","0","24","24","24","0","24","0","10/24/20 21:23:14","The main experiment item","yes","Sternbergtask.osexp","C:\Users\solom\Desktop","no","mono","no","18","no","white","no","yes","768","legacy","12","11","C:/Users/solom/Desktop/MW-subject-3(s).csv","legacy","9 5 3 8 4","Lentiform Loewenfeld","3.3.3","1","y","0","right","right","right","right","NA","368","4749","2303","368","NA","2","legacy","5","1024","2","48000","-16","experiment","3","odd","9","156560","78497","123278","154344","3332","83248","154348","153146","3343","158567","158937","155354","5648","158567","NA","Sternberg task","14","10989","25","yes","1024"
"57.6923076923","57.6923076923","436.961538462","436.961538462","black","experiment","legacy","legacy","legacy","0","uniform","1","undefined","1","left","25","0","25","25","0","0","25","25","0","25","25","25","0","25","0","10/24/20 21:23:14","The main experiment item","yes","Sternbergtask.osexp","C:\Users\solom\Desktop","no","mono","no","18","no","white","no","yes","768","legacy","13","11","C:/Users/solom/Desktop/MW-subject-3(s).csv","legacy","4 6 5 8","Lentiform Loewenfeld","3.3.3","1","y","0","left","right","right","left","NA","372","4749","2303","372","NA","2","legacy","4","1024","2","48000","-16","experiment","3","odd","4","162415","78497","123278","160199","3332","83248","160203","159004","3343","164419","164792","161208","5648","164419","NA","Sternberg task","15","11361","26","yes","1024"
"59.2592592593","59.2592592593","435.037037037","435.037037037","black","experiment","legacy","legacy","legacy","0","uniform","1","undefined","1","left","26","0","26","26","0","0","26","26","0","26","26","26","0","26","0","10/24/20 21:23:14","The main experiment item","yes","Sternbergtask.osexp","C:\Users\solom\Desktop","no","mono","no","18","no","white","no","yes","768","legacy","14","11","C:/Users/solom/Desktop/MW-subject-3(s).csv","legacy","8 9 5 7 1 6","Lentiform Loewenfeld","3.3.3","4","y","0","left","right","right","left","NA","385","4749","2303","385","NA","2","legacy","6","1024","2","48000","-16","experiment","3","odd","7","168230","78497","164817","166015","3332","83248","166019","159004","3343","170237","170624","167025","5648","170236","NA","Sternberg task","16","11746","27","yes","1024"
"60.7142857143","60.7142857143","436.107142857","436.107142857","black","experiment","legacy","legacy","legacy","0","uniform","1","undefined","1","right","27","0","27","27","0","0","27","27","0","27","27","27","0","27","0","10/24/20 21:23:14","The main experiment item","yes","Sternbergtask.osexp","C:\Users\solom\Desktop","no","mono","no","18","no","white","no","yes","768","legacy","15","11","C:/Users/solom/Desktop/MW-subject-3(s).csv","legacy","2 5 1 4","Lentiform Loewenfeld","3.3.3","0","n","0","right","right","right","right","NA","465","4749","2303","465","NA","2","legacy","4","1024","2","48000","-16","experiment","3","odd","6","174066","78497","170652","171850","3332","83248","171854","159004","3343","176070","176537","172859","5648","176070","NA","Sternberg task","17","12211","28","yes","1024"
"62.0689655172","62.0689655172","437.275862069","437.275862069","black","experiment","legacy","legacy","legacy","0","uniform","1","undefined","1","right","28","0","28","28","0","0","28","28","0","28","28","28","0","28","0","10/24/20 21:23:14","The main experiment item","yes","Sternbergtask.osexp","C:\Users\solom\Desktop","no","mono","no","18","no","white","no","yes","768","legacy","16","11","C:/Users/solom/Desktop/MW-subject-3(s).csv","legacy","1 6 4","Lentiform Loewenfeld","3.3.3","0","n","0","right","right","right","right","NA","470","4749","2303","470","NA","2","legacy","3","1024","2","48000","-16","experiment","3","odd","7","179978","78497","176562","177762","3332","83248","177766","159004","3343","181985","182457","178772","5648","181984","NA","Sternberg task","18","12681","29","yes","1024"
"60","60","433.666666667","433.666666667","black","experiment","legacy","legacy","legacy","0","uniform","0","undefined","0","right","29","0","29","29","0","0","29","29","0","29","29","29","0","29","0","10/24/20 21:23:14","The main experiment item","yes","Sternbergtask.osexp","C:\Users\solom\Desktop","no","mono","no","18","no","white","no","yes","768","legacy","17","11","C:/Users/solom/Desktop/MW-subject-3(s).csv","legacy","1","Lentiform Loewenfeld","3.3.3","0","n","0","left","right","right","left","NA","329","4749","2303","329","NA","2","legacy","1","1024","2","48000","-16","experiment","3","odd","7","185896","78497","182481","183680","3332","83248","183684","159004","3343","187902","188233","184689","5648","187901","NA","Sternberg task","18","13010","30","yes","1024"
"61.2903225806","61.2903225806","435.419354839","435.419354839","black","experiment","legacy","legacy","legacy","0","uniform","1","undefined","1","right","30","0","30","30","0","0","30","30","0","30","30","30","0","30","0","10/24/20 21:23:14","The main experiment item","yes","Sternbergtask.osexp","C:\Users\solom\Desktop","no","mono","no","18","no","white","no","yes","768","legacy","18","11","C:/Users/solom/Desktop/MW-subject-3(s).csv","legacy","8 5 7 3 6","Lentiform Loewenfeld","3.3.3","0","n","0","right","right","right","right","NA","488","4749","2303","488","NA","2","legacy","5","1024","2","48000","-16","experiment","3","odd","9","191672","78497","182481","189457","3332","83248","189461","188257","3343","193678","194168","190466","5648","193677","NA","Sternberg task","19","13498","31","yes","1024"
"62.5","62.5","436.40625","436.40625","black","experiment","legacy","legacy","legacy","0","uniform","1","undefined","1","right","31","0","31","31","0","0","31","31","0","31","31","31","0","31","0","10/24/20 21:23:14","The main experiment item","yes","Sternbergtask.osexp","C:\Users\solom\Desktop","no","mono","no","18","no","white","no","yes","768","legacy","19","11","C:/Users/solom/Desktop/MW-subject-3(s).csv","legacy","1 8 7","Lentiform Loewenfeld","3.3.3","0","n","0","right","right","right","right","NA","467","4749","2303","467","NA","2","legacy","3","1024","2","48000","-16","experiment","3","odd","4","197604","78497","194191","195389","3332","83248","195393","188257","3343","199611","200080","196398","5648","199610","NA","Sternberg task","20","13965","32","yes","1024"
"63.6363636364","63.6363636364","435.787878788","435.787878788","black","experiment","legacy","legacy","legacy","0","uniform","1","undefined","1","left","32","0","32","32","0","0","32","32","0","32","32","32","0","32","0","10/24/20 21:23:14","The main experiment item","yes","Sternbergtask.osexp","C:\Users\solom\Desktop","no","mono","no","18","no","white","no","yes","768","legacy","20","11","C:/Users/solom/Desktop/MW-subject-3(s).csv","legacy","6 7 9 3 1 2","Lentiform Loewenfeld","3.3.3","1","y","0","left","right","right","left","NA","416","4749","2303","416","NA","2","legacy","6","1024","2","48000","-16","experiment","3","odd","6","203519","78497","200101","201304","3332","83248","201308","188257","3343","205526","205944","202313","5648","205525","NA","Sternberg task","21","14381","33","yes","1024"
"64.7058823529","64.7058823529","438.764705882","438.764705882","black","experiment","legacy","legacy","legacy","0","uniform","1","undefined","1","right","33","0","33","33","0","0","33","33","0","33","33","33","0","33","0","10/24/20 21:23:14","The main experiment item","yes","Sternbergtask.osexp","C:\Users\solom\Desktop","no","mono","no","18","no","white","no","yes","768","legacy","21","11","C:/Users/solom/Desktop/MW-subject-3(s).csv","legacy","8 5 4 2 9 6","Lentiform Loewenfeld","3.3.3","0","n","0","right","right","right","right","NA","537","4749","2303","537","NA","2","legacy","6","1024","2","48000","-16","experiment","3","odd","3","209386","78497","205971","207173","3332","83248","207177","188257","3343","211390","211929","208180","5648","211390","NA","Sternberg task","22","14918","34","yes","1024"
"62.8571428571","62.8571428571","438.771428571","438.771428571","black","experiment","legacy","legacy","legacy","0","uniform","0","undefined","0","left","34","0","34","34","0","0","34","34","0","34","34","34","0","34","0","10/24/20 21:23:14","The main experiment item","yes","Sternbergtask.osexp","C:\Users\solom\Desktop","no","mono","no","18","no","white","no","yes","768","legacy","22","11","C:/Users/solom/Desktop/MW-subject-3(s).csv","legacy","8 1 6","Lentiform Loewenfeld","3.3.3","3","y","0","right","right","right","right","NA","439","4749","2303","439","NA","2","legacy","3","1024","2","48000","-16","experiment","3","odd","6","215386","78497","211973","213170","3332","83248","213175","188257","3343","217391","217832","214180","5648","217391","NA","Sternberg task","22","15357","35","yes","1024"
"61.1111111111","61.1111111111","438.611111111","438.611111111","black","experiment","legacy","legacy","legacy","0","uniform","0","undefined","0","right","35","0","35","35","0","0","35","35","0","35","35","35","0","35","0","10/24/20 21:23:14","The main experiment item","yes","Sternbergtask.osexp","C:\Users\solom\Desktop","no","mono","no","18","no","white","no","yes","768","legacy","23","11","C:/Users/solom/Desktop/MW-subject-3(s).csv","legacy","8 4 3 5","Lentiform Loewenfeld","3.3.3","0","n","0","left","right","right","left","NA","433","4749","2303","433","NA","2","legacy","4","1024","2","48000","-16","experiment","3","odd","6","221270","78497","211973","219056","3332","83248","219060","217858","3343","223277","223713","220065","5648","223276","NA","Sternberg task","22","15790","36","yes","1024"
"59.4594594595","59.4594594595","435.405405405","435.405405405","black","experiment","legacy","legacy","legacy","0","uniform","0","undefined","0","left","36","0","36","36","0","0","36","36","0","36","36","36","0","36","0","10/24/20 21:23:14","The main experiment item","yes","Sternbergtask.osexp","C:\Users\solom\Desktop","no","mono","no","18","no","white","no","yes","768","legacy","24","11","C:/Users/solom/Desktop/MW-subject-3(s).csv","legacy","3 5 9 6 2 4","Lentiform Loewenfeld","3.3.3","1","y","0","right","right","right","right","NA","320","4749","2303","320","NA","2","legacy","6","1024","2","48000","-16","experiment","3","odd","3","227161","78497","211973","224944","3332","83248","224950","223743","3343","229167","229489","225955","5648","229166","NA","Sternberg task","22","16110","37","yes","1024"
"57.8947368421","57.8947368421","434.631578947","434.631578947","black","experiment","legacy","legacy","legacy","0","uniform","0","undefined","0","right","37","0","37","37","0","0","37","37","0","37","37","37","0","37","0","10/24/20 21:23:14","The main experiment item","yes","Sternbergtask.osexp","C:\Users\solom\Desktop","no","mono","no","18","no","white","no","yes","768","legacy","25","11","C:/Users/solom/Desktop/MW-subject-3(s).csv","legacy","2 3 8 5 6 7","Lentiform Loewenfeld","3.3.3","0","n","0","left","right","right","left","NA","406","4749","2303","406","NA","2","legacy","6","1024","2","48000","-16","experiment","3","odd","1","232939","78497","211973","230724","3332","83248","230728","229527","3343","234945","235353","231733","5648","234945","NA","Sternberg task","22","16516","38","yes","1024"
"58.9743589744","58.9743589744","431.615384615","431.615384615","black","experiment","legacy","legacy","legacy","0","uniform","1","undefined","1","left","38","0","38","38","0","0","38","38","0","38","38","38","0","38","0","10/24/20 21:23:14","The main experiment item","yes","Sternbergtask.osexp","C:\Users\solom\Desktop","no","mono","no","18","no","white","no","yes","768","legacy","26","11","C:/Users/solom/Desktop/MW-subject-3(s).csv","legacy","6 8 9 3 4 9","Lentiform Loewenfeld","3.3.3","5","y","0","left","right","right","left","NA","317","4749","2303","317","NA","2","legacy","6","1024","2","48000","-16","experiment","3","odd","4","238795","78497","211973","236580","3332","83248","236584","235380","3343","240802","241121","237589","5648","240801","NA","Sternberg task","23","16833","39","yes","1024"
"60","60","431.225","431.225","black","experiment","legacy","legacy","legacy","0","uniform","1","undefined","1","left","39","0","39","39","0","0","39","39","0","39","39","39","0","39","0","10/24/20 21:23:14","The main experiment item","yes","Sternbergtask.osexp","C:\Users\solom\Desktop","no","mono","no","18","no","white","no","yes","768","legacy","27","11","C:/Users/solom/Desktop/MW-subject-3(s).csv","legacy","6 7 8 5","Lentiform Loewenfeld","3.3.3","3","y","0","left","right","right","left","NA","416","4749","2303","416","NA","2","legacy","4","1024","2","48000","-16","experiment","3","odd","8","244560","78497","241147","242345","3332","83248","242349","235380","3343","246567","246985","243354","5648","246567","NA","Sternberg task","24","17249","40","yes","1024"
"60.9756097561","60.9756097561","430.390243902","430.390243902","black","experiment","legacy","legacy","legacy","0","uniform","1","undefined","1","left","40","0","40","40","0","0","40","40","0","40","40","40","0","40","0","10/24/20 21:23:14","The main experiment item","yes","Sternbergtask.osexp","C:\Users\solom\Desktop","no","mono","no","18","no","white","no","yes","768","legacy","28","11","C:/Users/solom/Desktop/MW-subject-3(s).csv","legacy","2 4 8 5 1 3","Lentiform Loewenfeld","3.3.3","1","y","0","left","right","right","left","NA","397","4749","2303","397","NA","2","legacy","6","1024","2","48000","-16","experiment","3","odd","2","250419","78497","247007","248204","3332","83248","248208","235380","3343","252425","252825","249213","5648","252425","NA","Sternberg task","25","17646","41","yes","1024"
"59.5238095238","59.5238095238","429.738095238","429.738095238","black","experiment","legacy","legacy","legacy","0","uniform","0","undefined","0","left","41","0","41","41","0","0","41","41","0","41","41","41","0","41","0","10/24/20 21:23:14","The main experiment item","yes","Sternbergtask.osexp","C:\Users\solom\Desktop","no","mono","no","18","no","white","no","yes","768","legacy","29","11","C:/Users/solom/Desktop/MW-subject-3(s).csv","legacy","9 3 8 2 1 4","Lentiform Loewenfeld","3.3.3","3","y","0","right","right","right","right","NA","403","4749","2303","403","NA","2","legacy","6","1024","2","48000","-16","experiment","3","odd","8","256263","78497","252852","254049","3332","83248","254053","235380","3343","258267","258673","255057","5648","258267","NA","Sternberg task","25","18049","42","yes","1024"
"60.4651162791","60.4651162791","430.209302326","430.209302326","black","experiment","legacy","legacy","legacy","0","uniform","1","undefined","1","left","42","0","42","42","0","0","42","42","0","42","42","42","0","42","0","10/24/20 21:23:14","The main experiment item","yes","Sternbergtask.osexp","C:\Users\solom\Desktop","no","mono","no","18","no","white","no","yes","768","legacy","30","11","C:/Users/solom/Desktop/MW-subject-3(s).csv","legacy","9 1 6 7 8","Lentiform Loewenfeld","3.3.3","1","y","0","left","right","right","left","NA","450","4749","2303","450","NA","2","legacy","5","1024","2","48000","-16","experiment","3","odd","9","262112","78497","252852","259897","3332","83248","259902","258694","3343","264117","264569","260907","5648","264117","NA","Sternberg task","26","18499","43","yes","1024"
"61.3636363636","61.3636363636","429.681818182","429.681818182","black","experiment","legacy","legacy","legacy","0","uniform","1","undefined","1","left","43","0","43","43","0","0","43","43","0","43","43","43","0","43","0","10/24/20 21:23:14","The main experiment item","yes","Sternbergtask.osexp","C:\Users\solom\Desktop","no","mono","no","18","no","white","no","yes","768","legacy","31","11","C:/Users/solom/Desktop/MW-subject-3(s).csv","legacy","9 4 2","Lentiform Loewenfeld","3.3.3","1","y","0","left","right","right","left","NA","407","4749","2303","407","NA","2","legacy","3","1024","2","48000","-16","experiment","3","odd","9","268011","78497","264598","265795","3332","83248","265799","258694","3343","270016","270425","266804","5648","270016","NA","Sternberg task","27","18906","44","yes","1024"
"60","60","431.222222222","431.222222222","black","experiment","legacy","legacy","legacy","0","uniform","0","undefined","0","right","44","0","44","44","0","0","44","44","0","44","44","44","0","44","0","10/24/20 21:23:14","The main experiment item","yes","Sternbergtask.osexp","C:\Users\solom\Desktop","no","mono","no","18","no","white","no","yes","768","legacy","32","11","C:/Users/solom/Desktop/MW-subject-3(s).csv","legacy","1 6 4 3 9 7","Lentiform Loewenfeld","3.3.3","0","n","0","left","right","right","left","NA","499","4749","2303","499","NA","2","legacy","6","1024","2","48000","-16","experiment","3","odd","8","273864","78497","270450","271648","3332","83248","271652","258694","3343","275868","276369","272658","5648","275868","NA","Sternberg task","27","19405","45","yes","1024"
"60.8695652174","60.8695652174","434.326086957","434.326086957","black","experiment","legacy","legacy","legacy","0","uniform","1","undefined","1","right","45","0","45","45","0","0","45","45","0","45","45","45","0","45","0","10/24/20 21:23:14","The main experiment item","yes","Sternbergtask.osexp","C:\Users\solom\Desktop","no","mono","no","18","no","white","no","yes","768","legacy","33","11","C:/Users/solom/Desktop/MW-subject-3(s).csv","legacy","2 8 9","Lentiform Loewenfeld","3.3.3","0","n","0","right","right","right","right","NA","574","4749","2303","574","NA","2","legacy","3","1024","2","48000","-16","experiment","3","odd","6","279814","78497","270450","277598","3332","83248","277602","276401","3343","281817","282393","278607","5648","281817","NA","Sternberg task","28","19979","46","yes","1024"
"61.7021276596","61.7021276596","439.723404255","439.723404255","black","experiment","legacy","legacy","legacy","0","uniform","1","undefined","1","right","46","0","46","46","0","0","46","46","0","46","46","46","0","46","0","10/24/20 21:23:14","The main experiment item","yes","Sternbergtask.osexp","C:\Users\solom\Desktop","no","mono","no","18","no","white","no","yes","768","legacy","34","11","C:/Users/solom/Desktop/MW-subject-3(s).csv","legacy","5 3 8 7 2 4","Lentiform Loewenfeld","3.3.3","0","n","0","right","right","right","right","NA","688","4749","2303","688","NA","2","legacy","6","1024","2","48000","-16","experiment","3","odd","9","285832","78497","282419","283617","3332","83248","283621","276401","3343","287839","288529","284626","5648","287838","NA","Sternberg task","29","20667","47","yes","1024"
"62.5","62.5","439.979166667","439.979166667","black","experiment","legacy","legacy","legacy","0","uniform","1","undefined","1","left","47","0","47","47","0","0","47","47","0","47","47","47","0","47","0","10/24/20 21:23:14","The main experiment item","yes","Sternbergtask.osexp","C:\Users\solom\Desktop","no","mono","no","18","no","white","no","yes","768","legacy","35","11","C:/Users/solom/Desktop/MW-subject-3(s).csv","legacy","8 5 1 3 9","Lentiform Loewenfeld","3.3.3","4","y","0","left","right","right","left","NA","452","4749","2303","452","NA","2","legacy","5","1024","2","48000","-16","experiment","3","odd","3","291966","78497","288555","289753","3332","83248","289757","276401","3343","293970","294425","290760","5648","293970","NA","Sternberg task","30","21119","48","yes","1024"
"63.2653061224","63.2653061224","441.204081633","441.204081633","black","experiment","legacy","legacy","legacy","0","uniform","1","undefined","1","left","48","0","48","48","0","0","48","48","0","48","48","48","0","48","0","10/24/20 21:23:14","The main experiment item","yes","Sternbergtask.osexp","C:\Users\solom\Desktop","no","mono","no","18","no","white","no","yes","768","legacy","36","11","C:/Users/solom/Desktop/MW-subject-3(s).csv","legacy","4","Lentiform Loewenfeld","3.3.3","1","y","0","left","right","right","left","NA","500","4749","2303","500","NA","2","legacy","1","1024","2","48000","-16","experiment","3","odd","4","297861","78497","294446","295647","3332","83248","295651","276401","3343","299867","300370","296656","5648","299867","NA","Sternberg task","31","21619","49","yes","1024"
"64","64","443.6","443.6","black","experiment","legacy","legacy","legacy","0","uniform","1","undefined","1","right","49","0","49","49","0","0","49","49","0","49","49","49","0","49","0","10/24/20 21:23:14","The main experiment item","yes","Sternbergtask.osexp","C:\Users\solom\Desktop","no","mono","no","18","no","white","no","yes","768","legacy","37","11","C:/Users/solom/Desktop/MW-subject-3(s).csv","legacy","9 5 3 2 8 6","Lentiform Loewenfeld","3.3.3","0","n","0","right","right","right","right","NA","561","4749","2303","561","NA","2","legacy","6","1024","2","48000","-16","experiment","3","odd","7","303808","78497","300400","301596","3332","83248","301600","276401","3343","305813","306377","302605","5648","305812","NA","Sternberg task","32","22180","50","yes","1024"
"64.7058823529","64.7058823529","446.274509804","446.274509804","black","experiment","legacy","legacy","legacy","0","uniform","1","undefined","1","left","50","0","50","50","0","0","50","50","0","50","50","50","0","50","0","10/24/20 21:23:14","The main experiment item","yes","Sternbergtask.osexp","C:\Users\solom\Desktop","no","mono","no","18","no","white","no","yes","768","legacy","38","11","C:/Users/solom/Desktop/MW-subject-3(s).csv","legacy","7 6","Lentiform Loewenfeld","3.3.3","2","y","0","left","right","right","left","NA","580","4749","2303","580","NA","2","legacy","2","1024","2","48000","-16","experiment","3","odd","6","309815","78497","306402","307600","3332","83248","307604","276401","3343","311819","312401","308609","5648","311818","NA","Sternberg task","33","22760","51","yes","1024"
"65.3846153846","65.3846153846","451.615384615","451.615384615","black","experiment","legacy","legacy","legacy","0","uniform","1","undefined","1","left","51","0","51","51","0","0","51","51","0","51","51","51","0","51","0","10/24/20 21:23:14","The main experiment item","yes","Sternbergtask.osexp","C:\Users\solom\Desktop","no","mono","no","18","no","white","no","yes","768","legacy","39","11","C:/Users/solom/Desktop/MW-subject-3(s).csv","legacy","4 6 2 5 1","Lentiform Loewenfeld","3.3.3","5","y","0","left","right","right","left","NA","724","4749","2303","724","NA","2","legacy","5","1024","2","48000","-16","experiment","3","odd","1","315839","78497","312428","313627","3332","83248","313631","276401","3343","317843","318569","314636","5648","317843","NA","Sternberg task","34","23484","52","yes","1024"
"64.1509433962","64.1509433962","480.830188679","480.830188679","black","experiment","legacy","legacy","legacy","0","uniform","0","undefined","0","right","52","0","52","52","0","0","52","52","0","52","52","52","0","52","0","10/24/20 21:23:14","The main experiment item","yes","Sternbergtask.osexp","C:\Users\solom\Desktop","no","mono","no","18","no","white","no","yes","768","legacy","40","11","C:/Users/solom/Desktop/MW-subject-3(s).csv","legacy","6 7 5 9","Lentiform Loewenfeld","3.3.3","0","n","0","None","right","right","None","NA","2000","4749","2303","2000","NA","2","legacy","4","1024","2","48000","-16","experiment","3","odd","2","322014","78497","318597","319797","3332","83248","319801","276401","3343","324018","326020","320808","5648","324018","NA","Sternberg task","34","25484","53","yes","1024"
"64.8148148148","64.8148148148","481.814814815","481.814814815","black","experiment","legacy","legacy","legacy","0","uniform","1","undefined","1","right","53","0","53","53","0","0","53","53","0","53","53","53","0","53","0","10/24/20 21:23:14","The main experiment item","yes","Sternbergtask.osexp","C:\Users\solom\Desktop","no","mono","no","18","no","white","no","yes","768","legacy","41","11","C:/Users/solom/Desktop/MW-subject-3(s).csv","legacy","1 4 3 6 5","Lentiform Loewenfeld","3.3.3","0","n","0","right","right","right","right","NA","534","4749","2303","534","NA","2","legacy","5","1024","2","48000","-16","experiment","3","odd","8","329469","78497","318597","327256","3332","83248","327260","326056","3343","331473","332010","328265","5648","331473","NA","Sternberg task","35","26018","54","yes","1024"
"63.6363636364","63.6363636364","509.418181818","509.418181818","black","experiment","legacy","legacy","legacy","0","uniform","0","undefined","0","left","54","0","54","54","0","0","54","54","0","54","54","54","0","54","0","10/24/20 21:23:14","The main experiment item","yes","Sternbergtask.osexp","C:\Users\solom\Desktop","no","mono","no","18","no","white","no","yes","768","legacy","42","11","C:/Users/solom/Desktop/MW-subject-3(s).csv","legacy","5 7 8 2 3 8","Lentiform Loewenfeld","3.3.3","5","y","0","None","right","right","None","NA","2000","4749","2303","2000","NA","2","legacy","6","1024","2","48000","-16","experiment","3","odd","3","335473","78497","332045","333259","3332","83248","333263","326056","3343","337476","339478","334266","5648","337476","NA","Sternberg task","35","28018","55","yes","1024"
"64.2857142857","64.2857142857","509.75","509.75","black","experiment","legacy","legacy","legacy","0","uniform","1","undefined","1","left","55","0","55","55","0","0","55","55","0","55","55","55","0","55","0","10/24/20 21:23:14","The main experiment item","yes","Sternbergtask.osexp","C:\Users\solom\Desktop","no","mono","no","18","no","white","no","yes","768","legacy","43","11","C:/Users/solom/Desktop/MW-subject-3(s).csv","legacy","8","Lentiform Loewenfeld","3.3.3","1","y","0","left","right","right","left","NA","528","4749","2303","528","NA","2","legacy","1","1024","2","48000","-16","experiment","3","odd","8","342914","78497","332045","340700","3332","83248","340704","339502","3343","344919","345449","341708","5648","344918","NA","Sternberg task","36","28546","56","yes","1024"
"64.9122807018","64.9122807018","509.228070175","509.228070175","black","experiment","legacy","legacy","legacy","0","uniform","1","undefined","1","left","56","0","56","56","0","0","56","56","0","56","56","56","0","56","0","10/24/20 21:23:14","The main experiment item","yes","Sternbergtask.osexp","C:\Users\solom\Desktop","no","mono","no","18","no","white","no","yes","768","legacy","44","11","C:/Users/solom/Desktop/MW-subject-3(s).csv","legacy","2 6 1 7 4","Lentiform Loewenfeld","3.3.3","2","y","0","left","right","right","left","NA","480","4749","2303","480","NA","2","legacy","5","1024","2","48000","-16","experiment","3","odd","6","348882","78497","345470","346669","3332","83248","346673","339502","3343","350887","351370","347678","5648","350887","NA","Sternberg task","37","29026","57","yes","1024"
"63.7931034483","63.7931034483","506.724137931","506.724137931","black","experiment","legacy","legacy","legacy","0","uniform","0","undefined","0","right","57","0","57","57","0","0","57","57","0","57","57","57","0","57","0","10/24/20 21:23:14","The main experiment item","yes","Sternbergtask.osexp","C:\Users\solom\Desktop","no","mono","no","18","no","white","no","yes","768","legacy","45","11","C:/Users/solom/Desktop/MW-subject-3(s).csv","legacy","7 1 5 6 3","Lentiform Loewenfeld","3.3.3","0","n","0","left","right","right","left","NA","364","4749","2303","364","NA","2","legacy","5","1024","2","48000","-16","experiment","3","odd","8","354805","78497","351389","352589","3332","83248","352593","339502","3343","356811","357178","353598","5648","356810","NA","Sternberg task","37","29390","58","yes","1024"
"64.406779661","64.406779661","506.898305085","506.898305085","black","experiment","legacy","legacy","legacy","0","uniform","1","undefined","1","left","58","0","58","58","0","0","58","58","0","58","58","58","0","58","0","10/24/20 21:23:14","The main experiment item","yes","Sternbergtask.osexp","C:\Users\solom\Desktop","no","mono","no","18","no","white","no","yes","768","legacy","46","11","C:/Users/solom/Desktop/MW-subject-3(s).csv","legacy","8 5 3 7 4 6","Lentiform Loewenfeld","3.3.3","6","y","0","left","right","right","left","NA","517","4749","2303","517","NA","2","legacy","6","1024","2","48000","-16","experiment","3","odd","6","360614","78497","351389","358399","3332","83248","358403","357199","3343","362618","363138","359407","5648","362617","NA","Sternberg task","38","29907","59","yes","1024"
"63.3333333333","63.3333333333","506.4","506.4","black","experiment","legacy","legacy","legacy","0","uniform","0","undefined","0","left","59","0","59","59","0","0","59","59","0","59","59","59","0","59","0","10/24/20 21:23:14","The main experiment item","yes","Sternbergtask.osexp","C:\Users\solom\Desktop","no","mono","no","18","no","white","no","yes","768","legacy","47","11","C:/Users/solom/Desktop/MW-subject-3(s).csv","legacy","7 4 2 6 3 5","Lentiform Loewenfeld","3.3.3","6","y","0","right","right","right","right","NA","477","4749","2303","477","NA","2","legacy","6","1024","2","48000","-16","experiment","3","odd","5","366573","78497","363159","364358","3332","83248","364362","357199","3343","368578","369058","365368","5648","368578","NA","Sternberg task","38","30384","60","yes","1024"
"62.2950819672","62.2950819672","505.524590164","505.524590164","black","experiment","legacy","legacy","legacy","0","uniform","0","undefined","0","right","60","0","60","60","0","0","60","60","0","60","60","60","0","60","0","10/24/20 21:23:14","The main experiment item","yes","Sternbergtask.osexp","C:\Users\solom\Desktop","no","mono","no","18","no","white","no","yes","768","legacy","48","11","C:/Users/solom/Desktop/MW-subject-3(s).csv","legacy","7 4 2 8 1 9","Lentiform Loewenfeld","3.3.3","0","n","0","left","right","right","left","NA","453","4749","2303","453","NA","2","legacy","6","1024","2","48000","-16","experiment","3","odd","5","372501","78497","363159","370286","3332","83248","370290","369088","3343","374506","374962","371295","5648","374506","NA","Sternberg task","38","30837","61","yes","1024"
"62.9032258065","62.9032258065","502.612903226","502.612903226","black","experiment","legacy","legacy","legacy","0","uniform","1","undefined","1","left","61","0","61","61","0","0","61","61","0","61","61","61","0","61","0","10/24/20 21:23:14","The main experiment item","yes","Sternbergtask.osexp","C:\Users\solom\Desktop","no","mono","no","18","no","white","no","yes","768","legacy","49","11","C:/Users/solom/Desktop/MW-subject-3(s).csv","legacy","8 9 6 1","Lentiform Loewenfeld","3.3.3","2","y","0","left","right","right","left","NA","325","4749","2303","325","NA","2","legacy","4","1024","2","48000","-16","experiment","3","odd","9","378404","78497","363159","376187","3332","83248","376192","374990","3343","380410","380738","377197","5648","380409","NA","Sternberg task","39","31162","62","yes","1024"
"63.4920634921","63.4920634921","499.920634921","499.920634921","black","experiment","legacy","legacy","legacy","0","uniform","1","undefined","1","left","62","0","62","62","0","0","62","62","0","62","62","62","0","62","0","10/24/20 21:23:14","The main experiment item","yes","Sternbergtask.osexp","C:\Users\solom\Desktop","no","mono","no","18","no","white","no","yes","768","legacy","50","11","C:/Users/solom/Desktop/MW-subject-3(s).csv","legacy","6 5","Lentiform Loewenfeld","3.3.3","2","y","0","left","right","right","left","NA","333","4749","2303","333","NA","2","legacy","2","1024","2","48000","-16","experiment","3","odd","5","384180","78497","380767","381965","3332","83248","381969","374990","3343","386186","386522","382974","5648","386186","NA","Sternberg task","40","31495","63","yes","1024"
"64.0625","64.0625","498.125","498.125","black","experiment","legacy","legacy","legacy","0","uniform","1","undefined","1","right","63","0","63","63","0","0","63","63","0","63","63","63","0","63","0","10/24/20 21:23:14","The main experiment item","yes","Sternbergtask.osexp","C:\Users\solom\Desktop","no","mono","no","18","no","white","no","yes","768","legacy","51","11","C:/Users/solom/Desktop/MW-subject-3(s).csv","legacy","1 3 2 6 9","Lentiform Loewenfeld","3.3.3","0","n","0","right","right","right","right","NA","385","4749","2303","385","NA","2","legacy","5","1024","2","48000","-16","experiment","3","odd","5","389960","78497","386541","387746","3332","83248","387750","374990","3343","391966","392354","388755","5648","391966","NA","Sternberg task","41","31880","64","yes","1024"
"63.0769230769","63.0769230769","496.430769231","496.430769231","black","experiment","legacy","legacy","legacy","0","uniform","0","undefined","0","right","64","0","64","64","0","0","64","64","0","64","64","64","0","64","0","10/24/20 21:23:14","The main experiment item","yes","Sternbergtask.osexp","C:\Users\solom\Desktop","no","mono","no","18","no","white","no","yes","768","legacy","52","11","C:/Users/solom/Desktop/MW-subject-3(s).csv","legacy","4 8 1 2","Lentiform Loewenfeld","3.3.3","0","n","0","left","right","right","left","NA","388","4749","2303","388","NA","2","legacy","4","1024","2","48000","-16","experiment","3","odd","7","395789","78497","392377","393574","3332","83248","393578","374990","3343","397795","398186","394582","5648","397794","NA","Sternberg task","41","32268","65","yes","1024"
"63.6363636364","63.6363636364","495.818181818","495.818181818","black","experiment","legacy","legacy","legacy","0","uniform","1","undefined","1","left","65","0","65","65","0","0","65","65","0","65","65","65","0","65","0","10/24/20 21:23:14","The main experiment item","yes","Sternbergtask.osexp","C:\Users\solom\Desktop","no","mono","no","18","no","white","no","yes","768","legacy","53","11","C:/Users/solom/Desktop/MW-subject-3(s).csv","legacy","9 6 2 4 1","Lentiform Loewenfeld","3.3.3","4","y","0","left","right","right","left","NA","456","4749","2303","456","NA","2","legacy","5","1024","2","48000","-16","experiment","3","odd","4","401626","78497","392377","399411","3332","83248","399415","398214","3343","403631","404090","400420","5648","403631","NA","Sternberg task","42","32724","66","yes","1024"
"64.1791044776","64.1791044776","496.552238806","496.552238806","black","experiment","legacy","legacy","legacy","0","uniform","1","undefined","1","right","66","0","66","66","0","0","66","66","0","66","66","66","0","66","0","10/24/20 21:23:14","The main experiment item","yes","Sternbergtask.osexp","C:\Users\solom\Desktop","no","mono","no","18","no","white","no","yes","768","legacy","54","11","C:/Users/solom/Desktop/MW-subject-3(s).csv","legacy","8 4 3 9","Lentiform Loewenfeld","3.3.3","0","n","0","right","right","right","right","NA","545","4749","2303","545","NA","2","legacy","4","1024","2","48000","-16","experiment","3","odd","5","407527","78497","404115","405311","3332","83248","405315","398214","3343","409534","410082","406321","5648","409533","NA","Sternberg task","43","33269","67","yes","1024"
"64.7058823529","64.7058823529","500.264705882","500.264705882","black","experiment","legacy","legacy","legacy","0","uniform","1","undefined","1","left","67","0","67","67","0","0","67","67","0","67","67","67","0","67","0","10/24/20 21:23:14","The main experiment item","yes","Sternbergtask.osexp","C:\Users\solom\Desktop","no","mono","no","18","no","white","no","yes","768","legacy","55","11","C:/Users/solom/Desktop/MW-subject-3(s).csv","legacy","3 4 9 6 2 9","Lentiform Loewenfeld","3.3.3","5","y","0","left","right","right","left","NA","749","4749","2303","749","NA","2","legacy","6","1024","2","48000","-16","experiment","3","odd","2","413523","78497","410108","411307","3332","83248","411312","398214","3343","415530","416282","412317","5648","415529","NA","Sternberg task","44","34018","68","yes","1024"
"65.2173913043","65.2173913043","499.014492754","499.014492754","black","experiment","legacy","legacy","legacy","0","uniform","1","undefined","1","right","68","0","68","68","0","0","68","68","0","68","68","68","0","68","0","10/24/20 21:23:14","The main experiment item","yes","Sternbergtask.osexp","C:\Users\solom\Desktop","no","mono","no","18","no","white","no","yes","768","legacy","56","11","C:/Users/solom/Desktop/MW-subject-3(s).csv","legacy","3 4 2","Lentiform Loewenfeld","3.3.3","0","n","0","right","right","right","right","NA","414","4749","2303","414","NA","2","legacy","3","1024","2","48000","-16","experiment","3","odd","5","419724","78497","416311","417509","3332","83248","417513","398214","3343","421729","422146","418518","5648","421729","NA","Sternberg task","45","34432","69","yes","1024"
"64.2857142857","64.2857142857","499.728571429","499.728571429","black","experiment","legacy","legacy","legacy","0","uniform","0","undefined","0","right","69","0","69","69","0","0","69","69","0","69","69","69","0","69","0","10/24/20 21:23:14","The main experiment item","yes","Sternbergtask.osexp","C:\Users\solom\Desktop","no","mono","no","18","no","white","no","yes","768","legacy","57","11","C:/Users/solom/Desktop/MW-subject-3(s).csv","legacy","6 9 4 5 2","Lentiform Loewenfeld","3.3.3","0","n","0","left","right","right","left","NA","549","4749","2303","549","NA","2","legacy","5","1024","2","48000","-16","experiment","3","odd","1","425583","78497","422170","423368","3332","83248","423372","398214","3343","427586","428138","424377","5648","427586","NA","Sternberg task","45","34981","70","yes","1024"
"63.3802816901","63.3802816901","499.098591549","499.098591549","black","experiment","legacy","legacy","legacy","0","uniform","0","undefined","0","left","70","0","70","70","0","0","70","70","0","70","70","70","0","70","0","10/24/20 21:23:14","The main experiment item","yes","Sternbergtask.osexp","C:\Users\solom\Desktop","no","mono","no","18","no","white","no","yes","768","legacy","58","11","C:/Users/solom/Desktop/MW-subject-3(s).csv","legacy","6 9 3 1","Lentiform Loewenfeld","3.3.3","4","y","0","right","right","right","right","NA","455","4749","2303","455","NA","2","legacy","4","1024","2","48000","-16","experiment","3","odd","1","431577","78497","422170","429363","3332","83248","429367","428165","3343","433584","434042","430372","5648","433583","NA","Sternberg task","45","35436","71","yes","1024"
"63.8888888889","63.8888888889","498.763888889","498.763888889","black","experiment","legacy","legacy","legacy","0","uniform","1","undefined","1","left","71","0","71","71","0","0","71","71","0","71","71","71","0","71","0","10/24/20 21:23:14","The main experiment item","yes","Sternbergtask.osexp","C:\Users\solom\Desktop","no","mono","no","18","no","white","no","yes","768","legacy","59","11","C:/Users/solom/Desktop/MW-subject-3(s).csv","legacy","1 4 9 3 2 5","Lentiform Loewenfeld","3.3.3","3","y","0","left","right","right","left","NA","475","4749","2303","475","NA","2","legacy","6","1024","2","48000","-16","experiment","3","odd","9","437477","78497","422170","435261","3332","83248","435266","434064","3343","439484","439963","436271","5648","439483","NA","Sternberg task","46","35911","72","yes","1024"
"64.3835616438","64.3835616438","498.534246575","498.534246575","black","experiment","legacy","legacy","legacy","0","uniform","1","undefined","1","left","72","0","72","72","0","0","72","72","0","72","72","72","0","72","0","10/24/20 21:23:14","The main experiment item","yes","Sternbergtask.osexp","C:\Users\solom\Desktop","no","mono","no","18","no","white","no","yes","768","legacy","60","11","C:/Users/solom/Desktop/MW-subject-3(s).csv","legacy","3 5 4 7","Lentiform Loewenfeld","3.3.3","1","y","0","left","right","right","left","NA","482","4749","2303","482","NA","2","legacy","4","1024","2","48000","-16","experiment","3","odd","3","443406","78497","439993","441191","3332","83248","441195","434064","3343","445413","445898","442200","5648","445412","NA","Sternberg task","47","36393","73","yes","1024"
"64.8648648649","64.8648648649","499.094594595","499.094594595","black","experiment","legacy","legacy","legacy","0","uniform","1","undefined","1","right","73","0","73","73","0","0","73","73","0","73","73","73","0","73","0","10/24/20 21:23:14","The main experiment item","yes","Sternbergtask.osexp","C:\Users\solom\Desktop","no","mono","no","18","no","white","no","yes","768","legacy","61","11","C:/Users/solom/Desktop/MW-subject-3(s).csv","legacy","7 8 6 1","Lentiform Loewenfeld","3.3.3","0","n","0","right","right","right","right","NA","540","4749","2303","540","NA","2","legacy","4","1024","2","48000","-16","experiment","3","odd","3","449342","78497","445927","447128","3332","83248","447132","434064","3343","451347","451891","448137","5648","451347","NA","Sternberg task","48","36933","74","yes","1024"
"64","64","498.133333333","498.133333333","black","experiment","legacy","legacy","legacy","0","uniform","0","undefined","0","right","74","0","74","74","0","0","74","74","0","74","74","74","0","74","0","10/24/20 21:23:14","The main experiment item","yes","Sternbergtask.osexp","C:\Users\solom\Desktop","no","mono","no","18","no","white","no","yes","768","legacy","62","11","C:/Users/solom/Desktop/MW-subject-3(s).csv","legacy","1 5 3 2 8","Lentiform Loewenfeld","3.3.3","0","n","0","left","right","right","left","NA","427","4749","2303","427","NA","2","legacy","5","1024","2","48000","-16","experiment","3","odd","4","455326","78497","451912","453110","3332","83248","453114","434064","3343","457332","457762","454119","5648","457331","NA","Sternberg task","48","37360","75","yes","1024"
"64.4736842105","64.4736842105","496.644736842","496.644736842","black","experiment","legacy","legacy","legacy","0","uniform","1","undefined","1","left","75","0","75","75","0","0","75","75","0","75","75","75","0","75","0","10/24/20 21:23:14","The main experiment item","yes","Sternbergtask.osexp","C:\Users\solom\Desktop","no","mono","no","18","no","white","no","yes","768","legacy","63","11","C:/Users/solom/Desktop/MW-subject-3(s).csv","legacy","4 1 8 7 5","Lentiform Loewenfeld","3.3.3","3","y","0","left","right","right","left","NA","385","4749","2303","385","NA","2","legacy","5","1024","2","48000","-16","experiment","3","odd","8","461199","78497","451912","458986","3332","83248","458990","457789","3343","463206","463594","459994","5648","463205","NA","Sternberg task","49","37745","76","yes","1024"
"64.9350649351","64.9350649351","498.766233766","498.766233766","black","experiment","legacy","legacy","legacy","0","uniform","1","undefined","1","left","76","0","76","76","0","0","76","76","0","76","76","76","0","76","0","10/24/20 21:23:14","The main experiment item","yes","Sternbergtask.osexp","C:\Users\solom\Desktop","no","mono","no","18","no","white","no","yes","768","legacy","64","11","C:/Users/solom/Desktop/MW-subject-3(s).csv","legacy","8 5 4 7 3 1","Lentiform Loewenfeld","3.3.3","2","y","0","left","right","right","left","NA","660","4749","2303","660","NA","2","legacy","6","1024","2","48000","-16","experiment","3","odd","5","467029","78497","463615","464814","3332","83248","464818","457789","3343","469035","469698","465823","5648","469035","NA","Sternberg task","50","38405","77","yes","1024"
"64.1025641026","64.1025641026","498.064102564","498.064102564","black","experiment","legacy","legacy","legacy","0","uniform","0","undefined","0","right","77","0","77","77","0","0","77","77","0","77","77","77","0","77","0","10/24/20 21:23:14","The main experiment item","yes","Sternbergtask.osexp","C:\Users\solom\Desktop","no","mono","no","18","no","white","no","yes","768","legacy","65","11","C:/Users/solom/Desktop/MW-subject-3(s).csv","legacy","1 7 5 2","Lentiform Loewenfeld","3.3.3","0","n","0","left","right","right","left","NA","444","4749","2303","444","NA","2","legacy","4","1024","2","48000","-16","experiment","3","odd","3","473141","78497","469727","470927","3332","83248","470931","457789","3343","475147","475594","471936","5648","475147","NA","Sternberg task","50","38849","78","yes","1024"
"64.5569620253","64.5569620253","497.443037975","497.443037975","black","experiment","legacy","legacy","legacy","0","uniform","1","undefined","1","right","78","0","78","78","0","0","78","78","0","78","78","78","0","78","0","10/24/20 21:23:14","The main experiment item","yes","Sternbergtask.osexp","C:\Users\solom\Desktop","no","mono","no","18","no","white","no","yes","768","legacy","66","11","C:/Users/solom/Desktop/MW-subject-3(s).csv","legacy","6 9 7 3 8 2","Lentiform Loewenfeld","3.3.3","0","n","0","right","right","right","right","NA","449","4749","2303","449","NA","2","legacy","6","1024","2","48000","-16","experiment","3","odd","5","479039","78497","469727","476824","3332","83248","476828","475628","3343","481046","481499","477833","5648","481045","NA","Sternberg task","51","39298","79","yes","1024"
"63.75","63.75","495.975","495.975","black","experiment","legacy","legacy","legacy","0","uniform","0","undefined","0","right","79","0","79","79","0","0","79","79","0","79","79","79","0","79","0","10/24/20 21:23:14","The main experiment item","yes","Sternbergtask.osexp","C:\Users\solom\Desktop","no","mono","no","18","no","white","no","yes","768","legacy","67","11","C:/Users/solom/Desktop/MW-subject-3(s).csv","legacy","7 9","Lentiform Loewenfeld","3.3.3","0","n","0","left","right","right","left","NA","380","4749","2303","380","NA","2","legacy","2","1024","2","48000","-16","experiment","3","odd","1","484941","78497","481531","482727","3332","83248","482731","475628","3343","486947","487330","483736","5648","486946","NA","Sternberg task","51","39678","80","yes","1024"
"62.962962963","62.962962963","496.049382716","496.049382716","black","experiment","legacy","legacy","legacy","0","uniform","0","undefined","0","right","80","0","80","80","0","0","80","80","0","80","80","80","0","80","0","10/24/20 21:23:14","The main experiment item","yes","Sternbergtask.osexp","C:\Users\solom\Desktop","no","mono","no","18","no","white","no","yes","768","legacy","68","11","C:/Users/solom/Desktop/MW-subject-3(s).csv","legacy","5 9 2 3","Lentiform Loewenfeld","3.3.3","0","n","0","left","right","right","left","NA","502","4749","2303","502","NA","2","legacy","4","1024","2","48000","-16","experiment","3","odd","8","490772","78497","481531","488557","3332","83248","488561","487358","3343","492777","493282","489566","5648","492777","NA","Sternberg task","51","40180","81","yes","1024"
"63.4146341463","63.4146341463","495.304878049","495.304878049","black","experiment","legacy","legacy","legacy","0","uniform","1","undefined","1","right","81","0","81","81","0","0","81","81","0","81","81","81","0","81","0","10/24/20 21:23:14","The main experiment item","yes","Sternbergtask.osexp","C:\Users\solom\Desktop","no","mono","no","18","no","white","no","yes","768","legacy","69","11","C:/Users/solom/Desktop/MW-subject-3(s).csv","legacy","4 1","Lentiform Loewenfeld","3.3.3","0","n","0","right","right","right","right","NA","435","4749","2303","435","NA","2","legacy","2","1024","2","48000","-16","experiment","3","odd","6","496725","78497","481531","494511","3332","83248","494516","493309","3343","498732","499171","495519","5648","498731","NA","Sternberg task","52","40615","82","yes","1024"
"62.6506024096","62.6506024096","495.674698795","495.674698795","black","experiment","legacy","legacy","legacy","0","uniform","0","undefined","0","left","82","0","82","82","0","0","82","82","0","82","82","82","0","82","0","10/24/20 21:23:14","The main experiment item","yes","Sternbergtask.osexp","C:\Users\solom\Desktop","no","mono","no","18","no","white","no","yes","768","legacy","70","11","C:/Users/solom/Desktop/MW-subject-3(s).csv","legacy","3 9 6 2","Lentiform Loewenfeld","3.3.3","4","y","0","right","right","right","right","NA","526","4749","2303","526","NA","2","legacy","4","1024","2","48000","-16","experiment","3","odd","2","502619","78497","499205","500403","3332","83248","500407","493309","3343","504625","505154","501414","5648","504625","NA","Sternberg task","52","41141","83","yes","1024"
"63.0952380952","63.0952380952","494.630952381","494.630952381","black","experiment","legacy","legacy","legacy","0","uniform","1","undefined","1","left","83","0","83","83","0","0","83","83","0","83","83","83","0","83","0","10/24/20 21:23:14","The main experiment item","yes","Sternbergtask.osexp","C:\Users\solom\Desktop","no","mono","no","18","no","white","no","yes","768","legacy","71","11","C:/Users/solom/Desktop/MW-subject-3(s).csv","legacy","8 3","Lentiform Loewenfeld","3.3.3","2","y","0","left","right","right","left","NA","408","4749","2303","408","NA","2","legacy","2","1024","2","48000","-16","experiment","3","odd","3","508594","78497","499205","506379","3332","83248","506383","505181","3343","510599","511011","507388","5648","510598","NA","Sternberg task","53","41549","84","yes","1024"
"62.3529411765","62.3529411765","494.329411765","494.329411765","black","experiment","legacy","legacy","legacy","0","uniform","0","undefined","0","right","84","0","84","84","0","0","84","84","0","84","84","84","0","84","0","10/24/20 21:23:14","The main experiment item","yes","Sternbergtask.osexp","C:\Users\solom\Desktop","no","mono","no","18","no","white","no","yes","768","legacy","72","11","C:/Users/solom/Desktop/MW-subject-3(s).csv","legacy","7 9 1 6","Lentiform Loewenfeld","3.3.3","0","n","0","left","right","right","left","NA","469","4749","2303","469","NA","2","legacy","4","1024","2","48000","-16","experiment","3","odd","4","514445","78497","511031","512229","3332","83248","512234","505181","3343","516450","516923","513239","5648","516449","NA","Sternberg task","53","42018","85","yes","1024"
"61.6279069767","61.6279069767","492.802325581","492.802325581","black","experiment","legacy","legacy","legacy","0","uniform","0","undefined","0","right","85","0","85","85","0","0","85","85","0","85","85","85","0","85","0","10/24/20 21:23:14","The main experiment item","yes","Sternbergtask.osexp","C:\Users\solom\Desktop","no","mono","no","18","no","white","no","yes","768","legacy","73","11","C:/Users/solom/Desktop/MW-subject-3(s).csv","legacy","2 8 7 9 5 3","Lentiform Loewenfeld","3.3.3","0","n","0","left","right","right","left","NA","363","4749","2303","363","NA","2","legacy","6","1024","2","48000","-16","experiment","3","odd","6","520366","78497","511031","518150","3332","83248","518155","516952","3343","522373","522739","519160","5648","522372","NA","Sternberg task","53","42381","86","yes","1024"
"60.9195402299","60.9195402299","495.850574713","495.850574713","black","experiment","legacy","legacy","legacy","0","uniform","0","undefined","0","left","86","0","86","86","0","0","86","86","0","86","86","86","0","86","0","10/24/20 21:23:14","The main experiment item","yes","Sternbergtask.osexp","C:\Users\solom\Desktop","no","mono","no","18","no","white","no","yes","768","legacy","74","11","C:/Users/solom/Desktop/MW-subject-3(s).csv","legacy","3 5 7 1","Lentiform Loewenfeld","3.3.3","3","y","0","right","right","right","right","NA","758","4749","2303","758","NA","2","legacy","4","1024","2","48000","-16","experiment","3","odd","7","526171","78497","511031","523959","3332","83248","523963","522760","3343","528177","528938","524968","5648","528177","NA","Sternberg task","53","43139","87","yes","1024"
"61.3636363636","61.3636363636","499.295454545","499.295454545","black","experiment","legacy","legacy","legacy","0","uniform","1","undefined","1","left","87","0","87","87","0","0","87","87","0","87","87","87","0","87","0","10/24/20 21:23:14","The main experiment item","yes","Sternbergtask.osexp","C:\Users\solom\Desktop","no","mono","no","18","no","white","no","yes","768","legacy","75","11","C:/Users/solom/Desktop/MW-subject-3(s).csv","legacy","9 3 1 2 5","Lentiform Loewenfeld","3.3.3","4","y","0","left","right","right","left","NA","799","4749","2303","799","NA","2","legacy","5","1024","2","48000","-16","experiment","3","odd","2","532369","78497","511031","530156","3332","83248","530160","528961","3343","534376","535179","531163","5648","534375","NA","Sternberg task","54","43938","88","yes","1024"
"60.6741573034","60.6741573034","498.415730337","498.415730337","black","experiment","legacy","legacy","legacy","0","uniform","0","undefined","0","right","88","0","88","88","0","0","88","88","0","88","88","88","0","88","0","10/24/20 21:23:14","The main experiment item","yes","Sternbergtask.osexp","C:\Users\solom\Desktop","no","mono","no","18","no","white","no","yes","768","legacy","76","11","C:/Users/solom/Desktop/MW-subject-3(s).csv","legacy","1 4 9 3","Lentiform Loewenfeld","3.3.3","0","n","0","left","right","right","left","NA","421","4749","2303","421","NA","2","legacy","4","1024","2","48000","-16","experiment","3","odd","5","538621","78497","535207","536409","3332","83248","536413","528961","3343","540626","541050","537416","5648","540626","NA","Sternberg task","54","44359","89","yes","1024"
"60","60","498.188888889","498.188888889","black","experiment","legacy","legacy","legacy","0","uniform","0","undefined","0","left","89","0","89","89","0","0","89","89","0","89","89","89","0","89","0","10/24/20 21:23:14","The main experiment item","yes","Sternbergtask.osexp","C:\Users\solom\Desktop","no","mono","no","18","no","white","no","yes","768","legacy","77","11","C:/Users/solom/Desktop/MW-subject-3(s).csv","legacy","8 9 5 6 7","Lentiform Loewenfeld","3.3.3","1","y","0","right","right","right","right","NA","478","4749","2303","478","NA","2","legacy","5","1024","2","48000","-16","experiment","3","odd","8","544499","78497","535207","542283","3332","83248","542287","541084","3343","546505","546987","543292","5648","546505","NA","Sternberg task","54","44837","90","yes","1024"
"60.4395604396","60.4395604396","501.186813187","501.186813187","black","experiment","legacy","legacy","legacy","0","uniform","1","undefined","1","left","90","0","90","90","0","0","90","90","0","90","90","90","0","90","0","10/24/20 21:23:14","The main experiment item","yes","Sternbergtask.osexp","C:\Users\solom\Desktop","no","mono","no","18","no","white","no","yes","768","legacy","78","11","C:/Users/solom/Desktop/MW-subject-3(s).csv","legacy","4 1 5","Lentiform Loewenfeld","3.3.3","2","y","0","left","right","right","left","NA","771","4749","2303","771","NA","2","legacy","3","1024","2","48000","-16","experiment","3","odd","1","550425","78497","535207","548208","3332","83248","548213","547008","3343","552429","553203","549219","5648","552429","NA","Sternberg task","55","45608","91","yes","1024"
"60.8695652174","60.8695652174","502.456521739","502.456521739","black","experiment","legacy","legacy","legacy","0","uniform","1","undefined","1","left","91","0","91","91","0","0","91","91","0","91","91","91","0","91","0","10/24/20 21:23:14","The main experiment item","yes","Sternbergtask.osexp","C:\Users\solom\Desktop","no","mono","no","18","no","white","no","yes","768","legacy","79","11","C:/Users/solom/Desktop/MW-subject-3(s).csv","legacy","2 5 4 8 7","Lentiform Loewenfeld","3.3.3","3","y","0","left","right","right","left","NA","618","4749","2303","618","NA","2","legacy","5","1024","2","48000","-16","experiment","3","odd","4","556638","78497","553230","554426","3332","83248","554430","547008","3343","558645","559267","555433","5648","558645","NA","Sternberg task","56","46226","92","yes","1024"
"61.2903225806","61.2903225806","502.387096774","502.387096774","black","experiment","legacy","legacy","legacy","0","uniform","1","undefined","1","left","92","0","92","92","0","0","92","92","0","92","92","92","0","92","0","10/24/20 21:23:14","The main experiment item","yes","Sternbergtask.osexp","C:\Users\solom\Desktop","no","mono","no","18","no","white","no","yes","768","legacy","80","11","C:/Users/solom/Desktop/MW-subject-3(s).csv","legacy","8 7 3","Lentiform Loewenfeld","3.3.3","1","y","0","left","right","right","left","NA","496","4749","2303","496","NA","2","legacy","3","1024","2","48000","-16","experiment","3","odd","8","562700","78497","559287","560486","3332","83248","560490","547008","3343","564704","565203","561494","5648","564704","NA","Sternberg task","57","46722","93","yes","1024"
"61.7021276596","61.7021276596","500.79787234","500.79787234","black","experiment","legacy","legacy","legacy","0","uniform","1","undefined","1","left","93","0","93","93","0","0","93","93","0","93","93","93","0","93","0","10/24/20 21:23:14","The main experiment item","yes","Sternbergtask.osexp","C:\Users\solom\Desktop","no","mono","no","18","no","white","no","yes","768","legacy","81","11","C:/Users/solom/Desktop/MW-subject-3(s).csv","legacy","7 1 3","Lentiform Loewenfeld","3.3.3","2","y","0","left","right","right","left","NA","353","4749","2303","353","NA","2","legacy","3","1024","2","48000","-16","experiment","3","odd","1","568647","78497","565234","566432","3332","83248","566436","547008","3343","570654","571011","567441","5648","570653","NA","Sternberg task","58","47075","94","yes","1024"
"62.1052631579","62.1052631579","499.315789474","499.315789474","black","experiment","legacy","legacy","legacy","0","uniform","1","undefined","1","left","94","0","94","94","0","0","94","94","0","94","94","94","0","94","0","10/24/20 21:23:14","The main experiment item","yes","Sternbergtask.osexp","C:\Users\solom\Desktop","no","mono","no","18","no","white","no","yes","768","legacy","82","11","C:/Users/solom/Desktop/MW-subject-3(s).csv","legacy","5 2 6","Lentiform Loewenfeld","3.3.3","2","y","0","left","right","right","left","NA","360","4749","2303","360","NA","2","legacy","3","1024","2","48000","-16","experiment","3","odd","2","574448","78497","571035","572232","3332","83248","572236","547008","3343","576455","576819","573242","5648","576454","NA","Sternberg task","59","47435","95","yes","1024"
"62.5","62.5","498.84375","498.84375","black","experiment","legacy","legacy","legacy","0","uniform","1","undefined","1","right","95","0","95","95","0","0","95","95","0","95","95","95","0","95","0","10/24/20 21:23:14","The main experiment item","yes","Sternbergtask.osexp","C:\Users\solom\Desktop","no","mono","no","18","no","white","no","yes","768","legacy","83","11","C:/Users/solom/Desktop/MW-subject-3(s).csv","legacy","8 2 1 4 5 9","Lentiform Loewenfeld","3.3.3","0","n","0","right","right","right","right","NA","454","4749","2303","454","NA","2","legacy","6","1024","2","48000","-16","experiment","3","odd","7","580270","78497","576854","578056","3332","83248","578060","547008","3343","582274","582731","579065","5648","582274","NA","Sternberg task","60","47889","96","yes","1024"
"62.8865979381","62.8865979381","498.649484536","498.649484536","black","experiment","legacy","legacy","legacy","0","uniform","1","undefined","1","left","96","0","96","96","0","0","96","96","0","96","96","96","0","96","0","10/24/20 21:23:14","The main experiment item","yes","Sternbergtask.osexp","C:\Users\solom\Desktop","no","mono","no","18","no","white","no","yes","768","legacy","84","11","C:/Users/solom/Desktop/MW-subject-3(s).csv","legacy","7 8 4 6 9 5","Lentiform Loewenfeld","3.3.3","4","y","0","left","right","right","left","NA","480","4749","2303","480","NA","2","legacy","6","1024","2","48000","-16","experiment","3","odd","6","586170","78497","582753","583958","3332","83248","583963","547008","3343","588175","588659","584966","5648","588174","NA","Sternberg task","61","48369","97","yes","1024"
"63.2653061224","63.2653061224","497.408163265","497.408163265","black","experiment","legacy","legacy","legacy","0","uniform","1","undefined","1","left","97","0","97","97","0","0","97","97","0","97","97","97","0","97","0","10/24/20 21:23:14","The main experiment item","yes","Sternbergtask.osexp","C:\Users\solom\Desktop","no","mono","no","18","no","white","no","yes","768","legacy","85","11","C:/Users/solom/Desktop/MW-subject-3(s).csv","legacy","3 2 1 4 7","Lentiform Loewenfeld","3.3.3","2","y","0","left","right","right","left","NA","377","4749","2303","377","NA","2","legacy","5","1024","2","48000","-16","experiment","3","odd","2","592092","78497","588680","589881","3332","83248","589886","547008","3343","594095","594476","590889","5648","594095","NA","Sternberg task","62","48746","98","yes","1024"
"62.6262626263","62.6262626263","500.242424242","500.242424242","black","experiment","legacy","legacy","legacy","0","uniform","0","undefined","0","left","98","0","98","98","0","0","98","98","0","98","98","98","0","98","0","10/24/20 21:23:14","The main experiment item","yes","Sternbergtask.osexp","C:\Users\solom\Desktop","no","mono","no","18","no","white","no","yes","768","legacy","86","11","C:/Users/solom/Desktop/MW-subject-3(s).csv","legacy","2 3 7 4","Lentiform Loewenfeld","3.3.3","1","y","0","right","right","right","right","NA","778","4749","2303","778","NA","2","legacy","4","1024","2","48000","-16","experiment","3","odd","2","597926","78497","594501","595713","3332","83248","595717","547008","3343","599933","600715","596722","5648","599932","NA","Sternberg task","62","49524","99","yes","1024"
"62","62","499.1","499.1","black","experiment","legacy","legacy","legacy","0","uniform","0","undefined","0","right","99","0","99","99","0","0","99","99","0","99","99","99","0","99","0","10/24/20 21:23:14","The main experiment item","yes","Sternbergtask.osexp","C:\Users\solom\Desktop","no","mono","no","18","no","white","no","yes","768","legacy","87","11","C:/Users/solom/Desktop/MW-subject-3(s).csv","legacy","3 4 9 6 7 8","Lentiform Loewenfeld","3.3.3","0","n","0","left","right","right","left","NA","386","4749","2303","386","NA","2","legacy","6","1024","2","48000","-16","experiment","3","odd","2","604158","78497","594501","601942","3332","83248","601946","600744","3343","606165","606555","602952","5648","606164","NA","Sternberg task","62","49910","100","yes","1024"
"62.3762376238","62.3762376238","499.495049505","499.495049505","black","experiment","legacy","legacy","legacy","0","uniform","1","undefined","1","right","100","0","100","100","0","0","100","100","0","100","100","100","0","100","0","10/24/20 21:23:14","The main experiment item","yes","Sternbergtask.osexp","C:\Users\solom\Desktop","no","mono","no","18","no","white","no","yes","768","legacy","88","11","C:/Users/solom/Desktop/MW-subject-3(s).csv","legacy","5 2","Lentiform Loewenfeld","3.3.3","0","n","0","right","right","right","right","NA","539","4749","2303","539","NA","2","legacy","2","1024","2","48000","-16","experiment","3","odd","7","609990","78497","594501","607774","3332","83248","607778","606576","3343","611996","612539","608784","5648","611995","NA","Sternberg task","63","50449","101","yes","1024"
"62.7450980392","62.7450980392","499.362745098","499.362745098","black","experiment","legacy","legacy","legacy","0","uniform","1","undefined","1","left","101","0","101","101","0","0","101","101","0","101","101","101","0","101","0","10/24/20 21:23:14","The main experiment item","yes","Sternbergtask.osexp","C:\Users\solom\Desktop","no","mono","no","18","no","white","no","yes","768","legacy","89","11","C:/Users/solom/Desktop/MW-subject-3(s).csv","legacy","9 5 8 1","Lentiform Loewenfeld","3.3.3","2","y","0","left","right","right","left","NA","486","4749","2303","486","NA","2","legacy","4","1024","2","48000","-16","experiment","3","odd","5","615979","78497","612564","613763","3332","83248","613767","606576","3343","617985","618475","614773","5648","617985","NA","Sternberg task","64","50935","102","yes","1024"
"63.1067961165","63.1067961165","499.45631068","499.45631068","black","experiment","legacy","legacy","legacy","0","uniform","1","undefined","1","right","102","0","102","102","0","0","102","102","0","102","102","102","0","102","0","10/24/20 21:23:14","The main experiment item","yes","Sternbergtask.osexp","C:\Users\solom\Desktop","no","mono","no","18","no","white","no","yes","768","legacy","90","11","C:/Users/solom/Desktop/MW-subject-3(s).csv","legacy","6 9 4 5 3 2","Lentiform Loewenfeld","3.3.3","0","n","0","right","right","right","right","NA","509","4749","2303","509","NA","2","legacy","6","1024","2","48000","-16","experiment","3","odd","8","621916","78497","618500","619701","3332","83248","619705","606576","3343","623923","624436","620710","5648","623923","NA","Sternberg task","65","51444","103","yes","1024"
"62.5","62.5","499.817307692","499.817307692","black","experiment","legacy","legacy","legacy","0","uniform","0","undefined","0","right","103","0","103","103","0","0","103","103","0","103","103","103","0","103","0","10/24/20 21:23:14","The main experiment item","yes","Sternbergtask.osexp","C:\Users\solom\Desktop","no","mono","no","18","no","white","no","yes","768","legacy","91","11","C:/Users/solom/Desktop/MW-subject-3(s).csv","legacy","7 3 2 8","Lentiform Loewenfeld","3.3.3","0","n","0","left","right","right","left","NA","537","4749","2303","537","NA","2","legacy","4","1024","2","48000","-16","experiment","3","odd","4","627874","78497","624458","625657","3332","83248","625661","606576","3343","629878","630419","626668","5648","629878","NA","Sternberg task","65","51981","104","yes","1024"
"62.8571428571","62.8571428571","501.40952381","501.40952381","black","experiment","legacy","legacy","legacy","0","uniform","1","undefined","1","left","104","0","104","104","0","0","104","104","0","104","104","104","0","104","0","10/24/20 21:23:14","The main experiment item","yes","Sternbergtask.osexp","C:\Users\solom\Desktop","no","mono","no","18","no","white","no","yes","768","legacy","92","11","C:/Users/solom/Desktop/MW-subject-3(s).csv","legacy","4 3 2 5 8","Lentiform Loewenfeld","3.3.3","2","y","0","left","right","right","left","NA","667","4749","2303","667","NA","2","legacy","5","1024","2","48000","-16","experiment","3","odd","3","633870","78497","624458","631655","3332","83248","631659","630445","3343","635876","636547","632664","5648","635876","NA","Sternberg task","66","52648","105","yes","1024"
"62.2641509434","62.2641509434","500.58490566","500.58490566","black","experiment","legacy","legacy","legacy","0","uniform","0","undefined","0","left","105","0","105","105","0","0","105","105","0","105","105","105","0","105","0","10/24/20 21:23:14","The main experiment item","yes","Sternbergtask.osexp","C:\Users\solom\Desktop","no","mono","no","18","no","white","no","yes","768","legacy","93","11","C:/Users/solom/Desktop/MW-subject-3(s).csv","legacy","5 7 3 6 2","Lentiform Loewenfeld","3.3.3","5","y","0","right","right","right","right","NA","414","4749","2303","414","NA","2","legacy","5","1024","2","48000","-16","experiment","3","odd","2","639996","78497","636579","637780","3332","83248","637784","630445","3343","642002","642420","638789","5648","642001","NA","Sternberg task","66","53062","106","yes","1024"
"61.6822429907","61.6822429907","499.457943925","499.457943925","black","experiment","legacy","legacy","legacy","0","uniform","0","undefined","0","right","106","0","106","106","0","0","106","106","0","106","106","106","0","106","0","10/24/20 21:23:14","The main experiment item","yes","Sternbergtask.osexp","C:\Users\solom\Desktop","no","mono","no","18","no","white","no","yes","768","legacy","94","11","C:/Users/solom/Desktop/MW-subject-3(s).csv","legacy","6 8","Lentiform Loewenfeld","3.3.3","0","n","0","left","right","right","left","NA","380","4749","2303","380","NA","2","legacy","2","1024","2","48000","-16","experiment","3","odd","9","645862","78497","636579","643648","3332","83248","643652","642448","3343","647867","648251","644657","5648","647867","NA","Sternberg task","66","53442","107","yes","1024"
"62.037037037","62.037037037","500.518518519","500.518518519","black","experiment","legacy","legacy","legacy","0","uniform","1","undefined","1","right","107","0","107","107","0","0","107","107","0","107","107","107","0","107","0","10/24/20 21:23:14","The main experiment item","yes","Sternbergtask.osexp","C:\Users\solom\Desktop","no","mono","no","18","no","white","no","yes","768","legacy","95","11","C:/Users/solom/Desktop/MW-subject-3(s).csv","legacy","7 1 8 4 9 3","Lentiform Loewenfeld","3.3.3","0","n","0","right","right","right","right","NA","614","4749","2303","614","NA","2","legacy","6","1024","2","48000","-16","experiment","3","odd","6","651699","78497","636579","649484","3332","83248","649488","648283","3343","653705","654323","650493","5648","653705","NA","Sternberg task","67","54056","108","yes","1024"
"62.3853211009","62.3853211009","501.064220183","501.064220183","black","experiment","legacy","legacy","legacy","0","uniform","1","undefined","1","right","108","0","108","108","0","0","108","108","0","108","108","108","0","108","0","10/24/20 21:23:14","The main experiment item","yes","Sternbergtask.osexp","C:\Users\solom\Desktop","no","mono","no","18","no","white","no","yes","768","legacy","96","11","C:/Users/solom/Desktop/MW-subject-3(s).csv","legacy","9 8 2 7 4","Lentiform Loewenfeld","3.3.3","0","n","0","right","right","right","right","NA","560","4749","2303","560","NA","2","legacy","5","1024","2","48000","-16","experiment","3","odd","5","657769","78497","654352","655554","3332","83248","655558","648283","3343","659776","660340","656563","5648","659775","NA","Sternberg task","68","54616","109","yes","1024"
"62.7272727273","62.7272727273","502.109090909","502.109090909","black","experiment","legacy","legacy","legacy","0","uniform","1","undefined","1","right","109","0","109","109","0","0","109","109","0","109","109","109","0","109","0","10/24/20 21:23:14","The main experiment item","yes","Sternbergtask.osexp","C:\Users\solom\Desktop","no","mono","no","18","no","white","no","yes","768","legacy","97","11","C:/Users/solom/Desktop/MW-subject-3(s).csv","legacy","3 9 1","Lentiform Loewenfeld","3.3.3","0","n","0","right","right","right","right","NA","616","4749","2303","616","NA","2","legacy","3","1024","2","48000","-16","experiment","3","odd","7","663777","78497","660360","661561","3332","83248","661566","648283","3343","665784","666404","662571","5648","665783","NA","Sternberg task","69","55232","110","yes","1024"
"63.0630630631","63.0630630631","501.612612613","501.612612613","black","experiment","legacy","legacy","legacy","0","uniform","1","undefined","1","left","110","0","110","110","0","0","110","110","0","110","110","110","0","110","0","10/24/20 21:23:14","The main experiment item","yes","Sternbergtask.osexp","C:\Users\solom\Desktop","no","mono","no","18","no","white","no","yes","768","legacy","98","11","C:/Users/solom/Desktop/MW-subject-3(s).csv","legacy","6 2","Lentiform Loewenfeld","3.3.3","1","y","0","left","right","right","left","NA","447","4749","2303","447","NA","2","legacy","2","1024","2","48000","-16","experiment","3","odd","6","669843","78497","666431","667629","3332","83248","667633","648283","3343","671849","672300","668638","5648","671848","NA","Sternberg task","70","55679","111","yes","1024"
"63.3928571429","63.3928571429","502.830357143","502.830357143","black","experiment","legacy","legacy","legacy","0","uniform","1","undefined","1","left","111","0","111","111","0","0","111","111","0","111","111","111","0","111","0","10/24/20 21:23:14","The main experiment item","yes","Sternbergtask.osexp","C:\Users\solom\Desktop","no","mono","no","18","no","white","no","yes","768","legacy","99","11","C:/Users/solom/Desktop/MW-subject-3(s).csv","legacy","2 8 5 1","Lentiform Loewenfeld","3.3.3","4","y","0","left","right","right","left","NA","638","4749","2303","638","NA","2","legacy","4","1024","2","48000","-16","experiment","3","odd","1","675739","78497","672325","673524","3332","83248","673528","648283","3343","677745","678388","674534","5648","677745","NA","Sternberg task","71","56317","112","yes","1024"
"63.7168141593","63.7168141593","503.557522124","503.557522124","black","experiment","legacy","legacy","legacy","0","uniform","1","undefined","1","right","112","0","112","112","0","0","112","112","0","112","112","112","0","112","0","10/24/20 21:23:14","The main experiment item","yes","Sternbergtask.osexp","C:\Users\solom\Desktop","no","mono","no","18","no","white","no","yes","768","legacy","100","11","C:/Users/solom/Desktop/MW-subject-3(s).csv","legacy","6 9 5","Lentiform Loewenfeld","3.3.3","0","n","0","right","right","right","right","NA","585","4749","2303","585","NA","2","legacy","3","1024","2","48000","-16","experiment","3","odd","8","681831","78497","678418","679615","3332","83248","679619","648283","3343","683838","684428","680626","5648","683837","NA","Sternberg task","72","56902","113","yes","1024"
"64.0350877193","64.0350877193","504.175438596","504.175438596","black","experiment","legacy","legacy","legacy","0","uniform","1","undefined","1","right","113","0","113","113","0","0","113","113","0","113","113","113","0","113","0","10/24/20 21:23:14","The main experiment item","yes","Sternbergtask.osexp","C:\Users\solom\Desktop","no","mono","no","18","no","white","no","yes","768","legacy","101","11","C:/Users/solom/Desktop/MW-subject-3(s).csv","legacy","8 9","Lentiform Loewenfeld","3.3.3","0","n","0","right","right","right","right","NA","574","4749","2303","574","NA","2","legacy","2","1024","2","48000","-16","experiment","3","odd","5","687867","78497","684453","685650","3332","83248","685655","648283","3343","689873","690452","686660","5648","689872","NA","Sternberg task","73","57476","114","yes","1024"
"64.347826087","64.347826087","504.026086957","504.026086957","black","experiment","legacy","legacy","legacy","0","uniform","1","undefined","1","left","114","0","114","114","0","0","114","114","0","114","114","114","0","114","0","10/24/20 21:23:14","The main experiment item","yes","Sternbergtask.osexp","C:\Users\solom\Desktop","no","mono","no","18","no","white","no","yes","768","legacy","102","11","C:/Users/solom/Desktop/MW-subject-3(s).csv","legacy","7 1 8 5 6 2","Lentiform Loewenfeld","3.3.3","2","y","0","left","right","right","left","NA","487","4749","2303","487","NA","2","legacy","6","1024","2","48000","-16","experiment","3","odd","1","693891","78497","690480","691677","3332","83248","691681","648283","3343","695897","696388","692686","5648","695897","NA","Sternberg task","74","57963","115","yes","1024"
"64.6551724138","64.6551724138","503.99137931","503.99137931","black","experiment","legacy","legacy","legacy","0","uniform","1","undefined","1","right","115","0","115","115","0","0","115","115","0","115","115","115","0","115","0","10/24/20 21:23:14","The main experiment item","yes","Sternbergtask.osexp","C:\Users\solom\Desktop","no","mono","no","18","no","white","no","yes","768","legacy","103","11","C:/Users/solom/Desktop/MW-subject-3(s).csv","legacy","5 7 3","Lentiform Loewenfeld","3.3.3","0","n","0","right","right","right","right","NA","500","4749","2303","500","NA","2","legacy","3","1024","2","48000","-16","experiment","3","odd","9","699828","78497","696415","697612","3332","83248","697616","648283","3343","701835","702339","698622","5648","701834","NA","Sternberg task","75","58463","116","yes","1024"
"64.9572649573","64.9572649573","503.487179487","503.487179487","black","experiment","legacy","legacy","legacy","0","uniform","1","undefined","1","right","116","0","116","116","0","0","116","116","0","116","116","116","0","116","0","10/24/20 21:23:14","The main experiment item","yes","Sternbergtask.osexp","C:\Users\solom\Desktop","no","mono","no","18","no","white","no","yes","768","legacy","104","11","C:/Users/solom/Desktop/MW-subject-3(s).csv","legacy","2 6 4 3 9","Lentiform Loewenfeld","3.3.3","0","n","0","right","right","right","right","NA","445","4749","2303","445","NA","2","legacy","5","1024","2","48000","-16","experiment","3","odd","1","705782","78497","702368","703567","3332","83248","703571","648283","3343","707788","708237","704577","5648","707787","NA","Sternberg task","76","58908","117","yes","1024"
"65.2542372881","65.2542372881","504.381355932","504.381355932","black","experiment","legacy","legacy","legacy","0","uniform","1","undefined","1","left","117","0","117","117","0","0","117","117","0","117","117","117","0","117","0","10/24/20 21:23:14","The main experiment item","yes","Sternbergtask.osexp","C:\Users\solom\Desktop","no","mono","no","18","no","white","no","yes","768","legacy","105","11","C:/Users/solom/Desktop/MW-subject-3(s).csv","legacy","9 8 4","Lentiform Loewenfeld","3.3.3","1","y","0","left","right","right","left","NA","609","4749","2303","609","NA","2","legacy","3","1024","2","48000","-16","experiment","3","odd","9","711671","78497","708259","709456","3332","83248","709461","648283","3343","713678","714292","710465","5648","713677","NA","Sternberg task","77","59517","118","yes","1024"
"64.7058823529","64.7058823529","504.487394958","504.487394958","black","experiment","legacy","legacy","legacy","0","uniform","0","undefined","0","right","118","0","118","118","0","0","118","118","0","118","118","118","0","118","0","10/24/20 21:23:14","The main experiment item","yes","Sternbergtask.osexp","C:\Users\solom\Desktop","no","mono","no","18","no","white","no","yes","768","legacy","106","11","C:/Users/solom/Desktop/MW-subject-3(s).csv","legacy","6 3 1 7 9 8","Lentiform Loewenfeld","3.3.3","0","n","0","left","right","right","left","NA","517","4749","2303","517","NA","2","legacy","6","1024","2","48000","-16","experiment","3","odd","4","717736","78497","714321","715520","3332","83248","715524","648283","3343","719739","720260","716529","5648","719739","NA","Sternberg task","77","60034","119","yes","1024"
"65","65","504.125","504.125","black","experiment","legacy","legacy","legacy","0","uniform","1","undefined","1","right","119","0","119","119","0","0","119","119","0","119","119","119","0","119","0","10/24/20 21:23:14","The main experiment item","yes","Sternbergtask.osexp","C:\Users\solom\Desktop","no","mono","no","18","no","white","no","yes","768","legacy","107","11","C:/Users/solom/Desktop/MW-subject-3(s).csv","legacy","1 7 8 3 9","Lentiform Loewenfeld","3.3.3","0","n","0","right","right","right","right","NA","461","4749","2303","461","NA","2","legacy","5","1024","2","48000","-16","experiment","3","odd","2","723702","78497","714321","721485","3332","83248","721489","720289","3343","725707","726172","722495","5648","725707","NA","Sternberg task","78","60495","120","yes","1024"
"64.4628099174","64.4628099174","506.67768595","506.67768595","black","experiment","legacy","legacy","legacy","0","uniform","0","undefined","0","right","120","0","120","120","0","0","120","120","0","120","120","120","0","120","0","10/24/20 21:23:14","The main experiment item","yes","Sternbergtask.osexp","C:\Users\solom\Desktop","no","mono","no","18","no","white","no","yes","768","legacy","108","11","C:/Users/solom/Desktop/MW-subject-3(s).csv","legacy","3 9 8 1 6 4","Lentiform Loewenfeld","3.3.3","0","n","0","left","right","right","left","NA","813","4749","2303","813","NA","2","legacy","6","1024","2","48000","-16","experiment","3","odd","7","729613","78497","726199","727397","3332","83248","727401","720289","3343","731618","732436","728407","5648","731617","NA","Sternberg task","78","61308","121","yes","1024"
"63.9344262295","63.9344262295","508.12295082","508.12295082","black","experiment","legacy","legacy","legacy","0","uniform","0","undefined","0","right","121","0","121","121","0","0","121","121","0","121","121","121","0","121","0","10/24/20 21:23:14","The main experiment item","yes","Sternbergtask.osexp","C:\Users\solom\Desktop","no","mono","no","18","no","white","no","yes","768","legacy","109","11","C:/Users/solom/Desktop/MW-subject-3(s).csv","legacy","5 3 2 6 9 8","Lentiform Loewenfeld","3.3.3","0","n","0","left","right","right","left","NA","683","4749","2303","683","NA","2","legacy","6","1024","2","48000","-16","experiment","3","odd","4","735870","78497","726199","733655","3332","83248","733659","732457","3343","737876","738564","734664","5648","737876","NA","Sternberg task","78","61991","122","yes","1024"
