"acc","accuracy","average_response_time","avg_rt","background","block","canvas_backend","clock_backend","color_backend","compensation","coordinates","correct","correct_instruction1","correct_keyboard_response","correct_response","count_ISI","count_Instructions2","count_correctFeedback","count_expSequence","count_experiment","count_experimentLoop","count_fixation","count_incorrectFeedback","count_instruction1","count_keyboard_response","count_logger","count_memorySet","count_practiceLoop","count_probe","count_thankYou","datetime","description","disable_garbage_collection","experiment_file","experiment_path","font_bold","font_family","font_italic","font_size","font_underline","foreground","form_clicks","fullscreen","height","keyboard_backend","live_row","live_row_practiceLoop","logfile","mouse_backend","numberSet","opensesame_codename","opensesame_version","posInSet","present","repeat_cycle","response","response_Instructions2","response_instruction1","response_keyboard_response","response_thankYou","response_time","response_time_Instructions2","response_time_instruction1","response_time_keyboard_response","response_time_thankYou","round_decimals","sampler_backend","setSize","sound_buf_size","sound_channels","sound_freq","sound_sample_size","start","subject_nr","subject_parity","target","time_ISI","time_Instructions2","time_correctFeedback","time_expSequence","time_experiment","time_experimentLoop","time_fixation","time_incorrectFeedback","time_instruction1","time_keyboard_response","time_logger","time_memorySet","time_practiceLoop","time_probe","time_thankYou","title","total_correct","total_response_time","total_responses","uniform_coordinates","width"
"100","100","923","923","black","practice","legacy","legacy","legacy","0","uniform","1","undefined","1","right","0","0","0","0","0","0","0","0","0","0","0","0","0","0","0","10/11/20 19:49:44","The main experiment item","yes","Sternbergtask.osexp","C:/Users/solom/Desktop","no","mono","no","18","no","white","no","yes","768","legacy","0","0","C:/Users/solom/Desktop/MW-subject-1.csv","legacy","3 1 9 4","Lentiform Loewenfeld","3.3.3","0","n","0","right","NA","right","right","NA","923","NA","7216","923","NA","2","legacy","4","1024","2","48000","-16","experiment","1","odd","6","19263","NA","NA","17048","6785","NA","17052","NA","6792","21269","22193","18057","14010","21269","NA","Sternberg task","1","923","1","yes","1024"
"100","100","869","869","black","practice","legacy","legacy","legacy","0","uniform","1","undefined","1","right","1","0","1","1","0","0","1","1","0","1","1","1","0","1","0","10/11/20 19:49:44","The main experiment item","yes","Sternbergtask.osexp","C:/Users/solom/Desktop","no","mono","no","18","no","white","no","yes","768","legacy","1","1","C:/Users/solom/Desktop/MW-subject-1.csv","legacy","5 7 8 4 1 2","Lentiform Loewenfeld","3.3.3","0","n","0","right","NA","right","right","NA","815","NA","7216","815","NA","2","legacy","6","1024","2","48000","-16","experiment","1","odd","6","25849","NA","22429","23633","6785","NA","23637","NA","6792","27856","28672","24643","14010","27855","NA","Sternberg task","2","1738","2","yes","1024"
"100","100","729","729","black","practice","legacy","legacy","legacy","0","uniform","1","undefined","1","left","2","0","2","2","0","0","2","2","0","2","2","2","0","2","0","10/11/20 19:49:44","The main experiment item","yes","Sternbergtask.osexp","C:/Users/solom/Desktop","no","mono","no","18","no","white","no","yes","768","legacy","2","2","C:/Users/solom/Desktop/MW-subject-1.csv","legacy","4 8","Lentiform Loewenfeld","3.3.3","1","y","0","left","NA","right","left","NA","449","NA","7216","449","NA","2","legacy","2","1024","2","48000","-16","experiment","1","odd","4","32113","NA","28694","29899","6785","NA","29903","NA","6792","34119","34569","30908","14010","34119","NA","Sternberg task","3","2187","3","yes","1024"
"75","75","648.5","648.5","black","practice","legacy","legacy","legacy","0","uniform","0","undefined","0","left","3","0","3","3","0","0","3","3","0","3","3","3","0","3","0","10/11/20 19:49:44","The main experiment item","yes","Sternbergtask.osexp","C:/Users/solom/Desktop","no","mono","no","18","no","white","no","yes","768","legacy","3","3","C:/Users/solom/Desktop/MW-subject-1.csv","legacy","6","Lentiform Loewenfeld","3.3.3","1","y","0","right","NA","right","right","NA","407","NA","7216","407","NA","2","legacy","1","1024","2","48000","-16","experiment","1","odd","6","38019","NA","34606","35803","6785","NA","35808","NA","6792","40025","40433","36813","14010","40025","NA","Sternberg task","3","2594","4","yes","1024"
"80","80","635.8","635.8","black","practice","legacy","legacy","legacy","0","uniform","1","undefined","1","left","4","0","4","4","0","0","4","4","0","4","4","4","0","4","0","10/11/20 19:49:44","The main experiment item","yes","Sternbergtask.osexp","C:/Users/solom/Desktop","no","mono","no","18","no","white","no","yes","768","legacy","4","4","C:/Users/solom/Desktop/MW-subject-1.csv","legacy","1 5 2 9","Lentiform Loewenfeld","3.3.3","2","y","0","left","NA","right","left","NA","585","NA","7216","585","NA","2","legacy","4","1024","2","48000","-16","experiment","1","odd","5","43873","NA","34606","41658","6785","NA","41662","40458","6792","45879","46465","42667","14010","45879","NA","Sternberg task","4","3179","5","yes","1024"
"83.3333333333","83.3333333333","631.333333333","631.333333333","black","practice","legacy","legacy","legacy","0","uniform","1","undefined","1","right","5","0","5","5","0","0","5","5","0","5","5","5","0","5","0","10/11/20 19:49:44","The main experiment item","yes","Sternbergtask.osexp","C:/Users/solom/Desktop","no","mono","no","18","no","white","no","yes","768","legacy","5","5","C:/Users/solom/Desktop/MW-subject-1.csv","legacy","5","Lentiform Loewenfeld","3.3.3","0","n","0","right","NA","right","right","NA","609","NA","7216","609","NA","2","legacy","1","1024","2","48000","-16","experiment","1","odd","3","49906","NA","46492","47692","6785","NA","47696","40458","6792","51911","52521","48701","14010","51911","NA","Sternberg task","5","3788","6","yes","1024"
"71.4285714286","71.4285714286","623.142857143","623.142857143","black","practice","legacy","legacy","legacy","0","uniform","0","undefined","0","right","6","0","6","6","0","0","6","6","0","6","6","6","0","6","0","10/11/20 19:49:44","The main experiment item","yes","Sternbergtask.osexp","C:/Users/solom/Desktop","no","mono","no","18","no","white","no","yes","768","legacy","6","6","C:/Users/solom/Desktop/MW-subject-1.csv","legacy","4 1 5","Lentiform Loewenfeld","3.3.3","0","n","0","left","NA","right","left","NA","574","NA","7216","574","NA","2","legacy","3","1024","2","48000","-16","experiment","1","odd","2","55958","NA","52543","53743","6785","NA","53747","40458","6792","57962","58537","54752","14010","57962","NA","Sternberg task","5","4362","7","yes","1024"
"62.5","62.5","622.75","622.75","black","practice","legacy","legacy","legacy","0","uniform","0","undefined","0","left","7","0","7","7","0","0","7","7","0","7","7","7","0","7","0","10/11/20 19:49:44","The main experiment item","yes","Sternbergtask.osexp","C:/Users/solom/Desktop","no","mono","no","18","no","white","no","yes","768","legacy","7","7","C:/Users/solom/Desktop/MW-subject-1.csv","legacy","1 7 9 8 5","Lentiform Loewenfeld","3.3.3","4","y","0","right","NA","right","right","NA","620","NA","7216","620","NA","2","legacy","5","1024","2","48000","-16","experiment","1","odd","8","61976","NA","52543","59762","6785","NA","59766","58563","6792","63980","64601","60770","14010","63980","NA","Sternberg task","5","4982","8","yes","1024"
"66.6666666667","66.6666666667","612.111111111","612.111111111","black","practice","legacy","legacy","legacy","0","uniform","1","undefined","1","left","8","0","8","8","0","0","8","8","0","8","8","8","0","8","0","10/11/20 19:49:44","The main experiment item","yes","Sternbergtask.osexp","C:/Users/solom/Desktop","no","mono","no","18","no","white","no","yes","768","legacy","8","8","C:/Users/solom/Desktop/MW-subject-1.csv","legacy","4 3 1 7 9 8","Lentiform Loewenfeld","3.3.3","1","y","0","left","NA","right","left","NA","527","NA","7216","527","NA","2","legacy","6","1024","2","48000","-16","experiment","1","odd","4","68036","NA","52543","65821","6785","NA","65825","64622","6792","70041","70569","66830","14010","70040","NA","Sternberg task","6","5509","9","yes","1024"
"70","70","619.8","619.8","black","practice","legacy","legacy","legacy","0","uniform","1","undefined","1","right","9","0","9","9","0","0","9","9","0","9","9","9","0","9","0","10/11/20 19:49:44","The main experiment item","yes","Sternbergtask.osexp","C:/Users/solom/Desktop","no","mono","no","18","no","white","no","yes","768","legacy","9","9","C:/Users/solom/Desktop/MW-subject-1.csv","legacy","2 1","Lentiform Loewenfeld","3.3.3","0","n","0","right","NA","right","right","NA","689","NA","7216","689","NA","2","legacy","2","1024","2","48000","-16","experiment","1","odd","5","74075","NA","70656","71864","6785","NA","71868","64622","6792","76079","76770","72872","14010","76079","NA","Sternberg task","7","6198","10","yes","1024"
"63.6363636364","63.6363636364","627.727272727","627.727272727","black","practice","legacy","legacy","legacy","0","uniform","0","undefined","0","right","10","0","10","10","0","0","10","10","0","10","10","10","0","10","0","10/11/20 19:49:44","The main experiment item","yes","Sternbergtask.osexp","C:/Users/solom/Desktop","no","mono","no","18","no","white","no","yes","768","legacy","10","10","C:/Users/solom/Desktop/MW-subject-1.csv","legacy","9 6 7 4 5","Lentiform Loewenfeld","3.3.3","0","n","0","left","NA","right","left","NA","707","NA","7216","707","NA","2","legacy","5","1024","2","48000","-16","experiment","1","odd","3","80215","NA","76801","78001","6785","NA","78005","64622","6792","82221","82929","79010","14010","82220","NA","Sternberg task","7","6905","11","yes","1024"
"66.6666666667","66.6666666667","610.333333333","610.333333333","black","practice","legacy","legacy","legacy","0","uniform","1","undefined","1","left","11","0","11","11","0","0","11","11","0","11","11","11","0","11","0","10/11/20 19:49:44","The main experiment item","yes","Sternbergtask.osexp","C:/Users/solom/Desktop","no","mono","no","18","no","white","no","yes","768","legacy","11","11","C:/Users/solom/Desktop/MW-subject-1.csv","legacy","2 9 4","Lentiform Loewenfeld","3.3.3","3","y","0","left","NA","right","left","NA","419","NA","7216","419","NA","2","legacy","3","1024","2","48000","-16","experiment","1","odd","4","86377","NA","76801","84162","6785","NA","84166","82963","6792","88381","88801","85172","14010","88381","NA","Sternberg task","8","7324","12","yes","1024"
"69.2307692308","69.2307692308","610.538461538","610.538461538","black","experiment","legacy","legacy","legacy","0","uniform","1","undefined","1","right","12","0","12","12","0","0","12","12","0","12","12","12","0","12","0","10/11/20 19:49:44","The main experiment item","yes","Sternbergtask.osexp","C:/Users/solom/Desktop","no","mono","no","18","no","white","no","yes","768","legacy","0","11","C:/Users/solom/Desktop/MW-subject-1.csv","legacy","1 7 8 3 9","Lentiform Loewenfeld","3.3.3","0","n","0","right","right","right","right","NA","613","10755","7216","613","NA","2","legacy","5","1024","2","48000","-16","experiment","1","odd","2","103132","89877","88830","100919","6785","100633","100923","82963","6792","105139","105753","101926","14010","105139","NA","Sternberg task","9","7937","13","yes","1024"
"71.4285714286","71.4285714286","599.571428571","599.571428571","black","experiment","legacy","legacy","legacy","0","uniform","1","undefined","1","left","13","0","13","13","0","0","13","13","0","13","13","13","0","13","0","10/11/20 19:49:44","The main experiment item","yes","Sternbergtask.osexp","C:/Users/solom/Desktop","no","mono","no","18","no","white","no","yes","768","legacy","1","11","C:/Users/solom/Desktop/MW-subject-1.csv","legacy","2 5 4 8 7","Lentiform Loewenfeld","3.3.3","3","y","0","left","right","right","left","NA","457","10755","7216","457","NA","2","legacy","5","1024","2","48000","-16","experiment","1","odd","4","109194","89877","105777","106980","6785","100633","106984","82963","6792","111199","111657","107989","14010","111199","NA","Sternberg task","10","8394","14","yes","1024"
"73.3333333333","73.3333333333","597.666666667","597.666666667","black","experiment","legacy","legacy","legacy","0","uniform","1","undefined","1","right","14","0","14","14","0","0","14","14","0","14","14","14","0","14","0","10/11/20 19:49:44","The main experiment item","yes","Sternbergtask.osexp","C:/Users/solom/Desktop","no","mono","no","18","no","white","no","yes","768","legacy","2","11","C:/Users/solom/Desktop/MW-subject-1.csv","legacy","6 3 1 7 9 8","Lentiform Loewenfeld","3.3.3","0","n","0","right","right","right","right","NA","571","10755","7216","571","NA","2","legacy","6","1024","2","48000","-16","experiment","1","odd","4","115103","89877","111687","112888","6785","100633","112892","82963","6792","117109","117681","113897","14010","117109","NA","Sternberg task","11","8965","15","yes","1024"
"75","75","584.25","584.25","black","experiment","legacy","legacy","legacy","0","uniform","1","undefined","1","left","15","0","15","15","0","0","15","15","0","15","15","15","0","15","0","10/11/20 19:49:44","The main experiment item","yes","Sternbergtask.osexp","C:/Users/solom/Desktop","no","mono","no","18","no","white","no","yes","768","legacy","3","11","C:/Users/solom/Desktop/MW-subject-1.csv","legacy","6 1 2","Lentiform Loewenfeld","3.3.3","3","y","0","left","right","right","left","NA","383","10755","7216","383","NA","2","legacy","3","1024","2","48000","-16","experiment","1","odd","2","121138","89877","117722","118922","6785","100633","118926","82963","6792","123144","123529","119931","14010","123143","NA","Sternberg task","12","9348","16","yes","1024"
"70.5882352941","70.5882352941","570.823529412","570.823529412","black","experiment","legacy","legacy","legacy","0","uniform","0","undefined","0","left","16","0","16","16","0","0","16","16","0","16","16","16","0","16","0","10/11/20 19:49:44","The main experiment item","yes","Sternbergtask.osexp","C:/Users/solom/Desktop","no","mono","no","18","no","white","no","yes","768","legacy","4","11","C:/Users/solom/Desktop/MW-subject-1.csv","legacy","2 6 1 7 4","Lentiform Loewenfeld","3.3.3","2","y","0","right","right","right","right","NA","356","10755","7216","356","NA","2","legacy","5","1024","2","48000","-16","experiment","1","odd","6","126973","89877","123557","124758","6785","100633","124762","82963","6792","128980","129337","125767","14010","128979","NA","Sternberg task","12","9704","17","yes","1024"
"72.2222222222","72.2222222222","571.833333333","571.833333333","black","experiment","legacy","legacy","legacy","0","uniform","1","undefined","1","right","17","0","17","17","0","0","17","17","0","17","17","17","0","17","0","10/11/20 19:49:44","The main experiment item","yes","Sternbergtask.osexp","C:/Users/solom/Desktop","no","mono","no","18","no","white","no","yes","768","legacy","5","11","C:/Users/solom/Desktop/MW-subject-1.csv","legacy","3 4 2","Lentiform Loewenfeld","3.3.3","0","n","0","right","right","right","right","NA","589","10755","7216","589","NA","2","legacy","3","1024","2","48000","-16","experiment","1","odd","5","132774","89877","123557","130560","6785","100633","130564","129358","6792","134779","135369","131569","14010","134779","NA","Sternberg task","13","10293","18","yes","1024"
"68.4210526316","68.4210526316","569.157894737","569.157894737","black","experiment","legacy","legacy","legacy","0","uniform","0","undefined","0","right","18","0","18","18","0","0","18","18","0","18","18","18","0","18","0","10/11/20 19:49:44","The main experiment item","yes","Sternbergtask.osexp","C:/Users/solom/Desktop","no","mono","no","18","no","white","no","yes","768","legacy","6","11","C:/Users/solom/Desktop/MW-subject-1.csv","legacy","1 4 9 2 5","Lentiform Loewenfeld","3.3.3","0","n","0","left","right","right","left","NA","521","10755","7216","521","NA","2","legacy","5","1024","2","48000","-16","experiment","1","odd","7","138808","89877","135394","136592","6785","100633","136596","129358","6792","140814","141337","137601","14010","140813","NA","Sternberg task","13","10814","19","yes","1024"
"65","65","567.3","567.3","black","experiment","legacy","legacy","legacy","0","uniform","0","undefined","0","left","19","0","19","19","0","0","19","19","0","19","19","19","0","19","0","10/11/20 19:49:44","The main experiment item","yes","Sternbergtask.osexp","C:/Users/solom/Desktop","no","mono","no","18","no","white","no","yes","768","legacy","7","11","C:/Users/solom/Desktop/MW-subject-1.csv","legacy","4 3 2 5 8","Lentiform Loewenfeld","3.3.3","2","y","0","right","right","right","right","NA","532","10755","7216","532","NA","2","legacy","5","1024","2","48000","-16","experiment","1","odd","3","144775","89877","135394","142561","6785","100633","142565","141361","6792","146779","147313","143569","14010","146779","NA","Sternberg task","13","11346","20","yes","1024"
"66.6666666667","66.6666666667","566.571428571","566.571428571","black","experiment","legacy","legacy","legacy","0","uniform","1","undefined","1","left","20","0","20","20","0","0","20","20","0","20","20","20","0","20","0","10/11/20 19:49:44","The main experiment item","yes","Sternbergtask.osexp","C:/Users/solom/Desktop","no","mono","no","18","no","white","no","yes","768","legacy","8","11","C:/Users/solom/Desktop/MW-subject-1.csv","legacy","5 7 3 6 2","Lentiform Loewenfeld","3.3.3","5","y","0","left","right","right","left","NA","552","10755","7216","552","NA","2","legacy","5","1024","2","48000","-16","experiment","1","odd","2","150755","89877","135394","148540","6785","100633","148544","147340","6792","152760","153313","149548","14010","152759","NA","Sternberg task","14","11898","21","yes","1024"
"63.6363636364","63.6363636364","556.863636364","556.863636364","black","experiment","legacy","legacy","legacy","0","uniform","0","undefined","0","right","21","0","21","21","0","0","21","21","0","21","21","21","0","21","0","10/11/20 19:49:44","The main experiment item","yes","Sternbergtask.osexp","C:/Users/solom/Desktop","no","mono","no","18","no","white","no","yes","768","legacy","9","11","C:/Users/solom/Desktop/MW-subject-1.csv","legacy","5 3 8 7 2 4","Lentiform Loewenfeld","3.3.3","0","n","0","left","right","right","left","NA","353","10755","7216","353","NA","2","legacy","6","1024","2","48000","-16","experiment","1","odd","9","156760","89877","153342","154544","6785","100633","154548","147340","6792","158766","159121","155553","14010","158765","NA","Sternberg task","14","12251","22","yes","1024"
"65.2173913043","65.2173913043","554.47826087","554.47826087","black","experiment","legacy","legacy","legacy","0","uniform","1","undefined","1","right","22","0","22","22","0","0","22","22","0","22","22","22","0","22","0","10/11/20 19:49:44","The main experiment item","yes","Sternbergtask.osexp","C:/Users/solom/Desktop","no","mono","no","18","no","white","no","yes","768","legacy","10","11","C:/Users/solom/Desktop/MW-subject-1.csv","legacy","4 2 6 9","Lentiform Loewenfeld","3.3.3","0","n","0","right","right","right","right","NA","502","10755","7216","502","NA","2","legacy","4","1024","2","48000","-16","experiment","1","odd","7","162558","89877","153342","160342","6785","100633","160346","159141","6792","164561","165065","161351","14010","164561","NA","Sternberg task","15","12753","23","yes","1024"
"66.6666666667","66.6666666667","554.958333333","554.958333333","black","experiment","legacy","legacy","legacy","0","uniform","1","undefined","1","right","23","0","23","23","0","0","23","23","0","23","23","23","0","23","0","10/11/20 19:49:44","The main experiment item","yes","Sternbergtask.osexp","C:/Users/solom/Desktop","no","mono","no","18","no","white","no","yes","768","legacy","11","11","C:/Users/solom/Desktop/MW-subject-1.csv","legacy","6 2 9 3 8 4","Lentiform Loewenfeld","3.3.3","0","n","0","right","right","right","right","NA","566","10755","7216","566","NA","2","legacy","6","1024","2","48000","-16","experiment","1","odd","1","168499","89877","165085","166284","6785","100633","166288","159141","6792","170506","171073","167293","14010","170506","NA","Sternberg task","16","13319","24","yes","1024"
"68","68","552.2","552.2","black","experiment","legacy","legacy","legacy","0","uniform","1","undefined","1","left","24","0","24","24","0","0","24","24","0","24","24","24","0","24","0","10/11/20 19:49:44","The main experiment item","yes","Sternbergtask.osexp","C:/Users/solom/Desktop","no","mono","no","18","no","white","no","yes","768","legacy","12","11","C:/Users/solom/Desktop/MW-subject-1.csv","legacy","7 8 4 6 9 5","Lentiform Loewenfeld","3.3.3","4","y","0","left","right","right","left","NA","486","10755","7216","486","NA","2","legacy","6","1024","2","48000","-16","experiment","1","odd","6","174518","89877","171105","172303","6785","100633","172307","159141","6792","176522","177010","173312","14010","176522","NA","Sternberg task","17","13805","25","yes","1024"
"69.2307692308","69.2307692308","548.615384615","548.615384615","black","experiment","legacy","legacy","legacy","0","uniform","1","undefined","1","right","25","0","25","25","0","0","25","25","0","25","25","25","0","25","0","10/11/20 19:49:44","The main experiment item","yes","Sternbergtask.osexp","C:/Users/solom/Desktop","no","mono","no","18","no","white","no","yes","768","legacy","13","11","C:/Users/solom/Desktop/MW-subject-1.csv","legacy","5 2","Lentiform Loewenfeld","3.3.3","0","n","0","right","right","right","right","NA","459","10755","7216","459","NA","2","legacy","2","1024","2","48000","-16","experiment","1","odd","7","180455","89877","177041","178240","6785","100633","178244","159141","6792","182460","182921","179248","14010","182459","NA","Sternberg task","18","14264","26","yes","1024"
"70.3703703704","70.3703703704","554.888888889","554.888888889","black","experiment","legacy","legacy","legacy","0","uniform","1","undefined","1","left","26","0","26","26","0","0","26","26","0","26","26","26","0","26","0","10/11/20 19:49:44","The main experiment item","yes","Sternbergtask.osexp","C:/Users/solom/Desktop","no","mono","no","18","no","white","no","yes","768","legacy","14","11","C:/Users/solom/Desktop/MW-subject-1.csv","legacy","4 1 5","Lentiform Loewenfeld","3.3.3","2","y","0","left","right","right","left","NA","718","10755","7216","718","NA","2","legacy","3","1024","2","48000","-16","experiment","1","odd","1","186363","89877","182950","184148","6785","100633","184152","159141","6792","188369","189089","185157","14010","188369","NA","Sternberg task","19","14982","27","yes","1024"
"71.4285714286","71.4285714286","553.535714286","553.535714286","black","experiment","legacy","legacy","legacy","0","uniform","1","undefined","1","right","27","0","27","27","0","0","27","27","0","27","27","27","0","27","0","10/11/20 19:49:44","The main experiment item","yes","Sternbergtask.osexp","C:/Users/solom/Desktop","no","mono","no","18","no","white","no","yes","768","legacy","15","11","C:/Users/solom/Desktop/MW-subject-1.csv","legacy","6 8 4","Lentiform Loewenfeld","3.3.3","0","n","0","right","right","right","right","NA","517","10755","7216","517","NA","2","legacy","3","1024","2","48000","-16","experiment","1","odd","1","192533","89877","189119","190318","6785","100633","190322","159141","6792","194538","195057","191327","14010","194537","NA","Sternberg task","20","15499","28","yes","1024"
"72.4137931034","72.4137931034","548.965517241","548.965517241","black","experiment","legacy","legacy","legacy","0","uniform","1","undefined","1","left","28","0","28","28","0","0","28","28","0","28","28","28","0","28","0","10/11/20 19:49:44","The main experiment item","yes","Sternbergtask.osexp","C:/Users/solom/Desktop","no","mono","no","18","no","white","no","yes","768","legacy","16","11","C:/Users/solom/Desktop/MW-subject-1.csv","legacy","8 5 1 3 9","Lentiform Loewenfeld","3.3.3","4","y","0","left","right","right","left","NA","421","10755","7216","421","NA","2","legacy","5","1024","2","48000","-16","experiment","1","odd","3","198501","89877","195088","196285","6785","100633","196289","159141","6792","200506","200929","197294","14010","200505","NA","Sternberg task","21","15920","29","yes","1024"
"73.3333333333","73.3333333333","544.366666667","544.366666667","black","experiment","legacy","legacy","legacy","0","uniform","1","undefined","1","right","29","0","29","29","0","0","29","29","0","29","29","29","0","29","0","10/11/20 19:49:44","The main experiment item","yes","Sternbergtask.osexp","C:/Users/solom/Desktop","no","mono","no","18","no","white","no","yes","768","legacy","17","11","C:/Users/solom/Desktop/MW-subject-1.csv","legacy","9 7 4 5 8","Lentiform Loewenfeld","3.3.3","0","n","0","right","right","right","right","NA","411","10755","7216","411","NA","2","legacy","5","1024","2","48000","-16","experiment","1","odd","6","204377","89877","200955","202161","6785","100633","202165","159141","6792","206381","206793","203171","14010","206381","NA","Sternberg task","22","16331","30","yes","1024"
"70.9677419355","70.9677419355","543.774193548","543.774193548","black","experiment","legacy","legacy","legacy","0","uniform","0","undefined","0","right","30","0","30","30","0","0","30","30","0","30","30","30","0","30","0","10/11/20 19:49:44","The main experiment item","yes","Sternbergtask.osexp","C:/Users/solom/Desktop","no","mono","no","18","no","white","no","yes","768","legacy","18","11","C:/Users/solom/Desktop/MW-subject-1.csv","legacy","6 9 4 5 3 2","Lentiform Loewenfeld","3.3.3","0","n","0","left","right","right","left","NA","526","10755","7216","526","NA","2","legacy","6","1024","2","48000","-16","experiment","1","odd","8","210238","89877","206825","208023","6785","100633","208027","159141","6792","212242","212769","209032","14010","212242","NA","Sternberg task","22","16857","31","yes","1024"
"68.75","68.75","543.46875","543.46875","black","experiment","legacy","legacy","legacy","0","uniform","0","undefined","0","left","31","0","31","31","0","0","31","31","0","31","31","31","0","31","0","10/11/20 19:49:44","The main experiment item","yes","Sternbergtask.osexp","C:/Users/solom/Desktop","no","mono","no","18","no","white","no","yes","768","legacy","19","11","C:/Users/solom/Desktop/MW-subject-1.csv","legacy","3 9 7 6 4","Lentiform Loewenfeld","3.3.3","3","y","0","right","right","right","right","NA","534","10755","7216","534","NA","2","legacy","5","1024","2","48000","-16","experiment","1","odd","7","216205","89877","206825","213990","6785","100633","213994","212791","6792","218210","218745","214999","14010","218210","NA","Sternberg task","22","17391","32","yes","1024"
"69.696969697","69.696969697","541.666666667","541.666666667","black","experiment","legacy","legacy","legacy","0","uniform","1","undefined","1","left","32","0","32","32","0","0","32","32","0","32","32","32","0","32","0","10/11/20 19:49:44","The main experiment item","yes","Sternbergtask.osexp","C:/Users/solom/Desktop","no","mono","no","18","no","white","no","yes","768","legacy","20","11","C:/Users/solom/Desktop/MW-subject-1.csv","legacy","8 5 3 7 4 6","Lentiform Loewenfeld","3.3.3","6","y","0","left","right","right","left","NA","484","10755","7216","484","NA","2","legacy","6","1024","2","48000","-16","experiment","1","odd","6","222190","89877","206825","219978","6785","100633","219981","218778","6792","224196","224682","220987","14010","224195","NA","Sternberg task","23","17875","33","yes","1024"
"70.5882352941","70.5882352941","540.529411765","540.529411765","black","experiment","legacy","legacy","legacy","0","uniform","1","undefined","1","left","33","0","33","33","0","0","33","33","0","33","33","33","0","33","0","10/11/20 19:49:44","The main experiment item","yes","Sternbergtask.osexp","C:/Users/solom/Desktop","no","mono","no","18","no","white","no","yes","768","legacy","21","11","C:/Users/solom/Desktop/MW-subject-1.csv","legacy","3 4 9 6 2 9","Lentiform Loewenfeld","3.3.3","5","y","0","left","right","right","left","NA","503","10755","7216","503","NA","2","legacy","6","1024","2","48000","-16","experiment","1","odd","2","228121","89877","224703","225906","6785","100633","225909","218778","6792","230128","230633","226915","14010","230128","NA","Sternberg task","24","18378","34","yes","1024"
"71.4285714286","71.4285714286","537.542857143","537.542857143","black","experiment","legacy","legacy","legacy","0","uniform","1","undefined","1","left","34","0","34","34","0","0","34","34","0","34","34","34","0","34","0","10/11/20 19:49:44","The main experiment item","yes","Sternbergtask.osexp","C:/Users/solom/Desktop","no","mono","no","18","no","white","no","yes","768","legacy","22","11","C:/Users/solom/Desktop/MW-subject-1.csv","legacy","6 7 8 5","Lentiform Loewenfeld","3.3.3","3","y","0","left","right","right","left","NA","436","10755","7216","436","NA","2","legacy","4","1024","2","48000","-16","experiment","1","odd","8","234069","89877","230655","231854","6785","100633","231858","218778","6792","236076","236514","232863","14010","236075","NA","Sternberg task","25","18814","35","yes","1024"
"69.4444444444","69.4444444444","537.388888889","537.388888889","black","experiment","legacy","legacy","legacy","0","uniform","0","undefined","0","right","35","0","35","35","0","0","35","35","0","35","35","35","0","35","0","10/11/20 19:49:44","The main experiment item","yes","Sternbergtask.osexp","C:/Users/solom/Desktop","no","mono","no","18","no","white","no","yes","768","legacy","23","11","C:/Users/solom/Desktop/MW-subject-1.csv","legacy","7 9 1 6","Lentiform Loewenfeld","3.3.3","0","n","0","left","right","right","left","NA","532","10755","7216","532","NA","2","legacy","4","1024","2","48000","-16","experiment","1","odd","4","239959","89877","236542","237743","6785","100633","237747","218778","6792","241963","242497","238753","14010","241962","NA","Sternberg task","25","19346","36","yes","1024"
"67.5675675676","67.5675675676","536.756756757","536.756756757","black","experiment","legacy","legacy","legacy","0","uniform","0","undefined","0","right","36","0","36","36","0","0","36","36","0","36","36","36","0","36","0","10/11/20 19:49:44","The main experiment item","yes","Sternbergtask.osexp","C:/Users/solom/Desktop","no","mono","no","18","no","white","no","yes","768","legacy","24","11","C:/Users/solom/Desktop/MW-subject-1.csv","legacy","6 9 7 3 8 2","Lentiform Loewenfeld","3.3.3","0","n","0","left","right","right","left","NA","514","10755","7216","514","NA","2","legacy","6","1024","2","48000","-16","experiment","1","odd","5","245943","89877","236542","243728","6785","100633","243732","242527","6792","247949","248465","244737","14010","247948","NA","Sternberg task","25","19860","37","yes","1024"
"68.4210526316","68.4210526316","539.315789474","539.315789474","black","experiment","legacy","legacy","legacy","0","uniform","1","undefined","1","right","37","0","37","37","0","0","37","37","0","37","37","37","0","37","0","10/11/20 19:49:44","The main experiment item","yes","Sternbergtask.osexp","C:/Users/solom/Desktop","no","mono","no","18","no","white","no","yes","768","legacy","25","11","C:/Users/solom/Desktop/MW-subject-1.csv","legacy","2 8 9 4 1","Lentiform Loewenfeld","3.3.3","0","n","0","right","right","right","right","NA","634","10755","7216","634","NA","2","legacy","5","1024","2","48000","-16","experiment","1","odd","5","251910","89877","236542","249695","6785","100633","249699","248495","6792","253917","254553","250704","14010","253916","NA","Sternberg task","26","20494","38","yes","1024"
"69.2307692308","69.2307692308","539.461538462","539.461538462","black","experiment","legacy","legacy","legacy","0","uniform","1","undefined","1","right","38","0","38","38","0","0","38","38","0","38","38","38","0","38","0","10/11/20 19:49:44","The main experiment item","yes","Sternbergtask.osexp","C:/Users/solom/Desktop","no","mono","no","18","no","white","no","yes","768","legacy","26","11","C:/Users/solom/Desktop/MW-subject-1.csv","legacy","2 8 9","Lentiform Loewenfeld","3.3.3","0","n","0","right","right","right","right","NA","545","10755","7216","545","NA","2","legacy","3","1024","2","48000","-16","experiment","1","odd","6","257994","89877","254580","255780","6785","100633","255784","248495","6792","259999","260546","256789","14010","259999","NA","Sternberg task","27","21039","39","yes","1024"
"67.5","67.5","540.475","540.475","black","experiment","legacy","legacy","legacy","0","uniform","0","undefined","0","left","39","0","39","39","0","0","39","39","0","39","39","39","0","39","0","10/11/20 19:49:44","The main experiment item","yes","Sternbergtask.osexp","C:/Users/solom/Desktop","no","mono","no","18","no","white","no","yes","768","legacy","27","11","C:/Users/solom/Desktop/MW-subject-1.csv","legacy","3 5 9 6 2 4","Lentiform Loewenfeld","3.3.3","1","y","0","right","right","right","right","NA","580","10755","7216","580","NA","2","legacy","6","1024","2","48000","-16","experiment","1","odd","3","263990","89877","260574","261775","6785","100633","261779","248495","6792","265996","266578","262784","14010","265996","NA","Sternberg task","27","21619","40","yes","1024"
"68.2926829268","68.2926829268","540.487804878","540.487804878","black","experiment","legacy","legacy","legacy","0","uniform","1","undefined","1","right","40","0","40","40","0","0","40","40","0","40","40","40","0","40","0","10/11/20 19:49:44","The main experiment item","yes","Sternbergtask.osexp","C:/Users/solom/Desktop","no","mono","no","18","no","white","no","yes","768","legacy","28","11","C:/Users/solom/Desktop/MW-subject-1.csv","legacy","5","Lentiform Loewenfeld","3.3.3","0","n","0","right","right","right","right","NA","541","10755","7216","541","NA","2","legacy","1","1024","2","48000","-16","experiment","1","odd","8","270012","89877","260574","267797","6785","100633","267801","266599","6792","272018","272561","268806","14010","272018","NA","Sternberg task","28","22160","41","yes","1024"
"69.0476190476","69.0476190476","542.69047619","542.69047619","black","experiment","legacy","legacy","legacy","0","uniform","1","undefined","1","right","41","0","41","41","0","0","41","41","0","41","41","41","0","41","0","10/11/20 19:49:44","The main experiment item","yes","Sternbergtask.osexp","C:/Users/solom/Desktop","no","mono","no","18","no","white","no","yes","768","legacy","29","11","C:/Users/solom/Desktop/MW-subject-1.csv","legacy","3 4 9 6 7 8","Lentiform Loewenfeld","3.3.3","0","n","0","right","right","right","right","NA","633","10755","7216","633","NA","2","legacy","6","1024","2","48000","-16","experiment","1","odd","2","276007","89877","272594","273792","6785","100633","273796","266599","6792","278014","278649","274801","14010","278013","NA","Sternberg task","29","22793","42","yes","1024"
"67.4418604651","67.4418604651","545.418604651","545.418604651","black","experiment","legacy","legacy","legacy","0","uniform","0","undefined","0","right","42","0","42","42","0","0","42","42","0","42","42","42","0","42","0","10/11/20 19:49:44","The main experiment item","yes","Sternbergtask.osexp","C:/Users/solom/Desktop","no","mono","no","18","no","white","no","yes","768","legacy","30","11","C:/Users/solom/Desktop/MW-subject-1.csv","legacy","8 5 4 2 9 6","Lentiform Loewenfeld","3.3.3","0","n","0","left","right","right","left","NA","660","10755","7216","660","NA","2","legacy","6","1024","2","48000","-16","experiment","1","odd","3","282080","89877","278669","279868","6785","100633","279872","266599","6792","284083","284745","280877","14010","284083","NA","Sternberg task","29","23453","43","yes","1024"
"68.1818181818","68.1818181818","545.977272727","545.977272727","black","experiment","legacy","legacy","legacy","0","uniform","1","undefined","1","right","43","0","43","43","0","0","43","43","0","43","43","43","0","43","0","10/11/20 19:49:44","The main experiment item","yes","Sternbergtask.osexp","C:/Users/solom/Desktop","no","mono","no","18","no","white","no","yes","768","legacy","31","11","C:/Users/solom/Desktop/MW-subject-1.csv","legacy","1 4 9 3","Lentiform Loewenfeld","3.3.3","0","n","0","right","right","right","right","NA","570","10755","7216","570","NA","2","legacy","4","1024","2","48000","-16","experiment","1","odd","5","288191","89877","278669","285976","6785","100633","285980","284773","6792","290197","290770","286986","14010","290197","NA","Sternberg task","30","24023","44","yes","1024"
"68.8888888889","68.8888888889","545.844444444","545.844444444","black","experiment","legacy","legacy","legacy","0","uniform","1","undefined","1","left","44","0","44","44","0","0","44","44","0","44","44","44","0","44","0","10/11/20 19:49:44","The main experiment item","yes","Sternbergtask.osexp","C:/Users/solom/Desktop","no","mono","no","18","no","white","no","yes","768","legacy","32","11","C:/Users/solom/Desktop/MW-subject-1.csv","legacy","7 6","Lentiform Loewenfeld","3.3.3","2","y","0","left","right","right","left","NA","540","10755","7216","540","NA","2","legacy","2","1024","2","48000","-16","experiment","1","odd","6","294213","89877","290799","291997","6785","100633","292001","284773","6792","296219","296762","293007","14010","296218","NA","Sternberg task","31","24563","45","yes","1024"
"69.5652173913","69.5652173913","548.413043478","548.413043478","black","experiment","legacy","legacy","legacy","0","uniform","1","undefined","1","left","45","0","45","45","0","0","45","45","0","45","45","45","0","45","0","10/11/20 19:49:44","The main experiment item","yes","Sternbergtask.osexp","C:/Users/solom/Desktop","no","mono","no","18","no","white","no","yes","768","legacy","33","11","C:/Users/solom/Desktop/MW-subject-1.csv","legacy","8 9 5 6 7","Lentiform Loewenfeld","3.3.3","1","y","0","left","right","right","left","NA","664","10755","7216","664","NA","2","legacy","5","1024","2","48000","-16","experiment","1","odd","8","300195","89877","296783","297982","6785","100633","297986","284773","6792","302199","302865","298990","14010","302199","NA","Sternberg task","32","25227","46","yes","1024"
"70.2127659574","70.2127659574","547.957446809","547.957446809","black","experiment","legacy","legacy","legacy","0","uniform","1","undefined","1","right","46","0","46","46","0","0","46","46","0","46","46","46","0","46","0","10/11/20 19:49:44","The main experiment item","yes","Sternbergtask.osexp","C:/Users/solom/Desktop","no","mono","no","18","no","white","no","yes","768","legacy","34","11","C:/Users/solom/Desktop/MW-subject-1.csv","legacy","6 8","Lentiform Loewenfeld","3.3.3","0","n","0","right","right","right","right","NA","527","10755","7216","527","NA","2","legacy","2","1024","2","48000","-16","experiment","1","odd","9","306308","89877","302895","304092","6785","100633","304096","284773","6792","308313","308842","305103","14010","308313","NA","Sternberg task","33","25754","47","yes","1024"
"70.8333333333","70.8333333333","548.6875","548.6875","black","experiment","legacy","legacy","legacy","0","uniform","1","undefined","1","left","47","0","47","47","0","0","47","47","0","47","47","47","0","47","0","10/11/20 19:49:44","The main experiment item","yes","Sternbergtask.osexp","C:/Users/solom/Desktop","no","mono","no","18","no","white","no","yes","768","legacy","35","11","C:/Users/solom/Desktop/MW-subject-1.csv","legacy","7 4 2 6 3 5","Lentiform Loewenfeld","3.3.3","6","y","0","left","right","right","left","NA","583","10755","7216","583","NA","2","legacy","6","1024","2","48000","-16","experiment","1","odd","5","312275","89877","308862","310062","6785","100633","310066","284773","6792","314280","314865","311071","14010","314280","NA","Sternberg task","34","26337","48","yes","1024"
"71.4285714286","71.4285714286","548.489795918","548.489795918","black","experiment","legacy","legacy","legacy","0","uniform","1","undefined","1","left","48","0","48","48","0","0","48","48","0","48","48","48","0","48","0","10/11/20 19:49:44","The main experiment item","yes","Sternbergtask.osexp","C:/Users/solom/Desktop","no","mono","no","18","no","white","no","yes","768","legacy","36","11","C:/Users/solom/Desktop/MW-subject-1.csv","legacy","8 9 5 7 1 6","Lentiform Loewenfeld","3.3.3","4","y","0","left","right","right","left","NA","539","10755","7216","539","NA","2","legacy","6","1024","2","48000","-16","experiment","1","odd","7","318621","89877","315214","316405","6785","100633","316409","284773","6792","320628","321169","317415","14010","320627","NA","Sternberg task","35","26876","49","yes","1024"
"72","72","549.42","549.42","black","experiment","legacy","legacy","legacy","0","uniform","1","undefined","1","left","49","0","49","49","0","0","49","49","0","49","49","49","0","49","0","10/11/20 19:49:44","The main experiment item","yes","Sternbergtask.osexp","C:/Users/solom/Desktop","no","mono","no","18","no","white","no","yes","768","legacy","37","11","C:/Users/solom/Desktop/MW-subject-1.csv","legacy","6 9 7 4 5 1","Lentiform Loewenfeld","3.3.3","2","y","0","left","right","right","left","NA","595","10755","7216","595","NA","2","legacy","6","1024","2","48000","-16","experiment","1","odd","9","324620","89877","321201","322405","6785","100633","322409","284773","6792","326627","327225","323414","14010","326626","NA","Sternberg task","36","27471","50","yes","1024"
"72.5490196078","72.5490196078","546.941176471","546.941176471","black","experiment","legacy","legacy","legacy","0","uniform","1","undefined","1","left","50","0","50","50","0","0","50","50","0","50","50","50","0","50","0","10/11/20 19:49:44","The main experiment item","yes","Sternbergtask.osexp","C:/Users/solom/Desktop","no","mono","no","18","no","white","no","yes","768","legacy","38","11","C:/Users/solom/Desktop/MW-subject-1.csv","legacy","4 9 7 8 5 3","Lentiform Loewenfeld","3.3.3","4","y","0","left","right","right","left","NA","423","10755","7216","423","NA","2","legacy","6","1024","2","48000","-16","experiment","1","odd","8","330667","89877","327252","328452","6785","100633","328456","284773","6792","332672","333098","329461","14010","332671","NA","Sternberg task","37","27894","51","yes","1024"
"73.0769230769","73.0769230769","543.096153846","543.096153846","black","experiment","legacy","legacy","legacy","0","uniform","1","undefined","1","right","51","0","51","51","0","0","51","51","0","51","51","51","0","51","0","10/11/20 19:49:44","The main experiment item","yes","Sternbergtask.osexp","C:/Users/solom/Desktop","no","mono","no","18","no","white","no","yes","768","legacy","39","11","C:/Users/solom/Desktop/MW-subject-1.csv","legacy","8 4 3 9","Lentiform Loewenfeld","3.3.3","0","n","0","right","right","right","right","NA","347","10755","7216","347","NA","2","legacy","4","1024","2","48000","-16","experiment","1","odd","5","336542","89877","333128","334327","6785","100633","334331","284773","6792","338548","338897","335337","14010","338548","NA","Sternberg task","38","28241","52","yes","1024"
"73.5849056604","73.5849056604","544.79245283","544.79245283","black","experiment","legacy","legacy","legacy","0","uniform","1","undefined","1","right","52","0","52","52","0","0","52","52","0","52","52","52","0","52","0","10/11/20 19:49:44","The main experiment item","yes","Sternbergtask.osexp","C:/Users/solom/Desktop","no","mono","no","18","no","white","no","yes","768","legacy","40","11","C:/Users/solom/Desktop/MW-subject-1.csv","legacy","9","Lentiform Loewenfeld","3.3.3","0","n","0","right","right","right","right","NA","633","10755","7216","633","NA","2","legacy","1","1024","2","48000","-16","experiment","1","odd","6","342335","89877","338922","340120","6785","100633","340124","284773","6792","344342","344978","341129","14010","344341","NA","Sternberg task","39","28874","53","yes","1024"
"74.0740740741","74.0740740741","542.814814815","542.814814815","black","experiment","legacy","legacy","legacy","0","uniform","1","undefined","1","left","53","0","53","53","0","0","53","53","0","53","53","53","0","53","0","10/11/20 19:49:44","The main experiment item","yes","Sternbergtask.osexp","C:/Users/solom/Desktop","no","mono","no","18","no","white","no","yes","768","legacy","41","11","C:/Users/solom/Desktop/MW-subject-1.csv","legacy","3 5 4 7","Lentiform Loewenfeld","3.3.3","1","y","0","left","right","right","left","NA","438","10755","7216","438","NA","2","legacy","4","1024","2","48000","-16","experiment","1","odd","3","348410","89877","344998","346197","6785","100633","346201","284773","6792","350417","350857","347204","14010","350416","NA","Sternberg task","40","29312","54","yes","1024"
"72.7272727273","72.7272727273","543.781818182","543.781818182","black","experiment","legacy","legacy","legacy","0","uniform","0","undefined","0","left","54","0","54","54","0","0","54","54","0","54","54","54","0","54","0","10/11/20 19:49:44","The main experiment item","yes","Sternbergtask.osexp","C:/Users/solom/Desktop","no","mono","no","18","no","white","no","yes","768","legacy","42","11","C:/Users/solom/Desktop/MW-subject-1.csv","legacy","6 9 3 1","Lentiform Loewenfeld","3.3.3","4","y","0","right","right","right","right","NA","596","10755","7216","596","NA","2","legacy","4","1024","2","48000","-16","experiment","1","odd","1","354300","89877","350882","352085","6785","100633","352089","284773","6792","356307","356906","353094","14010","356307","NA","Sternberg task","40","29908","55","yes","1024"
"73.2142857143","73.2142857143","541.267857143","541.267857143","black","experiment","legacy","legacy","legacy","0","uniform","1","undefined","1","left","55","0","55","55","0","0","55","55","0","55","55","55","0","55","0","10/11/20 19:49:44","The main experiment item","yes","Sternbergtask.osexp","C:/Users/solom/Desktop","no","mono","no","18","no","white","no","yes","768","legacy","43","11","C:/Users/solom/Desktop/MW-subject-1.csv","legacy","4 6 5 8","Lentiform Loewenfeld","3.3.3","1","y","0","left","right","right","left","NA","403","10755","7216","403","NA","2","legacy","4","1024","2","48000","-16","experiment","1","odd","4","360349","89877","350882","358134","6785","100633","358138","356937","6792","362356","362761","359143","14010","362355","NA","Sternberg task","41","30311","56","yes","1024"
"73.6842105263","73.6842105263","538.947368421","538.947368421","black","experiment","legacy","legacy","legacy","0","uniform","1","undefined","1","left","56","0","56","56","0","0","56","56","0","56","56","56","0","56","0","10/11/20 19:49:44","The main experiment item","yes","Sternbergtask.osexp","C:/Users/solom/Desktop","no","mono","no","18","no","white","no","yes","768","legacy","44","11","C:/Users/solom/Desktop/MW-subject-1.csv","legacy","6 2","Lentiform Loewenfeld","3.3.3","1","y","0","left","right","right","left","NA","409","10755","7216","409","NA","2","legacy","2","1024","2","48000","-16","experiment","1","odd","6","366201","89877","362787","363986","6785","100633","363990","356937","6792","368206","368618","364995","14010","368206","NA","Sternberg task","42","30720","57","yes","1024"
"74.1379310345","74.1379310345","535.913793103","535.913793103","black","experiment","legacy","legacy","legacy","0","uniform","1","undefined","1","left","57","0","57","57","0","0","57","57","0","57","57","57","0","57","0","10/11/20 19:49:44","The main experiment item","yes","Sternbergtask.osexp","C:/Users/solom/Desktop","no","mono","no","18","no","white","no","yes","768","legacy","45","11","C:/Users/solom/Desktop/MW-subject-1.csv","legacy","7 1 8 5 6 2","Lentiform Loewenfeld","3.3.3","2","y","0","left","right","right","left","NA","363","10755","7216","363","NA","2","legacy","6","1024","2","48000","-16","experiment","1","odd","1","372055","89877","368638","369839","6785","100633","369843","356937","6792","374060","374426","370848","14010","374059","NA","Sternberg task","43","31083","58","yes","1024"
"74.5762711864","74.5762711864","537.237288136","537.237288136","black","experiment","legacy","legacy","legacy","0","uniform","1","undefined","1","right","58","0","58","58","0","0","58","58","0","58","58","58","0","58","0","10/11/20 19:49:44","The main experiment item","yes","Sternbergtask.osexp","C:/Users/solom/Desktop","no","mono","no","18","no","white","no","yes","768","legacy","46","11","C:/Users/solom/Desktop/MW-subject-1.csv","legacy","1 3 2 6 9","Lentiform Loewenfeld","3.3.3","0","n","0","right","right","right","right","NA","614","10755","7216","614","NA","2","legacy","5","1024","2","48000","-16","experiment","1","odd","5","377877","89877","374469","375667","6785","100633","375671","356937","6792","379880","380497","376674","14010","379880","NA","Sternberg task","44","31697","59","yes","1024"
"75","75","536.7","536.7","black","experiment","legacy","legacy","legacy","0","uniform","1","undefined","1","right","59","0","59","59","0","0","59","59","0","59","59","59","0","59","0","10/11/20 19:49:44","The main experiment item","yes","Sternbergtask.osexp","C:/Users/solom/Desktop","no","mono","no","18","no","white","no","yes","768","legacy","47","11","C:/Users/solom/Desktop/MW-subject-1.csv","legacy","8 4 3 5","Lentiform Loewenfeld","3.3.3","0","n","0","right","right","right","right","NA","505","10755","7216","505","NA","2","legacy","4","1024","2","48000","-16","experiment","1","odd","6","383951","89877","380534","381736","6785","100633","381740","356937","6792","385958","386466","382746","14010","385957","NA","Sternberg task","45","32202","60","yes","1024"
"75.4098360656","75.4098360656","535.573770492","535.573770492","black","experiment","legacy","legacy","legacy","0","uniform","1","undefined","1","left","60","0","60","60","0","0","60","60","0","60","60","60","0","60","0","10/11/20 19:49:44","The main experiment item","yes","Sternbergtask.osexp","C:/Users/solom/Desktop","no","mono","no","18","no","white","no","yes","768","legacy","48","11","C:/Users/solom/Desktop/MW-subject-1.csv","legacy","3 5 7 1","Lentiform Loewenfeld","3.3.3","3","y","0","left","right","right","left","NA","468","10755","7216","468","NA","2","legacy","4","1024","2","48000","-16","experiment","1","odd","7","389899","89877","386485","387684","6785","100633","387688","356937","6792","391906","392377","388693","14010","391905","NA","Sternberg task","46","32670","61","yes","1024"
"75.8064516129","75.8064516129","534.35483871","534.35483871","black","experiment","legacy","legacy","legacy","0","uniform","1","undefined","1","left","61","0","61","61","0","0","61","61","0","61","61","61","0","61","0","10/11/20 19:49:44","The main experiment item","yes","Sternbergtask.osexp","C:/Users/solom/Desktop","no","mono","no","18","no","white","no","yes","768","legacy","49","11","C:/Users/solom/Desktop/MW-subject-1.csv","legacy","9 6 2 4 1","Lentiform Loewenfeld","3.3.3","4","y","0","left","right","right","left","NA","460","10755","7216","460","NA","2","legacy","5","1024","2","48000","-16","experiment","1","odd","4","395819","89877","392405","393604","6785","100633","393608","356937","6792","397826","398289","394613","14010","397825","NA","Sternberg task","47","33130","62","yes","1024"
"74.6031746032","74.6031746032","532.73015873","532.73015873","black","experiment","legacy","legacy","legacy","0","uniform","0","undefined","0","left","62","0","62","62","0","0","62","62","0","62","62","62","0","62","0","10/11/20 19:49:44","The main experiment item","yes","Sternbergtask.osexp","C:/Users/solom/Desktop","no","mono","no","18","no","white","no","yes","768","legacy","50","11","C:/Users/solom/Desktop/MW-subject-1.csv","legacy","8 3","Lentiform Loewenfeld","3.3.3","2","y","0","right","right","right","right","NA","432","10755","7216","432","NA","2","legacy","2","1024","2","48000","-16","experiment","1","odd","3","401728","89877","398315","399513","6785","100633","399517","356937","6792","403735","404170","400523","14010","403734","NA","Sternberg task","47","33562","63","yes","1024"
"75","75","534.21875","534.21875","black","experiment","legacy","legacy","legacy","0","uniform","1","undefined","1","left","63","0","63","63","0","0","63","63","0","63","63","63","0","63","0","10/11/20 19:49:44","The main experiment item","yes","Sternbergtask.osexp","C:/Users/solom/Desktop","no","mono","no","18","no","white","no","yes","768","legacy","51","11","C:/Users/solom/Desktop/MW-subject-1.csv","legacy","3 9 6 2","Lentiform Loewenfeld","3.3.3","4","y","0","left","right","right","left","NA","628","10755","7216","628","NA","2","legacy","4","1024","2","48000","-16","experiment","1","odd","2","407620","89877","398315","405405","6785","100633","405409","404201","6792","409627","410258","406414","14010","409626","NA","Sternberg task","48","34190","64","yes","1024"
"73.8461538462","73.8461538462","534.892307692","534.892307692","black","experiment","legacy","legacy","legacy","0","uniform","0","undefined","0","right","64","0","64","64","0","0","64","64","0","64","64","64","0","64","0","10/11/20 19:49:44","The main experiment item","yes","Sternbergtask.osexp","C:/Users/solom/Desktop","no","mono","no","18","no","white","no","yes","768","legacy","52","11","C:/Users/solom/Desktop/MW-subject-1.csv","legacy","1 8 7","Lentiform Loewenfeld","3.3.3","0","n","0","left","right","right","left","NA","578","10755","7216","578","NA","2","legacy","3","1024","2","48000","-16","experiment","1","odd","4","413703","89877","410286","411487","6785","100633","411491","404201","6792","415708","416289","412497","14010","415708","NA","Sternberg task","48","34768","65","yes","1024"
"74.2424242424","74.2424242424","532.787878788","532.787878788","black","experiment","legacy","legacy","legacy","0","uniform","1","undefined","1","left","65","0","65","65","0","0","65","65","0","65","65","65","0","65","0","10/11/20 19:49:44","The main experiment item","yes","Sternbergtask.osexp","C:/Users/solom/Desktop","no","mono","no","18","no","white","no","yes","768","legacy","53","11","C:/Users/solom/Desktop/MW-subject-1.csv","legacy","8 7 3","Lentiform Loewenfeld","3.3.3","1","y","0","left","right","right","left","NA","396","10755","7216","396","NA","2","legacy","3","1024","2","48000","-16","experiment","1","odd","8","419733","89877","410286","417519","6785","100633","417523","416321","6792","421739","422138","418528","14010","421739","NA","Sternberg task","49","35164","66","yes","1024"
"74.6268656716","74.6268656716","531.820895522","531.820895522","black","experiment","legacy","legacy","legacy","0","uniform","1","undefined","1","left","66","0","66","66","0","0","66","66","0","66","66","66","0","66","0","10/11/20 19:49:44","The main experiment item","yes","Sternbergtask.osexp","C:/Users/solom/Desktop","no","mono","no","18","no","white","no","yes","768","legacy","54","11","C:/Users/solom/Desktop/MW-subject-1.csv","legacy","8 9 6 1","Lentiform Loewenfeld","3.3.3","2","y","0","left","right","right","left","NA","468","10755","7216","468","NA","2","legacy","4","1024","2","48000","-16","experiment","1","odd","9","425581","89877","422164","423365","6785","100633","423369","416321","6792","427587","428058","424374","14010","427586","NA","Sternberg task","50","35632","67","yes","1024"
"75","75","530.205882353","530.205882353","black","experiment","legacy","legacy","legacy","0","uniform","1","undefined","1","left","67","0","67","67","0","0","67","67","0","67","67","67","0","67","0","10/11/20 19:49:44","The main experiment item","yes","Sternbergtask.osexp","C:/Users/solom/Desktop","no","mono","no","18","no","white","no","yes","768","legacy","55","11","C:/Users/solom/Desktop/MW-subject-1.csv","legacy","6 7 9 3 1 2","Lentiform Loewenfeld","3.3.3","1","y","0","left","right","right","left","NA","422","10755","7216","422","NA","2","legacy","6","1024","2","48000","-16","experiment","1","odd","6","431499","89877","428083","429283","6785","100633","429287","416321","6792","433504","433929","430293","14010","433504","NA","Sternberg task","51","36054","68","yes","1024"
"75.3623188406","75.3623188406","531.028985507","531.028985507","black","experiment","legacy","legacy","legacy","0","uniform","1","undefined","1","right","68","0","68","68","0","0","68","68","0","68","68","68","0","68","0","10/11/20 19:49:44","The main experiment item","yes","Sternbergtask.osexp","C:/Users/solom/Desktop","no","mono","no","18","no","white","no","yes","768","legacy","56","11","C:/Users/solom/Desktop/MW-subject-1.csv","legacy","6 9 4 5 2","Lentiform Loewenfeld","3.3.3","0","n","0","right","right","right","right","NA","587","10755","7216","587","NA","2","legacy","5","1024","2","48000","-16","experiment","1","odd","1","437374","89877","433959","435158","6785","100633","435162","416321","6792","439380","439970","436168","14010","439380","NA","Sternberg task","52","36641","69","yes","1024"
"75.7142857143","75.7142857143","531.085714286","531.085714286","black","experiment","legacy","legacy","legacy","0","uniform","1","undefined","1","left","69","0","69","69","0","0","69","69","0","69","69","69","0","69","0","10/11/20 19:49:44","The main experiment item","yes","Sternbergtask.osexp","C:/Users/solom/Desktop","no","mono","no","18","no","white","no","yes","768","legacy","57","11","C:/Users/solom/Desktop/MW-subject-1.csv","legacy","6 5","Lentiform Loewenfeld","3.3.3","2","y","0","left","right","right","left","NA","535","10755","7216","535","NA","2","legacy","2","1024","2","48000","-16","experiment","1","odd","5","443409","89877","439995","441194","6785","100633","441198","416321","6792","445416","445954","442203","14010","445416","NA","Sternberg task","53","37176","70","yes","1024"
"74.6478873239","74.6478873239","531.845070423","531.845070423","black","experiment","legacy","legacy","legacy","0","uniform","0","undefined","0","right","70","0","70","70","0","0","70","70","0","70","70","70","0","70","0","10/11/20 19:49:44","The main experiment item","yes","Sternbergtask.osexp","C:/Users/solom/Desktop","no","mono","no","18","no","white","no","yes","768","legacy","58","11","C:/Users/solom/Desktop/MW-subject-1.csv","legacy","3 9 8 1 6 4","Lentiform Loewenfeld","3.3.3","0","n","0","left","right","right","left","NA","585","10755","7216","585","NA","2","legacy","6","1024","2","48000","-16","experiment","1","odd","7","449393","89877","445978","447178","6785","100633","447182","416321","6792","451398","451986","448187","14010","451398","NA","Sternberg task","53","37761","71","yes","1024"
"75","75","531.944444444","531.944444444","black","experiment","legacy","legacy","legacy","0","uniform","1","undefined","1","right","71","0","71","71","0","0","71","71","0","71","71","71","0","71","0","10/11/20 19:49:44","The main experiment item","yes","Sternbergtask.osexp","C:/Users/solom/Desktop","no","mono","no","18","no","white","no","yes","768","legacy","59","11","C:/Users/solom/Desktop/MW-subject-1.csv","legacy","8 6 3 4 7","Lentiform Loewenfeld","3.3.3","0","n","0","right","right","right","right","NA","539","10755","7216","539","NA","2","legacy","5","1024","2","48000","-16","experiment","1","odd","1","455430","89877","445978","453215","6785","100633","453219","452015","6792","457435","457977","454224","14010","457435","NA","Sternberg task","54","38300","72","yes","1024"
"73.9726027397","73.9726027397","530.438356164","530.438356164","black","experiment","legacy","legacy","legacy","0","uniform","0","undefined","0","right","72","0","72","72","0","0","72","72","0","72","72","72","0","72","0","10/11/20 19:49:44","The main experiment item","yes","Sternbergtask.osexp","C:/Users/solom/Desktop","no","mono","no","18","no","white","no","yes","768","legacy","60","11","C:/Users/solom/Desktop/MW-subject-1.csv","legacy","7 1","Lentiform Loewenfeld","3.3.3","0","n","0","left","right","right","left","NA","422","10755","7216","422","NA","2","legacy","2","1024","2","48000","-16","experiment","1","odd","8","461410","89877","457998","459195","6785","100633","459199","452015","6792","463417","463842","460204","14010","463416","NA","Sternberg task","54","38722","73","yes","1024"
"74.3243243243","74.3243243243","528.189189189","528.189189189","black","experiment","legacy","legacy","legacy","0","uniform","1","undefined","1","left","73","0","73","73","0","0","73","73","0","73","73","73","0","73","0","10/11/20 19:49:44","The main experiment item","yes","Sternbergtask.osexp","C:/Users/solom/Desktop","no","mono","no","18","no","white","no","yes","768","legacy","61","11","C:/Users/solom/Desktop/MW-subject-1.csv","legacy","4 1 8 7 5","Lentiform Loewenfeld","3.3.3","3","y","0","left","right","right","left","NA","364","10755","7216","364","NA","2","legacy","5","1024","2","48000","-16","experiment","1","odd","8","467293","89877","457998","465076","6785","100633","465080","463879","6792","469298","469665","466086","14010","469298","NA","Sternberg task","55","39086","74","yes","1024"
"73.3333333333","73.3333333333","527.586666667","527.586666667","black","experiment","legacy","legacy","legacy","0","uniform","0","undefined","0","right","74","0","74","74","0","0","74","74","0","74","74","74","0","74","0","10/11/20 19:49:44","The main experiment item","yes","Sternbergtask.osexp","C:/Users/solom/Desktop","no","mono","no","18","no","white","no","yes","768","legacy","62","11","C:/Users/solom/Desktop/MW-subject-1.csv","legacy","2 7 5","Lentiform Loewenfeld","3.3.3","0","n","0","left","right","right","left","NA","483","10755","7216","483","NA","2","legacy","3","1024","2","48000","-16","experiment","1","odd","8","473100","89877","469685","470885","6785","100633","470889","463879","6792","475107","475594","471894","14010","475106","NA","Sternberg task","55","39569","75","yes","1024"
"73.6842105263","73.6842105263","527.697368421","527.697368421","black","experiment","legacy","legacy","legacy","0","uniform","1","undefined","1","left","75","0","75","75","0","0","75","75","0","75","75","75","0","75","0","10/11/20 19:49:44","The main experiment item","yes","Sternbergtask.osexp","C:/Users/solom/Desktop","no","mono","no","18","no","white","no","yes","768","legacy","63","11","C:/Users/solom/Desktop/MW-subject-1.csv","legacy","7","Lentiform Loewenfeld","3.3.3","1","y","0","left","right","right","left","NA","536","10755","7216","536","NA","2","legacy","1","1024","2","48000","-16","experiment","1","odd","7","479033","89877","469685","476819","6785","100633","476823","475622","6792","481038","481577","477828","14010","481038","NA","Sternberg task","56","40105","76","yes","1024"
"72.7272727273","72.7272727273","546.779220779","546.779220779","black","experiment","legacy","legacy","legacy","0","uniform","0","undefined","0","right","76","0","76","76","0","0","76","76","0","76","76","76","0","76","0","10/11/20 19:49:44","The main experiment item","yes","Sternbergtask.osexp","C:/Users/solom/Desktop","no","mono","no","18","no","white","no","yes","768","legacy","64","11","C:/Users/solom/Desktop/MW-subject-1.csv","legacy","9 8 2 7 4","Lentiform Loewenfeld","3.3.3","0","n","0","left","right","right","left","NA","1997","10755","7216","1997","NA","2","legacy","5","1024","2","48000","-16","experiment","1","odd","5","485028","89877","481607","482812","6785","100633","482817","475622","6792","487033","489034","483822","14010","487032","NA","Sternberg task","56","42102","77","yes","1024"
"73.0769230769","73.0769230769","546.038461538","546.038461538","black","experiment","legacy","legacy","legacy","0","uniform","1","undefined","1","right","77","0","77","77","0","0","77","77","0","77","77","77","0","77","0","10/11/20 19:49:44","The main experiment item","yes","Sternbergtask.osexp","C:/Users/solom/Desktop","no","mono","no","18","no","white","no","yes","768","legacy","65","11","C:/Users/solom/Desktop/MW-subject-1.csv","legacy","4 1","Lentiform Loewenfeld","3.3.3","0","n","0","right","right","right","right","NA","489","10755","7216","489","NA","2","legacy","2","1024","2","48000","-16","experiment","1","odd","6","492486","89877","481607","490274","6785","100633","490278","489066","6792","494493","494985","491281","14010","494493","NA","Sternberg task","57","42591","78","yes","1024"
"72.1518987342","72.1518987342","545.544303797","545.544303797","black","experiment","legacy","legacy","legacy","0","uniform","0","undefined","0","right","78","0","78","78","0","0","78","78","0","78","78","78","0","78","0","10/11/20 19:49:44","The main experiment item","yes","Sternbergtask.osexp","C:/Users/solom/Desktop","no","mono","no","18","no","white","no","yes","768","legacy","66","11","C:/Users/solom/Desktop/MW-subject-1.csv","legacy","2 3 8 5 6 7","Lentiform Loewenfeld","3.3.3","0","n","0","left","right","right","left","NA","507","10755","7216","507","NA","2","legacy","6","1024","2","48000","-16","experiment","1","odd","1","498428","89877","495011","496213","6785","100633","496217","489066","6792","500435","500945","497223","14010","500434","NA","Sternberg task","57","43098","79","yes","1024"
"72.5","72.5","546.725","546.725","black","experiment","legacy","legacy","legacy","0","uniform","1","undefined","1","right","79","0","79","79","0","0","79","79","0","79","79","79","0","79","0","10/11/20 19:49:44","The main experiment item","yes","Sternbergtask.osexp","C:/Users/solom/Desktop","no","mono","no","18","no","white","no","yes","768","legacy","67","11","C:/Users/solom/Desktop/MW-subject-1.csv","legacy","1 7 5 2","Lentiform Loewenfeld","3.3.3","0","n","0","right","right","right","right","NA","640","10755","7216","640","NA","2","legacy","4","1024","2","48000","-16","experiment","1","odd","3","504387","89877","495011","502171","6785","100633","502175","500971","6792","506391","507034","503181","14010","506391","NA","Sternberg task","58","43738","80","yes","1024"
"71.6049382716","71.6049382716","548.679012346","548.679012346","black","experiment","legacy","legacy","legacy","0","uniform","0","undefined","0","left","80","0","80","80","0","0","80","80","0","80","80","80","0","80","0","10/11/20 19:49:44","The main experiment item","yes","Sternbergtask.osexp","C:/Users/solom/Desktop","no","mono","no","18","no","white","no","yes","768","legacy","68","11","C:/Users/solom/Desktop/MW-subject-1.csv","legacy","9 3 1 2 5","Lentiform Loewenfeld","3.3.3","4","y","0","right","right","right","right","NA","705","10755","7216","705","NA","2","legacy","5","1024","2","48000","-16","experiment","1","odd","2","510472","89877","507056","508257","6785","100633","508261","500971","6792","512478","513186","509267","14010","512477","NA","Sternberg task","58","44443","81","yes","1024"
"71.9512195122","71.9512195122","548.341463415","548.341463415","black","experiment","legacy","legacy","legacy","0","uniform","1","undefined","1","right","81","0","81","81","0","0","81","81","0","81","81","81","0","81","0","10/11/20 19:49:44","The main experiment item","yes","Sternbergtask.osexp","C:/Users/solom/Desktop","no","mono","no","18","no","white","no","yes","768","legacy","69","11","C:/Users/solom/Desktop/MW-subject-1.csv","legacy","2 5 1 4","Lentiform Loewenfeld","3.3.3","0","n","0","right","right","right","right","NA","521","10755","7216","521","NA","2","legacy","4","1024","2","48000","-16","experiment","1","odd","6","516633","89877","507056","514418","6785","100633","514422","513217","6792","518638","519162","515427","14010","518638","NA","Sternberg task","59","44964","82","yes","1024"
"72.2891566265","72.2891566265","548.265060241","548.265060241","black","experiment","legacy","legacy","legacy","0","uniform","1","undefined","1","right","82","0","82","82","0","0","82","82","0","82","82","82","0","82","0","10/11/20 19:49:44","The main experiment item","yes","Sternbergtask.osexp","C:/Users/solom/Desktop","no","mono","no","18","no","white","no","yes","768","legacy","70","11","C:/Users/solom/Desktop/MW-subject-1.csv","legacy","7 4 2 8 1 9","Lentiform Loewenfeld","3.3.3","0","n","0","right","right","right","right","NA","542","10755","7216","542","NA","2","legacy","6","1024","2","48000","-16","experiment","1","odd","5","522596","89877","519185","520384","6785","100633","520388","513217","6792","524600","525145","521391","14010","524600","NA","Sternberg task","60","45506","83","yes","1024"
"72.619047619","72.619047619","546.916666667","546.916666667","black","experiment","legacy","legacy","legacy","0","uniform","1","undefined","1","left","83","0","83","83","0","0","83","83","0","83","83","83","0","83","0","10/11/20 19:49:44","The main experiment item","yes","Sternbergtask.osexp","C:/Users/solom/Desktop","no","mono","no","18","no","white","no","yes","768","legacy","71","11","C:/Users/solom/Desktop/MW-subject-1.csv","legacy","7 1 3","Lentiform Loewenfeld","3.3.3","2","y","0","left","right","right","left","NA","435","10755","7216","435","NA","2","legacy","3","1024","2","48000","-16","experiment","1","odd","1","528581","89877","525170","526369","6785","100633","526373","513217","6792","530588","531026","527376","14010","530587","NA","Sternberg task","61","45941","84","yes","1024"
"72.9411764706","72.9411764706","546.917647059","546.917647059","black","experiment","legacy","legacy","legacy","0","uniform","1","undefined","1","left","84","0","84","84","0","0","84","84","0","84","84","84","0","84","0","10/11/20 19:49:44","The main experiment item","yes","Sternbergtask.osexp","C:/Users/solom/Desktop","no","mono","no","18","no","white","no","yes","768","legacy","72","11","C:/Users/solom/Desktop/MW-subject-1.csv","legacy","5 2 6","Lentiform Loewenfeld","3.3.3","2","y","0","left","right","right","left","NA","547","10755","7216","547","NA","2","legacy","3","1024","2","48000","-16","experiment","1","odd","2","534470","89877","531056","532255","6785","100633","532259","513217","6792","536476","537026","533264","14010","536476","NA","Sternberg task","62","46488","85","yes","1024"
"73.2558139535","73.2558139535","548.674418605","548.674418605","black","experiment","legacy","legacy","legacy","0","uniform","1","undefined","1","right","85","0","85","85","0","0","85","85","0","85","85","85","0","85","0","10/11/20 19:49:44","The main experiment item","yes","Sternbergtask.osexp","C:/Users/solom/Desktop","no","mono","no","18","no","white","no","yes","768","legacy","73","11","C:/Users/solom/Desktop/MW-subject-1.csv","legacy","5 9 2 3","Lentiform Loewenfeld","3.3.3","0","n","0","right","right","right","right","NA","698","10755","7216","698","NA","2","legacy","4","1024","2","48000","-16","experiment","1","odd","8","540462","89877","537047","538247","6785","100633","538250","513217","6792","542468","543170","539256","14010","542468","NA","Sternberg task","63","47186","86","yes","1024"
"73.5632183908","73.5632183908","549.022988506","549.022988506","black","experiment","legacy","legacy","legacy","0","uniform","1","undefined","1","left","86","0","86","86","0","0","86","86","0","86","86","86","0","86","0","10/11/20 19:49:44","The main experiment item","yes","Sternbergtask.osexp","C:/Users/solom/Desktop","no","mono","no","18","no","white","no","yes","768","legacy","74","11","C:/Users/solom/Desktop/MW-subject-1.csv","legacy","6 8 9 3 4 9","Lentiform Loewenfeld","3.3.3","5","y","0","left","right","right","left","NA","579","10755","7216","579","NA","2","legacy","6","1024","2","48000","-16","experiment","1","odd","4","546614","89877","543200","544402","6785","100633","544406","513217","6792","548619","549202","545409","14010","548619","NA","Sternberg task","64","47765","87","yes","1024"
"73.8636363636","73.8636363636","549.159090909","549.159090909","black","experiment","legacy","legacy","legacy","0","uniform","1","undefined","1","right","87","0","87","87","0","0","87","87","0","87","87","87","0","87","0","10/11/20 19:49:44","The main experiment item","yes","Sternbergtask.osexp","C:/Users/solom/Desktop","no","mono","no","18","no","white","no","yes","768","legacy","75","11","C:/Users/solom/Desktop/MW-subject-1.csv","legacy","7 8 6 1","Lentiform Loewenfeld","3.3.3","0","n","0","right","right","right","right","NA","561","10755","7216","561","NA","2","legacy","4","1024","2","48000","-16","experiment","1","odd","3","552639","89877","549227","550427","6785","100633","550431","513217","6792","554645","555210","551436","14010","554644","NA","Sternberg task","65","48326","88","yes","1024"
"73.0337078652","73.0337078652","549.359550562","549.359550562","black","experiment","legacy","legacy","legacy","0","uniform","0","undefined","0","right","88","0","88","88","0","0","88","88","0","88","88","88","0","88","0","10/11/20 19:49:44","The main experiment item","yes","Sternbergtask.osexp","C:/Users/solom/Desktop","no","mono","no","18","no","white","no","yes","768","legacy","76","11","C:/Users/solom/Desktop/MW-subject-1.csv","legacy","2 8 6 3 1","Lentiform Loewenfeld","3.3.3","0","n","0","left","right","right","left","NA","567","10755","7216","567","NA","2","legacy","5","1024","2","48000","-16","experiment","1","odd","7","558649","89877","555237","556437","6785","100633","556441","513217","6792","560655","561225","557444","14010","560655","NA","Sternberg task","65","48893","89","yes","1024"
"73.3333333333","73.3333333333","551.655555556","551.655555556","black","experiment","legacy","legacy","legacy","0","uniform","1","undefined","1","right","89","0","89","89","0","0","89","89","0","89","89","89","0","89","0","10/11/20 19:49:44","The main experiment item","yes","Sternbergtask.osexp","C:/Users/solom/Desktop","no","mono","no","18","no","white","no","yes","768","legacy","77","11","C:/Users/solom/Desktop/MW-subject-1.csv","legacy","5 3 2 6 9 8","Lentiform Loewenfeld","3.3.3","0","n","0","right","right","right","right","NA","756","10755","7216","756","NA","2","legacy","6","1024","2","48000","-16","experiment","1","odd","4","564659","89877","555237","562447","6785","100633","562451","561246","6792","566666","567426","563454","14010","566666","NA","Sternberg task","66","49649","90","yes","1024"
"73.6263736264","73.6263736264","552.648351648","552.648351648","black","experiment","legacy","legacy","legacy","0","uniform","1","undefined","1","right","90","0","90","90","0","0","90","90","0","90","90","90","0","90","0","10/11/20 19:49:44","The main experiment item","yes","Sternbergtask.osexp","C:/Users/solom/Desktop","no","mono","no","18","no","white","no","yes","768","legacy","78","11","C:/Users/solom/Desktop/MW-subject-1.csv","legacy","8 5 7 3 6","Lentiform Loewenfeld","3.3.3","0","n","0","right","right","right","right","NA","642","10755","7216","642","NA","2","legacy","5","1024","2","48000","-16","experiment","1","odd","9","570862","89877","567448","568647","6785","100633","568651","561246","6792","572868","573514","569657","14010","572868","NA","Sternberg task","67","50291","91","yes","1024"
"72.8260869565","72.8260869565","551.967391304","551.967391304","black","experiment","legacy","legacy","legacy","0","uniform","0","undefined","0","left","91","0","91","91","0","0","91","91","0","91","91","91","0","91","0","10/11/20 19:49:44","The main experiment item","yes","Sternbergtask.osexp","C:/Users/solom/Desktop","no","mono","no","18","no","white","no","yes","768","legacy","79","11","C:/Users/solom/Desktop/MW-subject-1.csv","legacy","8 5 4 7 3 1","Lentiform Loewenfeld","3.3.3","2","y","0","right","right","right","right","NA","490","10755","7216","490","NA","2","legacy","6","1024","2","48000","-16","experiment","1","odd","5","576958","89877","573544","574744","6785","100633","574748","561246","6792","578965","579458","575753","14010","578964","NA","Sternberg task","67","50781","92","yes","1024"
"73.1182795699","73.1182795699","551.569892473","551.569892473","black","experiment","legacy","legacy","legacy","0","uniform","1","undefined","1","left","92","0","92","92","0","0","92","92","0","92","92","92","0","92","0","10/11/20 19:49:44","The main experiment item","yes","Sternbergtask.osexp","C:/Users/solom/Desktop","no","mono","no","18","no","white","no","yes","768","legacy","80","11","C:/Users/solom/Desktop/MW-subject-1.csv","legacy","2 4 8 5 1 3","Lentiform Loewenfeld","3.3.3","1","y","0","left","right","right","left","NA","515","10755","7216","515","NA","2","legacy","6","1024","2","48000","-16","experiment","1","odd","2","582901","89877","573544","580687","6785","100633","580691","579487","6792","584907","585426","581696","14010","584906","NA","Sternberg task","68","51296","93","yes","1024"
"73.4042553191","73.4042553191","551.010638298","551.010638298","black","experiment","legacy","legacy","legacy","0","uniform","1","undefined","1","left","93","0","93","93","0","0","93","93","0","93","93","93","0","93","0","10/11/20 19:49:44","The main experiment item","yes","Sternbergtask.osexp","C:/Users/solom/Desktop","no","mono","no","18","no","white","no","yes","768","legacy","81","11","C:/Users/solom/Desktop/MW-subject-1.csv","legacy","2 3 7 4","Lentiform Loewenfeld","3.3.3","1","y","0","left","right","right","left","NA","499","10755","7216","499","NA","2","legacy","4","1024","2","48000","-16","experiment","1","odd","2","588870","89877","585455","586654","6785","100633","586658","579487","6792","590876","591378","587663","14010","590875","NA","Sternberg task","69","51795","94","yes","1024"
"73.6842105263","73.6842105263","549.936842105","549.936842105","black","experiment","legacy","legacy","legacy","0","uniform","1","undefined","1","left","94","0","94","94","0","0","94","94","0","94","94","94","0","94","0","10/11/20 19:49:44","The main experiment item","yes","Sternbergtask.osexp","C:/Users/solom/Desktop","no","mono","no","18","no","white","no","yes","768","legacy","82","11","C:/Users/solom/Desktop/MW-subject-1.csv","legacy","9 1 7 2","Lentiform Loewenfeld","3.3.3","2","y","0","left","right","right","left","NA","449","10755","7216","449","NA","2","legacy","4","1024","2","48000","-16","experiment","1","odd","1","594825","89877","591407","592609","6785","100633","592613","579487","6792","596829","597281","593620","14010","596829","NA","Sternberg task","70","52244","95","yes","1024"
"73.9583333333","73.9583333333","548.864583333","548.864583333","black","experiment","legacy","legacy","legacy","0","uniform","1","undefined","1","left","95","0","95","95","0","0","95","95","0","95","95","95","0","95","0","10/11/20 19:49:44","The main experiment item","yes","Sternbergtask.osexp","C:/Users/solom/Desktop","no","mono","no","18","no","white","no","yes","768","legacy","83","11","C:/Users/solom/Desktop/MW-subject-1.csv","legacy","9 8 4","Lentiform Loewenfeld","3.3.3","1","y","0","left","right","right","left","NA","447","10755","7216","447","NA","2","legacy","3","1024","2","48000","-16","experiment","1","odd","9","600720","89877","597308","598505","6785","100633","598509","579487","6792","602727","603178","599514","14010","602726","NA","Sternberg task","71","52691","96","yes","1024"
"74.2268041237","74.2268041237","547.618556701","547.618556701","black","experiment","legacy","legacy","legacy","0","uniform","1","undefined","1","left","96","0","96","96","0","0","96","96","0","96","96","96","0","96","0","10/11/20 19:49:44","The main experiment item","yes","Sternbergtask.osexp","C:/Users/solom/Desktop","no","mono","no","18","no","white","no","yes","768","legacy","84","11","C:/Users/solom/Desktop/MW-subject-1.csv","legacy","9 4 2","Lentiform Loewenfeld","3.3.3","1","y","0","left","right","right","left","NA","428","10755","7216","428","NA","2","legacy","3","1024","2","48000","-16","experiment","1","odd","9","606623","89877","603210","604409","6785","100633","604413","579487","6792","608626","609058","605419","14010","608626","NA","Sternberg task","72","53119","97","yes","1024"
"73.4693877551","73.4693877551","547.193877551","547.193877551","black","experiment","legacy","legacy","legacy","0","uniform","0","undefined","0","left","97","0","97","97","0","0","97","97","0","97","97","97","0","97","0","10/11/20 19:49:44","The main experiment item","yes","Sternbergtask.osexp","C:/Users/solom/Desktop","no","mono","no","18","no","white","no","yes","768","legacy","85","11","C:/Users/solom/Desktop/MW-subject-1.csv","legacy","7 2 3","Lentiform Loewenfeld","3.3.3","3","y","0","right","right","right","right","NA","506","10755","7216","506","NA","2","legacy","3","1024","2","48000","-16","experiment","1","odd","3","612494","89877","609077","610280","6785","100633","610284","579487","6792","614500","615010","611289","14010","614500","NA","Sternberg task","72","53625","98","yes","1024"
"72.7272727273","72.7272727273","546.141414141","546.141414141","black","experiment","legacy","legacy","legacy","0","uniform","0","undefined","0","right","98","0","98","98","0","0","98","98","0","98","98","98","0","98","0","10/11/20 19:49:44","The main experiment item","yes","Sternbergtask.osexp","C:/Users/solom/Desktop","no","mono","no","18","no","white","no","yes","768","legacy","86","11","C:/Users/solom/Desktop/MW-subject-1.csv","legacy","1 6 4 3 9 7","Lentiform Loewenfeld","3.3.3","0","n","0","left","right","right","left","NA","443","10755","7216","443","NA","2","legacy","6","1024","2","48000","-16","experiment","1","odd","8","618454","89877","609077","616239","6785","100633","616244","615039","6792","620459","620906","617249","14010","620459","NA","Sternberg task","72","54068","99","yes","1024"
"72","72","547.67","547.67","black","experiment","legacy","legacy","legacy","0","uniform","0","undefined","0","right","99","0","99","99","0","0","99","99","0","99","99","99","0","99","0","10/11/20 19:49:44","The main experiment item","yes","Sternbergtask.osexp","C:/Users/solom/Desktop","no","mono","no","18","no","white","no","yes","768","legacy","87","11","C:/Users/solom/Desktop/MW-subject-1.csv","legacy","1 5 3 2 8","Lentiform Loewenfeld","3.3.3","0","n","0","left","right","right","left","NA","699","10755","7216","699","NA","2","legacy","5","1024","2","48000","-16","experiment","1","odd","4","624348","89877","609077","622133","6785","100633","622137","620932","6792","626355","627058","623142","14010","626354","NA","Sternberg task","72","54767","100","yes","1024"
"72.2772277228","72.2772277228","547.841584158","547.841584158","black","experiment","legacy","legacy","legacy","0","uniform","1","undefined","1","left","100","0","100","100","0","0","100","100","0","100","100","100","0","100","0","10/11/20 19:49:44","The main experiment item","yes","Sternbergtask.osexp","C:/Users/solom/Desktop","no","mono","no","18","no","white","no","yes","768","legacy","88","11","C:/Users/solom/Desktop/MW-subject-1.csv","legacy","5 2 9 6 1 7","Lentiform Loewenfeld","3.3.3","3","y","0","left","right","right","left","NA","565","10755","7216","565","NA","2","legacy","6","1024","2","48000","-16","experiment","1","odd","9","630498","89877","609077","628282","6785","100633","628287","627084","6792","632505","633073","629292","14010","632504","NA","Sternberg task","73","55332","101","yes","1024"
"72.5490196078","72.5490196078","547.578431373","547.578431373","black","experiment","legacy","legacy","legacy","0","uniform","1","undefined","1","left","101","0","101","101","0","0","101","101","0","101","101","101","0","101","0","10/11/20 19:49:44","The main experiment item","yes","Sternbergtask.osexp","C:/Users/solom/Desktop","no","mono","no","18","no","white","no","yes","768","legacy","89","11","C:/Users/solom/Desktop/MW-subject-1.csv","legacy","9 1 6 7 8","Lentiform Loewenfeld","3.3.3","1","y","0","left","right","right","left","NA","521","10755","7216","521","NA","2","legacy","5","1024","2","48000","-16","experiment","1","odd","9","636518","89877","633102","634303","6785","100633","634307","627084","6792","638525","639050","635312","14010","638525","NA","Sternberg task","74","55853","102","yes","1024"
"72.8155339806","72.8155339806","546.854368932","546.854368932","black","experiment","legacy","legacy","legacy","0","uniform","1","undefined","1","left","102","0","102","102","0","0","102","102","0","102","102","102","0","102","0","10/11/20 19:49:44","The main experiment item","yes","Sternbergtask.osexp","C:/Users/solom/Desktop","no","mono","no","18","no","white","no","yes","768","legacy","90","11","C:/Users/solom/Desktop/MW-subject-1.csv","legacy","7 8 6 3 1","Lentiform Loewenfeld","3.3.3","5","y","0","left","right","right","left","NA","473","10755","7216","473","NA","2","legacy","5","1024","2","48000","-16","experiment","1","odd","1","642494","89877","639080","640278","6785","100633","640282","627084","6792","644501","644978","641288","14010","644500","NA","Sternberg task","75","56326","103","yes","1024"
"73.0769230769","73.0769230769","545.25","545.25","black","experiment","legacy","legacy","legacy","0","uniform","1","undefined","1","left","103","0","103","103","0","0","103","103","0","103","103","103","0","103","0","10/11/20 19:49:44","The main experiment item","yes","Sternbergtask.osexp","C:/Users/solom/Desktop","no","mono","no","18","no","white","no","yes","768","legacy","91","11","C:/Users/solom/Desktop/MW-subject-1.csv","legacy","3 4","Lentiform Loewenfeld","3.3.3","1","y","0","left","right","right","left","NA","380","10755","7216","380","NA","2","legacy","2","1024","2","48000","-16","experiment","1","odd","3","648419","89877","645006","646203","6785","100633","646208","627084","6792","650426","650810","647213","14010","650426","NA","Sternberg task","76","56706","104","yes","1024"
"72.380952381","72.380952381","544.19047619","544.19047619","black","experiment","legacy","legacy","legacy","0","uniform","0","undefined","0","right","104","0","104","104","0","0","104","104","0","104","104","104","0","104","0","10/11/20 19:49:44","The main experiment item","yes","Sternbergtask.osexp","C:/Users/solom/Desktop","no","mono","no","18","no","white","no","yes","768","legacy","92","11","C:/Users/solom/Desktop/MW-subject-1.csv","legacy","1 7 5 2 9","Lentiform Loewenfeld","3.3.3","0","n","0","left","right","right","left","NA","434","10755","7216","434","NA","2","legacy","5","1024","2","48000","-16","experiment","1","odd","3","654245","89877","650832","652032","6785","100633","652036","627084","6792","656252","656690","653039","14010","656251","NA","Sternberg task","76","57140","105","yes","1024"
"72.641509434","72.641509434","543.471698113","543.471698113","black","experiment","legacy","legacy","legacy","0","uniform","1","undefined","1","right","105","0","105","105","0","0","105","105","0","105","105","105","0","105","0","10/11/20 19:49:44","The main experiment item","yes","Sternbergtask.osexp","C:/Users/solom/Desktop","no","mono","no","18","no","white","no","yes","768","legacy","93","11","C:/Users/solom/Desktop/MW-subject-1.csv","legacy","1","Lentiform Loewenfeld","3.3.3","0","n","0","right","right","right","right","NA","468","10755","7216","468","NA","2","legacy","1","1024","2","48000","-16","experiment","1","odd","7","660132","89877","650832","657917","6785","100633","657921","656719","6792","662138","662610","658926","14010","662138","NA","Sternberg task","77","57608","106","yes","1024"
"72.8971962617","72.8971962617","542.037383178","542.037383178","black","experiment","legacy","legacy","legacy","0","uniform","1","undefined","1","left","106","0","106","106","0","0","106","106","0","106","106","106","0","106","0","10/11/20 19:49:44","The main experiment item","yes","Sternbergtask.osexp","C:/Users/solom/Desktop","no","mono","no","18","no","white","no","yes","768","legacy","94","11","C:/Users/solom/Desktop/MW-subject-1.csv","legacy","2 8 5 1","Lentiform Loewenfeld","3.3.3","4","y","0","left","right","right","left","NA","390","10755","7216","390","NA","2","legacy","4","1024","2","48000","-16","experiment","1","odd","1","666053","89877","662636","663838","6785","100633","663842","656719","6792","668056","668450","664847","14010","668056","NA","Sternberg task","78","57998","107","yes","1024"
"73.1481481481","73.1481481481","540.842592593","540.842592593","black","experiment","legacy","legacy","legacy","0","uniform","1","undefined","1","left","107","0","107","107","0","0","107","107","0","107","107","107","0","107","0","10/11/20 19:49:44","The main experiment item","yes","Sternbergtask.osexp","C:/Users/solom/Desktop","no","mono","no","18","no","white","no","yes","768","legacy","95","11","C:/Users/solom/Desktop/MW-subject-1.csv","legacy","4","Lentiform Loewenfeld","3.3.3","1","y","0","left","right","right","left","NA","413","10755","7216","413","NA","2","legacy","1","1024","2","48000","-16","experiment","1","odd","4","671885","89877","668470","669669","6785","100633","669674","656719","6792","673889","674306","670679","14010","673889","NA","Sternberg task","79","58411","108","yes","1024"
"73.3944954128","73.3944954128","541.19266055","541.19266055","black","experiment","legacy","legacy","legacy","0","uniform","1","undefined","1","left","108","0","108","108","0","0","108","108","0","108","108","108","0","108","0","10/11/20 19:49:44","The main experiment item","yes","Sternbergtask.osexp","C:/Users/solom/Desktop","no","mono","no","18","no","white","no","yes","768","legacy","96","11","C:/Users/solom/Desktop/MW-subject-1.csv","legacy","2 4 6 9","Lentiform Loewenfeld","3.3.3","3","y","0","left","right","right","left","NA","579","10755","7216","579","NA","2","legacy","4","1024","2","48000","-16","experiment","1","odd","6","677764","89877","674344","675551","6785","100633","675555","656719","6792","679771","680354","676559","14010","679770","NA","Sternberg task","80","58990","109","yes","1024"
"73.6363636364","73.6363636364","540.136363636","540.136363636","black","experiment","legacy","legacy","legacy","0","uniform","1","undefined","1","right","109","0","109","109","0","0","109","109","0","109","109","109","0","109","0","10/11/20 19:49:44","The main experiment item","yes","Sternbergtask.osexp","C:/Users/solom/Desktop","no","mono","no","18","no","white","no","yes","768","legacy","97","11","C:/Users/solom/Desktop/MW-subject-1.csv","legacy","9 5 3 2 8 6","Lentiform Loewenfeld","3.3.3","0","n","0","right","right","right","right","NA","425","10755","7216","425","NA","2","legacy","6","1024","2","48000","-16","experiment","1","odd","7","683793","89877","680374","681580","6785","100633","681584","656719","6792","685797","686226","682588","14010","685797","NA","Sternberg task","81","59415","110","yes","1024"
"73.8738738739","73.8738738739","539.243243243","539.243243243","black","experiment","legacy","legacy","legacy","0","uniform","1","undefined","1","left","110","0","110","110","0","0","110","110","0","110","110","110","0","110","0","10/11/20 19:49:44","The main experiment item","yes","Sternbergtask.osexp","C:/Users/solom/Desktop","no","mono","no","18","no","white","no","yes","768","legacy","98","11","C:/Users/solom/Desktop/MW-subject-1.csv","legacy","8 1 6","Lentiform Loewenfeld","3.3.3","3","y","0","left","right","right","left","NA","441","10755","7216","441","NA","2","legacy","3","1024","2","48000","-16","experiment","1","odd","6","689665","89877","686250","687450","6785","100633","687454","656719","6792","691669","692114","688459","14010","691669","NA","Sternberg task","82","59856","111","yes","1024"
"74.1071428571","74.1071428571","538.410714286","538.410714286","black","experiment","legacy","legacy","legacy","0","uniform","1","undefined","1","right","111","0","111","111","0","0","111","111","0","111","111","111","0","111","0","10/11/20 19:49:44","The main experiment item","yes","Sternbergtask.osexp","C:/Users/solom/Desktop","no","mono","no","18","no","white","no","yes","768","legacy","99","11","C:/Users/solom/Desktop/MW-subject-1.csv","legacy","6 9 5","Lentiform Loewenfeld","3.3.3","0","n","0","right","right","right","right","NA","446","10755","7216","446","NA","2","legacy","3","1024","2","48000","-16","experiment","1","odd","8","695562","89877","692135","693346","6785","100633","693350","656719","6792","697567","698018","694356","14010","697567","NA","Sternberg task","83","60302","112","yes","1024"
"74.3362831858","74.3362831858","537.96460177","537.96460177","black","experiment","legacy","legacy","legacy","0","uniform","1","undefined","1","right","112","0","112","112","0","0","112","112","0","112","112","112","0","112","0","10/11/20 19:49:44","The main experiment item","yes","Sternbergtask.osexp","C:/Users/solom/Desktop","no","mono","no","18","no","white","no","yes","768","legacy","100","11","C:/Users/solom/Desktop/MW-subject-1.csv","legacy","6 7 5 9","Lentiform Loewenfeld","3.3.3","0","n","0","right","right","right","right","NA","488","10755","7216","488","NA","2","legacy","4","1024","2","48000","-16","experiment","1","odd","2","701466","89877","698054","699251","6785","100633","699255","656719","6792","703470","703962","700260","14010","703470","NA","Sternberg task","84","60790","113","yes","1024"
"74.5614035088","74.5614035088","537.254385965","537.254385965","black","experiment","legacy","legacy","legacy","0","uniform","1","undefined","1","right","113","0","113","113","0","0","113","113","0","113","113","113","0","113","0","10/11/20 19:49:44","The main experiment item","yes","Sternbergtask.osexp","C:/Users/solom/Desktop","no","mono","no","18","no","white","no","yes","768","legacy","101","11","C:/Users/solom/Desktop/MW-subject-1.csv","legacy","7 1 5 6 3","Lentiform Loewenfeld","3.3.3","0","n","0","right","right","right","right","NA","457","10755","7216","457","NA","2","legacy","5","1024","2","48000","-16","experiment","1","odd","8","707407","89877","703993","705192","6785","100633","705196","656719","6792","709412","709874","706201","14010","709412","NA","Sternberg task","85","61247","114","yes","1024"
"73.9130434783","73.9130434783","536.165217391","536.165217391","black","experiment","legacy","legacy","legacy","0","uniform","0","undefined","0","left","114","0","114","114","0","0","114","114","0","114","114","114","0","114","0","10/11/20 19:49:44","The main experiment item","yes","Sternbergtask.osexp","C:/Users/solom/Desktop","no","mono","no","18","no","white","no","yes","768","legacy","102","11","C:/Users/solom/Desktop/MW-subject-1.csv","legacy","5 7 8 2 3 8","Lentiform Loewenfeld","3.3.3","5","y","0","right","right","right","right","NA","412","10755","7216","412","NA","2","legacy","6","1024","2","48000","-16","experiment","1","odd","3","713317","89877","709900","711101","6785","100633","711106","656719","6792","715322","715738","712111","14010","715321","NA","Sternberg task","85","61659","115","yes","1024"
"74.1379310345","74.1379310345","535.405172414","535.405172414","black","experiment","legacy","legacy","legacy","0","uniform","1","undefined","1","right","115","0","115","115","0","0","115","115","0","115","115","115","0","115","0","10/11/20 19:49:44","The main experiment item","yes","Sternbergtask.osexp","C:/Users/solom/Desktop","no","mono","no","18","no","white","no","yes","768","legacy","103","11","C:/Users/solom/Desktop/MW-subject-1.csv","legacy","3 9 1","Lentiform Loewenfeld","3.3.3","0","n","0","right","right","right","right","NA","448","10755","7216","448","NA","2","legacy","3","1024","2","48000","-16","experiment","1","odd","7","719182","89877","709900","716967","6785","100633","716971","715769","6792","721189","721641","717976","14010","721188","NA","Sternberg task","86","62107","116","yes","1024"
"73.5042735043","73.5042735043","534.376068376","534.376068376","black","experiment","legacy","legacy","legacy","0","uniform","0","undefined","0","right","116","0","116","116","0","0","116","116","0","116","116","116","0","116","0","10/11/20 19:49:44","The main experiment item","yes","Sternbergtask.osexp","C:/Users/solom/Desktop","no","mono","no","18","no","white","no","yes","768","legacy","104","11","C:/Users/solom/Desktop/MW-subject-1.csv","legacy","8 2 1 4 5 9","Lentiform Loewenfeld","3.3.3","0","n","0","left","right","right","left","NA","415","10755","7216","415","NA","2","legacy","6","1024","2","48000","-16","experiment","1","odd","7","725082","89877","721671","722869","6785","100633","722873","715769","6792","727087","727506","723877","14010","727087","NA","Sternberg task","86","62522","117","yes","1024"
"73.7288135593","73.7288135593","534.593220339","534.593220339","black","experiment","legacy","legacy","legacy","0","uniform","1","undefined","1","right","117","0","117","117","0","0","117","117","0","117","117","117","0","117","0","10/11/20 19:49:44","The main experiment item","yes","Sternbergtask.osexp","C:/Users/solom/Desktop","no","mono","no","18","no","white","no","yes","768","legacy","105","11","C:/Users/solom/Desktop/MW-subject-1.csv","legacy","5 7 3","Lentiform Loewenfeld","3.3.3","0","n","0","right","right","right","right","NA","560","10755","7216","560","NA","2","legacy","3","1024","2","48000","-16","experiment","1","odd","9","730946","89877","721671","728731","6785","100633","728735","727533","6792","732950","733514","729740","14010","732950","NA","Sternberg task","87","63082","118","yes","1024"
"73.1092436975","73.1092436975","533.915966387","533.915966387","black","experiment","legacy","legacy","legacy","0","uniform","0","undefined","0","left","118","0","118","118","0","0","118","118","0","118","118","118","0","118","0","10/11/20 19:49:44","The main experiment item","yes","Sternbergtask.osexp","C:/Users/solom/Desktop","no","mono","no","18","no","white","no","yes","768","legacy","106","11","C:/Users/solom/Desktop/MW-subject-1.csv","legacy","2 3","Lentiform Loewenfeld","3.3.3","1","y","0","right","right","right","right","NA","454","10755","7216","454","NA","2","legacy","2","1024","2","48000","-16","experiment","1","odd","2","736961","89877","733543","734747","6785","100633","734751","727533","6792","738968","739426","735756","14010","738967","NA","Sternberg task","87","63536","119","yes","1024"
"73.3333333333","73.3333333333","533.958333333","533.958333333","black","experiment","legacy","legacy","legacy","0","uniform","1","undefined","1","right","119","0","119","119","0","0","119","119","0","119","119","119","0","119","0","10/11/20 19:49:44","The main experiment item","yes","Sternbergtask.osexp","C:/Users/solom/Desktop","no","mono","no","18","no","white","no","yes","768","legacy","107","11","C:/Users/solom/Desktop/MW-subject-1.csv","legacy","1 6 4","Lentiform Loewenfeld","3.3.3","0","n","0","right","right","right","right","NA","539","10755","7216","539","NA","2","legacy","3","1024","2","48000","-16","experiment","1","odd","7","742867","89877","733543","740652","6785","100633","740656","739454","6792","744874","745418","741661","14010","744873","NA","Sternberg task","88","64075","120","yes","1024"
"73.5537190083","73.5537190083","533.289256198","533.289256198","black","experiment","legacy","legacy","legacy","0","uniform","1","undefined","1","right","120","0","120","120","0","0","120","120","0","120","120","120","0","120","0","10/11/20 19:49:44","The main experiment item","yes","Sternbergtask.osexp","C:/Users/solom/Desktop","no","mono","no","18","no","white","no","yes","768","legacy","108","11","C:/Users/solom/Desktop/MW-subject-1.csv","legacy","4 8 1 2","Lentiform Loewenfeld","3.3.3","0","n","0","right","right","right","right","NA","453","10755","7216","453","NA","2","legacy","4","1024","2","48000","-16","experiment","1","odd","7","748861","89877","745447","746648","6785","100633","746652","739454","6792","750865","751322","747658","14010","750865","NA","Sternberg task","89","64528","121","yes","1024"
"72.9508196721","72.9508196721","533.93442623","533.93442623","black","experiment","legacy","legacy","legacy","0","uniform","0","undefined","0","left","121","0","121","121","0","0","121","121","0","121","121","121","0","121","0","10/11/20 19:49:44","The main experiment item","yes","Sternbergtask.osexp","C:/Users/solom/Desktop","no","mono","no","18","no","white","no","yes","768","legacy","109","11","C:/Users/solom/Desktop/MW-subject-1.csv","legacy","9 3 8 2 1 4","Lentiform Loewenfeld","3.3.3","3","y","0","right","right","right","right","NA","612","10755","7216","612","NA","2","legacy","6","1024","2","48000","-16","experiment","1","odd","8","754766","89877","751349","752551","6785","100633","752555","739454","6792","756770","757386","753560","14010","756770","NA","Sternberg task","89","65140","122","yes","1024"
