"acc","accuracy","average_response_time","avg_rt","background","block","canvas_backend","clock_backend","color_backend","compensation","coordinates","correct","correct_instruction1","correct_keyboard_response","correct_response","count_ISI","count_correctFeedback","count_expSequence","count_experiment","count_experimentLoop","count_fixation","count_incorrectFeedback","count_instruction1","count_instructions2","count_keyboard_response","count_logger","count_memorySet","count_practiceLoop","count_probe","count_thankYou","datetime","description","disable_garbage_collection","experiment_file","experiment_path","font_bold","font_family","font_italic","font_size","font_underline","foreground","form_clicks","fullscreen","height","keyboard_backend","live_row","live_row_practiceLoop","logfile","mouse_backend","numberSet","opensesame_codename","opensesame_version","posInSet","present","repeat_cycle","response","response_instruction1","response_instructions2","response_keyboard_response","response_thankYou","response_time","response_time_instruction1","response_time_instructions2","response_time_keyboard_response","response_time_thankYou","round_decimals","sampler_backend","setSize","sound_buf_size","sound_channels","sound_freq","sound_sample_size","start","subject_nr","subject_parity","target","time_ISI","time_correctFeedback","time_expSequence","time_experiment","time_experimentLoop","time_fixation","time_incorrectFeedback","time_instruction1","time_instructions2","time_keyboard_response","time_logger","time_memorySet","time_practiceLoop","time_probe","time_thankYou","title","total_correct","total_response_time","total_responses","uniform_coordinates","width"
"0","0","2000","2000","black","practice","legacy","legacy","legacy","0","uniform","0","undefined","0","right","0","0","0","0","0","0","0","0","0","0","0","0","0","0","0","10/25/20 15:32:00","The main experiment item","yes","SternbergTask.osexp","C:\Users\Jennifer Wright\Desktop\PSYC5613\STERNBERGTASK","no","mono","no","18","no","white","no","yes","768","legacy","0","0","C:/Users/Jennifer Wright/Desktop/PSYC5613/STERNBERGTASK/hw-subject-2.csv","legacy","2 1","Lentiform Loewenfeld","3.3.3","0","n","0","None","right","NA","None","NA","2000","73421","NA","2000","NA","2","legacy","2","1024","2","48000","-16","experiment","2","even","5","83517","NA","81301","5228","NA","81307","NA","5239","NA","85522","87522","82312","78662","85521","NA","SternbergTask","0","2000","1","yes","1024"
"50","50","1671.5","1671.5","black","practice","legacy","legacy","legacy","0","uniform","1","undefined","1","left","1","1","1","0","0","1","1","0","0","1","1","1","0","1","0","10/25/20 15:32:00","The main experiment item","yes","SternbergTask.osexp","C:\Users\Jennifer Wright\Desktop\PSYC5613\STERNBERGTASK","no","mono","no","18","no","white","no","yes","768","legacy","1","1","C:/Users/Jennifer Wright/Desktop/PSYC5613/STERNBERGTASK/hw-subject-2.csv","legacy","1 7 9 8 5","Lentiform Loewenfeld","3.3.3","4","y","0","left","right","NA","left","NA","1343","73421","NA","1343","NA","2","legacy","5","1024","2","48000","-16","experiment","2","even","8","91215","NA","89001","5228","NA","89007","87747","5239","NA","93221","94566","90011","78662","93220","NA","SternbergTask","1","3343","2","yes","1024"
"33.3333333333","33.3333333333","1459.33333333","1459.33333333","black","practice","legacy","legacy","legacy","0","uniform","0","undefined","0","right","2","2","2","0","0","2","2","0","0","2","2","2","0","2","0","10/25/20 15:32:00","The main experiment item","yes","SternbergTask.osexp","C:\Users\Jennifer Wright\Desktop\PSYC5613\STERNBERGTASK","no","mono","no","18","no","white","no","yes","768","legacy","2","2","C:/Users/Jennifer Wright/Desktop/PSYC5613/STERNBERGTASK/hw-subject-2.csv","legacy","5 7 8 4 1 2","Lentiform Loewenfeld","3.3.3","0","n","0","left","right","NA","left","NA","1035","73421","NA","1035","NA","2","legacy","6","1024","2","48000","-16","experiment","2","even","6","98049","94595","95834","5228","NA","95840","87747","5239","NA","100058","101094","96844","78662","100056","NA","SternbergTask","1","4378","3","yes","1024"
"25","25","1476.5","1476.5","black","practice","legacy","legacy","legacy","0","uniform","0","undefined","0","right","3","3","3","0","0","3","3","0","0","3","3","3","0","3","0","10/25/20 15:32:00","The main experiment item","yes","SternbergTask.osexp","C:\Users\Jennifer Wright\Desktop\PSYC5613\STERNBERGTASK","no","mono","no","18","no","white","no","yes","768","legacy","3","3","C:/Users/Jennifer Wright/Desktop/PSYC5613/STERNBERGTASK/hw-subject-2.csv","legacy","5","Lentiform Loewenfeld","3.3.3","0","n","0","left","right","NA","left","NA","1528","73421","NA","1528","NA","2","legacy","1","1024","2","48000","-16","experiment","2","even","3","104663","94595","102443","5228","NA","102449","101201","5239","NA","106672","108201","103453","78662","106670","NA","SternbergTask","1","5906","4","yes","1024"
"40","40","1445.8","1445.8","black","practice","legacy","legacy","legacy","0","uniform","1","undefined","1","left","4","4","4","0","0","4","4","0","0","4","4","4","0","4","0","10/25/20 15:32:00","The main experiment item","yes","SternbergTask.osexp","C:\Users\Jennifer Wright\Desktop\PSYC5613\STERNBERGTASK","no","mono","no","18","no","white","no","yes","768","legacy","4","4","C:/Users/Jennifer Wright/Desktop/PSYC5613/STERNBERGTASK/hw-subject-2.csv","legacy","4 3 1 7 9 8","Lentiform Loewenfeld","3.3.3","1","y","0","left","right","NA","left","NA","1323","73421","NA","1323","NA","2","legacy","6","1024","2","48000","-16","experiment","2","even","4","111713","94595","109498","5228","NA","109503","108259","5239","NA","113718","115042","110508","78662","113717","NA","SternbergTask","2","7229","5","yes","1024"
"33.3333333333","33.3333333333","1428.33333333","1428.33333333","black","practice","legacy","legacy","legacy","0","uniform","0","undefined","0","left","5","5","5","0","0","5","5","0","0","5","5","5","0","5","0","10/25/20 15:32:00","The main experiment item","yes","SternbergTask.osexp","C:\Users\Jennifer Wright\Desktop\PSYC5613\STERNBERGTASK","no","mono","no","18","no","white","no","yes","768","legacy","5","5","C:/Users/Jennifer Wright/Desktop/PSYC5613/STERNBERGTASK/hw-subject-2.csv","legacy","1 5 2 9","Lentiform Loewenfeld","3.3.3","2","y","0","right","right","NA","right","NA","1341","73421","NA","1341","NA","2","legacy","4","1024","2","48000","-16","experiment","2","even","5","118527","115074","116307","5228","NA","116313","108259","5239","NA","120533","121875","117322","78662","120532","NA","SternbergTask","2","8570","6","yes","1024"
"28.5714285714","28.5714285714","1368","1368","black","practice","legacy","legacy","legacy","0","uniform","0","undefined","0","left","6","6","6","0","0","6","6","0","0","6","6","6","0","6","0","10/25/20 15:32:00","The main experiment item","yes","SternbergTask.osexp","C:\Users\Jennifer Wright\Desktop\PSYC5613\STERNBERGTASK","no","mono","no","18","no","white","no","yes","768","legacy","6","6","C:/Users/Jennifer Wright/Desktop/PSYC5613/STERNBERGTASK/hw-subject-2.csv","legacy","2 9 4","Lentiform Loewenfeld","3.3.3","3","y","0","right","right","NA","right","NA","1006","73421","NA","1006","NA","2","legacy","3","1024","2","48000","-16","experiment","2","even","4","125362","115074","123146","5228","NA","123152","121919","5239","NA","127367","128374","124156","78662","127366","NA","SternbergTask","2","9576","7","yes","1024"
"37.5","37.5","1366","1366","black","practice","legacy","legacy","legacy","0","uniform","1","undefined","1","right","7","7","7","0","0","7","7","0","0","7","7","7","0","7","0","10/25/20 15:32:00","The main experiment item","yes","SternbergTask.osexp","C:\Users\Jennifer Wright\Desktop\PSYC5613\STERNBERGTASK","no","mono","no","18","no","white","no","yes","768","legacy","7","7","C:/Users/Jennifer Wright/Desktop/PSYC5613/STERNBERGTASK/hw-subject-2.csv","legacy","3 1 9 4","Lentiform Loewenfeld","3.3.3","0","n","0","right","right","NA","right","NA","1352","73421","NA","1352","NA","2","legacy","4","1024","2","48000","-16","experiment","2","even","6","132348","115074","130134","5228","NA","130140","128896","5239","NA","134354","135708","131144","78662","134353","NA","SternbergTask","3","10928","8","yes","1024"
"33.3333333333","33.3333333333","1286.11111111","1286.11111111","black","practice","legacy","legacy","legacy","0","uniform","0","undefined","0","left","8","8","8","0","0","8","8","0","0","8","8","8","0","8","0","10/25/20 15:32:00","The main experiment item","yes","SternbergTask.osexp","C:\Users\Jennifer Wright\Desktop\PSYC5613\STERNBERGTASK","no","mono","no","18","no","white","no","yes","768","legacy","8","8","C:/Users/Jennifer Wright/Desktop/PSYC5613/STERNBERGTASK/hw-subject-2.csv","legacy","4 8","Lentiform Loewenfeld","3.3.3","1","y","0","right","right","NA","right","NA","647","73421","NA","647","NA","2","legacy","2","1024","2","48000","-16","experiment","2","even","4","139189","135742","136975","5228","NA","136981","128896","5239","NA","141194","141843","137985","78662","141193","NA","SternbergTask","3","11575","9","yes","1024"
"30","30","1357.6","1357.6","black","practice","legacy","legacy","legacy","0","uniform","0","undefined","0","right","9","9","9","0","0","9","9","0","0","9","9","9","0","9","0","10/25/20 15:32:00","The main experiment item","yes","SternbergTask.osexp","C:\Users\Jennifer Wright\Desktop\PSYC5613\STERNBERGTASK","no","mono","no","18","no","white","no","yes","768","legacy","9","9","C:/Users/Jennifer Wright/Desktop/PSYC5613/STERNBERGTASK/hw-subject-2.csv","legacy","9 6 7 4 5","Lentiform Loewenfeld","3.3.3","0","n","0","None","right","NA","None","NA","2001","73421","NA","2001","NA","2","legacy","5","1024","2","48000","-16","experiment","2","even","3","145341","135742","143127","5228","NA","143132","141889","5239","NA","147347","149349","144136","78662","147347","NA","SternbergTask","3","13576","10","yes","1024"
"27.2727272727","27.2727272727","1309.18181818","1309.18181818","black","practice","legacy","legacy","legacy","0","uniform","0","undefined","0","left","10","10","10","0","0","10","10","0","0","10","10","10","0","10","0","10/25/20 15:32:00","The main experiment item","yes","SternbergTask.osexp","C:\Users\Jennifer Wright\Desktop\PSYC5613\STERNBERGTASK","no","mono","no","18","no","white","no","yes","768","legacy","10","10","C:/Users/Jennifer Wright/Desktop/PSYC5613/STERNBERGTASK/hw-subject-2.csv","legacy","6","Lentiform Loewenfeld","3.3.3","1","y","0","right","right","NA","right","NA","825","73421","NA","825","NA","2","legacy","1","1024","2","48000","-16","experiment","2","even","6","152846","135742","150630","5228","NA","150635","149397","5239","NA","154853","155679","151639","78662","154852","NA","SternbergTask","3","14401","11","yes","1024"
"33.3333333333","33.3333333333","1318.91666667","1318.91666667","black","practice","legacy","legacy","legacy","0","uniform","1","undefined","1","right","11","11","11","0","0","11","11","0","0","11","11","11","0","11","0","10/25/20 15:32:00","The main experiment item","yes","SternbergTask.osexp","C:\Users\Jennifer Wright\Desktop\PSYC5613\STERNBERGTASK","no","mono","no","18","no","white","no","yes","768","legacy","11","11","C:/Users/Jennifer Wright/Desktop/PSYC5613/STERNBERGTASK/hw-subject-2.csv","legacy","4 1 5","Lentiform Loewenfeld","3.3.3","0","n","0","right","right","NA","right","NA","1426","73421","NA","1426","NA","2","legacy","3","1024","2","48000","-16","experiment","2","even","2","159207","135742","156988","5228","NA","156994","155750","5239","NA","161212","162640","158002","78662","161211","NA","SternbergTask","4","15827","12","yes","1024"
"30.7692307692","30.7692307692","1371.38461538","1371.38461538","black","experiment","legacy","legacy","legacy","0","uniform","0","undefined","0","left","12","12","12","0","0","12","12","0","0","12","12","12","0","12","0","10/25/20 15:32:00","The main experiment item","yes","SternbergTask.osexp","C:\Users\Jennifer Wright\Desktop\PSYC5613\STERNBERGTASK","no","mono","no","18","no","white","no","yes","768","legacy","0","11","C:/Users/Jennifer Wright/Desktop/PSYC5613/STERNBERGTASK/hw-subject-2.csv","legacy","7 1 8 5 6 2","Lentiform Loewenfeld","3.3.3","2","y","0","None","right","right","None","NA","2001","73421","7660","2001","NA","2","legacy","6","1024","2","48000","-16","experiment","2","even","1","173970","162706","171752","5228","171426","171758","155750","5239","163765","175974","177976","172763","78662","175974","NA","SternbergTask","4","17828","13","yes","1024"
"35.7142857143","35.7142857143","1352.92857143","1352.92857143","black","experiment","legacy","legacy","legacy","0","uniform","1","undefined","1","left","13","13","13","0","0","13","13","0","0","13","13","13","0","13","0","10/25/20 15:32:00","The main experiment item","yes","SternbergTask.osexp","C:\Users\Jennifer Wright\Desktop\PSYC5613\STERNBERGTASK","no","mono","no","18","no","white","no","yes","768","legacy","1","11","C:/Users/Jennifer Wright/Desktop/PSYC5613/STERNBERGTASK/hw-subject-2.csv","legacy","4 1 5","Lentiform Loewenfeld","3.3.3","2","y","0","left","right","right","left","NA","1113","73421","7660","1113","NA","2","legacy","3","1024","2","48000","-16","experiment","2","even","1","181647","162706","179431","5228","171426","179437","178191","5239","163765","183651","184766","180441","78662","183651","NA","SternbergTask","5","18941","14","yes","1024"
"40","40","1375.53333333","1375.53333333","black","experiment","legacy","legacy","legacy","0","uniform","1","undefined","1","right","14","14","14","0","0","14","14","0","0","14","14","14","0","14","0","10/25/20 15:32:00","The main experiment item","yes","SternbergTask.osexp","C:\Users\Jennifer Wright\Desktop\PSYC5613\STERNBERGTASK","no","mono","no","18","no","white","no","yes","768","legacy","2","11","C:/Users/Jennifer Wright/Desktop/PSYC5613/STERNBERGTASK/hw-subject-2.csv","legacy","6 3 1 7 9 8","Lentiform Loewenfeld","3.3.3","0","n","0","right","right","right","right","NA","1692","73421","7660","1692","NA","2","legacy","6","1024","2","48000","-16","experiment","2","even","4","188259","184797","186045","5228","171426","186050","178191","5239","163765","190266","191959","187054","78662","190265","NA","SternbergTask","6","20633","15","yes","1024"
"43.75","43.75","1388.5625","1388.5625","black","experiment","legacy","legacy","legacy","0","uniform","1","undefined","1","right","15","15","15","0","0","15","15","0","0","15","15","15","0","15","0","10/25/20 15:32:00","The main experiment item","yes","SternbergTask.osexp","C:\Users\Jennifer Wright\Desktop\PSYC5613\STERNBERGTASK","no","mono","no","18","no","white","no","yes","768","legacy","3","11","C:/Users/Jennifer Wright/Desktop/PSYC5613/STERNBERGTASK/hw-subject-2.csv","legacy","2 8 9","Lentiform Loewenfeld","3.3.3","0","n","0","right","right","right","right","NA","1584","73421","7660","1584","NA","2","legacy","3","1024","2","48000","-16","experiment","2","even","6","195458","192011","193242","5228","171426","193248","178191","5239","163765","197464","199050","194254","78662","197463","NA","SternbergTask","7","22217","16","yes","1024"
"47.0588235294","47.0588235294","1386.76470588","1386.76470588","black","experiment","legacy","legacy","legacy","0","uniform","1","undefined","1","right","16","16","16","0","0","16","16","0","0","16","16","16","0","16","0","10/25/20 15:32:00","The main experiment item","yes","SternbergTask.osexp","C:\Users\Jennifer Wright\Desktop\PSYC5613\STERNBERGTASK","no","mono","no","18","no","white","no","yes","768","legacy","4","11","C:/Users/Jennifer Wright/Desktop/PSYC5613/STERNBERGTASK/hw-subject-2.csv","legacy","2 5 1 4","Lentiform Loewenfeld","3.3.3","0","n","0","right","right","right","right","NA","1358","73421","7660","1358","NA","2","legacy","4","1024","2","48000","-16","experiment","2","even","6","202541","199089","200326","5228","171426","200331","178191","5239","163765","204547","205907","201336","78662","204547","NA","SternbergTask","8","23575","17","yes","1024"
"50","50","1384.44444444","1384.44444444","black","experiment","legacy","legacy","legacy","0","uniform","1","undefined","1","left","17","17","17","0","0","17","17","0","0","17","17","17","0","17","0","10/25/20 15:32:00","The main experiment item","yes","SternbergTask.osexp","C:\Users\Jennifer Wright\Desktop\PSYC5613\STERNBERGTASK","no","mono","no","18","no","white","no","yes","768","legacy","5","11","C:/Users/Jennifer Wright/Desktop/PSYC5613/STERNBERGTASK/hw-subject-2.csv","legacy","2 3 7 4","Lentiform Loewenfeld","3.3.3","1","y","0","left","right","right","left","NA","1345","73421","7660","1345","NA","2","legacy","4","1024","2","48000","-16","experiment","2","even","2","209410","205962","207195","5228","171426","207201","178191","5239","163765","211416","212762","208205","78662","211415","NA","SternbergTask","9","24920","18","yes","1024"
"52.6315789474","52.6315789474","1380.52631579","1380.52631579","black","experiment","legacy","legacy","legacy","0","uniform","1","undefined","1","left","18","18","18","0","0","18","18","0","0","18","18","18","0","18","0","10/25/20 15:32:00","The main experiment item","yes","SternbergTask.osexp","C:\Users\Jennifer Wright\Desktop\PSYC5613\STERNBERGTASK","no","mono","no","18","no","white","no","yes","768","legacy","6","11","C:/Users/Jennifer Wright/Desktop/PSYC5613/STERNBERGTASK/hw-subject-2.csv","legacy","3 9 6 2","Lentiform Loewenfeld","3.3.3","4","y","0","left","right","right","left","NA","1310","73421","7660","1310","NA","2","legacy","4","1024","2","48000","-16","experiment","2","even","2","216269","212815","214052","5228","171426","214057","178191","5239","163765","218274","219586","215064","78662","218274","NA","SternbergTask","10","26230","19","yes","1024"
"55","55","1391.7","1391.7","black","experiment","legacy","legacy","legacy","0","uniform","1","undefined","1","left","19","19","19","0","0","19","19","0","0","19","19","19","0","19","0","10/25/20 15:32:00","The main experiment item","yes","SternbergTask.osexp","C:\Users\Jennifer Wright\Desktop\PSYC5613\STERNBERGTASK","no","mono","no","18","no","white","no","yes","768","legacy","7","11","C:/Users/Jennifer Wright/Desktop/PSYC5613/STERNBERGTASK/hw-subject-2.csv","legacy","1 4 9 3 2 5","Lentiform Loewenfeld","3.3.3","3","y","0","left","right","right","left","NA","1604","73421","7660","1604","NA","2","legacy","6","1024","2","48000","-16","experiment","2","even","9","223070","219613","220856","5228","171426","220861","178191","5239","163765","225079","226685","221866","78662","225078","NA","SternbergTask","11","27834","20","yes","1024"
"57.1428571429","57.1428571429","1377.85714286","1377.85714286","black","experiment","legacy","legacy","legacy","0","uniform","1","undefined","1","left","20","20","20","0","0","20","20","0","0","20","20","20","0","20","0","10/25/20 15:32:00","The main experiment item","yes","SternbergTask.osexp","C:\Users\Jennifer Wright\Desktop\PSYC5613\STERNBERGTASK","no","mono","no","18","no","white","no","yes","768","legacy","8","11","C:/Users/Jennifer Wright/Desktop/PSYC5613/STERNBERGTASK/hw-subject-2.csv","legacy","4 9 7 8 5 3","Lentiform Loewenfeld","3.3.3","4","y","0","left","right","right","left","NA","1101","73421","7660","1101","NA","2","legacy","6","1024","2","48000","-16","experiment","2","even","8","230207","226757","227988","5228","171426","227994","178191","5239","163765","232211","233314","228998","78662","232211","NA","SternbergTask","12","28935","21","yes","1024"
"59.0909090909","59.0909090909","1364.36363636","1364.36363636","black","experiment","legacy","legacy","legacy","0","uniform","1","undefined","1","left","21","21","21","0","0","21","21","0","0","21","21","21","0","21","0","10/25/20 15:32:00","The main experiment item","yes","SternbergTask.osexp","C:\Users\Jennifer Wright\Desktop\PSYC5613\STERNBERGTASK","no","mono","no","18","no","white","no","yes","768","legacy","9","11","C:/Users/Jennifer Wright/Desktop/PSYC5613/STERNBERGTASK/hw-subject-2.csv","legacy","6 7 8 5","Lentiform Loewenfeld","3.3.3","3","y","0","left","right","right","left","NA","1081","73421","7660","1081","NA","2","legacy","4","1024","2","48000","-16","experiment","2","even","8","236819","233371","234603","5228","171426","234608","178191","5239","163765","238824","239907","235615","78662","238824","NA","SternbergTask","13","30016","22","yes","1024"
"60.8695652174","60.8695652174","1353.13043478","1353.13043478","black","experiment","legacy","legacy","legacy","0","uniform","1","undefined","1","left","22","22","22","0","0","22","22","0","0","22","22","22","0","22","0","10/25/20 15:32:00","The main experiment item","yes","SternbergTask.osexp","C:\Users\Jennifer Wright\Desktop\PSYC5613\STERNBERGTASK","no","mono","no","18","no","white","no","yes","768","legacy","10","11","C:/Users/Jennifer Wright/Desktop/PSYC5613/STERNBERGTASK/hw-subject-2.csv","legacy","5 7 3 6 2","Lentiform Loewenfeld","3.3.3","5","y","0","left","right","right","left","NA","1106","73421","7660","1106","NA","2","legacy","5","1024","2","48000","-16","experiment","2","even","2","243383","239932","241168","5228","171426","241174","178191","5239","163765","245388","246496","242179","78662","245388","NA","SternbergTask","14","31122","23","yes","1024"
"62.5","62.5","1335.91666667","1335.91666667","black","experiment","legacy","legacy","legacy","0","uniform","1","undefined","1","left","23","23","23","0","0","23","23","0","0","23","23","23","0","23","0","10/25/20 15:32:00","The main experiment item","yes","SternbergTask.osexp","C:\Users\Jennifer Wright\Desktop\PSYC5613\STERNBERGTASK","no","mono","no","18","no","white","no","yes","768","legacy","11","11","C:/Users/Jennifer Wright/Desktop/PSYC5613/STERNBERGTASK/hw-subject-2.csv","legacy","9 1 6 7 8","Lentiform Loewenfeld","3.3.3","1","y","0","left","right","right","left","NA","940","73421","7660","940","NA","2","legacy","5","1024","2","48000","-16","experiment","2","even","9","249974","246523","247760","5228","171426","247765","178191","5239","163765","251982","252923","248770","78662","251981","NA","SternbergTask","15","32062","24","yes","1024"
"60","60","1327.88","1327.88","black","experiment","legacy","legacy","legacy","0","uniform","0","undefined","0","right","24","24","24","0","0","24","24","0","0","24","24","24","0","24","0","10/25/20 15:32:00","The main experiment item","yes","SternbergTask.osexp","C:\Users\Jennifer Wright\Desktop\PSYC5613\STERNBERGTASK","no","mono","no","18","no","white","no","yes","768","legacy","12","11","C:/Users/Jennifer Wright/Desktop/PSYC5613/STERNBERGTASK/hw-subject-2.csv","legacy","9 5 3 2 8 6","Lentiform Loewenfeld","3.3.3","0","n","0","left","right","right","left","NA","1135","73421","7660","1135","NA","2","legacy","6","1024","2","48000","-16","experiment","2","even","7","256399","252951","254185","5228","171426","254191","178191","5239","163765","258404","259540","255195","78662","258403","NA","SternbergTask","15","33197","25","yes","1024"
"61.5384615385","61.5384615385","1323.69230769","1323.69230769","black","experiment","legacy","legacy","legacy","0","uniform","1","undefined","1","right","25","25","25","0","0","25","25","0","0","25","25","25","0","25","0","10/25/20 15:32:00","The main experiment item","yes","SternbergTask.osexp","C:\Users\Jennifer Wright\Desktop\PSYC5613\STERNBERGTASK","no","mono","no","18","no","white","no","yes","768","legacy","13","11","C:/Users/Jennifer Wright/Desktop/PSYC5613/STERNBERGTASK/hw-subject-2.csv","legacy","6 9 4 5 3 2","Lentiform Loewenfeld","3.3.3","0","n","0","right","right","right","right","NA","1219","73421","7660","1219","NA","2","legacy","6","1024","2","48000","-16","experiment","2","even","8","263040","252951","260825","5228","171426","260831","259593","5239","163765","265045","266267","261835","78662","265045","NA","SternbergTask","16","34416","26","yes","1024"
"62.962962963","62.962962963","1347.44444444","1347.44444444","black","experiment","legacy","legacy","legacy","0","uniform","1","undefined","1","left","26","26","26","0","0","26","26","0","0","26","26","26","0","26","0","10/25/20 15:32:00","The main experiment item","yes","SternbergTask.osexp","C:\Users\Jennifer Wright\Desktop\PSYC5613\STERNBERGTASK","no","mono","no","18","no","white","no","yes","768","legacy","14","11","C:/Users/Jennifer Wright/Desktop/PSYC5613/STERNBERGTASK/hw-subject-2.csv","legacy","4 3 2 5 8","Lentiform Loewenfeld","3.3.3","2","y","0","left","right","right","left","NA","1965","73421","7660","1965","NA","2","legacy","5","1024","2","48000","-16","experiment","2","even","3","269741","266290","267526","5228","171426","267532","259593","5239","163765","271746","273713","268536","78662","271745","NA","SternbergTask","17","36381","27","yes","1024"
"64.2857142857","64.2857142857","1341.25","1341.25","black","experiment","legacy","legacy","legacy","0","uniform","1","undefined","1","right","27","27","27","0","0","27","27","0","0","27","27","27","0","27","0","10/25/20 15:32:00","The main experiment item","yes","SternbergTask.osexp","C:\Users\Jennifer Wright\Desktop\PSYC5613\STERNBERGTASK","no","mono","no","18","no","white","no","yes","768","legacy","15","11","C:/Users/Jennifer Wright/Desktop/PSYC5613/STERNBERGTASK/hw-subject-2.csv","legacy","6 8 4","Lentiform Loewenfeld","3.3.3","0","n","0","right","right","right","right","NA","1174","73421","7660","1174","NA","2","legacy","3","1024","2","48000","-16","experiment","2","even","1","277230","273779","275014","5228","171426","275020","259593","5239","163765","279236","280412","276025","78662","279235","NA","SternbergTask","18","37555","28","yes","1024"
"65.5172413793","65.5172413793","1328.72413793","1328.72413793","black","experiment","legacy","legacy","legacy","0","uniform","1","undefined","1","right","28","28","28","0","0","28","28","0","0","28","28","28","0","28","0","10/25/20 15:32:00","The main experiment item","yes","SternbergTask.osexp","C:\Users\Jennifer Wright\Desktop\PSYC5613\STERNBERGTASK","no","mono","no","18","no","white","no","yes","768","legacy","16","11","C:/Users/Jennifer Wright/Desktop/PSYC5613/STERNBERGTASK/hw-subject-2.csv","legacy","4 8 1 2","Lentiform Loewenfeld","3.3.3","0","n","0","right","right","right","right","NA","978","73421","7660","978","NA","2","legacy","4","1024","2","48000","-16","experiment","2","even","7","284005","280532","281788","5228","171426","281795","259593","5239","163765","286019","286999","282800","78662","286018","NA","SternbergTask","19","38533","29","yes","1024"
"66.6666666667","66.6666666667","1326.8","1326.8","black","experiment","legacy","legacy","legacy","0","uniform","1","undefined","1","right","29","29","29","0","0","29","29","0","0","29","29","29","0","29","0","10/25/20 15:32:00","The main experiment item","yes","SternbergTask.osexp","C:\Users\Jennifer Wright\Desktop\PSYC5613\STERNBERGTASK","no","mono","no","18","no","white","no","yes","768","legacy","17","11","C:/Users/Jennifer Wright/Desktop/PSYC5613/STERNBERGTASK/hw-subject-2.csv","legacy","9 7 4 5 8","Lentiform Loewenfeld","3.3.3","0","n","0","right","right","right","right","NA","1271","73421","7660","1271","NA","2","legacy","5","1024","2","48000","-16","experiment","2","even","6","290676","287186","288458","5228","171426","288464","259593","5239","163765","292681","293954","289470","78662","292681","NA","SternbergTask","20","39804","30","yes","1024"
"67.7419354839","67.7419354839","1324.09677419","1324.09677419","black","experiment","legacy","legacy","legacy","0","uniform","1","undefined","1","right","30","30","30","0","0","30","30","0","0","30","30","30","0","30","0","10/25/20 15:32:00","The main experiment item","yes","SternbergTask.osexp","C:\Users\Jennifer Wright\Desktop\PSYC5613\STERNBERGTASK","no","mono","no","18","no","white","no","yes","768","legacy","18","11","C:/Users/Jennifer Wright/Desktop/PSYC5613/STERNBERGTASK/hw-subject-2.csv","legacy","7 6 4 8 1 2","Lentiform Loewenfeld","3.3.3","0","n","0","right","right","right","right","NA","1243","73421","7660","1243","NA","2","legacy","6","1024","2","48000","-16","experiment","2","even","9","297461","294023","295247","5228","171426","295252","259593","5239","163765","299467","300712","296256","78662","299467","NA","SternbergTask","21","41047","31","yes","1024"
"68.75","68.75","1313.5625","1313.5625","black","experiment","legacy","legacy","legacy","0","uniform","1","undefined","1","left","31","31","31","0","0","31","31","0","0","31","31","31","0","31","0","10/25/20 15:32:00","The main experiment item","yes","SternbergTask.osexp","C:\Users\Jennifer Wright\Desktop\PSYC5613\STERNBERGTASK","no","mono","no","18","no","white","no","yes","768","legacy","19","11","C:/Users/Jennifer Wright/Desktop/PSYC5613/STERNBERGTASK/hw-subject-2.csv","legacy","9 8 4","Lentiform Loewenfeld","3.3.3","1","y","0","left","right","right","left","NA","987","73421","7660","987","NA","2","legacy","3","1024","2","48000","-16","experiment","2","even","9","304225","300757","302008","5228","171426","302015","259593","5239","163765","306230","307219","303020","78662","306230","NA","SternbergTask","22","42034","32","yes","1024"
"66.6666666667","66.6666666667","1334.36363636","1334.36363636","black","experiment","legacy","legacy","legacy","0","uniform","0","undefined","0","left","32","32","32","0","0","32","32","0","0","32","32","32","0","32","0","10/25/20 15:32:00","The main experiment item","yes","SternbergTask.osexp","C:\Users\Jennifer Wright\Desktop\PSYC5613\STERNBERGTASK","no","mono","no","18","no","white","no","yes","768","legacy","20","11","C:/Users/Jennifer Wright/Desktop/PSYC5613/STERNBERGTASK/hw-subject-2.csv","legacy","9 5 3 8 4","Lentiform Loewenfeld","3.3.3","1","y","0","None","right","right","None","NA","2000","73421","7660","2000","NA","2","legacy","5","1024","2","48000","-16","experiment","2","even","9","310751","307286","308536","5228","171426","308542","259593","5239","163765","312757","314758","309546","78662","312756","NA","SternbergTask","22","44034","33","yes","1024"
"67.6470588235","67.6470588235","1324.55882353","1324.55882353","black","experiment","legacy","legacy","legacy","0","uniform","1","undefined","1","right","33","33","33","0","0","33","33","0","0","33","33","33","0","33","0","10/25/20 15:32:00","The main experiment item","yes","SternbergTask.osexp","C:\Users\Jennifer Wright\Desktop\PSYC5613\STERNBERGTASK","no","mono","no","18","no","white","no","yes","768","legacy","21","11","C:/Users/Jennifer Wright/Desktop/PSYC5613/STERNBERGTASK/hw-subject-2.csv","legacy","1 6 4","Lentiform Loewenfeld","3.3.3","0","n","0","right","right","right","right","NA","1001","73421","7660","1001","NA","2","legacy","3","1024","2","48000","-16","experiment","2","even","7","318298","307286","316082","5228","171426","316088","314825","5239","163765","320303","321306","317093","78662","320303","NA","SternbergTask","23","45035","34","yes","1024"
"68.5714285714","68.5714285714","1326.91428571","1326.91428571","black","experiment","legacy","legacy","legacy","0","uniform","1","undefined","1","right","34","34","34","0","0","34","34","0","0","34","34","34","0","34","0","10/25/20 15:32:00","The main experiment item","yes","SternbergTask.osexp","C:\Users\Jennifer Wright\Desktop\PSYC5613\STERNBERGTASK","no","mono","no","18","no","white","no","yes","768","legacy","22","11","C:/Users/Jennifer Wright/Desktop/PSYC5613/STERNBERGTASK/hw-subject-2.csv","legacy","5 3 8 7 2 4","Lentiform Loewenfeld","3.3.3","0","n","0","right","right","right","right","NA","1407","73421","7660","1407","NA","2","legacy","6","1024","2","48000","-16","experiment","2","even","9","324802","321357","322587","5228","171426","322592","314825","5239","163765","326808","328218","323598","78662","326808","NA","SternbergTask","24","46442","35","yes","1024"
"69.4444444444","69.4444444444","1343.75","1343.75","black","experiment","legacy","legacy","legacy","0","uniform","1","undefined","1","right","35","35","35","0","0","35","35","0","0","35","35","35","0","35","0","10/25/20 15:32:00","The main experiment item","yes","SternbergTask.osexp","C:\Users\Jennifer Wright\Desktop\PSYC5613\STERNBERGTASK","no","mono","no","18","no","white","no","yes","768","legacy","23","11","C:/Users/Jennifer Wright/Desktop/PSYC5613/STERNBERGTASK/hw-subject-2.csv","legacy","2 3 8 5 6 7","Lentiform Loewenfeld","3.3.3","0","n","0","right","right","right","right","NA","1933","73421","7660","1933","NA","2","legacy","6","1024","2","48000","-16","experiment","2","even","1","331728","328275","329513","5228","171426","329518","314825","5239","163765","333734","335670","330523","78662","333733","NA","SternbergTask","25","48375","36","yes","1024"
"70.2702702703","70.2702702703","1339.2972973","1339.2972973","black","experiment","legacy","legacy","legacy","0","uniform","1","undefined","1","left","36","36","36","0","0","36","36","0","0","36","36","36","0","36","0","10/25/20 15:32:00","The main experiment item","yes","SternbergTask.osexp","C:\Users\Jennifer Wright\Desktop\PSYC5613\STERNBERGTASK","no","mono","no","18","no","white","no","yes","768","legacy","24","11","C:/Users/Jennifer Wright/Desktop/PSYC5613/STERNBERGTASK/hw-subject-2.csv","legacy","2 5 4 8 7","Lentiform Loewenfeld","3.3.3","3","y","0","left","right","right","left","NA","1179","73421","7660","1179","NA","2","legacy","5","1024","2","48000","-16","experiment","2","even","4","339172","335703","336956","5228","171426","336961","314825","5239","163765","341177","342359","337967","78662","341177","NA","SternbergTask","26","49554","37","yes","1024"
"71.0526315789","71.0526315789","1341.92105263","1341.92105263","black","experiment","legacy","legacy","legacy","0","uniform","1","undefined","1","left","37","37","37","0","0","37","37","0","0","37","37","37","0","37","0","10/25/20 15:32:00","The main experiment item","yes","SternbergTask.osexp","C:\Users\Jennifer Wright\Desktop\PSYC5613\STERNBERGTASK","no","mono","no","18","no","white","no","yes","768","legacy","25","11","C:/Users/Jennifer Wright/Desktop/PSYC5613/STERNBERGTASK/hw-subject-2.csv","legacy","3 4 9 6 2 9","Lentiform Loewenfeld","3.3.3","5","y","0","left","right","right","left","NA","1439","73421","7660","1439","NA","2","legacy","6","1024","2","48000","-16","experiment","2","even","2","345872","342421","343658","5228","171426","343663","314825","5239","163765","347878","349319","344668","78662","347878","NA","SternbergTask","27","50993","38","yes","1024"
"71.7948717949","71.7948717949","1331.48717949","1331.48717949","black","experiment","legacy","legacy","legacy","0","uniform","1","undefined","1","left","38","38","38","0","0","38","38","0","0","38","38","38","0","38","0","10/25/20 15:32:00","The main experiment item","yes","SternbergTask.osexp","C:\Users\Jennifer Wright\Desktop\PSYC5613\STERNBERGTASK","no","mono","no","18","no","white","no","yes","768","legacy","26","11","C:/Users/Jennifer Wright/Desktop/PSYC5613/STERNBERGTASK/hw-subject-2.csv","legacy","2 4 6 9","Lentiform Loewenfeld","3.3.3","3","y","0","left","right","right","left","NA","935","73421","7660","935","NA","2","legacy","4","1024","2","48000","-16","experiment","2","even","6","352960","349498","350745","5228","171426","350751","314825","5239","163765","354965","355903","351756","78662","354965","NA","SternbergTask","28","51928","39","yes","1024"
"72.5","72.5","1325","1325","black","experiment","legacy","legacy","legacy","0","uniform","1","undefined","1","right","39","39","39","0","0","39","39","0","0","39","39","39","0","39","0","10/25/20 15:32:00","The main experiment item","yes","SternbergTask.osexp","C:\Users\Jennifer Wright\Desktop\PSYC5613\STERNBERGTASK","no","mono","no","18","no","white","no","yes","768","legacy","27","11","C:/Users/Jennifer Wright/Desktop/PSYC5613/STERNBERGTASK/hw-subject-2.csv","legacy","1 7 5 2 9","Lentiform Loewenfeld","3.3.3","0","n","0","right","right","right","right","NA","1072","73421","7660","1072","NA","2","legacy","5","1024","2","48000","-16","experiment","2","even","3","359429","355974","357214","5228","171426","357220","314825","5239","163765","361434","362509","358224","78662","361434","NA","SternbergTask","29","53000","40","yes","1024"
"73.1707317073","73.1707317073","1313.51219512","1313.51219512","black","experiment","legacy","legacy","legacy","0","uniform","1","undefined","1","left","40","40","40","0","0","40","40","0","0","40","40","40","0","40","0","10/25/20 15:32:00","The main experiment item","yes","SternbergTask.osexp","C:\Users\Jennifer Wright\Desktop\PSYC5613\STERNBERGTASK","no","mono","no","18","no","white","no","yes","768","legacy","28","11","C:/Users/Jennifer Wright/Desktop/PSYC5613/STERNBERGTASK/hw-subject-2.csv","legacy","2 3","Lentiform Loewenfeld","3.3.3","1","y","0","left","right","right","left","NA","854","73421","7660","854","NA","2","legacy","2","1024","2","48000","-16","experiment","2","even","2","366020","362571","363804","5228","171426","363809","314825","5239","163765","368024","368880","364814","78662","368024","NA","SternbergTask","30","53854","41","yes","1024"
"73.8095238095","73.8095238095","1313.4047619","1313.4047619","black","experiment","legacy","legacy","legacy","0","uniform","1","undefined","1","left","41","41","41","0","0","41","41","0","0","41","41","41","0","41","0","10/25/20 15:32:00","The main experiment item","yes","SternbergTask.osexp","C:\Users\Jennifer Wright\Desktop\PSYC5613\STERNBERGTASK","no","mono","no","18","no","white","no","yes","768","legacy","29","11","C:/Users/Jennifer Wright/Desktop/PSYC5613/STERNBERGTASK/hw-subject-2.csv","legacy","8","Lentiform Loewenfeld","3.3.3","1","y","0","left","right","right","left","NA","1309","73421","7660","1309","NA","2","legacy","1","1024","2","48000","-16","experiment","2","even","8","372391","368958","370177","5228","171426","370183","314825","5239","163765","374396","375707","371187","78662","374396","NA","SternbergTask","31","55163","42","yes","1024"
"74.4186046512","74.4186046512","1314.11627907","1314.11627907","black","experiment","legacy","legacy","legacy","0","uniform","1","undefined","1","right","42","42","42","0","0","42","42","0","0","42","42","42","0","42","0","10/25/20 15:32:00","The main experiment item","yes","SternbergTask.osexp","C:\Users\Jennifer Wright\Desktop\PSYC5613\STERNBERGTASK","no","mono","no","18","no","white","no","yes","768","legacy","30","11","C:/Users/Jennifer Wright/Desktop/PSYC5613/STERNBERGTASK/hw-subject-2.csv","legacy","3 9 8 1 6 4","Lentiform Loewenfeld","3.3.3","0","n","0","right","right","right","right","NA","1344","73421","7660","1344","NA","2","legacy","6","1024","2","48000","-16","experiment","2","even","7","379212","375778","376999","5228","171426","377004","314825","5239","163765","381217","382564","378008","78662","381217","NA","SternbergTask","32","56507","43","yes","1024"
"72.7272727273","72.7272727273","1329.72727273","1329.72727273","black","experiment","legacy","legacy","legacy","0","uniform","0","undefined","0","right","43","43","43","0","0","43","43","0","0","43","43","43","0","43","0","10/25/20 15:32:00","The main experiment item","yes","SternbergTask.osexp","C:\Users\Jennifer Wright\Desktop\PSYC5613\STERNBERGTASK","no","mono","no","18","no","white","no","yes","768","legacy","31","11","C:/Users/Jennifer Wright/Desktop/PSYC5613/STERNBERGTASK/hw-subject-2.csv","legacy","8 4 3 5","Lentiform Loewenfeld","3.3.3","0","n","0","None","right","right","None","NA","2001","73421","7660","2001","NA","2","legacy","4","1024","2","48000","-16","experiment","2","even","6","386060","382630","383846","5228","171426","383851","314825","5239","163765","388064","390066","384855","78662","388064","NA","SternbergTask","32","58508","44","yes","1024"
"73.3333333333","73.3333333333","1326.11111111","1326.11111111","black","experiment","legacy","legacy","legacy","0","uniform","1","undefined","1","left","44","44","44","0","0","44","44","0","0","44","44","44","0","44","0","10/25/20 15:32:00","The main experiment item","yes","SternbergTask.osexp","C:\Users\Jennifer Wright\Desktop\PSYC5613\STERNBERGTASK","no","mono","no","18","no","white","no","yes","768","legacy","32","11","C:/Users/Jennifer Wright/Desktop/PSYC5613/STERNBERGTASK/hw-subject-2.csv","legacy","9 3 8 2 1 4","Lentiform Loewenfeld","3.3.3","3","y","0","left","right","right","left","NA","1167","73421","7660","1167","NA","2","legacy","6","1024","2","48000","-16","experiment","2","even","8","393542","382630","391327","5228","171426","391332","390103","5239","163765","395547","396716","392336","78662","395547","NA","SternbergTask","33","59675","45","yes","1024"
"73.9130434783","73.9130434783","1326.06521739","1326.06521739","black","experiment","legacy","legacy","legacy","0","uniform","1","undefined","1","right","45","45","45","0","0","45","45","0","0","45","45","45","0","45","0","10/25/20 15:32:00","The main experiment item","yes","SternbergTask.osexp","C:\Users\Jennifer Wright\Desktop\PSYC5613\STERNBERGTASK","no","mono","no","18","no","white","no","yes","768","legacy","33","11","C:/Users/Jennifer Wright/Desktop/PSYC5613/STERNBERGTASK/hw-subject-2.csv","legacy","2 8 6 3 1","Lentiform Loewenfeld","3.3.3","0","n","0","right","right","right","right","NA","1324","73421","7660","1324","NA","2","legacy","5","1024","2","48000","-16","experiment","2","even","7","400179","396744","397965","5228","171426","397971","390103","5239","163765","402185","403512","398975","78662","402184","NA","SternbergTask","34","60999","46","yes","1024"
"72.3404255319","72.3404255319","1340.40425532","1340.40425532","black","experiment","legacy","legacy","legacy","0","uniform","0","undefined","0","left","46","46","46","0","0","46","46","0","0","46","46","46","0","46","0","10/25/20 15:32:00","The main experiment item","yes","SternbergTask.osexp","C:\Users\Jennifer Wright\Desktop\PSYC5613\STERNBERGTASK","no","mono","no","18","no","white","no","yes","768","legacy","34","11","C:/Users/Jennifer Wright/Desktop/PSYC5613/STERNBERGTASK/hw-subject-2.csv","legacy","9 1 7 2","Lentiform Loewenfeld","3.3.3","2","y","0","None","right","right","None","NA","2000","73421","7660","2000","NA","2","legacy","4","1024","2","48000","-16","experiment","2","even","1","407022","403575","404808","5228","171426","404814","390103","5239","163765","409028","411029","405818","78662","409027","NA","SternbergTask","34","62999","47","yes","1024"
"72.9166666667","72.9166666667","1331.83333333","1331.83333333","black","experiment","legacy","legacy","legacy","0","uniform","1","undefined","1","right","47","47","47","0","0","47","47","0","0","47","47","47","0","47","0","10/25/20 15:32:00","The main experiment item","yes","SternbergTask.osexp","C:\Users\Jennifer Wright\Desktop\PSYC5613\STERNBERGTASK","no","mono","no","18","no","white","no","yes","768","legacy","35","11","C:/Users/Jennifer Wright/Desktop/PSYC5613/STERNBERGTASK/hw-subject-2.csv","legacy","3 4 2","Lentiform Loewenfeld","3.3.3","0","n","0","right","right","right","right","NA","929","73421","7660","929","NA","2","legacy","3","1024","2","48000","-16","experiment","2","even","5","414538","403575","412322","5228","171426","412328","411102","5239","163765","416543","417475","413333","78662","416543","NA","SternbergTask","35","63928","48","yes","1024"
"73.4693877551","73.4693877551","1343.34693878","1343.34693878","black","experiment","legacy","legacy","legacy","0","uniform","1","undefined","1","right","48","48","48","0","0","48","48","0","0","48","48","48","0","48","0","10/25/20 15:32:00","The main experiment item","yes","SternbergTask.osexp","C:\Users\Jennifer Wright\Desktop\PSYC5613\STERNBERGTASK","no","mono","no","18","no","white","no","yes","768","legacy","36","11","C:/Users/Jennifer Wright/Desktop/PSYC5613/STERNBERGTASK/hw-subject-2.csv","legacy","1 7 8 3 9","Lentiform Loewenfeld","3.3.3","0","n","0","right","right","right","right","NA","1896","73421","7660","1896","NA","2","legacy","5","1024","2","48000","-16","experiment","2","even","2","420971","417534","418758","5228","171426","418763","411102","5239","163765","422975","424874","419767","78662","422975","NA","SternbergTask","36","65824","49","yes","1024"
"74","74","1338.56","1338.56","black","experiment","legacy","legacy","legacy","0","uniform","1","undefined","1","right","49","49","49","0","0","49","49","0","0","49","49","49","0","49","0","10/25/20 15:32:00","The main experiment item","yes","SternbergTask.osexp","C:\Users\Jennifer Wright\Desktop\PSYC5613\STERNBERGTASK","no","mono","no","18","no","white","no","yes","768","legacy","37","11","C:/Users/Jennifer Wright/Desktop/PSYC5613/STERNBERGTASK/hw-subject-2.csv","legacy","5 2","Lentiform Loewenfeld","3.3.3","0","n","0","right","right","right","right","NA","1104","73421","7660","1104","NA","2","legacy","2","1024","2","48000","-16","experiment","2","even","7","428375","424940","426160","5228","171426","426165","411102","5239","163765","430381","431488","427170","78662","430380","NA","SternbergTask","37","66928","50","yes","1024"
"72.5490196078","72.5490196078","1351.52941176","1351.52941176","black","experiment","legacy","legacy","legacy","0","uniform","0","undefined","0","left","50","50","50","0","0","50","50","0","0","50","50","50","0","50","0","10/25/20 15:32:00","The main experiment item","yes","SternbergTask.osexp","C:\Users\Jennifer Wright\Desktop\PSYC5613\STERNBERGTASK","no","mono","no","18","no","white","no","yes","768","legacy","38","11","C:/Users/Jennifer Wright/Desktop/PSYC5613/STERNBERGTASK/hw-subject-2.csv","legacy","4 6 5 8","Lentiform Loewenfeld","3.3.3","1","y","0","None","right","right","None","NA","2000","73421","7660","2000","NA","2","legacy","4","1024","2","48000","-16","experiment","2","even","4","434995","431559","432780","5228","171426","432785","411102","5239","163765","437000","439001","433791","78662","436999","NA","SternbergTask","37","68928","51","yes","1024"
"71.1538461538","71.1538461538","1349.57692308","1349.57692308","black","experiment","legacy","legacy","legacy","0","uniform","0","undefined","0","left","51","51","51","0","0","51","51","0","0","51","51","51","0","51","0","10/25/20 15:32:00","The main experiment item","yes","SternbergTask.osexp","C:\Users\Jennifer Wright\Desktop\PSYC5613\STERNBERGTASK","no","mono","no","18","no","white","no","yes","768","legacy","39","11","C:/Users/Jennifer Wright/Desktop/PSYC5613/STERNBERGTASK/hw-subject-2.csv","legacy","7 4 2 6 3 5","Lentiform Loewenfeld","3.3.3","6","y","0","right","right","right","right","NA","1250","73421","7660","1250","NA","2","legacy","6","1024","2","48000","-16","experiment","2","even","5","442503","431559","440291","5228","171426","440295","439064","5239","163765","444507","445760","441299","78662","444507","NA","SternbergTask","37","70178","52","yes","1024"
"71.6981132075","71.6981132075","1343.98113208","1343.98113208","black","experiment","legacy","legacy","legacy","0","uniform","1","undefined","1","left","52","52","52","0","0","52","52","0","0","52","52","52","0","52","0","10/25/20 15:32:00","The main experiment item","yes","SternbergTask.osexp","C:\Users\Jennifer Wright\Desktop\PSYC5613\STERNBERGTASK","no","mono","no","18","no","white","no","yes","768","legacy","40","11","C:/Users/Jennifer Wright/Desktop/PSYC5613/STERNBERGTASK/hw-subject-2.csv","legacy","6 7 9 3 1 2","Lentiform Loewenfeld","3.3.3","1","y","0","left","right","right","left","NA","1053","73421","7660","1053","NA","2","legacy","6","1024","2","48000","-16","experiment","2","even","6","449262","431559","447048","5228","171426","447053","445829","5239","163765","451266","452321","448058","78662","451266","NA","SternbergTask","38","71231","53","yes","1024"
"72.2222222222","72.2222222222","1332.42592593","1332.42592593","black","experiment","legacy","legacy","legacy","0","uniform","1","undefined","1","left","53","53","53","0","0","53","53","0","0","53","53","53","0","53","0","10/25/20 15:32:00","The main experiment item","yes","SternbergTask.osexp","C:\Users\Jennifer Wright\Desktop\PSYC5613\STERNBERGTASK","no","mono","no","18","no","white","no","yes","768","legacy","41","11","C:/Users/Jennifer Wright/Desktop/PSYC5613/STERNBERGTASK/hw-subject-2.csv","legacy","3 5 7 1","Lentiform Loewenfeld","3.3.3","3","y","0","left","right","right","left","NA","720","73421","7660","720","NA","2","legacy","4","1024","2","48000","-16","experiment","2","even","7","455818","452382","453603","5228","171426","453608","445829","5239","163765","457823","458545","454613","78662","457822","NA","SternbergTask","39","71951","54","yes","1024"
"72.7272727273","72.7272727273","1328.45454545","1328.45454545","black","experiment","legacy","legacy","legacy","0","uniform","1","undefined","1","left","54","54","54","0","0","54","54","0","0","54","54","54","0","54","0","10/25/20 15:32:00","The main experiment item","yes","SternbergTask.osexp","C:\Users\Jennifer Wright\Desktop\PSYC5613\STERNBERGTASK","no","mono","no","18","no","white","no","yes","768","legacy","42","11","C:/Users/Jennifer Wright/Desktop/PSYC5613/STERNBERGTASK/hw-subject-2.csv","legacy","9 6 2 4 1","Lentiform Loewenfeld","3.3.3","4","y","0","left","right","right","left","NA","1114","73421","7660","1114","NA","2","legacy","5","1024","2","48000","-16","experiment","2","even","4","462065","458625","459851","5228","171426","459857","445829","5239","163765","464070","465187","460861","78662","464069","NA","SternbergTask","40","73065","55","yes","1024"
"73.2142857143","73.2142857143","1323.46428571","1323.46428571","black","experiment","legacy","legacy","legacy","0","uniform","1","undefined","1","right","55","55","55","0","0","55","55","0","0","55","55","55","0","55","0","10/25/20 15:32:00","The main experiment item","yes","SternbergTask.osexp","C:\Users\Jennifer Wright\Desktop\PSYC5613\STERNBERGTASK","no","mono","no","18","no","white","no","yes","768","legacy","43","11","C:/Users/Jennifer Wright/Desktop/PSYC5613/STERNBERGTASK/hw-subject-2.csv","legacy","4 2 6 9","Lentiform Loewenfeld","3.3.3","0","n","0","right","right","right","right","NA","1049","73421","7660","1049","NA","2","legacy","4","1024","2","48000","-16","experiment","2","even","7","468701","465256","466487","5228","171426","466492","445829","5239","163765","470707","471758","467497","78662","470707","NA","SternbergTask","41","74114","56","yes","1024"
"71.9298245614","71.9298245614","1322.71929825","1322.71929825","black","experiment","legacy","legacy","legacy","0","uniform","0","undefined","0","left","56","56","56","0","0","56","56","0","0","56","56","56","0","56","0","10/25/20 15:32:00","The main experiment item","yes","SternbergTask.osexp","C:\Users\Jennifer Wright\Desktop\PSYC5613\STERNBERGTASK","no","mono","no","18","no","white","no","yes","768","legacy","44","11","C:/Users/Jennifer Wright/Desktop/PSYC5613/STERNBERGTASK/hw-subject-2.csv","legacy","6 9 3 1","Lentiform Loewenfeld","3.3.3","4","y","0","right","right","right","right","NA","1281","73421","7660","1281","NA","2","legacy","4","1024","2","48000","-16","experiment","2","even","1","475269","471822","473055","5228","171426","473060","445829","5239","163765","477274","478558","474064","78662","477273","NA","SternbergTask","41","75395","57","yes","1024"
"72.4137931034","72.4137931034","1326.48275862","1326.48275862","black","experiment","legacy","legacy","legacy","0","uniform","1","undefined","1","right","57","57","57","0","0","57","57","0","0","57","57","57","0","57","0","10/25/20 15:32:00","The main experiment item","yes","SternbergTask.osexp","C:\Users\Jennifer Wright\Desktop\PSYC5613\STERNBERGTASK","no","mono","no","18","no","white","no","yes","768","legacy","45","11","C:/Users/Jennifer Wright/Desktop/PSYC5613/STERNBERGTASK/hw-subject-2.csv","legacy","6 8","Lentiform Loewenfeld","3.3.3","0","n","0","right","right","right","right","NA","1541","73421","7660","1541","NA","2","legacy","2","1024","2","48000","-16","experiment","2","even","9","482149","471822","479935","5228","171426","479940","478717","5239","163765","484153","485697","480944","78662","484153","NA","SternbergTask","42","76936","58","yes","1024"
"72.8813559322","72.8813559322","1320.05084746","1320.05084746","black","experiment","legacy","legacy","legacy","0","uniform","1","undefined","1","right","58","58","58","0","0","58","58","0","0","58","58","58","0","58","0","10/25/20 15:32:00","The main experiment item","yes","SternbergTask.osexp","C:\Users\Jennifer Wright\Desktop\PSYC5613\STERNBERGTASK","no","mono","no","18","no","white","no","yes","768","legacy","46","11","C:/Users/Jennifer Wright/Desktop/PSYC5613/STERNBERGTASK/hw-subject-2.csv","legacy","1 7 5 2","Lentiform Loewenfeld","3.3.3","0","n","0","right","right","right","right","NA","947","73421","7660","947","NA","2","legacy","4","1024","2","48000","-16","experiment","2","even","3","489180","485737","486965","5228","171426","486971","478717","5239","163765","491185","492135","487975","78662","491185","NA","SternbergTask","43","77883","59","yes","1024"
"73.3333333333","73.3333333333","1317.58333333","1317.58333333","black","experiment","legacy","legacy","legacy","0","uniform","1","undefined","1","left","59","59","59","0","0","59","59","0","0","59","59","59","0","59","0","10/25/20 15:32:00","The main experiment item","yes","SternbergTask.osexp","C:\Users\Jennifer Wright\Desktop\PSYC5613\STERNBERGTASK","no","mono","no","18","no","white","no","yes","768","legacy","47","11","C:/Users/Jennifer Wright/Desktop/PSYC5613/STERNBERGTASK/hw-subject-2.csv","legacy","8 9 5 6 7","Lentiform Loewenfeld","3.3.3","1","y","0","left","right","right","left","NA","1172","73421","7660","1172","NA","2","legacy","5","1024","2","48000","-16","experiment","2","even","8","495633","492201","493418","5228","171426","493424","478717","5239","163765","497637","498812","494428","78662","497637","NA","SternbergTask","44","79055","60","yes","1024"
"73.7704918033","73.7704918033","1313.67213115","1313.67213115","black","experiment","legacy","legacy","legacy","0","uniform","1","undefined","1","right","60","60","60","0","0","60","60","0","0","60","60","60","0","60","0","10/25/20 15:32:00","The main experiment item","yes","SternbergTask.osexp","C:\Users\Jennifer Wright\Desktop\PSYC5613\STERNBERGTASK","no","mono","no","18","no","white","no","yes","768","legacy","48","11","C:/Users/Jennifer Wright/Desktop/PSYC5613/STERNBERGTASK/hw-subject-2.csv","legacy","8 6 3 4 7","Lentiform Loewenfeld","3.3.3","0","n","0","right","right","right","right","NA","1079","73421","7660","1079","NA","2","legacy","5","1024","2","48000","-16","experiment","2","even","1","502325","498876","500110","5228","171426","500116","478717","5239","163765","504330","505411","501121","78662","504330","NA","SternbergTask","45","80134","61","yes","1024"
"74.1935483871","74.1935483871","1305.22580645","1305.22580645","black","experiment","legacy","legacy","legacy","0","uniform","1","undefined","1","left","61","61","61","0","0","61","61","0","0","61","61","61","0","61","0","10/25/20 15:32:00","The main experiment item","yes","SternbergTask.osexp","C:\Users\Jennifer Wright\Desktop\PSYC5613\STERNBERGTASK","no","mono","no","18","no","white","no","yes","768","legacy","49","11","C:/Users/Jennifer Wright/Desktop/PSYC5613/STERNBERGTASK/hw-subject-2.csv","legacy","7 1 3","Lentiform Loewenfeld","3.3.3","2","y","0","left","right","right","left","NA","790","73421","7660","790","NA","2","legacy","3","1024","2","48000","-16","experiment","2","even","1","508908","505473","506695","5228","171426","506700","478717","5239","163765","510914","511707","507704","78662","510914","NA","SternbergTask","46","80924","62","yes","1024"
"74.6031746032","74.6031746032","1300.80952381","1300.80952381","black","experiment","legacy","legacy","legacy","0","uniform","1","undefined","1","right","62","62","62","0","0","62","62","0","0","62","62","62","0","62","0","10/25/20 15:32:00","The main experiment item","yes","SternbergTask.osexp","C:\Users\Jennifer Wright\Desktop\PSYC5613\STERNBERGTASK","no","mono","no","18","no","white","no","yes","768","legacy","50","11","C:/Users/Jennifer Wright/Desktop/PSYC5613/STERNBERGTASK/hw-subject-2.csv","legacy","8 4 3 9","Lentiform Loewenfeld","3.3.3","0","n","0","right","right","right","right","NA","1027","73421","7660","1027","NA","2","legacy","4","1024","2","48000","-16","experiment","2","even","5","515226","511773","513011","5228","171426","513017","478717","5239","163765","517231","518261","514022","78662","517230","NA","SternbergTask","47","81951","63","yes","1024"
"75","75","1291.5625","1291.5625","black","experiment","legacy","legacy","legacy","0","uniform","1","undefined","1","right","63","63","63","0","0","63","63","0","0","63","63","63","0","63","0","10/25/20 15:32:00","The main experiment item","yes","SternbergTask.osexp","C:\Users\Jennifer Wright\Desktop\PSYC5613\STERNBERGTASK","no","mono","no","18","no","white","no","yes","768","legacy","51","11","C:/Users/Jennifer Wright/Desktop/PSYC5613/STERNBERGTASK/hw-subject-2.csv","legacy","9","Lentiform Loewenfeld","3.3.3","0","n","0","right","right","right","right","NA","709","73421","7660","709","NA","2","legacy","1","1024","2","48000","-16","experiment","2","even","6","521777","518345","519562","5228","171426","519567","478717","5239","163765","523782","524495","520573","78662","523781","NA","SternbergTask","48","82660","64","yes","1024"
"75.3846153846","75.3846153846","1293.76923077","1293.76923077","black","experiment","legacy","legacy","legacy","0","uniform","1","undefined","1","right","64","64","64","0","0","64","64","0","0","64","64","64","0","64","0","10/25/20 15:32:00","The main experiment item","yes","SternbergTask.osexp","C:\Users\Jennifer Wright\Desktop\PSYC5613\STERNBERGTASK","no","mono","no","18","no","white","no","yes","768","legacy","52","11","C:/Users/Jennifer Wright/Desktop/PSYC5613/STERNBERGTASK/hw-subject-2.csv","legacy","1 4 9 2 5","Lentiform Loewenfeld","3.3.3","0","n","0","right","right","right","right","NA","1435","73421","7660","1435","NA","2","legacy","5","1024","2","48000","-16","experiment","2","even","7","528013","524570","525799","5228","171426","525805","478717","5239","163765","530019","531457","526809","78662","530019","NA","SternbergTask","49","84095","65","yes","1024"
"75.7575757576","75.7575757576","1295.68181818","1295.68181818","black","experiment","legacy","legacy","legacy","0","uniform","1","undefined","1","right","65","65","65","0","0","65","65","0","0","65","65","65","0","65","0","10/25/20 15:32:00","The main experiment item","yes","SternbergTask.osexp","C:\Users\Jennifer Wright\Desktop\PSYC5613\STERNBERGTASK","no","mono","no","18","no","white","no","yes","768","legacy","53","11","C:/Users/Jennifer Wright/Desktop/PSYC5613/STERNBERGTASK/hw-subject-2.csv","legacy","3 9 1","Lentiform Loewenfeld","3.3.3","0","n","0","right","right","right","right","NA","1420","73421","7660","1420","NA","2","legacy","3","1024","2","48000","-16","experiment","2","even","7","534959","531522","532744","5228","171426","532749","478717","5239","163765","536964","538387","533754","78662","536964","NA","SternbergTask","50","85515","66","yes","1024"
"76.1194029851","76.1194029851","1304.91044776","1304.91044776","black","experiment","legacy","legacy","legacy","0","uniform","1","undefined","1","right","66","66","66","0","0","66","66","0","0","66","66","66","0","66","0","10/25/20 15:32:00","The main experiment item","yes","SternbergTask.osexp","C:\Users\Jennifer Wright\Desktop\PSYC5613\STERNBERGTASK","no","mono","no","18","no","white","no","yes","768","legacy","54","11","C:/Users/Jennifer Wright/Desktop/PSYC5613/STERNBERGTASK/hw-subject-2.csv","legacy","7 9","Lentiform Loewenfeld","3.3.3","0","n","0","right","right","right","right","NA","1914","73421","7660","1914","NA","2","legacy","2","1024","2","48000","-16","experiment","2","even","1","541883","538451","539669","5228","171426","539674","478717","5239","163765","543887","545804","540678","78662","543887","NA","SternbergTask","51","87429","67","yes","1024"
"76.4705882353","76.4705882353","1296.30882353","1296.30882353","black","experiment","legacy","legacy","legacy","0","uniform","1","undefined","1","right","67","67","67","0","0","67","67","0","0","67","67","67","0","67","0","10/25/20 15:32:00","The main experiment item","yes","SternbergTask.osexp","C:\Users\Jennifer Wright\Desktop\PSYC5613\STERNBERGTASK","no","mono","no","18","no","white","no","yes","768","legacy","55","11","C:/Users/Jennifer Wright/Desktop/PSYC5613/STERNBERGTASK/hw-subject-2.csv","legacy","5","Lentiform Loewenfeld","3.3.3","0","n","0","right","right","right","right","NA","720","73421","7660","720","NA","2","legacy","1","1024","2","48000","-16","experiment","2","even","8","549305","545868","547092","5228","171426","547097","478717","5239","163765","551309","552032","548101","78662","551309","NA","SternbergTask","52","88149","68","yes","1024"
"76.8115942029","76.8115942029","1298.73913043","1298.73913043","black","experiment","legacy","legacy","legacy","0","uniform","1","undefined","1","left","68","68","68","0","0","68","68","0","0","68","68","68","0","68","0","10/25/20 15:32:00","The main experiment item","yes","SternbergTask.osexp","C:\Users\Jennifer Wright\Desktop\PSYC5613\STERNBERGTASK","no","mono","no","18","no","white","no","yes","768","legacy","56","11","C:/Users/Jennifer Wright/Desktop/PSYC5613/STERNBERGTASK/hw-subject-2.csv","legacy","8 5 4 7 3 1","Lentiform Loewenfeld","3.3.3","2","y","0","left","right","right","left","NA","1464","73421","7660","1464","NA","2","legacy","6","1024","2","48000","-16","experiment","2","even","5","555550","552100","553335","5228","171426","553341","478717","5239","163765","557556","559023","554345","78662","557556","NA","SternbergTask","53","89613","69","yes","1024"
"75.7142857143","75.7142857143","1301.14285714","1301.14285714","black","experiment","legacy","legacy","legacy","0","uniform","0","undefined","0","left","69","69","69","0","0","69","69","0","0","69","69","69","0","69","0","10/25/20 15:32:00","The main experiment item","yes","SternbergTask.osexp","C:\Users\Jennifer Wright\Desktop\PSYC5613\STERNBERGTASK","no","mono","no","18","no","white","no","yes","768","legacy","57","11","C:/Users/Jennifer Wright/Desktop/PSYC5613/STERNBERGTASK/hw-subject-2.csv","legacy","4 7 6 8 2 3","Lentiform Loewenfeld","3.3.3","6","y","0","right","right","right","right","NA","1467","73421","7660","1467","NA","2","legacy","6","1024","2","48000","-16","experiment","2","even","3","562541","559086","560326","5228","171426","560331","478717","5239","163765","564547","566017","561336","78662","564546","NA","SternbergTask","53","91080","70","yes","1024"
"76.0563380282","76.0563380282","1302.30985915","1302.30985915","black","experiment","legacy","legacy","legacy","0","uniform","1","undefined","1","right","70","70","70","0","0","70","70","0","0","70","70","70","0","70","0","10/25/20 15:32:00","The main experiment item","yes","SternbergTask.osexp","C:\Users\Jennifer Wright\Desktop\PSYC5613\STERNBERGTASK","no","mono","no","18","no","white","no","yes","768","legacy","58","11","C:/Users/Jennifer Wright/Desktop/PSYC5613/STERNBERGTASK/hw-subject-2.csv","legacy","9 8 2 7 4","Lentiform Loewenfeld","3.3.3","0","n","0","right","right","right","right","NA","1384","73421","7660","1384","NA","2","legacy","5","1024","2","48000","-16","experiment","2","even","5","569516","559086","567302","5228","171426","567307","566082","5239","163765","571520","572907","568311","78662","571520","NA","SternbergTask","54","92464","71","yes","1024"
"76.3888888889","76.3888888889","1296.51388889","1296.51388889","black","experiment","legacy","legacy","legacy","0","uniform","1","undefined","1","left","71","71","71","0","0","71","71","0","0","71","71","71","0","71","0","10/25/20 15:32:00","The main experiment item","yes","SternbergTask.osexp","C:\Users\Jennifer Wright\Desktop\PSYC5613\STERNBERGTASK","no","mono","no","18","no","white","no","yes","768","legacy","59","11","C:/Users/Jennifer Wright/Desktop/PSYC5613/STERNBERGTASK/hw-subject-2.csv","legacy","8 3","Lentiform Loewenfeld","3.3.3","2","y","0","left","right","right","left","NA","885","73421","7660","885","NA","2","legacy","2","1024","2","48000","-16","experiment","2","even","3","576414","572978","574200","5228","171426","574205","566082","5239","163765","578419","579307","575210","78662","578418","NA","SternbergTask","55","93349","72","yes","1024"
"76.7123287671","76.7123287671","1289.05479452","1289.05479452","black","experiment","legacy","legacy","legacy","0","uniform","1","undefined","1","left","72","72","72","0","0","72","72","0","0","72","72","72","0","72","0","10/25/20 15:32:00","The main experiment item","yes","SternbergTask.osexp","C:\Users\Jennifer Wright\Desktop\PSYC5613\STERNBERGTASK","no","mono","no","18","no","white","no","yes","768","legacy","60","11","C:/Users/Jennifer Wright/Desktop/PSYC5613/STERNBERGTASK/hw-subject-2.csv","legacy","8 7 3","Lentiform Loewenfeld","3.3.3","1","y","0","left","right","right","left","NA","752","73421","7660","752","NA","2","legacy","3","1024","2","48000","-16","experiment","2","even","8","582801","579366","580588","5228","171426","580593","566082","5239","163765","584807","585562","581597","78662","584807","NA","SternbergTask","56","94101","73","yes","1024"
"77.027027027","77.027027027","1284.66216216","1284.66216216","black","experiment","legacy","legacy","legacy","0","uniform","1","undefined","1","left","73","73","73","0","0","73","73","0","0","73","73","73","0","73","0","10/25/20 15:32:00","The main experiment item","yes","SternbergTask.osexp","C:\Users\Jennifer Wright\Desktop\PSYC5613\STERNBERGTASK","no","mono","no","18","no","white","no","yes","768","legacy","61","11","C:/Users/Jennifer Wright/Desktop/PSYC5613/STERNBERGTASK/hw-subject-2.csv","legacy","5 7 8 2 3 8","Lentiform Loewenfeld","3.3.3","5","y","0","left","right","right","left","NA","964","73421","7660","964","NA","2","legacy","6","1024","2","48000","-16","experiment","2","even","3","589064","585631","586848","5228","171426","586855","566082","5239","163765","591068","592035","587859","78662","591068","NA","SternbergTask","57","95065","74","yes","1024"
"77.3333333333","77.3333333333","1280.04","1280.04","black","experiment","legacy","legacy","legacy","0","uniform","1","undefined","1","left","74","74","74","0","0","74","74","0","0","74","74","74","0","74","0","10/25/20 15:32:00","The main experiment item","yes","SternbergTask.osexp","C:\Users\Jennifer Wright\Desktop\PSYC5613\STERNBERGTASK","no","mono","no","18","no","white","no","yes","768","legacy","62","11","C:/Users/Jennifer Wright/Desktop/PSYC5613/STERNBERGTASK/hw-subject-2.csv","legacy","6 1 2","Lentiform Loewenfeld","3.3.3","3","y","0","left","right","right","left","NA","938","73421","7660","938","NA","2","legacy","3","1024","2","48000","-16","experiment","2","even","2","595539","592109","593326","5228","171426","593331","566082","5239","163765","597545","598486","594335","78662","597545","NA","SternbergTask","58","96003","75","yes","1024"
"77.6315789474","77.6315789474","1277.39473684","1277.39473684","black","experiment","legacy","legacy","legacy","0","uniform","1","undefined","1","right","75","75","75","0","0","75","75","0","0","75","75","75","0","75","0","10/25/20 15:32:00","The main experiment item","yes","SternbergTask.osexp","C:\Users\Jennifer Wright\Desktop\PSYC5613\STERNBERGTASK","no","mono","no","18","no","white","no","yes","768","legacy","63","11","C:/Users/Jennifer Wright/Desktop/PSYC5613/STERNBERGTASK/hw-subject-2.csv","legacy","6 9 4 5 2","Lentiform Loewenfeld","3.3.3","0","n","0","right","right","right","right","NA","1079","73421","7660","1079","NA","2","legacy","5","1024","2","48000","-16","experiment","2","even","1","601953","598513","599739","5228","171426","599745","566082","5239","163765","603957","605039","600749","78662","603957","NA","SternbergTask","59","97082","76","yes","1024"
"77.9220779221","77.9220779221","1282.37662338","1282.37662338","black","experiment","legacy","legacy","legacy","0","uniform","1","undefined","1","right","76","76","76","0","0","76","76","0","0","76","76","76","0","76","0","10/25/20 15:32:00","The main experiment item","yes","SternbergTask.osexp","C:\Users\Jennifer Wright\Desktop\PSYC5613\STERNBERGTASK","no","mono","no","18","no","white","no","yes","768","legacy","64","11","C:/Users/Jennifer Wright/Desktop/PSYC5613/STERNBERGTASK/hw-subject-2.csv","legacy","5 3 2 6 9 8","Lentiform Loewenfeld","3.3.3","0","n","0","right","right","right","right","NA","1661","73421","7660","1661","NA","2","legacy","6","1024","2","48000","-16","experiment","2","even","4","608497","605060","606283","5228","171426","606288","566082","5239","163765","610503","612168","607292","78662","610502","NA","SternbergTask","60","98743","77","yes","1024"
"78.2051282051","78.2051282051","1279.62820513","1279.62820513","black","experiment","legacy","legacy","legacy","0","uniform","1","undefined","1","left","77","77","77","0","0","77","77","0","0","77","77","77","0","77","0","10/25/20 15:32:00","The main experiment item","yes","SternbergTask.osexp","C:\Users\Jennifer Wright\Desktop\PSYC5613\STERNBERGTASK","no","mono","no","18","no","white","no","yes","768","legacy","65","11","C:/Users/Jennifer Wright/Desktop/PSYC5613/STERNBERGTASK/hw-subject-2.csv","legacy","4","Lentiform Loewenfeld","3.3.3","1","y","0","left","right","right","left","NA","1068","73421","7660","1068","NA","2","legacy","1","1024","2","48000","-16","experiment","2","even","4","615656","612212","613441","5228","171426","613446","566082","5239","163765","617661","618733","614450","78662","617660","NA","SternbergTask","61","99811","78","yes","1024"
"78.4810126582","78.4810126582","1280.86075949","1280.86075949","black","experiment","legacy","legacy","legacy","0","uniform","1","undefined","1","right","78","78","78","0","0","78","78","0","0","78","78","78","0","78","0","10/25/20 15:32:00","The main experiment item","yes","SternbergTask.osexp","C:\Users\Jennifer Wright\Desktop\PSYC5613\STERNBERGTASK","no","mono","no","18","no","white","no","yes","768","legacy","66","11","C:/Users/Jennifer Wright/Desktop/PSYC5613/STERNBERGTASK/hw-subject-2.csv","legacy","2 8 7 9 5 3","Lentiform Loewenfeld","3.3.3","0","n","0","right","right","right","right","NA","1377","73421","7660","1377","NA","2","legacy","6","1024","2","48000","-16","experiment","2","even","6","622225","618760","620009","5228","171426","620015","566082","5239","163765","624230","625611","621020","78662","624229","NA","SternbergTask","62","101188","79","yes","1024"
"78.75","78.75","1277.625","1277.625","black","experiment","legacy","legacy","legacy","0","uniform","1","undefined","1","right","79","79","79","0","0","79","79","0","0","79","79","79","0","79","0","10/25/20 15:32:00","The main experiment item","yes","SternbergTask.osexp","C:\Users\Jennifer Wright\Desktop\PSYC5613\STERNBERGTASK","no","mono","no","18","no","white","no","yes","768","legacy","67","11","C:/Users/Jennifer Wright/Desktop/PSYC5613/STERNBERGTASK/hw-subject-2.csv","legacy","1 4 3 6 5","Lentiform Loewenfeld","3.3.3","0","n","0","right","right","right","right","NA","1022","73421","7660","1022","NA","2","legacy","5","1024","2","48000","-16","experiment","2","even","8","629130","625684","626916","5228","171426","626920","566082","5239","163765","631136","632161","627925","78662","631136","NA","SternbergTask","63","102210","80","yes","1024"
"79.012345679","79.012345679","1267.75308642","1267.75308642","black","experiment","legacy","legacy","legacy","0","uniform","1","undefined","1","left","80","80","80","0","0","80","80","0","0","80","80","80","0","80","0","10/25/20 15:32:00","The main experiment item","yes","SternbergTask.osexp","C:\Users\Jennifer Wright\Desktop\PSYC5613\STERNBERGTASK","no","mono","no","18","no","white","no","yes","768","legacy","68","11","C:/Users/Jennifer Wright/Desktop/PSYC5613/STERNBERGTASK/hw-subject-2.csv","legacy","7","Lentiform Loewenfeld","3.3.3","1","y","0","left","right","right","left","NA","478","73421","7660","478","NA","2","legacy","1","1024","2","48000","-16","experiment","2","even","7","635664","632216","633449","5228","171426","633455","566082","5239","163765","637669","638150","634459","78662","637668","NA","SternbergTask","64","102688","81","yes","1024"
"79.2682926829","79.2682926829","1268.24390244","1268.24390244","black","experiment","legacy","legacy","legacy","0","uniform","1","undefined","1","left","81","81","81","0","0","81","81","0","0","81","81","81","0","81","0","10/25/20 15:32:00","The main experiment item","yes","SternbergTask.osexp","C:\Users\Jennifer Wright\Desktop\PSYC5613\STERNBERGTASK","no","mono","no","18","no","white","no","yes","768","legacy","69","11","C:/Users/Jennifer Wright/Desktop/PSYC5613/STERNBERGTASK/hw-subject-2.csv","legacy","6 8 9 3 4 9","Lentiform Loewenfeld","3.3.3","5","y","0","left","right","right","left","NA","1308","73421","7660","1308","NA","2","legacy","6","1024","2","48000","-16","experiment","2","even","4","641657","638204","639442","5228","171426","639448","566082","5239","163765","643663","644975","640453","78662","643663","NA","SternbergTask","65","103996","82","yes","1024"
"78.313253012","78.313253012","1272.01204819","1272.01204819","black","experiment","legacy","legacy","legacy","0","uniform","0","undefined","0","left","82","82","82","0","0","82","82","0","0","82","82","82","0","82","0","10/25/20 15:32:00","The main experiment item","yes","SternbergTask.osexp","C:\Users\Jennifer Wright\Desktop\PSYC5613\STERNBERGTASK","no","mono","no","18","no","white","no","yes","768","legacy","70","11","C:/Users/Jennifer Wright/Desktop/PSYC5613/STERNBERGTASK/hw-subject-2.csv","legacy","7 8 4 6 9 5","Lentiform Loewenfeld","3.3.3","4","y","0","right","right","right","right","NA","1581","73421","7660","1581","NA","2","legacy","6","1024","2","48000","-16","experiment","2","even","6","648485","645034","646270","5228","171426","646276","566082","5239","163765","650490","652075","647280","78662","650489","NA","SternbergTask","65","105577","83","yes","1024"
"78.5714285714","78.5714285714","1271.57142857","1271.57142857","black","experiment","legacy","legacy","legacy","0","uniform","1","undefined","1","right","83","83","83","0","0","83","83","0","0","83","83","83","0","83","0","10/25/20 15:32:00","The main experiment item","yes","SternbergTask.osexp","C:\Users\Jennifer Wright\Desktop\PSYC5613\STERNBERGTASK","no","mono","no","18","no","white","no","yes","768","legacy","71","11","C:/Users/Jennifer Wright/Desktop/PSYC5613/STERNBERGTASK/hw-subject-2.csv","legacy","2 7 5","Lentiform Loewenfeld","3.3.3","0","n","0","right","right","right","right","NA","1235","73421","7660","1235","NA","2","legacy","3","1024","2","48000","-16","experiment","2","even","8","655585","645034","653370","5228","171426","653376","652137","5239","163765","657591","658829","654380","78662","657590","NA","SternbergTask","66","106812","84","yes","1024"
"78.8235294118","78.8235294118","1270","1270","black","experiment","legacy","legacy","legacy","0","uniform","1","undefined","1","right","84","84","84","0","0","84","84","0","0","84","84","84","0","84","0","10/25/20 15:32:00","The main experiment item","yes","SternbergTask.osexp","C:\Users\Jennifer Wright\Desktop\PSYC5613\STERNBERGTASK","no","mono","no","18","no","white","no","yes","768","legacy","72","11","C:/Users/Jennifer Wright/Desktop/PSYC5613/STERNBERGTASK/hw-subject-2.csv","legacy","7 4 2 8 1 9","Lentiform Loewenfeld","3.3.3","0","n","0","right","right","right","right","NA","1138","73421","7660","1138","NA","2","legacy","6","1024","2","48000","-16","experiment","2","even","5","662336","658882","660121","5228","171426","660126","652137","5239","163765","664341","665483","661132","78662","664340","NA","SternbergTask","67","107950","85","yes","1024"
"79.0697674419","79.0697674419","1263.1744186","1263.1744186","black","experiment","legacy","legacy","legacy","0","uniform","1","undefined","1","left","85","85","85","0","0","85","85","0","0","85","85","85","0","85","0","10/25/20 15:32:00","The main experiment item","yes","SternbergTask.osexp","C:\Users\Jennifer Wright\Desktop\PSYC5613\STERNBERGTASK","no","mono","no","18","no","white","no","yes","768","legacy","73","11","C:/Users/Jennifer Wright/Desktop/PSYC5613/STERNBERGTASK/hw-subject-2.csv","legacy","3 5 9 6 2 4","Lentiform Loewenfeld","3.3.3","1","y","0","left","right","right","left","NA","683","73421","7660","683","NA","2","legacy","6","1024","2","48000","-16","experiment","2","even","3","668966","665509","666750","5228","171426","666756","652137","5239","163765","670972","671658","667761","78662","670972","NA","SternbergTask","68","108633","86","yes","1024"
"79.3103448276","79.3103448276","1263.51724138","1263.51724138","black","experiment","legacy","legacy","legacy","0","uniform","1","undefined","1","right","86","86","86","0","0","86","86","0","0","86","86","86","0","86","0","10/25/20 15:32:00","The main experiment item","yes","SternbergTask.osexp","C:\Users\Jennifer Wright\Desktop\PSYC5613\STERNBERGTASK","no","mono","no","18","no","white","no","yes","768","legacy","74","11","C:/Users/Jennifer Wright/Desktop/PSYC5613/STERNBERGTASK/hw-subject-2.csv","legacy","1 4 9 3","Lentiform Loewenfeld","3.3.3","0","n","0","right","right","right","right","NA","1293","73421","7660","1293","NA","2","legacy","4","1024","2","48000","-16","experiment","2","even","5","675165","671713","672949","5228","171426","672955","652137","5239","163765","677169","678466","673959","78662","677169","NA","SternbergTask","69","109926","87","yes","1024"
"79.5454545455","79.5454545455","1261.81818182","1261.81818182","black","experiment","legacy","legacy","legacy","0","uniform","1","undefined","1","right","87","87","87","0","0","87","87","0","0","87","87","87","0","87","0","10/25/20 15:32:00","The main experiment item","yes","SternbergTask.osexp","C:\Users\Jennifer Wright\Desktop\PSYC5613\STERNBERGTASK","no","mono","no","18","no","white","no","yes","768","legacy","75","11","C:/Users/Jennifer Wright/Desktop/PSYC5613/STERNBERGTASK/hw-subject-2.csv","legacy","4 1","Lentiform Loewenfeld","3.3.3","0","n","0","right","right","right","right","NA","1114","73421","7660","1114","NA","2","legacy","2","1024","2","48000","-16","experiment","2","even","6","681968","678521","679754","5228","171426","679760","652137","5239","163765","683973","685091","680764","78662","683973","NA","SternbergTask","70","111040","88","yes","1024"
"79.7752808989","79.7752808989","1262.59550562","1262.59550562","black","experiment","legacy","legacy","legacy","0","uniform","1","undefined","1","left","88","88","88","0","0","88","88","0","0","88","88","88","0","88","0","10/25/20 15:32:00","The main experiment item","yes","SternbergTask.osexp","C:\Users\Jennifer Wright\Desktop\PSYC5613\STERNBERGTASK","no","mono","no","18","no","white","no","yes","768","legacy","76","11","C:/Users/Jennifer Wright/Desktop/PSYC5613/STERNBERGTASK/hw-subject-2.csv","legacy","8 5 1 3 9","Lentiform Loewenfeld","3.3.3","4","y","0","left","right","right","left","NA","1331","73421","7660","1331","NA","2","legacy","5","1024","2","48000","-16","experiment","2","even","3","688604","685152","686389","5228","171426","686395","652137","5239","163765","690610","691944","687399","78662","690610","NA","SternbergTask","71","112371","89","yes","1024"
"80","80","1261.67777778","1261.67777778","black","experiment","legacy","legacy","legacy","0","uniform","1","undefined","1","left","89","89","89","0","0","89","89","0","0","89","89","89","0","89","0","10/25/20 15:32:00","The main experiment item","yes","SternbergTask.osexp","C:\Users\Jennifer Wright\Desktop\PSYC5613\STERNBERGTASK","no","mono","no","18","no","white","no","yes","768","legacy","77","11","C:/Users/Jennifer Wright/Desktop/PSYC5613/STERNBERGTASK/hw-subject-2.csv","legacy","9 4 2","Lentiform Loewenfeld","3.3.3","1","y","0","left","right","right","left","NA","1180","73421","7660","1180","NA","2","legacy","3","1024","2","48000","-16","experiment","2","even","9","695459","692005","693244","5228","171426","693249","652137","5239","163765","697465","698649","694255","78662","697465","NA","SternbergTask","72","113551","90","yes","1024"
"80.2197802198","80.2197802198","1260.26373626","1260.26373626","black","experiment","legacy","legacy","legacy","0","uniform","1","undefined","1","right","90","90","90","0","0","90","90","0","0","90","90","90","0","90","0","10/25/20 15:32:00","The main experiment item","yes","SternbergTask.osexp","C:\Users\Jennifer Wright\Desktop\PSYC5613\STERNBERGTASK","no","mono","no","18","no","white","no","yes","768","legacy","78","11","C:/Users/Jennifer Wright/Desktop/PSYC5613/STERNBERGTASK/hw-subject-2.csv","legacy","8 2 1 4 5 9","Lentiform Loewenfeld","3.3.3","0","n","0","right","right","right","right","NA","1133","73421","7660","1133","NA","2","legacy","6","1024","2","48000","-16","experiment","2","even","7","702178","698712","699963","5228","171426","699969","652137","5239","163765","704184","705321","700973","78662","704184","NA","SternbergTask","73","114684","91","yes","1024"
"80.4347826087","80.4347826087","1259.59782609","1259.59782609","black","experiment","legacy","legacy","legacy","0","uniform","1","undefined","1","right","91","91","91","0","0","91","91","0","0","91","91","91","0","91","0","10/25/20 15:32:00","The main experiment item","yes","SternbergTask.osexp","C:\Users\Jennifer Wright\Desktop\PSYC5613\STERNBERGTASK","no","mono","no","18","no","white","no","yes","768","legacy","79","11","C:/Users/Jennifer Wright/Desktop/PSYC5613/STERNBERGTASK/hw-subject-2.csv","legacy","3 4 9 6 7 8","Lentiform Loewenfeld","3.3.3","0","n","0","right","right","right","right","NA","1199","73421","7660","1199","NA","2","legacy","6","1024","2","48000","-16","experiment","2","even","2","708863","705416","706649","5228","171426","706654","652137","5239","163765","710869","712072","707658","78662","710869","NA","SternbergTask","74","115883","92","yes","1024"
"80.6451612903","80.6451612903","1254.20430108","1254.20430108","black","experiment","legacy","legacy","legacy","0","uniform","1","undefined","1","left","92","92","92","0","0","92","92","0","0","92","92","92","0","92","0","10/25/20 15:32:00","The main experiment item","yes","SternbergTask.osexp","C:\Users\Jennifer Wright\Desktop\PSYC5613\STERNBERGTASK","no","mono","no","18","no","white","no","yes","768","legacy","80","11","C:/Users/Jennifer Wright/Desktop/PSYC5613/STERNBERGTASK/hw-subject-2.csv","legacy","8 5 3 7 4 6","Lentiform Loewenfeld","3.3.3","6","y","0","left","right","right","left","NA","758","73421","7660","758","NA","2","legacy","6","1024","2","48000","-16","experiment","2","even","6","715562","712109","713347","5228","171426","713353","652137","5239","163765","717567","718329","714358","78662","717566","NA","SternbergTask","75","116641","93","yes","1024"
"80.8510638298","80.8510638298","1249.81914894","1249.81914894","black","experiment","legacy","legacy","legacy","0","uniform","1","undefined","1","left","93","93","93","0","0","93","93","0","0","93","93","93","0","93","0","10/25/20 15:32:00","The main experiment item","yes","SternbergTask.osexp","C:\Users\Jennifer Wright\Desktop\PSYC5613\STERNBERGTASK","no","mono","no","18","no","white","no","yes","768","legacy","81","11","C:/Users/Jennifer Wright/Desktop/PSYC5613/STERNBERGTASK/hw-subject-2.csv","legacy","6 9 7 4 5 1","Lentiform Loewenfeld","3.3.3","2","y","0","left","right","right","left","NA","842","73421","7660","842","NA","2","legacy","6","1024","2","48000","-16","experiment","2","even","9","721838","718384","719623","5228","171426","719629","652137","5239","163765","723844","724690","720634","78662","723843","NA","SternbergTask","76","117483","94","yes","1024"
"81.0526315789","81.0526315789","1246.11578947","1246.11578947","black","experiment","legacy","legacy","legacy","0","uniform","1","undefined","1","left","94","94","94","0","0","94","94","0","0","94","94","94","0","94","0","10/25/20 15:32:00","The main experiment item","yes","SternbergTask.osexp","C:\Users\Jennifer Wright\Desktop\PSYC5613\STERNBERGTASK","no","mono","no","18","no","white","no","yes","768","legacy","82","11","C:/Users/Jennifer Wright/Desktop/PSYC5613/STERNBERGTASK/hw-subject-2.csv","legacy","4 1 8 7 5","Lentiform Loewenfeld","3.3.3","3","y","0","left","right","right","left","NA","898","73421","7660","898","NA","2","legacy","5","1024","2","48000","-16","experiment","2","even","8","728204","724749","725988","5228","171426","725995","652137","5239","163765","730210","731111","727000","78662","730209","NA","SternbergTask","77","118381","95","yes","1024"
"81.25","81.25","1243.13541667","1243.13541667","black","experiment","legacy","legacy","legacy","0","uniform","1","undefined","1","left","95","95","95","0","0","95","95","0","0","95","95","95","0","95","0","10/25/20 15:32:00","The main experiment item","yes","SternbergTask.osexp","C:\Users\Jennifer Wright\Desktop\PSYC5613\STERNBERGTASK","no","mono","no","18","no","white","no","yes","768","legacy","83","11","C:/Users/Jennifer Wright/Desktop/PSYC5613/STERNBERGTASK/hw-subject-2.csv","legacy","7 2 3","Lentiform Loewenfeld","3.3.3","3","y","0","left","right","right","left","NA","960","73421","7660","960","NA","2","legacy","3","1024","2","48000","-16","experiment","2","even","3","734617","731170","732402","5228","171426","732408","652137","5239","163765","736623","737587","733412","78662","736623","NA","SternbergTask","78","119341","96","yes","1024"
"81.4432989691","81.4432989691","1247.65979381","1247.65979381","black","experiment","legacy","legacy","legacy","0","uniform","1","undefined","1","left","96","96","96","0","0","96","96","0","0","96","96","96","0","96","0","10/25/20 15:32:00","The main experiment item","yes","SternbergTask.osexp","C:\Users\Jennifer Wright\Desktop\PSYC5613\STERNBERGTASK","no","mono","no","18","no","white","no","yes","768","legacy","84","11","C:/Users/Jennifer Wright/Desktop/PSYC5613/STERNBERGTASK/hw-subject-2.csv","legacy","6 5","Lentiform Loewenfeld","3.3.3","2","y","0","left","right","right","left","NA","1682","73421","7660","1682","NA","2","legacy","2","1024","2","48000","-16","experiment","2","even","5","741092","737646","738878","5228","171426","738883","652137","5239","163765","743098","744784","739888","78662","743098","NA","SternbergTask","79","121023","97","yes","1024"
"81.6326530612","81.6326530612","1243","1243","black","experiment","legacy","legacy","legacy","0","uniform","1","undefined","1","right","97","97","97","0","0","97","97","0","0","97","97","97","0","97","0","10/25/20 15:32:00","The main experiment item","yes","SternbergTask.osexp","C:\Users\Jennifer Wright\Desktop\PSYC5613\STERNBERGTASK","no","mono","no","18","no","white","no","yes","768","legacy","85","11","C:/Users/Jennifer Wright/Desktop/PSYC5613/STERNBERGTASK/hw-subject-2.csv","legacy","1","Lentiform Loewenfeld","3.3.3","0","n","0","right","right","right","right","NA","791","73421","7660","791","NA","2","legacy","1","1024","2","48000","-16","experiment","2","even","7","748292","744841","746078","5228","171426","746083","652137","5239","163765","750297","751091","747088","78662","750297","NA","SternbergTask","80","121814","98","yes","1024"
"81.8181818182","81.8181818182","1238.75757576","1238.75757576","black","experiment","legacy","legacy","legacy","0","uniform","1","undefined","1","right","98","98","98","0","0","98","98","0","0","98","98","98","0","98","0","10/25/20 15:32:00","The main experiment item","yes","SternbergTask.osexp","C:\Users\Jennifer Wright\Desktop\PSYC5613\STERNBERGTASK","no","mono","no","18","no","white","no","yes","768","legacy","86","11","C:/Users/Jennifer Wright/Desktop/PSYC5613/STERNBERGTASK/hw-subject-2.csv","legacy","7 1 5 6 3","Lentiform Loewenfeld","3.3.3","0","n","0","right","right","right","right","NA","823","73421","7660","823","NA","2","legacy","5","1024","2","48000","-16","experiment","2","even","8","754594","751146","752378","5228","171426","752384","652137","5239","163765","756599","757426","753388","78662","756599","NA","SternbergTask","81","122637","99","yes","1024"
"82","82","1234.31","1234.31","black","experiment","legacy","legacy","legacy","0","uniform","1","undefined","1","left","99","99","99","0","0","99","99","0","0","99","99","99","0","99","0","10/25/20 15:32:00","The main experiment item","yes","SternbergTask.osexp","C:\Users\Jennifer Wright\Desktop\PSYC5613\STERNBERGTASK","no","mono","no","18","no","white","no","yes","768","legacy","87","11","C:/Users/Jennifer Wright/Desktop/PSYC5613/STERNBERGTASK/hw-subject-2.csv","legacy","3 5 4 7","Lentiform Loewenfeld","3.3.3","1","y","0","left","right","right","left","NA","794","73421","7660","794","NA","2","legacy","4","1024","2","48000","-16","experiment","2","even","3","760940","757483","758726","5228","171426","758731","652137","5239","163765","762946","763743","759736","78662","762945","NA","SternbergTask","82","123431","100","yes","1024"
"82.1782178218","82.1782178218","1231.03960396","1231.03960396","black","experiment","legacy","legacy","legacy","0","uniform","1","undefined","1","right","100","100","100","0","0","100","100","0","0","100","100","100","0","100","0","10/25/20 15:32:00","The main experiment item","yes","SternbergTask.osexp","C:\Users\Jennifer Wright\Desktop\PSYC5613\STERNBERGTASK","no","mono","no","18","no","white","no","yes","768","legacy","88","11","C:/Users/Jennifer Wright/Desktop/PSYC5613/STERNBERGTASK/hw-subject-2.csv","legacy","2 6 4 3 9","Lentiform Loewenfeld","3.3.3","0","n","0","right","right","right","right","NA","904","73421","7660","904","NA","2","legacy","5","1024","2","48000","-16","experiment","2","even","1","767260","763804","765046","5228","171426","765051","652137","5239","163765","769266","770174","766056","78662","769265","NA","SternbergTask","83","124335","101","yes","1024"
"82.3529411765","82.3529411765","1227.74509804","1227.74509804","black","experiment","legacy","legacy","legacy","0","uniform","1","undefined","1","left","101","101","101","0","0","101","101","0","0","101","101","101","0","101","0","10/25/20 15:32:00","The main experiment item","yes","SternbergTask.osexp","C:\Users\Jennifer Wright\Desktop\PSYC5613\STERNBERGTASK","no","mono","no","18","no","white","no","yes","768","legacy","89","11","C:/Users/Jennifer Wright/Desktop/PSYC5613/STERNBERGTASK/hw-subject-2.csv","legacy","7 6","Lentiform Loewenfeld","3.3.3","2","y","0","left","right","right","left","NA","895","73421","7660","895","NA","2","legacy","2","1024","2","48000","-16","experiment","2","even","6","773674","770224","771458","5228","171426","771463","652137","5239","163765","775680","776579","772469","78662","775680","NA","SternbergTask","84","125230","102","yes","1024"
"82.5242718447","82.5242718447","1227.85436893","1227.85436893","black","experiment","legacy","legacy","legacy","0","uniform","1","undefined","1","right","102","102","102","0","0","102","102","0","0","102","102","102","0","102","0","10/25/20 15:32:00","The main experiment item","yes","SternbergTask.osexp","C:\Users\Jennifer Wright\Desktop\PSYC5613\STERNBERGTASK","no","mono","no","18","no","white","no","yes","768","legacy","90","11","C:/Users/Jennifer Wright/Desktop/PSYC5613/STERNBERGTASK/hw-subject-2.csv","legacy","7 3 2 8","Lentiform Loewenfeld","3.3.3","0","n","0","right","right","right","right","NA","1239","73421","7660","1239","NA","2","legacy","4","1024","2","48000","-16","experiment","2","even","4","780082","776633","777868","5228","171426","777874","652137","5239","163765","782088","783330","778878","78662","782088","NA","SternbergTask","85","126469","103","yes","1024"
"82.6923076923","82.6923076923","1228.60576923","1228.60576923","black","experiment","legacy","legacy","legacy","0","uniform","1","undefined","1","left","103","103","103","0","0","103","103","0","0","103","103","103","0","103","0","10/25/20 15:32:00","The main experiment item","yes","SternbergTask.osexp","C:\Users\Jennifer Wright\Desktop\PSYC5613\STERNBERGTASK","no","mono","no","18","no","white","no","yes","768","legacy","91","11","C:/Users/Jennifer Wright/Desktop/PSYC5613/STERNBERGTASK/hw-subject-2.csv","legacy","8 9 6 1","Lentiform Loewenfeld","3.3.3","2","y","0","left","right","right","left","NA","1306","73421","7660","1306","NA","2","legacy","4","1024","2","48000","-16","experiment","2","even","9","786843","783393","784628","5228","171426","784634","652137","5239","163765","788849","790160","785638","78662","788848","NA","SternbergTask","86","127775","104","yes","1024"
"81.9047619048","81.9047619048","1229.21904762","1229.21904762","black","experiment","legacy","legacy","legacy","0","uniform","0","undefined","0","right","104","104","104","0","0","104","104","0","0","104","104","104","0","104","0","10/25/20 15:32:00","The main experiment item","yes","SternbergTask.osexp","C:\Users\Jennifer Wright\Desktop\PSYC5613\STERNBERGTASK","no","mono","no","18","no","white","no","yes","768","legacy","92","11","C:/Users/Jennifer Wright/Desktop/PSYC5613/STERNBERGTASK/hw-subject-2.csv","legacy","1 6 4 3 9 7","Lentiform Loewenfeld","3.3.3","0","n","0","left","right","right","left","NA","1293","73421","7660","1293","NA","2","legacy","6","1024","2","48000","-16","experiment","2","even","8","793710","790261","791494","5228","171426","791500","652137","5239","163765","795715","797012","792505","78662","795715","NA","SternbergTask","86","129068","105","yes","1024"
"82.0754716981","82.0754716981","1229.76415094","1229.76415094","black","experiment","legacy","legacy","legacy","0","uniform","1","undefined","1","left","105","105","105","0","0","105","105","0","0","105","105","105","0","105","0","10/25/20 15:32:00","The main experiment item","yes","SternbergTask.osexp","C:\Users\Jennifer Wright\Desktop\PSYC5613\STERNBERGTASK","no","mono","no","18","no","white","no","yes","768","legacy","93","11","C:/Users/Jennifer Wright/Desktop/PSYC5613/STERNBERGTASK/hw-subject-2.csv","legacy","8 1 6","Lentiform Loewenfeld","3.3.3","3","y","0","left","right","right","left","NA","1287","73421","7660","1287","NA","2","legacy","3","1024","2","48000","-16","experiment","2","even","6","800521","790261","798306","5228","171426","798313","797070","5239","163765","802527","803818","799317","78662","802526","NA","SternbergTask","87","130355","106","yes","1024"
"82.2429906542","82.2429906542","1229.73831776","1229.73831776","black","experiment","legacy","legacy","legacy","0","uniform","1","undefined","1","right","106","106","106","0","0","106","106","0","0","106","106","106","0","106","0","10/25/20 15:32:00","The main experiment item","yes","SternbergTask.osexp","C:\Users\Jennifer Wright\Desktop\PSYC5613\STERNBERGTASK","no","mono","no","18","no","white","no","yes","768","legacy","94","11","C:/Users/Jennifer Wright/Desktop/PSYC5613/STERNBERGTASK/hw-subject-2.csv","legacy","6 9 5","Lentiform Loewenfeld","3.3.3","0","n","0","right","right","right","right","NA","1227","73421","7660","1227","NA","2","legacy","3","1024","2","48000","-16","experiment","2","even","8","807336","803884","805121","5228","171426","805126","797070","5239","163765","809341","810573","806132","78662","809340","NA","SternbergTask","88","131582","107","yes","1024"
"82.4074074074","82.4074074074","1229.41666667","1229.41666667","black","experiment","legacy","legacy","legacy","0","uniform","1","undefined","1","left","107","107","107","0","0","107","107","0","0","107","107","107","0","107","0","10/25/20 15:32:00","The main experiment item","yes","SternbergTask.osexp","C:\Users\Jennifer Wright\Desktop\PSYC5613\STERNBERGTASK","no","mono","no","18","no","white","no","yes","768","legacy","95","11","C:/Users/Jennifer Wright/Desktop/PSYC5613/STERNBERGTASK/hw-subject-2.csv","legacy","7 8 6 3 1","Lentiform Loewenfeld","3.3.3","5","y","0","left","right","right","left","NA","1195","73421","7660","1195","NA","2","legacy","5","1024","2","48000","-16","experiment","2","even","1","814080","810629","811865","5228","171426","811871","797070","5239","163765","816085","817284","812875","78662","816085","NA","SternbergTask","89","132777","108","yes","1024"
"82.5688073394","82.5688073394","1227.63302752","1227.63302752","black","experiment","legacy","legacy","legacy","0","uniform","1","undefined","1","left","108","108","108","0","0","108","108","0","0","108","108","108","0","108","0","10/25/20 15:32:00","The main experiment item","yes","SternbergTask.osexp","C:\Users\Jennifer Wright\Desktop\PSYC5613\STERNBERGTASK","no","mono","no","18","no","white","no","yes","768","legacy","96","11","C:/Users/Jennifer Wright/Desktop/PSYC5613/STERNBERGTASK/hw-subject-2.csv","legacy","9 5 8 1","Lentiform Loewenfeld","3.3.3","2","y","0","left","right","right","left","NA","1035","73421","7660","1035","NA","2","legacy","4","1024","2","48000","-16","experiment","2","even","5","820793","817338","818578","5228","171426","818584","797070","5239","163765","822797","823836","819588","78662","822797","NA","SternbergTask","90","133812","109","yes","1024"
"82.7272727273","82.7272727273","1225.41818182","1225.41818182","black","experiment","legacy","legacy","legacy","0","uniform","1","undefined","1","right","109","109","109","0","0","109","109","0","0","109","109","109","0","109","0","10/25/20 15:32:00","The main experiment item","yes","SternbergTask.osexp","C:\Users\Jennifer Wright\Desktop\PSYC5613\STERNBERGTASK","no","mono","no","18","no","white","no","yes","768","legacy","97","11","C:/Users/Jennifer Wright/Desktop/PSYC5613/STERNBERGTASK/hw-subject-2.csv","legacy","7 8 6 1","Lentiform Loewenfeld","3.3.3","0","n","0","right","right","right","right","NA","984","73421","7660","984","NA","2","legacy","4","1024","2","48000","-16","experiment","2","even","3","827339","823892","825126","5228","171426","825131","797070","5239","163765","829345","830333","826135","78662","829344","NA","SternbergTask","91","134796","110","yes","1024"
"82.8828828829","82.8828828829","1224.27927928","1224.27927928","black","experiment","legacy","legacy","legacy","0","uniform","1","undefined","1","right","110","110","110","0","0","110","110","0","0","110","110","110","0","110","0","10/25/20 15:32:00","The main experiment item","yes","SternbergTask.osexp","C:\Users\Jennifer Wright\Desktop\PSYC5613\STERNBERGTASK","no","mono","no","18","no","white","no","yes","768","legacy","98","11","C:/Users/Jennifer Wright/Desktop/PSYC5613/STERNBERGTASK/hw-subject-2.csv","legacy","6 7 5 9","Lentiform Loewenfeld","3.3.3","0","n","0","right","right","right","right","NA","1099","73421","7660","1099","NA","2","legacy","4","1024","2","48000","-16","experiment","2","even","2","833880","830432","831666","5228","171426","831671","797070","5239","163765","835885","836988","832676","78662","835885","NA","SternbergTask","92","135895","111","yes","1024"
"82.1428571429","82.1428571429","1231.20535714","1231.20535714","black","experiment","legacy","legacy","legacy","0","uniform","0","undefined","0","left","111","111","111","0","0","111","111","0","0","111","111","111","0","111","0","10/25/20 15:32:00","The main experiment item","yes","SternbergTask.osexp","C:\Users\Jennifer Wright\Desktop\PSYC5613\STERNBERGTASK","no","mono","no","18","no","white","no","yes","768","legacy","99","11","C:/Users/Jennifer Wright/Desktop/PSYC5613/STERNBERGTASK/hw-subject-2.csv","legacy","2 6 1 7 4","Lentiform Loewenfeld","3.3.3","2","y","0","None","right","right","None","NA","2000","73421","7660","2000","NA","2","legacy","5","1024","2","48000","-16","experiment","2","even","6","840490","837043","838275","5228","171426","838281","797070","5239","163765","842496","844499","839285","78662","842496","NA","SternbergTask","92","137895","112","yes","1024"
"82.3008849558","82.3008849558","1230.22123894","1230.22123894","black","experiment","legacy","legacy","legacy","0","uniform","1","undefined","1","left","112","112","112","0","0","112","112","0","0","112","112","112","0","112","0","10/25/20 15:32:00","The main experiment item","yes","SternbergTask.osexp","C:\Users\Jennifer Wright\Desktop\PSYC5613\STERNBERGTASK","no","mono","no","18","no","white","no","yes","768","legacy","100","11","C:/Users/Jennifer Wright/Desktop/PSYC5613/STERNBERGTASK/hw-subject-2.csv","legacy","9 3 1 2 5","Lentiform Loewenfeld","3.3.3","4","y","0","left","right","right","left","NA","1120","73421","7660","1120","NA","2","legacy","5","1024","2","48000","-16","experiment","2","even","2","848008","837043","845794","5228","171426","845799","844559","5239","163765","850013","851137","846804","78662","850013","NA","SternbergTask","93","139015","113","yes","1024"
