"acc","accuracy","average_response_time","avg_rt","background","block","canvas_backend","clock_backend","color_backend","compensation","coordinates","correct","correct_instruction1","correct_keyboard_response","correct_response","count_Fixation","count_IncorrectFeedback","count_Instructions2","count_MemSet","count_ThankYou","count_correctfeedback","count_expLoop","count_expSequence","count_experiment","count_instruction1","count_isi","count_keyboard_response","count_logger","count_practiceLoop","count_probe","datetime","description","disable_garbage_collection","experiment_file","experiment_path","font_bold","font_family","font_italic","font_size","font_underline","foreground","form_clicks","fullscreen","height","keyboard_backend","live_row","live_row_practiceLoop","logfile","mouse_backend","numberSet","opensesame_codename","opensesame_version","posInSet","present","repeat_cycle","response","response_Instructions2","response_ThankYou","response_instruction1","response_keyboard_response","response_time","response_time_Instructions2","response_time_ThankYou","response_time_instruction1","response_time_keyboard_response","round_decimals","sampler_backend","setSize","sound_buf_size","sound_channels","sound_freq","sound_sample_size","start","subject_nr","subject_parity","target","time_Fixation","time_IncorrectFeedback","time_Instructions2","time_MemSet","time_ThankYou","time_correctfeedback","time_expLoop","time_expSequence","time_experiment","time_instruction1","time_isi","time_keyboard_response","time_logger","time_practiceLoop","time_probe","title","total_correct","total_response_time","total_responses","uniform_coordinates","width"
"100","100","1015","1015","black","practice","legacy","legacy","legacy","0","uniform","1","undefined","1","right","0","0","0","0","0","0","0","0","0","0","0","0","0","0","0","Tue Oct 20 12:42:08 2020","The main experiment item","yes","Sternbergtask.osexp","C:\Users\chris\OneDrive\Desktop","no","mono","no","18","no","white","no","yes","768","legacy","0","0","C:/Users/chris/OneDrive/Desktop/CM-subject-2.csv","legacy","5 7 8 4 1 2","Lentiform Loewenfeld","3.3.3","0","n","0","right","NA","NA","down","right","1015","NA","NA","5605","1015","2","legacy","6","1024","2","48000","-16","experiment","2","even","6","8391","NA","NA","9392","NA","NA","NA","8389","2178","2182","10594","12596","13611","7788","12595","Sternberg task","1","1015","1","yes","1024"
"100","100","943","943","black","practice","legacy","legacy","legacy","0","uniform","1","undefined","1","left","1","1","0","1","0","1","0","1","0","0","1","1","1","0","1","Tue Oct 20 12:42:08 2020","The main experiment item","yes","Sternbergtask.osexp","C:\Users\chris\OneDrive\Desktop","no","mono","no","18","no","white","no","yes","768","legacy","1","1","C:/Users/chris/OneDrive/Desktop/CM-subject-2.csv","legacy","2 9 4","Lentiform Loewenfeld","3.3.3","3","y","0","left","NA","NA","down","left","871","NA","NA","5605","871","2","legacy","3","1024","2","48000","-16","experiment","2","even","4","14766","NA","NA","15767","NA","13669","NA","14764","2178","2182","16969","18971","19843","7788","18970","Sternberg task","2","1886","2","yes","1024"
"100","100","916.6666666666666","916.6666666666666","black","practice","legacy","legacy","legacy","0","uniform","1","undefined","1","left","2","2","0","2","0","2","0","2","0","0","2","2","2","0","2","Tue Oct 20 12:42:08 2020","The main experiment item","yes","Sternbergtask.osexp","C:\Users\chris\OneDrive\Desktop","no","mono","no","18","no","white","no","yes","768","legacy","2","2","C:/Users/chris/OneDrive/Desktop/CM-subject-2.csv","legacy","1 5 2 9","Lentiform Loewenfeld","3.3.3","2","y","0","left","NA","NA","down","left","864","NA","NA","5605","864","2","legacy","4","1024","2","48000","-16","experiment","2","even","5","20941","NA","NA","21942","NA","19847","NA","20939","2178","2182","23143","25146","26010","7788","25145","Sternberg task","3","2750","3","yes","1024"
"100","100","922.25","922.25","black","practice","legacy","legacy","legacy","0","uniform","1","undefined","1","right","3","3","0","3","0","3","0","3","0","0","3","3","3","0","3","Tue Oct 20 12:42:08 2020","The main experiment item","yes","Sternbergtask.osexp","C:\Users\chris\OneDrive\Desktop","no","mono","no","18","no","white","no","yes","768","legacy","3","3","C:/Users/chris/OneDrive/Desktop/CM-subject-2.csv","legacy","4 1 5","Lentiform Loewenfeld","3.3.3","0","n","0","right","NA","NA","down","right","939","NA","NA","5605","939","2","legacy","3","1024","2","48000","-16","experiment","2","even","2","27107","NA","NA","28112","NA","26014","NA","27105","2178","2182","29317","31323","32263","7788","31322","Sternberg task","4","3689","4","yes","1024"
"100","100","871.6","871.6","black","practice","legacy","legacy","legacy","0","uniform","1","undefined","1","right","4","4","0","4","0","4","0","4","0","0","4","4","4","0","4","Tue Oct 20 12:42:08 2020","The main experiment item","yes","Sternbergtask.osexp","C:\Users\chris\OneDrive\Desktop","no","mono","no","18","no","white","no","yes","768","legacy","4","4","C:/Users/chris/OneDrive/Desktop/CM-subject-2.csv","legacy","2 1","Lentiform Loewenfeld","3.3.3","0","n","0","right","NA","NA","down","right","669","NA","NA","5605","669","2","legacy","2","1024","2","48000","-16","experiment","2","even","5","33424","NA","NA","34430","NA","32278","NA","33422","2178","2182","35635","37640","38310","7788","37640","Sternberg task","5","4358","5","yes","1024"
"100","100","882.3333333333334","882.3333333333334","black","practice","legacy","legacy","legacy","0","uniform","1","undefined","1","left","5","5","0","5","0","5","0","5","0","0","5","5","5","0","5","Tue Oct 20 12:42:08 2020","The main experiment item","yes","Sternbergtask.osexp","C:\Users\chris\OneDrive\Desktop","no","mono","no","18","no","white","no","yes","768","legacy","5","5","C:/Users/chris/OneDrive/Desktop/CM-subject-2.csv","legacy","1 7 9 8 5","Lentiform Loewenfeld","3.3.3","4","y","0","left","NA","NA","down","left","936","NA","NA","5605","936","2","legacy","5","1024","2","48000","-16","experiment","2","even","8","39462","NA","NA","40467","NA","38318","NA","39459","2178","2182","41672","43677","44614","7788","43677","Sternberg task","6","5294","6","yes","1024"
"85.71428571428571","85.71428571428571","1042","1042","black","practice","legacy","legacy","legacy","0","uniform","0","undefined","0","right","6","6","0","6","0","6","0","6","0","0","6","6","6","0","6","Tue Oct 20 12:42:08 2020","The main experiment item","yes","Sternbergtask.osexp","C:\Users\chris\OneDrive\Desktop","no","mono","no","18","no","white","no","yes","768","legacy","6","6","C:/Users/chris/OneDrive/Desktop/CM-subject-2.csv","legacy","5","Lentiform Loewenfeld","3.3.3","0","n","0","None","NA","NA","down","None","2000","NA","NA","5605","2000","2","legacy","1","1024","2","48000","-16","experiment","2","even","3","45764","NA","NA","46769","NA","44623","NA","45762","2178","2182","47974","49980","51980","7788","49979","Sternberg task","6","7294","7","yes","1024"
"87.5","87.5","993.25","993.25","black","practice","legacy","legacy","legacy","0","uniform","1","undefined","1","left","7","7","0","7","0","7","0","7","0","0","7","7","7","0","7","Tue Oct 20 12:42:08 2020","The main experiment item","yes","Sternbergtask.osexp","C:\Users\chris\OneDrive\Desktop","no","mono","no","18","no","white","no","yes","768","legacy","7","7","C:/Users/chris/OneDrive/Desktop/CM-subject-2.csv","legacy","4 8","Lentiform Loewenfeld","3.3.3","1","y","0","left","NA","NA","down","left","652","NA","NA","5605","652","2","legacy","2","1024","2","48000","-16","experiment","2","even","4","53156","51989","NA","54161","NA","44623","NA","53154","2178","2182","55366","57371","58023","7788","57371","Sternberg task","7","7946","8","yes","1024"
"88.88888888888889","88.88888888888889","939.5555555555555","939.5555555555555","black","practice","legacy","legacy","legacy","0","uniform","1","undefined","1","left","8","8","0","8","0","8","0","8","0","0","8","8","8","0","8","Tue Oct 20 12:42:08 2020","The main experiment item","yes","Sternbergtask.osexp","C:\Users\chris\OneDrive\Desktop","no","mono","no","18","no","white","no","yes","768","legacy","8","8","C:/Users/chris/OneDrive/Desktop/CM-subject-2.csv","legacy","4 3 1 7 9 8","Lentiform Loewenfeld","3.3.3","1","y","0","left","NA","NA","down","left","510","NA","NA","5605","510","2","legacy","6","1024","2","48000","-16","experiment","2","even","4","59186","51989","NA","60191","NA","58032","NA","59183","2178","2182","61396","63401","63911","7788","63401","Sternberg task","8","8456","9","yes","1024"
"90","90","923.8","923.8","black","practice","legacy","legacy","legacy","0","uniform","1","undefined","1","right","9","9","0","9","0","9","0","9","0","0","9","9","9","0","9","Tue Oct 20 12:42:08 2020","The main experiment item","yes","Sternbergtask.osexp","C:\Users\chris\OneDrive\Desktop","no","mono","no","18","no","white","no","yes","768","legacy","9","9","C:/Users/chris/OneDrive/Desktop/CM-subject-2.csv","legacy","3 1 9 4","Lentiform Loewenfeld","3.3.3","0","n","0","right","NA","NA","down","right","782","NA","NA","5605","782","2","legacy","4","1024","2","48000","-16","experiment","2","even","6","65056","51989","NA","66061","NA","63920","NA","65054","2178","2182","67266","69271","70053","7788","69271","Sternberg task","9","9238","10","yes","1024"
"90.9090909090909","90.9090909090909","893.4545454545455","893.4545454545455","black","practice","legacy","legacy","legacy","0","uniform","1","undefined","1","right","10","10","0","10","0","10","0","10","0","0","10","10","10","0","10","Tue Oct 20 12:42:08 2020","The main experiment item","yes","Sternbergtask.osexp","C:\Users\chris\OneDrive\Desktop","no","mono","no","18","no","white","no","yes","768","legacy","10","10","C:/Users/chris/OneDrive/Desktop/CM-subject-2.csv","legacy","9 6 7 4 5","Lentiform Loewenfeld","3.3.3","0","n","0","right","NA","NA","down","right","590","NA","NA","5605","590","2","legacy","5","1024","2","48000","-16","experiment","2","even","3","71215","51989","NA","72221","NA","70064","NA","71213","2178","2182","73426","75431","76021","7788","75431","Sternberg task","10","9828","11","yes","1024"
"91.66666666666667","91.66666666666667","850.75","850.75","black","practice","legacy","legacy","legacy","0","uniform","1","undefined","1","left","11","11","0","11","0","11","0","11","0","0","11","11","11","0","11","Tue Oct 20 12:42:08 2020","The main experiment item","yes","Sternbergtask.osexp","C:\Users\chris\OneDrive\Desktop","no","mono","no","18","no","white","no","yes","768","legacy","11","11","C:/Users/chris/OneDrive/Desktop/CM-subject-2.csv","legacy","6","Lentiform Loewenfeld","3.3.3","1","y","0","left","NA","NA","down","left","381","NA","NA","5605","381","2","legacy","1","1024","2","48000","-16","experiment","2","even","6","77173","51989","NA","78178","NA","76030","NA","77171","2178","2182","79382","81387","81768","7788","81387","Sternberg task","11","10209","12","yes","1024"
"92.3076923076923","92.3076923076923","834.8461538461538","834.8461538461538","black","experiment","legacy","legacy","legacy","0","uniform","1","undefined","1","left","12","12","0","12","0","12","0","12","0","0","12","12","12","0","12","Tue Oct 20 12:42:08 2020","The main experiment item","yes","Sternbergtask.osexp","C:\Users\chris\OneDrive\Desktop","no","mono","no","18","no","white","no","yes","768","legacy","0","11","C:/Users/chris/OneDrive/Desktop/CM-subject-2.csv","legacy","4 6 5 8","Lentiform Loewenfeld","3.3.3","1","y","0","left","down","NA","down","left","644","2152","NA","5605","644","2","legacy","4","1024","2","48000","-16","experiment","2","even","4","85088","51989","82838","86093","NA","81777","84990","85086","2178","2182","87298","89304","89949","7788","89303","Sternberg task","12","10853","13","yes","1024"
"92.85714285714286","92.85714285714286","846.9285714285714","846.9285714285714","black","experiment","legacy","legacy","legacy","0","uniform","1","undefined","1","right","13","13","0","13","0","13","0","13","0","0","13","13","13","0","13","Tue Oct 20 12:42:08 2020","The main experiment item","yes","Sternbergtask.osexp","C:\Users\chris\OneDrive\Desktop","no","mono","no","18","no","white","no","yes","768","legacy","1","11","C:/Users/chris/OneDrive/Desktop/CM-subject-2.csv","legacy","6 9 7 3 8 2","Lentiform Loewenfeld","3.3.3","0","n","0","right","down","NA","down","right","1004","2152","NA","5605","1004","2","legacy","6","1024","2","48000","-16","experiment","2","even","5","91102","51989","82838","92107","NA","89960","84990","91100","2178","2182","93313","95318","96322","7788","95318","Sternberg task","13","11857","14","yes","1024"
"93.33333333333333","93.33333333333333","845.8666666666667","845.8666666666667","black","experiment","legacy","legacy","legacy","0","uniform","1","undefined","1","right","14","14","0","14","0","14","0","14","0","0","14","14","14","0","14","Tue Oct 20 12:42:08 2020","The main experiment item","yes","Sternbergtask.osexp","C:\Users\chris\OneDrive\Desktop","no","mono","no","18","no","white","no","yes","768","legacy","2","11","C:/Users/chris/OneDrive/Desktop/CM-subject-2.csv","legacy","2 8 9","Lentiform Loewenfeld","3.3.3","0","n","0","right","down","NA","down","right","831","2152","NA","5605","831","2","legacy","3","1024","2","48000","-16","experiment","2","even","6","97475","51989","82838","98480","NA","96331","84990","97472","2178","2182","99685","101690","102522","7788","101690","Sternberg task","14","12688","15","yes","1024"
"93.75","93.75","837.875","837.875","black","experiment","legacy","legacy","legacy","0","uniform","1","undefined","1","right","15","15","0","15","0","15","0","15","0","0","15","15","15","0","15","Tue Oct 20 12:42:08 2020","The main experiment item","yes","Sternbergtask.osexp","C:\Users\chris\OneDrive\Desktop","no","mono","no","18","no","white","no","yes","768","legacy","3","11","C:/Users/chris/OneDrive/Desktop/CM-subject-2.csv","legacy","6 8","Lentiform Loewenfeld","3.3.3","0","n","0","right","down","NA","down","right","718","2152","NA","5605","718","2","legacy","2","1024","2","48000","-16","experiment","2","even","9","103669","51989","82838","104674","NA","102531","84990","103667","2178","2182","105879","107884","108603","7788","107884","Sternberg task","15","13406","16","yes","1024"
"94.11764705882354","94.11764705882354","852.9411764705883","852.9411764705883","black","experiment","legacy","legacy","legacy","0","uniform","1","undefined","1","left","16","16","0","16","0","16","0","16","0","0","16","16","16","0","16","Tue Oct 20 12:42:08 2020","The main experiment item","yes","Sternbergtask.osexp","C:\Users\chris\OneDrive\Desktop","no","mono","no","18","no","white","no","yes","768","legacy","4","11","C:/Users/chris/OneDrive/Desktop/CM-subject-2.csv","legacy","2 6 1 7 4","Lentiform Loewenfeld","3.3.3","2","y","0","left","down","NA","down","left","1094","2152","NA","5605","1094","2","legacy","5","1024","2","48000","-16","experiment","2","even","6","109769","51989","82838","110774","NA","108612","84990","109767","2178","2182","111979","113981","115076","7788","113981","Sternberg task","16","14500","17","yes","1024"
"88.88888888888889","88.88888888888889","849.2777777777778","849.2777777777778","black","experiment","legacy","legacy","legacy","0","uniform","0","undefined","0","left","17","17","0","17","0","17","0","17","0","0","17","17","17","0","17","Tue Oct 20 12:42:08 2020","The main experiment item","yes","Sternbergtask.osexp","C:\Users\chris\OneDrive\Desktop","no","mono","no","18","no","white","no","yes","768","legacy","5","11","C:/Users/chris/OneDrive/Desktop/CM-subject-2.csv","legacy","7 8 4 6 9 5","Lentiform Loewenfeld","3.3.3","4","y","0","right","down","NA","down","right","787","2152","NA","5605","787","2","legacy","6","1024","2","48000","-16","experiment","2","even","6","116220","51989","82838","117223","NA","115081","84990","116218","2178","2182","118425","120431","121218","7788","120430","Sternberg task","16","15287","18","yes","1024"
"89.47368421052632","89.47368421052632","850","850","black","experiment","legacy","legacy","legacy","0","uniform","1","undefined","1","right","18","18","0","18","0","18","0","18","0","0","18","18","18","0","18","Tue Oct 20 12:42:08 2020","The main experiment item","yes","Sternbergtask.osexp","C:\Users\chris\OneDrive\Desktop","no","mono","no","18","no","white","no","yes","768","legacy","6","11","C:/Users/chris/OneDrive/Desktop/CM-subject-2.csv","legacy","9 5 3 2 8 6","Lentiform Loewenfeld","3.3.3","0","n","0","right","down","NA","down","right","863","2152","NA","5605","863","2","legacy","6","1024","2","48000","-16","experiment","2","even","7","122379","121229","82838","123385","NA","115081","84990","122377","2178","2182","124590","126595","127459","7788","126595","Sternberg task","17","16150","19","yes","1024"
"85","85","851.75","851.75","black","experiment","legacy","legacy","legacy","0","uniform","0","undefined","0","left","19","19","0","19","0","19","0","19","0","0","19","19","19","0","19","Tue Oct 20 12:42:08 2020","The main experiment item","yes","Sternbergtask.osexp","C:\Users\chris\OneDrive\Desktop","no","mono","no","18","no","white","no","yes","768","legacy","7","11","C:/Users/chris/OneDrive/Desktop/CM-subject-2.csv","legacy","3 5 9 6 2 4","Lentiform Loewenfeld","3.3.3","1","y","0","right","down","NA","down","right","885","2152","NA","5605","885","2","legacy","6","1024","2","48000","-16","experiment","2","even","3","128614","121229","82838","129619","NA","127471","84990","128612","2178","2182","130824","132829","133715","7788","132829","Sternberg task","17","17035","20","yes","1024"
"80.95238095238095","80.95238095238095","871.3333333333334","871.3333333333334","black","experiment","legacy","legacy","legacy","0","uniform","0","undefined","0","left","20","20","0","20","0","20","0","20","0","0","20","20","20","0","20","Tue Oct 20 12:42:08 2020","The main experiment item","yes","Sternbergtask.osexp","C:\Users\chris\OneDrive\Desktop","no","mono","no","18","no","white","no","yes","768","legacy","8","11","C:/Users/chris/OneDrive/Desktop/CM-subject-2.csv","legacy","8 5 4 7 3 1","Lentiform Loewenfeld","3.3.3","2","y","0","right","down","NA","down","right","1263","2152","NA","5605","1263","2","legacy","6","1024","2","48000","-16","experiment","2","even","5","134867","133726","82838","135872","NA","127471","84990","134865","2178","2182","137077","139082","140345","7788","139082","Sternberg task","17","18298","21","yes","1024"
"81.81818181818181","81.81818181818181","875.4545454545455","875.4545454545455","black","experiment","legacy","legacy","legacy","0","uniform","1","undefined","1","right","21","21","0","21","0","21","0","21","0","0","21","21","21","0","21","Tue Oct 20 12:42:08 2020","The main experiment item","yes","Sternbergtask.osexp","C:\Users\chris\OneDrive\Desktop","no","mono","no","18","no","white","no","yes","768","legacy","9","11","C:/Users/chris/OneDrive/Desktop/CM-subject-2.csv","legacy","7 6 4 8 1 2","Lentiform Loewenfeld","3.3.3","0","n","0","right","down","NA","down","right","962","2152","NA","5605","962","2","legacy","6","1024","2","48000","-16","experiment","2","even","9","141496","140354","82838","142501","NA","127471","84990","141494","2178","2182","143706","145711","146673","7788","145711","Sternberg task","18","19260","22","yes","1024"
"82.6086956521739","82.6086956521739","890","890","black","experiment","legacy","legacy","legacy","0","uniform","1","undefined","1","left","22","22","0","22","0","22","0","22","0","0","22","22","22","0","22","Tue Oct 20 12:42:08 2020","The main experiment item","yes","Sternbergtask.osexp","C:\Users\chris\OneDrive\Desktop","no","mono","no","18","no","white","no","yes","768","legacy","10","11","C:/Users/chris/OneDrive/Desktop/CM-subject-2.csv","legacy","6 9 3 1","Lentiform Loewenfeld","3.3.3","4","y","0","left","down","NA","down","left","1210","2152","NA","5605","1210","2","legacy","4","1024","2","48000","-16","experiment","2","even","1","147832","140354","82838","148837","NA","146682","84990","147829","2178","2182","150041","152046","153256","7788","152046","Sternberg task","19","20470","23","yes","1024"
"83.33333333333333","83.33333333333333","892.0833333333334","892.0833333333334","black","experiment","legacy","legacy","legacy","0","uniform","1","undefined","1","left","23","23","0","23","0","23","0","23","0","0","23","23","23","0","23","Tue Oct 20 12:42:08 2020","The main experiment item","yes","Sternbergtask.osexp","C:\Users\chris\OneDrive\Desktop","no","mono","no","18","no","white","no","yes","768","legacy","11","11","C:/Users/chris/OneDrive/Desktop/CM-subject-2.csv","legacy","9 3 8 2 1 4","Lentiform Loewenfeld","3.3.3","3","y","0","left","down","NA","down","left","940","2152","NA","5605","940","2","legacy","6","1024","2","48000","-16","experiment","2","even","8","154436","140354","82838","155441","NA","153266","84990","154434","2178","2182","156646","158651","159592","7788","158651","Sternberg task","20","21410","24","yes","1024"
"84","84","897.92","897.92","black","experiment","legacy","legacy","legacy","0","uniform","1","undefined","1","left","24","24","0","24","0","24","0","24","0","0","24","24","24","0","24","Tue Oct 20 12:42:08 2020","The main experiment item","yes","Sternbergtask.osexp","C:\Users\chris\OneDrive\Desktop","no","mono","no","18","no","white","no","yes","768","legacy","12","11","C:/Users/chris/OneDrive/Desktop/CM-subject-2.csv","legacy","9 6 2 4 1","Lentiform Loewenfeld","3.3.3","4","y","0","left","down","NA","down","left","1038","2152","NA","5605","1038","2","legacy","5","1024","2","48000","-16","experiment","2","even","4","160745","140354","82838","161750","NA","159601","84990","160743","2178","2182","162955","164960","165999","7788","164960","Sternberg task","21","22448","25","yes","1024"
"84.61538461538461","84.61538461538461","887.3461538461538","887.3461538461538","black","experiment","legacy","legacy","legacy","0","uniform","1","undefined","1","left","25","25","0","25","0","25","0","25","0","0","25","25","25","0","25","Tue Oct 20 12:42:08 2020","The main experiment item","yes","Sternbergtask.osexp","C:\Users\chris\OneDrive\Desktop","no","mono","no","18","no","white","no","yes","768","legacy","13","11","C:/Users/chris/OneDrive/Desktop/CM-subject-2.csv","legacy","6 7 8 5","Lentiform Loewenfeld","3.3.3","3","y","0","left","down","NA","down","left","623","2152","NA","5605","623","2","legacy","4","1024","2","48000","-16","experiment","2","even","8","167145","140354","82838","168150","NA","166007","84990","167143","2178","2182","169356","171361","171984","7788","171361","Sternberg task","22","23071","26","yes","1024"
"81.48148148148148","81.48148148148148","900.8888888888889","900.8888888888889","black","experiment","legacy","legacy","legacy","0","uniform","0","undefined","0","left","26","26","0","26","0","26","0","26","0","0","26","26","26","0","26","Tue Oct 20 12:42:08 2020","The main experiment item","yes","Sternbergtask.osexp","C:\Users\chris\OneDrive\Desktop","no","mono","no","18","no","white","no","yes","768","legacy","14","11","C:/Users/chris/OneDrive/Desktop/CM-subject-2.csv","legacy","4 1 8 7 5","Lentiform Loewenfeld","3.3.3","3","y","0","right","down","NA","down","right","1253","2152","NA","5605","1253","2","legacy","5","1024","2","48000","-16","experiment","2","even","8","173137","140354","82838","174142","NA","171993","84990","173134","2178","2182","175347","177352","178606","7788","177352","Sternberg task","22","24324","27","yes","1024"
"82.14285714285714","82.14285714285714","891.6428571428571","891.6428571428571","black","experiment","legacy","legacy","legacy","0","uniform","1","undefined","1","right","27","27","0","27","0","27","0","27","0","0","27","27","27","0","27","Tue Oct 20 12:42:08 2020","The main experiment item","yes","Sternbergtask.osexp","C:\Users\chris\OneDrive\Desktop","no","mono","no","18","no","white","no","yes","768","legacy","15","11","C:/Users/chris/OneDrive/Desktop/CM-subject-2.csv","legacy","3 9 8 1 6 4","Lentiform Loewenfeld","3.3.3","0","n","0","right","down","NA","down","right","642","2152","NA","5605","642","2","legacy","6","1024","2","48000","-16","experiment","2","even","7","179751","178617","82838","180757","NA","171993","84990","179749","2178","2182","181962","183965","184607","7788","183965","Sternberg task","23","24966","28","yes","1024"
"82.75862068965517","82.75862068965517","886.551724137931","886.551724137931","black","experiment","legacy","legacy","legacy","0","uniform","1","undefined","1","left","28","28","0","28","0","28","0","28","0","0","28","28","28","0","28","Tue Oct 20 12:42:08 2020","The main experiment item","yes","Sternbergtask.osexp","C:\Users\chris\OneDrive\Desktop","no","mono","no","18","no","white","no","yes","768","legacy","16","11","C:/Users/chris/OneDrive/Desktop/CM-subject-2.csv","legacy","4 6 2 5 1","Lentiform Loewenfeld","3.3.3","5","y","0","left","down","NA","down","left","744","2152","NA","5605","744","2","legacy","5","1024","2","48000","-16","experiment","2","even","1","185760","178617","82838","186766","NA","184616","84990","185758","2178","2182","187971","189978","190722","7788","189978","Sternberg task","24","25710","29","yes","1024"
"83.33333333333333","83.33333333333333","878.9333333333333","878.9333333333333","black","experiment","legacy","legacy","legacy","0","uniform","1","undefined","1","right","29","29","0","29","0","29","0","29","0","0","29","29","29","0","29","Tue Oct 20 12:42:08 2020","The main experiment item","yes","Sternbergtask.osexp","C:\Users\chris\OneDrive\Desktop","no","mono","no","18","no","white","no","yes","768","legacy","17","11","C:/Users/chris/OneDrive/Desktop/CM-subject-2.csv","legacy","4 8 1 2","Lentiform Loewenfeld","3.3.3","0","n","0","right","down","NA","down","right","658","2152","NA","5605","658","2","legacy","4","1024","2","48000","-16","experiment","2","even","7","191881","178617","82838","192886","NA","190732","84990","191879","2178","2182","194090","196095","196753","7788","196095","Sternberg task","25","26368","30","yes","1024"
"83.87096774193549","83.87096774193549","872.3225806451613","872.3225806451613","black","experiment","legacy","legacy","legacy","0","uniform","1","undefined","1","right","30","30","0","30","0","30","0","30","0","0","30","30","30","0","30","Tue Oct 20 12:42:08 2020","The main experiment item","yes","Sternbergtask.osexp","C:\Users\chris\OneDrive\Desktop","no","mono","no","18","no","white","no","yes","768","legacy","18","11","C:/Users/chris/OneDrive/Desktop/CM-subject-2.csv","legacy","8 5 7 3 6","Lentiform Loewenfeld","3.3.3","0","n","0","right","down","NA","down","right","674","2152","NA","5605","674","2","legacy","5","1024","2","48000","-16","experiment","2","even","9","197897","178617","82838","198902","NA","196762","84990","197895","2178","2182","200107","202112","202786","7788","202112","Sternberg task","26","27042","31","yes","1024"
"81.25","81.25","865.625","865.625","black","experiment","legacy","legacy","legacy","0","uniform","0","undefined","0","right","31","31","0","31","0","31","0","31","0","0","31","31","31","0","31","Tue Oct 20 12:42:08 2020","The main experiment item","yes","Sternbergtask.osexp","C:\Users\chris\OneDrive\Desktop","no","mono","no","18","no","white","no","yes","768","legacy","19","11","C:/Users/chris/OneDrive/Desktop/CM-subject-2.csv","legacy","6 2 9 3 8 4","Lentiform Loewenfeld","3.3.3","0","n","0","left","down","NA","down","left","658","2152","NA","5605","658","2","legacy","6","1024","2","48000","-16","experiment","2","even","1","203900","178617","82838","204905","NA","202795","84990","203898","2178","2182","206110","208115","208774","7788","208115","Sternberg task","26","27700","32","yes","1024"
"81.81818181818181","81.81818181818181","855.8484848484849","855.8484848484849","black","experiment","legacy","legacy","legacy","0","uniform","1","undefined","1","left","32","32","0","32","0","32","0","32","0","0","32","32","32","0","32","Tue Oct 20 12:42:08 2020","The main experiment item","yes","Sternbergtask.osexp","C:\Users\chris\OneDrive\Desktop","no","mono","no","18","no","white","no","yes","768","legacy","20","11","C:/Users/chris/OneDrive/Desktop/CM-subject-2.csv","legacy","8 9 5 7 1 6","Lentiform Loewenfeld","3.3.3","4","y","0","left","down","NA","down","left","543","2152","NA","5605","543","2","legacy","6","1024","2","48000","-16","experiment","2","even","7","209921","208782","82838","210926","NA","202795","84990","209919","2178","2182","212131","214136","214680","7788","214136","Sternberg task","27","28243","33","yes","1024"
"82.3529411764706","82.3529411764706","853.7941176470588","853.7941176470588","black","experiment","legacy","legacy","legacy","0","uniform","1","undefined","1","left","33","33","0","33","0","33","0","33","0","0","33","33","33","0","33","Tue Oct 20 12:42:08 2020","The main experiment item","yes","Sternbergtask.osexp","C:\Users\chris\OneDrive\Desktop","no","mono","no","18","no","white","no","yes","768","legacy","21","11","C:/Users/chris/OneDrive/Desktop/CM-subject-2.csv","legacy","8 5 3 7 4 6","Lentiform Loewenfeld","3.3.3","6","y","0","left","down","NA","down","left","786","2152","NA","5605","786","2","legacy","6","1024","2","48000","-16","experiment","2","even","6","215832","208782","82838","216837","NA","214689","84990","215830","2178","2182","218042","220047","220834","7788","220047","Sternberg task","28","29029","34","yes","1024"
"82.85714285714286","82.85714285714286","844.2857142857143","844.2857142857143","black","experiment","legacy","legacy","legacy","0","uniform","1","undefined","1","left","34","34","0","34","0","34","0","34","0","0","34","34","34","0","34","Tue Oct 20 12:42:08 2020","The main experiment item","yes","Sternbergtask.osexp","C:\Users\chris\OneDrive\Desktop","no","mono","no","18","no","white","no","yes","768","legacy","22","11","C:/Users/chris/OneDrive/Desktop/CM-subject-2.csv","legacy","7 6","Lentiform Loewenfeld","3.3.3","2","y","0","left","down","NA","down","left","521","2152","NA","5605","521","2","legacy","2","1024","2","48000","-16","experiment","2","even","6","221996","208782","82838","223001","NA","220842","84990","221994","2178","2182","224206","226211","226733","7788","226211","Sternberg task","29","29550","35","yes","1024"
"83.33333333333333","83.33333333333333","844.3333333333334","844.3333333333334","black","experiment","legacy","legacy","legacy","0","uniform","1","undefined","1","right","35","35","0","35","0","35","0","35","0","0","35","35","35","0","35","Tue Oct 20 12:42:08 2020","The main experiment item","yes","Sternbergtask.osexp","C:\Users\chris\OneDrive\Desktop","no","mono","no","18","no","white","no","yes","768","legacy","23","11","C:/Users/chris/OneDrive/Desktop/CM-subject-2.csv","legacy","4 2 6 9","Lentiform Loewenfeld","3.3.3","0","n","0","right","down","NA","down","right","846","2152","NA","5605","846","2","legacy","4","1024","2","48000","-16","experiment","2","even","7","227887","208782","82838","228892","NA","226742","84990","227885","2178","2182","230097","232102","232949","7788","232102","Sternberg task","30","30396","36","yes","1024"
"83.78378378378379","83.78378378378379","836.7837837837837","836.7837837837837","black","experiment","legacy","legacy","legacy","0","uniform","1","undefined","1","right","36","36","0","36","0","36","0","36","0","0","36","36","36","0","36","Tue Oct 20 12:42:08 2020","The main experiment item","yes","Sternbergtask.osexp","C:\Users\chris\OneDrive\Desktop","no","mono","no","18","no","white","no","yes","768","legacy","24","11","C:/Users/chris/OneDrive/Desktop/CM-subject-2.csv","legacy","5 2","Lentiform Loewenfeld","3.3.3","0","n","0","right","down","NA","down","right","565","2152","NA","5605","565","2","legacy","2","1024","2","48000","-16","experiment","2","even","7","234099","208782","82838","235104","NA","232958","84990","234097","2178","2182","236309","238314","238880","7788","238314","Sternberg task","31","30961","37","yes","1024"
"81.57894736842105","81.57894736842105","831.9736842105264","831.9736842105264","black","experiment","legacy","legacy","legacy","0","uniform","0","undefined","0","right","37","37","0","37","0","37","0","37","0","0","37","37","37","0","37","Tue Oct 20 12:42:08 2020","The main experiment item","yes","Sternbergtask.osexp","C:\Users\chris\OneDrive\Desktop","no","mono","no","18","no","white","no","yes","768","legacy","25","11","C:/Users/chris/OneDrive/Desktop/CM-subject-2.csv","legacy","1 7 5 2","Lentiform Loewenfeld","3.3.3","0","n","0","left","down","NA","down","left","654","2152","NA","5605","654","2","legacy","4","1024","2","48000","-16","experiment","2","even","3","240020","208782","82838","241025","NA","238884","84990","240018","2178","2182","242230","244236","244891","7788","244236","Sternberg task","31","31615","38","yes","1024"
"82.05128205128206","82.05128205128206","827.8717948717949","827.8717948717949","black","experiment","legacy","legacy","legacy","0","uniform","1","undefined","1","right","38","38","0","38","0","38","0","38","0","0","38","38","38","0","38","Tue Oct 20 12:42:08 2020","The main experiment item","yes","Sternbergtask.osexp","C:\Users\chris\OneDrive\Desktop","no","mono","no","18","no","white","no","yes","768","legacy","26","11","C:/Users/chris/OneDrive/Desktop/CM-subject-2.csv","legacy","1 6 4","Lentiform Loewenfeld","3.3.3","0","n","0","right","down","NA","down","right","672","2152","NA","5605","672","2","legacy","3","1024","2","48000","-16","experiment","2","even","7","246041","244900","82838","247046","NA","238884","84990","246039","2178","2182","248253","250259","250932","7788","250259","Sternberg task","32","32287","39","yes","1024"
"82.5","82.5","827.25","827.25","black","experiment","legacy","legacy","legacy","0","uniform","1","undefined","1","left","39","39","0","39","0","39","0","39","0","0","39","39","39","0","39","Tue Oct 20 12:42:08 2020","The main experiment item","yes","Sternbergtask.osexp","C:\Users\chris\OneDrive\Desktop","no","mono","no","18","no","white","no","yes","768","legacy","27","11","C:/Users/chris/OneDrive/Desktop/CM-subject-2.csv","legacy","4 9 7 8 5 3","Lentiform Loewenfeld","3.3.3","4","y","0","left","down","NA","down","left","803","2152","NA","5605","803","2","legacy","6","1024","2","48000","-16","experiment","2","even","8","252076","244900","82838","253081","NA","250940","84990","252074","2178","2182","254286","256291","257094","7788","256291","Sternberg task","33","33090","40","yes","1024"
"80.48780487804878","80.48780487804878","824.170731707317","824.170731707317","black","experiment","legacy","legacy","legacy","0","uniform","0","undefined","0","left","40","40","0","40","0","40","0","40","0","0","40","40","40","0","40","Tue Oct 20 12:42:08 2020","The main experiment item","yes","Sternbergtask.osexp","C:\Users\chris\OneDrive\Desktop","no","mono","no","18","no","white","no","yes","768","legacy","28","11","C:/Users/chris/OneDrive/Desktop/CM-subject-2.csv","legacy","5 2 9 6 1 7","Lentiform Loewenfeld","3.3.3","3","y","0","right","down","NA","down","right","701","2152","NA","5605","701","2","legacy","6","1024","2","48000","-16","experiment","2","even","9","258267","244900","82838","259272","NA","257103","84990","258265","2178","2182","260477","262482","263184","7788","262482","Sternberg task","33","33791","41","yes","1024"
"78.57142857142857","78.57142857142857","825.2619047619048","825.2619047619048","black","experiment","legacy","legacy","legacy","0","uniform","0","undefined","0","right","41","41","0","41","0","41","0","41","0","0","41","41","41","0","41","Tue Oct 20 12:42:08 2020","The main experiment item","yes","Sternbergtask.osexp","C:\Users\chris\OneDrive\Desktop","no","mono","no","18","no","white","no","yes","768","legacy","29","11","C:/Users/chris/OneDrive/Desktop/CM-subject-2.csv","legacy","8 4 3 9","Lentiform Loewenfeld","3.3.3","0","n","0","left","down","NA","down","left","870","2152","NA","5605","870","2","legacy","4","1024","2","48000","-16","experiment","2","even","5","264336","263192","82838","265341","NA","257103","84990","264334","2178","2182","266546","268552","269422","7788","268551","Sternberg task","33","34661","42","yes","1024"
"76.74418604651163","76.74418604651163","813.1860465116279","813.1860465116279","black","experiment","legacy","legacy","legacy","0","uniform","0","undefined","0","left","42","42","0","42","0","42","0","42","0","0","42","42","42","0","42","Tue Oct 20 12:42:08 2020","The main experiment item","yes","Sternbergtask.osexp","C:\Users\chris\OneDrive\Desktop","no","mono","no","18","no","white","no","yes","768","legacy","30","11","C:/Users/chris/OneDrive/Desktop/CM-subject-2.csv","legacy","8 1 6","Lentiform Loewenfeld","3.3.3","3","y","0","right","down","NA","down","right","306","2152","NA","5605","306","2","legacy","3","1024","2","48000","-16","experiment","2","even","6","270575","269431","82838","271580","NA","257103","84990","270573","2178","2182","272785","274790","275096","7788","274790","Sternberg task","33","34967","43","yes","1024"
"77.27272727272727","77.27272727272727","806.6590909090909","806.6590909090909","black","experiment","legacy","legacy","legacy","0","uniform","1","undefined","1","left","43","43","0","43","0","43","0","43","0","0","43","43","43","0","43","Tue Oct 20 12:42:08 2020","The main experiment item","yes","Sternbergtask.osexp","C:\Users\chris\OneDrive\Desktop","no","mono","no","18","no","white","no","yes","768","legacy","31","11","C:/Users/chris/OneDrive/Desktop/CM-subject-2.csv","legacy","8 3","Lentiform Loewenfeld","3.3.3","2","y","0","left","down","NA","down","left","526","2152","NA","5605","526","2","legacy","2","1024","2","48000","-16","experiment","2","even","3","276248","275105","82838","277253","NA","257103","84990","276246","2178","2182","278458","280463","280989","7788","280463","Sternberg task","34","35493","44","yes","1024"
"77.77777777777777","77.77777777777777","812.8888888888889","812.8888888888889","black","experiment","legacy","legacy","legacy","0","uniform","1","undefined","1","right","44","44","0","44","0","44","0","44","0","0","44","44","44","0","44","Tue Oct 20 12:42:08 2020","The main experiment item","yes","Sternbergtask.osexp","C:\Users\chris\OneDrive\Desktop","no","mono","no","18","no","white","no","yes","768","legacy","32","11","C:/Users/chris/OneDrive/Desktop/CM-subject-2.csv","legacy","2 6 4 3 9","Lentiform Loewenfeld","3.3.3","0","n","0","right","down","NA","down","right","1087","2152","NA","5605","1087","2","legacy","5","1024","2","48000","-16","experiment","2","even","1","282147","275105","82838","283152","NA","280994","84990","282144","2178","2182","284358","286364","287452","7788","286363","Sternberg task","35","36580","45","yes","1024"
"78.26086956521739","78.26086956521739","808.7826086956521","808.7826086956521","black","experiment","legacy","legacy","legacy","0","uniform","1","undefined","1","right","45","45","0","45","0","45","0","45","0","0","45","45","45","0","45","Tue Oct 20 12:42:08 2020","The main experiment item","yes","Sternbergtask.osexp","C:\Users\chris\OneDrive\Desktop","no","mono","no","18","no","white","no","yes","768","legacy","33","11","C:/Users/chris/OneDrive/Desktop/CM-subject-2.csv","legacy","1","Lentiform Loewenfeld","3.3.3","0","n","0","right","down","NA","down","right","624","2152","NA","5605","624","2","legacy","1","1024","2","48000","-16","experiment","2","even","7","288592","275105","82838","289597","NA","287461","84990","288590","2178","2182","290801","292806","293431","7788","292806","Sternberg task","36","37204","46","yes","1024"
"78.72340425531915","78.72340425531915","812.9574468085107","812.9574468085107","black","experiment","legacy","legacy","legacy","0","uniform","1","undefined","1","left","46","46","0","46","0","46","0","46","0","0","46","46","46","0","46","Tue Oct 20 12:42:08 2020","The main experiment item","yes","Sternbergtask.osexp","C:\Users\chris\OneDrive\Desktop","no","mono","no","18","no","white","no","yes","768","legacy","34","11","C:/Users/chris/OneDrive/Desktop/CM-subject-2.csv","legacy","8 9 5 6 7","Lentiform Loewenfeld","3.3.3","1","y","0","left","down","NA","down","left","1005","2152","NA","5605","1005","2","legacy","5","1024","2","48000","-16","experiment","2","even","8","294580","275105","82838","295585","NA","293440","84990","294578","2178","2182","296790","298795","299801","7788","298795","Sternberg task","37","38209","47","yes","1024"
"79.16666666666667","79.16666666666667","820.5","820.5","black","experiment","legacy","legacy","legacy","0","uniform","1","undefined","1","left","47","47","0","47","0","47","0","47","0","0","47","47","47","0","47","Tue Oct 20 12:42:08 2020","The main experiment item","yes","Sternbergtask.osexp","C:\Users\chris\OneDrive\Desktop","no","mono","no","18","no","white","no","yes","768","legacy","35","11","C:/Users/chris/OneDrive/Desktop/CM-subject-2.csv","legacy","6 9 7 4 5 1","Lentiform Loewenfeld","3.3.3","2","y","0","left","down","NA","down","left","1175","2152","NA","5605","1175","2","legacy","6","1024","2","48000","-16","experiment","2","even","9","300946","275105","82838","301951","NA","299810","84990","300944","2178","2182","303156","305161","306337","7788","305161","Sternberg task","38","39384","48","yes","1024"
"77.55102040816327","77.55102040816327","820.4489795918367","820.4489795918367","black","experiment","legacy","legacy","legacy","0","uniform","0","undefined","0","right","48","48","0","48","0","48","0","48","0","0","48","48","48","0","48","Tue Oct 20 12:42:08 2020","The main experiment item","yes","Sternbergtask.osexp","C:\Users\chris\OneDrive\Desktop","no","mono","no","18","no","white","no","yes","768","legacy","36","11","C:/Users/chris/OneDrive/Desktop/CM-subject-2.csv","legacy","8 2 1 4 5 9","Lentiform Loewenfeld","3.3.3","0","n","0","left","down","NA","down","left","818","2152","NA","5605","818","2","legacy","6","1024","2","48000","-16","experiment","2","even","7","307496","275105","82838","308501","NA","306345","84990","307494","2178","2182","309706","311711","312529","7788","311711","Sternberg task","38","40202","49","yes","1024"
"76","76","816.62","816.62","black","experiment","legacy","legacy","legacy","0","uniform","0","undefined","0","right","49","49","0","49","0","49","0","49","0","0","49","49","49","0","49","Tue Oct 20 12:42:08 2020","The main experiment item","yes","Sternbergtask.osexp","C:\Users\chris\OneDrive\Desktop","no","mono","no","18","no","white","no","yes","768","legacy","37","11","C:/Users/chris/OneDrive/Desktop/CM-subject-2.csv","legacy","1 3 2 6 9","Lentiform Loewenfeld","3.3.3","0","n","0","left","down","NA","down","left","629","2152","NA","5605","629","2","legacy","5","1024","2","48000","-16","experiment","2","even","5","313668","312538","82838","314673","NA","306345","84990","313666","2178","2182","315879","317885","318515","7788","317884","Sternberg task","38","40831","50","yes","1024"
"76.47058823529412","76.47058823529412","817.3137254901961","817.3137254901961","black","experiment","legacy","legacy","legacy","0","uniform","1","undefined","1","right","50","50","0","50","0","50","0","50","0","0","50","50","50","0","50","Tue Oct 20 12:42:08 2020","The main experiment item","yes","Sternbergtask.osexp","C:\Users\chris\OneDrive\Desktop","no","mono","no","18","no","white","no","yes","768","legacy","38","11","C:/Users/chris/OneDrive/Desktop/CM-subject-2.csv","legacy","6 9 5","Lentiform Loewenfeld","3.3.3","0","n","0","right","down","NA","down","right","852","2152","NA","5605","852","2","legacy","3","1024","2","48000","-16","experiment","2","even","8","319662","318526","82838","320667","NA","306345","84990","319660","2178","2182","321872","323877","324731","7788","323877","Sternberg task","39","41683","51","yes","1024"
"76.92307692307692","76.92307692307692","821.7115384615385","821.7115384615385","black","experiment","legacy","legacy","legacy","0","uniform","1","undefined","1","right","51","51","0","51","0","51","0","51","0","0","51","51","51","0","51","Tue Oct 20 12:42:08 2020","The main experiment item","yes","Sternbergtask.osexp","C:\Users\chris\OneDrive\Desktop","no","mono","no","18","no","white","no","yes","768","legacy","39","11","C:/Users/chris/OneDrive/Desktop/CM-subject-2.csv","legacy","2 7 5","Lentiform Loewenfeld","3.3.3","0","n","0","right","down","NA","down","right","1046","2152","NA","5605","1046","2","legacy","3","1024","2","48000","-16","experiment","2","even","8","325877","318526","82838","326882","NA","324743","84990","325875","2178","2182","328087","330092","331139","7788","330092","Sternberg task","40","42729","52","yes","1024"
"77.35849056603773","77.35849056603773","814.4528301886793","814.4528301886793","black","experiment","legacy","legacy","legacy","0","uniform","1","undefined","1","left","52","52","0","52","0","52","0","52","0","0","52","52","52","0","52","Tue Oct 20 12:42:08 2020","The main experiment item","yes","Sternbergtask.osexp","C:\Users\chris\OneDrive\Desktop","no","mono","no","18","no","white","no","yes","768","legacy","40","11","C:/Users/chris/OneDrive/Desktop/CM-subject-2.csv","legacy","7 1 3","Lentiform Loewenfeld","3.3.3","2","y","0","left","down","NA","down","left","437","2152","NA","5605","437","2","legacy","3","1024","2","48000","-16","experiment","2","even","1","332290","318526","82838","333295","NA","331149","84990","332288","2178","2182","334500","336506","336944","7788","336505","Sternberg task","41","43166","53","yes","1024"
"77.77777777777777","77.77777777777777","810.5555555555555","810.5555555555555","black","experiment","legacy","legacy","legacy","0","uniform","1","undefined","1","left","53","53","0","53","0","53","0","53","0","0","53","53","53","0","53","Tue Oct 20 12:42:08 2020","The main experiment item","yes","Sternbergtask.osexp","C:\Users\chris\OneDrive\Desktop","no","mono","no","18","no","white","no","yes","768","legacy","41","11","C:/Users/chris/OneDrive/Desktop/CM-subject-2.csv","legacy","3 9 7 6 4","Lentiform Loewenfeld","3.3.3","3","y","0","left","down","NA","down","left","604","2152","NA","5605","604","2","legacy","5","1024","2","48000","-16","experiment","2","even","7","338102","318526","82838","339107","NA","336953","84990","338099","2178","2182","340312","342318","342923","7788","342318","Sternberg task","42","43770","54","yes","1024"
"78.18181818181819","78.18181818181819","820.2181818181818","820.2181818181818","black","experiment","legacy","legacy","legacy","0","uniform","1","undefined","1","right","54","54","0","54","0","54","0","54","0","0","54","54","54","0","54","Tue Oct 20 12:42:08 2020","The main experiment item","yes","Sternbergtask.osexp","C:\Users\chris\OneDrive\Desktop","no","mono","no","18","no","white","no","yes","768","legacy","42","11","C:/Users/chris/OneDrive/Desktop/CM-subject-2.csv","legacy","1 8 7","Lentiform Loewenfeld","3.3.3","0","n","0","right","down","NA","down","right","1342","2152","NA","5605","1342","2","legacy","3","1024","2","48000","-16","experiment","2","even","4","344076","318526","82838","345081","NA","342932","84990","344074","2178","2182","346286","348291","349634","7788","348291","Sternberg task","43","45112","55","yes","1024"
"78.57142857142857","78.57142857142857","819.0714285714286","819.0714285714286","black","experiment","legacy","legacy","legacy","0","uniform","1","undefined","1","right","55","55","0","55","0","55","0","55","0","0","55","55","55","0","55","Tue Oct 20 12:42:08 2020","The main experiment item","yes","Sternbergtask.osexp","C:\Users\chris\OneDrive\Desktop","no","mono","no","18","no","white","no","yes","768","legacy","43","11","C:/Users/chris/OneDrive/Desktop/CM-subject-2.csv","legacy","9","Lentiform Loewenfeld","3.3.3","0","n","0","right","down","NA","down","right","756","2152","NA","5605","756","2","legacy","1","1024","2","48000","-16","experiment","2","even","6","350775","318526","82838","351780","NA","349642","84990","350773","2178","2182","352985","354991","355748","7788","354991","Sternberg task","44","45868","56","yes","1024"
"78.94736842105263","78.94736842105263","823.2105263157895","823.2105263157895","black","experiment","legacy","legacy","legacy","0","uniform","1","undefined","1","right","56","56","0","56","0","56","0","56","0","0","56","56","56","0","56","Tue Oct 20 12:42:08 2020","The main experiment item","yes","Sternbergtask.osexp","C:\Users\chris\OneDrive\Desktop","no","mono","no","18","no","white","no","yes","768","legacy","44","11","C:/Users/chris/OneDrive/Desktop/CM-subject-2.csv","legacy","7 1 5 6 3","Lentiform Loewenfeld","3.3.3","0","n","0","right","down","NA","down","right","1055","2152","NA","5605","1055","2","legacy","5","1024","2","48000","-16","experiment","2","even","8","356911","318526","82838","357916","NA","355757","84990","356909","2178","2182","359121","361126","362183","7788","361126","Sternberg task","45","46923","57","yes","1024"
"77.58620689655173","77.58620689655173","823.3275862068965","823.3275862068965","black","experiment","legacy","legacy","legacy","0","uniform","0","undefined","0","right","57","57","0","57","0","57","0","57","0","0","57","57","57","0","57","Tue Oct 20 12:42:08 2020","The main experiment item","yes","Sternbergtask.osexp","C:\Users\chris\OneDrive\Desktop","no","mono","no","18","no","white","no","yes","768","legacy","45","11","C:/Users/chris/OneDrive/Desktop/CM-subject-2.csv","legacy","1 4 3 6 5","Lentiform Loewenfeld","3.3.3","0","n","0","left","down","NA","down","left","830","2152","NA","5605","830","2","legacy","5","1024","2","48000","-16","experiment","2","even","8","363340","318526","82838","364345","NA","362196","84990","363338","2178","2182","365550","367555","368386","7788","367555","Sternberg task","45","47753","58","yes","1024"
"77.96610169491525","77.96610169491525","833.3220338983051","833.3220338983051","black","experiment","legacy","legacy","legacy","0","uniform","1","undefined","1","right","58","58","0","58","0","58","0","58","0","0","58","58","58","0","58","Tue Oct 20 12:42:08 2020","The main experiment item","yes","Sternbergtask.osexp","C:\Users\chris\OneDrive\Desktop","no","mono","no","18","no","white","no","yes","768","legacy","46","11","C:/Users/chris/OneDrive/Desktop/CM-subject-2.csv","legacy","6 7 5 9","Lentiform Loewenfeld","3.3.3","0","n","0","right","down","NA","down","right","1413","2152","NA","5605","1413","2","legacy","4","1024","2","48000","-16","experiment","2","even","2","369530","368395","82838","370535","NA","362196","84990","369527","2178","2182","371740","373746","375160","7788","373746","Sternberg task","46","49166","59","yes","1024"
"78.33333333333333","78.33333333333333","833.9833333333333","833.9833333333333","black","experiment","legacy","legacy","legacy","0","uniform","1","undefined","1","right","59","59","0","59","0","59","0","59","0","0","59","59","59","0","59","Tue Oct 20 12:42:08 2020","The main experiment item","yes","Sternbergtask.osexp","C:\Users\chris\OneDrive\Desktop","no","mono","no","18","no","white","no","yes","768","legacy","47","11","C:/Users/chris/OneDrive/Desktop/CM-subject-2.csv","legacy","9 7 4 5 8","Lentiform Loewenfeld","3.3.3","0","n","0","right","down","NA","down","right","873","2152","NA","5605","873","2","legacy","5","1024","2","48000","-16","experiment","2","even","6","376320","368395","82838","377325","NA","375169","84990","376318","2178","2182","378530","380535","381409","7788","380535","Sternberg task","47","50039","60","yes","1024"
"78.68852459016394","78.68852459016394","835.8688524590164","835.8688524590164","black","experiment","legacy","legacy","legacy","0","uniform","1","undefined","1","right","60","60","0","60","0","60","0","60","0","0","60","60","60","0","60","Tue Oct 20 12:42:08 2020","The main experiment item","yes","Sternbergtask.osexp","C:\Users\chris\OneDrive\Desktop","no","mono","no","18","no","white","no","yes","768","legacy","48","11","C:/Users/chris/OneDrive/Desktop/CM-subject-2.csv","legacy","5 7 3","Lentiform Loewenfeld","3.3.3","0","n","0","right","down","NA","down","right","949","2152","NA","5605","949","2","legacy","3","1024","2","48000","-16","experiment","2","even","9","382549","368395","82838","383554","NA","381418","84990","382547","2178","2182","384759","386765","387717","7788","386765","Sternberg task","48","50988","61","yes","1024"
"77.41935483870968","77.41935483870968","839.1935483870968","839.1935483870968","black","experiment","legacy","legacy","legacy","0","uniform","0","undefined","0","left","61","61","0","61","0","61","0","61","0","0","61","61","61","0","61","Tue Oct 20 12:42:08 2020","The main experiment item","yes","Sternbergtask.osexp","C:\Users\chris\OneDrive\Desktop","no","mono","no","18","no","white","no","yes","768","legacy","49","11","C:/Users/chris/OneDrive/Desktop/CM-subject-2.csv","legacy","2 4 6 9","Lentiform Loewenfeld","3.3.3","3","y","0","right","down","NA","down","right","1042","2152","NA","5605","1042","2","legacy","4","1024","2","48000","-16","experiment","2","even","6","388874","368395","82838","389879","NA","387734","84990","388872","2178","2182","391084","393089","394132","7788","393089","Sternberg task","48","52030","62","yes","1024"
"77.77777777777777","77.77777777777777","837.2698412698413","837.2698412698413","black","experiment","legacy","legacy","legacy","0","uniform","1","undefined","1","left","62","62","0","62","0","62","0","62","0","0","62","62","62","0","62","Tue Oct 20 12:42:08 2020","The main experiment item","yes","Sternbergtask.osexp","C:\Users\chris\OneDrive\Desktop","no","mono","no","18","no","white","no","yes","768","legacy","50","11","C:/Users/chris/OneDrive/Desktop/CM-subject-2.csv","legacy","4 1 5","Lentiform Loewenfeld","3.3.3","2","y","0","left","down","NA","down","left","718","2152","NA","5605","718","2","legacy","3","1024","2","48000","-16","experiment","2","even","1","395305","394141","82838","396310","NA","387734","84990","395303","2178","2182","397515","399520","400239","7788","399520","Sternberg task","49","52748","63","yes","1024"
"78.125","78.125","834.203125","834.203125","black","experiment","legacy","legacy","legacy","0","uniform","1","undefined","1","left","63","63","0","63","0","63","0","63","0","0","63","63","63","0","63","Tue Oct 20 12:42:08 2020","The main experiment item","yes","Sternbergtask.osexp","C:\Users\chris\OneDrive\Desktop","no","mono","no","18","no","white","no","yes","768","legacy","51","11","C:/Users/chris/OneDrive/Desktop/CM-subject-2.csv","legacy","7 8 6 3 1","Lentiform Loewenfeld","3.3.3","5","y","0","left","down","NA","down","left","641","2152","NA","5605","641","2","legacy","5","1024","2","48000","-16","experiment","2","even","1","401386","394141","82838","402391","NA","400249","84990","401384","2178","2182","403596","405601","406243","7788","405601","Sternberg task","50","53389","64","yes","1024"
"78.46153846153847","78.46153846153847","832.723076923077","832.723076923077","black","experiment","legacy","legacy","legacy","0","uniform","1","undefined","1","right","64","64","0","64","0","64","0","64","0","0","64","64","64","0","64","Tue Oct 20 12:42:08 2020","The main experiment item","yes","Sternbergtask.osexp","C:\Users\chris\OneDrive\Desktop","no","mono","no","18","no","white","no","yes","768","legacy","52","11","C:/Users/chris/OneDrive/Desktop/CM-subject-2.csv","legacy","8 9","Lentiform Loewenfeld","3.3.3","0","n","0","right","down","NA","down","right","738","2152","NA","5605","738","2","legacy","2","1024","2","48000","-16","experiment","2","even","5","407387","394141","82838","408392","NA","406252","84990","407385","2178","2182","409597","411602","412342","7788","411602","Sternberg task","51","54127","65","yes","1024"
"78.78787878787878","78.78787878787878","827.0757575757576","827.0757575757576","black","experiment","legacy","legacy","legacy","0","uniform","1","undefined","1","left","65","65","0","65","0","65","0","65","0","0","65","65","65","0","65","Tue Oct 20 12:42:08 2020","The main experiment item","yes","Sternbergtask.osexp","C:\Users\chris\OneDrive\Desktop","no","mono","no","18","no","white","no","yes","768","legacy","53","11","C:/Users/chris/OneDrive/Desktop/CM-subject-2.csv","legacy","9 5 8 1","Lentiform Loewenfeld","3.3.3","2","y","0","left","down","NA","down","left","460","2152","NA","5605","460","2","legacy","4","1024","2","48000","-16","experiment","2","even","5","413495","394141","82838","414500","NA","412354","84990","413493","2178","2182","415705","417710","418171","7788","417710","Sternberg task","52","54587","66","yes","1024"
"79.1044776119403","79.1044776119403","833.8656716417911","833.8656716417911","black","experiment","legacy","legacy","legacy","0","uniform","1","undefined","1","left","66","66","0","66","0","66","0","66","0","0","66","66","66","0","66","Tue Oct 20 12:42:08 2020","The main experiment item","yes","Sternbergtask.osexp","C:\Users\chris\OneDrive\Desktop","no","mono","no","18","no","white","no","yes","768","legacy","54","11","C:/Users/chris/OneDrive/Desktop/CM-subject-2.csv","legacy","6 1 2","Lentiform Loewenfeld","3.3.3","3","y","0","left","down","NA","down","left","1282","2152","NA","5605","1282","2","legacy","3","1024","2","48000","-16","experiment","2","even","2","419321","394141","82838","420326","NA","418180","84990","419319","2178","2182","421531","423536","424819","7788","423536","Sternberg task","53","55869","67","yes","1024"
"79.41176470588235","79.41176470588235","834.25","834.25","black","experiment","legacy","legacy","legacy","0","uniform","1","undefined","1","left","67","67","0","67","0","67","0","67","0","0","67","67","67","0","67","Tue Oct 20 12:42:08 2020","The main experiment item","yes","Sternbergtask.osexp","C:\Users\chris\OneDrive\Desktop","no","mono","no","18","no","white","no","yes","768","legacy","55","11","C:/Users/chris/OneDrive/Desktop/CM-subject-2.csv","legacy","5 2 6","Lentiform Loewenfeld","3.3.3","2","y","0","left","down","NA","down","left","860","2152","NA","5605","860","2","legacy","3","1024","2","48000","-16","experiment","2","even","2","425977","394141","82838","426983","NA","424828","84990","425975","2178","2182","428188","430193","431054","7788","430193","Sternberg task","54","56729","68","yes","1024"
"79.71014492753623","79.71014492753623","834.8405797101449","834.8405797101449","black","experiment","legacy","legacy","legacy","0","uniform","1","undefined","1","right","68","68","0","68","0","68","0","68","0","0","68","68","68","0","68","Tue Oct 20 12:42:08 2020","The main experiment item","yes","Sternbergtask.osexp","C:\Users\chris\OneDrive\Desktop","no","mono","no","18","no","white","no","yes","768","legacy","56","11","C:/Users/chris/OneDrive/Desktop/CM-subject-2.csv","legacy","5","Lentiform Loewenfeld","3.3.3","0","n","0","right","down","NA","down","right","875","2152","NA","5605","875","2","legacy","1","1024","2","48000","-16","experiment","2","even","8","432212","394141","82838","433217","NA","431062","84990","432209","2178","2182","434422","436427","437304","7788","436427","Sternberg task","55","57604","69","yes","1024"
"80","80","837.2285714285714","837.2285714285714","black","experiment","legacy","legacy","legacy","0","uniform","1","undefined","1","right","69","69","0","69","0","69","0","69","0","0","69","69","69","0","69","Tue Oct 20 12:42:08 2020","The main experiment item","yes","Sternbergtask.osexp","C:\Users\chris\OneDrive\Desktop","no","mono","no","18","no","white","no","yes","768","legacy","57","11","C:/Users/chris/OneDrive/Desktop/CM-subject-2.csv","legacy","3 4 2","Lentiform Loewenfeld","3.3.3","0","n","0","right","down","NA","down","right","1002","2152","NA","5605","1002","2","legacy","3","1024","2","48000","-16","experiment","2","even","5","438455","394141","82838","439460","NA","437310","84990","438453","2178","2182","440665","442670","443673","7788","442670","Sternberg task","56","58606","70","yes","1024"
"80.28169014084507","80.28169014084507","842.4084507042254","842.4084507042254","black","experiment","legacy","legacy","legacy","0","uniform","1","undefined","1","left","70","70","0","70","0","70","0","70","0","0","70","70","70","0","70","Tue Oct 20 12:42:08 2020","The main experiment item","yes","Sternbergtask.osexp","C:\Users\chris\OneDrive\Desktop","no","mono","no","18","no","white","no","yes","768","legacy","58","11","C:/Users/chris/OneDrive/Desktop/CM-subject-2.csv","legacy","3 9 6 2","Lentiform Loewenfeld","3.3.3","4","y","0","left","down","NA","down","left","1205","2152","NA","5605","1205","2","legacy","4","1024","2","48000","-16","experiment","2","even","2","444839","394141","82838","445844","NA","443682","84990","444837","2178","2182","447049","449054","450260","7788","449054","Sternberg task","57","59811","71","yes","1024"
"80.55555555555556","80.55555555555556","847.8055555555555","847.8055555555555","black","experiment","legacy","legacy","legacy","0","uniform","1","undefined","1","left","71","71","0","71","0","71","0","71","0","0","71","71","71","0","71","Tue Oct 20 12:42:08 2020","The main experiment item","yes","Sternbergtask.osexp","C:\Users\chris\OneDrive\Desktop","no","mono","no","18","no","white","no","yes","768","legacy","59","11","C:/Users/chris/OneDrive/Desktop/CM-subject-2.csv","legacy","5 7 8 2 3 8","Lentiform Loewenfeld","3.3.3","5","y","0","left","down","NA","down","left","1231","2152","NA","5605","1231","2","legacy","6","1024","2","48000","-16","experiment","2","even","3","451423","394141","82838","452428","NA","450269","84990","451421","2178","2182","453633","455638","456870","7788","455638","Sternberg task","58","61042","72","yes","1024"
"80.82191780821918","80.82191780821918","846.986301369863","846.986301369863","black","experiment","legacy","legacy","legacy","0","uniform","1","undefined","1","right","72","72","0","72","0","72","0","72","0","0","72","72","72","0","72","Tue Oct 20 12:42:08 2020","The main experiment item","yes","Sternbergtask.osexp","C:\Users\chris\OneDrive\Desktop","no","mono","no","18","no","white","no","yes","768","legacy","60","11","C:/Users/chris/OneDrive/Desktop/CM-subject-2.csv","legacy","8 6 3 4 7","Lentiform Loewenfeld","3.3.3","0","n","0","right","down","NA","down","right","788","2152","NA","5605","788","2","legacy","5","1024","2","48000","-16","experiment","2","even","1","458019","394141","82838","459024","NA","456879","84990","458017","2178","2182","460229","462234","463023","7788","462234","Sternberg task","59","61830","73","yes","1024"
"81.08108108108108","81.08108108108108","846.3513513513514","846.3513513513514","black","experiment","legacy","legacy","legacy","0","uniform","1","undefined","1","left","73","73","0","73","0","73","0","73","0","0","73","73","73","0","73","Tue Oct 20 12:42:08 2020","The main experiment item","yes","Sternbergtask.osexp","C:\Users\chris\OneDrive\Desktop","no","mono","no","18","no","white","no","yes","768","legacy","61","11","C:/Users/chris/OneDrive/Desktop/CM-subject-2.csv","legacy","9 1 7 2","Lentiform Loewenfeld","3.3.3","2","y","0","left","down","NA","down","left","800","2152","NA","5605","800","2","legacy","4","1024","2","48000","-16","experiment","2","even","1","464171","394141","82838","465177","NA","463032","84990","464169","2178","2182","466382","468387","469188","7788","468387","Sternberg task","60","62630","74","yes","1024"
"81.33333333333333","81.33333333333333","841.2666666666667","841.2666666666667","black","experiment","legacy","legacy","legacy","0","uniform","1","undefined","1","left","74","74","0","74","0","74","0","74","0","0","74","74","74","0","74","Tue Oct 20 12:42:08 2020","The main experiment item","yes","Sternbergtask.osexp","C:\Users\chris\OneDrive\Desktop","no","mono","no","18","no","white","no","yes","768","legacy","62","11","C:/Users/chris/OneDrive/Desktop/CM-subject-2.csv","legacy","4","Lentiform Loewenfeld","3.3.3","1","y","0","left","down","NA","down","left","465","2152","NA","5605","465","2","legacy","1","1024","2","48000","-16","experiment","2","even","4","470328","394141","82838","471333","NA","469197","84990","470326","2178","2182","472538","474543","475008","7788","474543","Sternberg task","61","63095","75","yes","1024"
"81.57894736842105","81.57894736842105","843.0526315789474","843.0526315789474","black","experiment","legacy","legacy","legacy","0","uniform","1","undefined","1","left","75","75","0","75","0","75","0","75","0","0","75","75","75","0","75","Tue Oct 20 12:42:08 2020","The main experiment item","yes","Sternbergtask.osexp","C:\Users\chris\OneDrive\Desktop","no","mono","no","18","no","white","no","yes","768","legacy","63","11","C:/Users/chris/OneDrive/Desktop/CM-subject-2.csv","legacy","3 5 4 7","Lentiform Loewenfeld","3.3.3","1","y","0","left","down","NA","down","left","977","2152","NA","5605","977","2","legacy","4","1024","2","48000","-16","experiment","2","even","3","476163","394141","82838","477168","NA","475017","84990","476161","2178","2182","478373","480378","481356","7788","480378","Sternberg task","62","64072","76","yes","1024"
"80.51948051948052","80.51948051948052","847.7272727272727","847.7272727272727","black","experiment","legacy","legacy","legacy","0","uniform","0","undefined","0","left","76","76","0","76","0","76","0","76","0","0","76","76","76","0","76","Tue Oct 20 12:42:08 2020","The main experiment item","yes","Sternbergtask.osexp","C:\Users\chris\OneDrive\Desktop","no","mono","no","18","no","white","no","yes","768","legacy","64","11","C:/Users/chris/OneDrive/Desktop/CM-subject-2.csv","legacy","3 4 9 6 2 9","Lentiform Loewenfeld","3.3.3","5","y","0","right","down","NA","down","right","1203","2152","NA","5605","1203","2","legacy","6","1024","2","48000","-16","experiment","2","even","2","482506","394141","82838","483511","NA","481365","84990","482504","2178","2182","484713","486719","487923","7788","486719","Sternberg task","62","65275","77","yes","1024"
"80.76923076923077","80.76923076923077","843.8205128205128","843.8205128205128","black","experiment","legacy","legacy","legacy","0","uniform","1","undefined","1","left","77","77","0","77","0","77","0","77","0","0","77","77","77","0","77","Tue Oct 20 12:42:08 2020","The main experiment item","yes","Sternbergtask.osexp","C:\Users\chris\OneDrive\Desktop","no","mono","no","18","no","white","no","yes","768","legacy","65","11","C:/Users/chris/OneDrive/Desktop/CM-subject-2.csv","legacy","9 1 6 7 8","Lentiform Loewenfeld","3.3.3","1","y","0","left","down","NA","down","left","543","2152","NA","5605","543","2","legacy","5","1024","2","48000","-16","experiment","2","even","9","489073","487932","82838","490078","NA","481365","84990","489071","2178","2182","491283","493288","493832","7788","493288","Sternberg task","63","65818","78","yes","1024"
"81.0126582278481","81.0126582278481","844.3544303797469","844.3544303797469","black","experiment","legacy","legacy","legacy","0","uniform","1","undefined","1","right","78","78","0","78","0","78","0","78","0","0","78","78","78","0","78","Tue Oct 20 12:42:08 2020","The main experiment item","yes","Sternbergtask.osexp","C:\Users\chris\OneDrive\Desktop","no","mono","no","18","no","white","no","yes","768","legacy","66","11","C:/Users/chris/OneDrive/Desktop/CM-subject-2.csv","legacy","8 5 4 2 9 6","Lentiform Loewenfeld","3.3.3","0","n","0","right","down","NA","down","right","886","2152","NA","5605","886","2","legacy","6","1024","2","48000","-16","experiment","2","even","3","494980","487932","82838","495985","NA","493840","84990","494978","2178","2182","497190","499195","500083","7788","499195","Sternberg task","64","66704","79","yes","1024"
"81.25","81.25","846.4","846.4","black","experiment","legacy","legacy","legacy","0","uniform","1","undefined","1","right","79","79","0","79","0","79","0","79","0","0","79","79","79","0","79","Tue Oct 20 12:42:08 2020","The main experiment item","yes","Sternbergtask.osexp","C:\Users\chris\OneDrive\Desktop","no","mono","no","18","no","white","no","yes","768","legacy","67","11","C:/Users/chris/OneDrive/Desktop/CM-subject-2.csv","legacy","7 4 2 8 1 9","Lentiform Loewenfeld","3.3.3","0","n","0","right","down","NA","down","right","1008","2152","NA","5605","1008","2","legacy","6","1024","2","48000","-16","experiment","2","even","5","501236","487932","82838","502241","NA","500097","84990","501234","2178","2182","503446","505451","506460","7788","505451","Sternberg task","65","67712","80","yes","1024"
"81.48148148148148","81.48148148148148","844.9012345679013","844.9012345679013","black","experiment","legacy","legacy","legacy","0","uniform","1","undefined","1","right","80","80","0","80","0","80","0","80","0","0","80","80","80","0","80","Tue Oct 20 12:42:08 2020","The main experiment item","yes","Sternbergtask.osexp","C:\Users\chris\OneDrive\Desktop","no","mono","no","18","no","white","no","yes","768","legacy","68","11","C:/Users/chris/OneDrive/Desktop/CM-subject-2.csv","legacy","1 5 3 2 8","Lentiform Loewenfeld","3.3.3","0","n","0","right","down","NA","down","right","725","2152","NA","5605","725","2","legacy","5","1024","2","48000","-16","experiment","2","even","4","507609","487932","82838","508615","NA","506468","84990","507607","2178","2182","509820","511825","512552","7788","511825","Sternberg task","66","68437","81","yes","1024"
"81.70731707317073","81.70731707317073","843.6829268292682","843.6829268292682","black","experiment","legacy","legacy","legacy","0","uniform","1","undefined","1","left","81","81","0","81","0","81","0","81","0","0","81","81","81","0","81","Tue Oct 20 12:42:08 2020","The main experiment item","yes","Sternbergtask.osexp","C:\Users\chris\OneDrive\Desktop","no","mono","no","18","no","white","no","yes","768","legacy","69","11","C:/Users/chris/OneDrive/Desktop/CM-subject-2.csv","legacy","2 3","Lentiform Loewenfeld","3.3.3","1","y","0","left","down","NA","down","left","745","2152","NA","5605","745","2","legacy","2","1024","2","48000","-16","experiment","2","even","2","513700","487932","82838","514705","NA","512555","84990","513698","2178","2182","515910","517915","518661","7788","517915","Sternberg task","67","69182","82","yes","1024"
"81.92771084337349","81.92771084337349","843.5783132530121","843.5783132530121","black","experiment","legacy","legacy","legacy","0","uniform","1","undefined","1","left","82","82","0","82","0","82","0","82","0","0","82","82","82","0","82","Tue Oct 20 12:42:08 2020","The main experiment item","yes","Sternbergtask.osexp","C:\Users\chris\OneDrive\Desktop","no","mono","no","18","no","white","no","yes","768","legacy","70","11","C:/Users/chris/OneDrive/Desktop/CM-subject-2.csv","legacy","4 3 2 5 8","Lentiform Loewenfeld","3.3.3","2","y","0","left","down","NA","down","left","835","2152","NA","5605","835","2","legacy","5","1024","2","48000","-16","experiment","2","even","3","519829","487932","82838","520834","NA","518670","84990","519827","2178","2182","522039","524044","524880","7788","524044","Sternberg task","68","70017","83","yes","1024"
"82.14285714285714","82.14285714285714","840.9166666666666","840.9166666666666","black","experiment","legacy","legacy","legacy","0","uniform","1","undefined","1","left","83","83","0","83","0","83","0","83","0","0","83","83","83","0","83","Tue Oct 20 12:42:08 2020","The main experiment item","yes","Sternbergtask.osexp","C:\Users\chris\OneDrive\Desktop","no","mono","no","18","no","white","no","yes","768","legacy","71","11","C:/Users/chris/OneDrive/Desktop/CM-subject-2.csv","legacy","2 4 8 5 1 3","Lentiform Loewenfeld","3.3.3","1","y","0","left","down","NA","down","left","620","2152","NA","5605","620","2","legacy","6","1024","2","48000","-16","experiment","2","even","2","526033","487932","82838","527038","NA","524889","84990","526031","2178","2182","528243","530248","530869","7788","530248","Sternberg task","69","70637","84","yes","1024"
"82.3529411764706","82.3529411764706","844.2352941176471","844.2352941176471","black","experiment","legacy","legacy","legacy","0","uniform","1","undefined","1","right","84","84","0","84","0","84","0","84","0","0","84","84","84","0","84","Tue Oct 20 12:42:08 2020","The main experiment item","yes","Sternbergtask.osexp","C:\Users\chris\OneDrive\Desktop","no","mono","no","18","no","white","no","yes","768","legacy","72","11","C:/Users/chris/OneDrive/Desktop/CM-subject-2.csv","legacy","7 1 8 4 9 3","Lentiform Loewenfeld","3.3.3","0","n","0","right","down","NA","down","right","1123","2152","NA","5605","1123","2","legacy","6","1024","2","48000","-16","experiment","2","even","6","532010","487932","82838","533015","NA","530878","84990","532008","2178","2182","534220","536225","537349","7788","536225","Sternberg task","70","71760","85","yes","1024"
"82.55813953488372","82.55813953488372","840.2209302325581","840.2209302325581","black","experiment","legacy","legacy","legacy","0","uniform","1","undefined","1","left","85","85","0","85","0","85","0","85","0","0","85","85","85","0","85","Tue Oct 20 12:42:08 2020","The main experiment item","yes","Sternbergtask.osexp","C:\Users\chris\OneDrive\Desktop","no","mono","no","18","no","white","no","yes","768","legacy","73","11","C:/Users/chris/OneDrive/Desktop/CM-subject-2.csv","legacy","3 4","Lentiform Loewenfeld","3.3.3","1","y","0","left","down","NA","down","left","499","2152","NA","5605","499","2","legacy","2","1024","2","48000","-16","experiment","2","even","3","538481","487932","82838","539486","NA","537358","84990","538478","2178","2182","540691","542696","543196","7788","542696","Sternberg task","71","72259","86","yes","1024"
"81.60919540229885","81.60919540229885","841.919540229885","841.919540229885","black","experiment","legacy","legacy","legacy","0","uniform","0","undefined","0","right","86","86","0","86","0","86","0","86","0","0","86","86","86","0","86","Tue Oct 20 12:42:08 2020","The main experiment item","yes","Sternbergtask.osexp","C:\Users\chris\OneDrive\Desktop","no","mono","no","18","no","white","no","yes","768","legacy","74","11","C:/Users/chris/OneDrive/Desktop/CM-subject-2.csv","legacy","2 8 7 9 5 3","Lentiform Loewenfeld","3.3.3","0","n","0","left","down","NA","down","left","988","2152","NA","5605","988","2","legacy","6","1024","2","48000","-16","experiment","2","even","6","544354","487932","82838","545359","NA","543204","84990","544352","2178","2182","546564","548569","549559","7788","548569","Sternberg task","71","73247","87","yes","1024"
"80.68181818181819","80.68181818181819","839.5909090909091","839.5909090909091","black","experiment","legacy","legacy","legacy","0","uniform","0","undefined","0","left","87","87","0","87","0","87","0","87","0","0","87","87","87","0","87","Tue Oct 20 12:42:08 2020","The main experiment item","yes","Sternbergtask.osexp","C:\Users\chris\OneDrive\Desktop","no","mono","no","18","no","white","no","yes","768","legacy","75","11","C:/Users/chris/OneDrive/Desktop/CM-subject-2.csv","legacy","7 4 2 6 3 5","Lentiform Loewenfeld","3.3.3","6","y","0","right","down","NA","down","right","637","2152","NA","5605","637","2","legacy","6","1024","2","48000","-16","experiment","2","even","5","550716","549570","82838","551721","NA","543204","84990","550714","2178","2182","552927","554931","555569","7788","554931","Sternberg task","71","73884","88","yes","1024"
"80.89887640449439","80.89887640449439","837.8876404494382","837.8876404494382","black","experiment","legacy","legacy","legacy","0","uniform","1","undefined","1","left","88","88","0","88","0","88","0","88","0","0","88","88","88","0","88","Tue Oct 20 12:42:08 2020","The main experiment item","yes","Sternbergtask.osexp","C:\Users\chris\OneDrive\Desktop","no","mono","no","18","no","white","no","yes","768","legacy","76","11","C:/Users/chris/OneDrive/Desktop/CM-subject-2.csv","legacy","8 5 1 3 9","Lentiform Loewenfeld","3.3.3","4","y","0","left","down","NA","down","left","688","2152","NA","5605","688","2","legacy","5","1024","2","48000","-16","experiment","2","even","3","556719","555578","82838","557724","NA","543204","84990","556717","2178","2182","558929","560934","561623","7788","560934","Sternberg task","72","74572","89","yes","1024"
"81.11111111111111","81.11111111111111","838.7444444444444","838.7444444444444","black","experiment","legacy","legacy","legacy","0","uniform","1","undefined","1","left","89","89","0","89","0","89","0","89","0","0","89","89","89","0","89","Tue Oct 20 12:42:08 2020","The main experiment item","yes","Sternbergtask.osexp","C:\Users\chris\OneDrive\Desktop","no","mono","no","18","no","white","no","yes","768","legacy","77","11","C:/Users/chris/OneDrive/Desktop/CM-subject-2.csv","legacy","6 5","Lentiform Loewenfeld","3.3.3","2","y","0","left","down","NA","down","left","915","2152","NA","5605","915","2","legacy","2","1024","2","48000","-16","experiment","2","even","5","562775","555578","82838","563780","NA","561632","84990","562773","2178","2182","564985","566990","567906","7788","566990","Sternberg task","73","75487","90","yes","1024"
"81.31868131868131","81.31868131868131","836.2527472527472","836.2527472527472","black","experiment","legacy","legacy","legacy","0","uniform","1","undefined","1","left","90","90","0","90","0","90","0","90","0","0","90","90","90","0","90","Tue Oct 20 12:42:08 2020","The main experiment item","yes","Sternbergtask.osexp","C:\Users\chris\OneDrive\Desktop","no","mono","no","18","no","white","no","yes","768","legacy","78","11","C:/Users/chris/OneDrive/Desktop/CM-subject-2.csv","legacy","2 5 4 8 7","Lentiform Loewenfeld","3.3.3","3","y","0","left","down","NA","down","left","612","2152","NA","5605","612","2","legacy","5","1024","2","48000","-16","experiment","2","even","4","569066","555578","82838","570071","NA","567914","84990","569064","2178","2182","571276","573281","573895","7788","573281","Sternberg task","74","76099","91","yes","1024"
"81.52173913043478","81.52173913043478","835.6086956521739","835.6086956521739","black","experiment","legacy","legacy","legacy","0","uniform","1","undefined","1","left","91","91","0","91","0","91","0","91","0","0","91","91","91","0","91","Tue Oct 20 12:42:08 2020","The main experiment item","yes","Sternbergtask.osexp","C:\Users\chris\OneDrive\Desktop","no","mono","no","18","no","white","no","yes","768","legacy","79","11","C:/Users/chris/OneDrive/Desktop/CM-subject-2.csv","legacy","9 8 4","Lentiform Loewenfeld","3.3.3","1","y","0","left","down","NA","down","left","777","2152","NA","5605","777","2","legacy","3","1024","2","48000","-16","experiment","2","even","9","575056","555578","82838","576062","NA","573906","84990","575053","2178","2182","577267","579272","580050","7788","579272","Sternberg task","75","76876","92","yes","1024"
"81.72043010752688","81.72043010752688","834.7311827956989","834.7311827956989","black","experiment","legacy","legacy","legacy","0","uniform","1","undefined","1","right","92","92","0","92","0","92","0","92","0","0","92","92","92","0","92","Tue Oct 20 12:42:08 2020","The main experiment item","yes","Sternbergtask.osexp","C:\Users\chris\OneDrive\Desktop","no","mono","no","18","no","white","no","yes","768","legacy","80","11","C:/Users/chris/OneDrive/Desktop/CM-subject-2.csv","legacy","6 9 4 5 2","Lentiform Loewenfeld","3.3.3","0","n","0","right","down","NA","down","right","754","2152","NA","5605","754","2","legacy","5","1024","2","48000","-16","experiment","2","even","1","581203","555578","82838","582208","NA","580061","84990","581201","2178","2182","583413","585418","586173","7788","585418","Sternberg task","76","77630","93","yes","1024"
"81.91489361702128","81.91489361702128","834.4255319148937","834.4255319148937","black","experiment","legacy","legacy","legacy","0","uniform","1","undefined","1","right","93","93","0","93","0","93","0","93","0","0","93","93","93","0","93","Tue Oct 20 12:42:08 2020","The main experiment item","yes","Sternbergtask.osexp","C:\Users\chris\OneDrive\Desktop","no","mono","no","18","no","white","no","yes","768","legacy","81","11","C:/Users/chris/OneDrive/Desktop/CM-subject-2.csv","legacy","2 3 8 5 6 7","Lentiform Loewenfeld","3.3.3","0","n","0","right","down","NA","down","right","806","2152","NA","5605","806","2","legacy","6","1024","2","48000","-16","experiment","2","even","1","587324","555578","82838","588329","NA","586182","84990","587322","2178","2182","589533","591538","592345","7788","591538","Sternberg task","77","78436","94","yes","1024"
"81.05263157894737","81.05263157894737","833.0947368421052","833.0947368421052","black","experiment","legacy","legacy","legacy","0","uniform","0","undefined","0","right","94","94","0","94","0","94","0","94","0","0","94","94","94","0","94","Tue Oct 20 12:42:08 2020","The main experiment item","yes","Sternbergtask.osexp","C:\Users\chris\OneDrive\Desktop","no","mono","no","18","no","white","no","yes","768","legacy","82","11","C:/Users/chris/OneDrive/Desktop/CM-subject-2.csv","legacy","4 2 7 6 1 3","Lentiform Loewenfeld","3.3.3","0","n","0","left","down","NA","down","left","708","2152","NA","5605","708","2","legacy","6","1024","2","48000","-16","experiment","2","even","8","593498","555578","82838","594504","NA","592353","84990","593496","2178","2182","595709","597714","598423","7788","597714","Sternberg task","77","79144","95","yes","1024"
"81.25","81.25","830.3020833333334","830.3020833333334","black","experiment","legacy","legacy","legacy","0","uniform","1","undefined","1","right","95","95","0","95","0","95","0","95","0","0","95","95","95","0","95","Tue Oct 20 12:42:08 2020","The main experiment item","yes","Sternbergtask.osexp","C:\Users\chris\OneDrive\Desktop","no","mono","no","18","no","white","no","yes","768","legacy","83","11","C:/Users/chris/OneDrive/Desktop/CM-subject-2.csv","legacy","8 4 3 5","Lentiform Loewenfeld","3.3.3","0","n","0","right","down","NA","down","right","565","2152","NA","5605","565","2","legacy","4","1024","2","48000","-16","experiment","2","even","6","599566","598432","82838","600571","NA","592353","84990","599564","2178","2182","601776","603781","604347","7788","603781","Sternberg task","78","79709","96","yes","1024"
"80.41237113402062","80.41237113402062","829.7731958762887","829.7731958762887","black","experiment","legacy","legacy","legacy","0","uniform","0","undefined","0","right","96","96","0","96","0","96","0","96","0","0","96","96","96","0","96","Tue Oct 20 12:42:08 2020","The main experiment item","yes","Sternbergtask.osexp","C:\Users\chris\OneDrive\Desktop","no","mono","no","18","no","white","no","yes","768","legacy","84","11","C:/Users/chris/OneDrive/Desktop/CM-subject-2.csv","legacy","1 7 8 3 9","Lentiform Loewenfeld","3.3.3","0","n","0","left","down","NA","down","left","779","2152","NA","5605","779","2","legacy","5","1024","2","48000","-16","experiment","2","even","2","605509","598432","82838","606514","NA","604356","84990","605507","2178","2182","607719","609724","610504","7788","609724","Sternberg task","78","80488","97","yes","1024"
"80.61224489795919","80.61224489795919","826.9489795918367","826.9489795918367","black","experiment","legacy","legacy","legacy","0","uniform","1","undefined","1","left","97","97","0","97","0","97","0","97","0","0","97","97","97","0","97","Tue Oct 20 12:42:08 2020","The main experiment item","yes","Sternbergtask.osexp","C:\Users\chris\OneDrive\Desktop","no","mono","no","18","no","white","no","yes","768","legacy","85","11","C:/Users/chris/OneDrive/Desktop/CM-subject-2.csv","legacy","9 4 2","Lentiform Loewenfeld","3.3.3","1","y","0","left","down","NA","down","left","553","2152","NA","5605","553","2","legacy","3","1024","2","48000","-16","experiment","2","even","9","611652","610513","82838","612657","NA","604356","84990","611650","2178","2182","613862","615867","616421","7788","615867","Sternberg task","79","81041","98","yes","1024"
"80.8080808080808","80.8080808080808","825.979797979798","825.979797979798","black","experiment","legacy","legacy","legacy","0","uniform","1","undefined","1","right","98","98","0","98","0","98","0","98","0","0","98","98","98","0","98","Tue Oct 20 12:42:08 2020","The main experiment item","yes","Sternbergtask.osexp","C:\Users\chris\OneDrive\Desktop","no","mono","no","18","no","white","no","yes","768","legacy","86","11","C:/Users/chris/OneDrive/Desktop/CM-subject-2.csv","legacy","7 9 1 6","Lentiform Loewenfeld","3.3.3","0","n","0","right","down","NA","down","right","731","2152","NA","5605","731","2","legacy","4","1024","2","48000","-16","experiment","2","even","4","617581","610513","82838","618586","NA","616431","84990","617579","2178","2182","619791","621796","622528","7788","621796","Sternberg task","80","81772","99","yes","1024"
"81","81","824.32","824.32","black","experiment","legacy","legacy","legacy","0","uniform","1","undefined","1","right","99","99","0","99","0","99","0","99","0","0","99","99","99","0","99","Tue Oct 20 12:42:08 2020","The main experiment item","yes","Sternbergtask.osexp","C:\Users\chris\OneDrive\Desktop","no","mono","no","18","no","white","no","yes","768","legacy","87","11","C:/Users/chris/OneDrive/Desktop/CM-subject-2.csv","legacy","6 9 4 5 3 2","Lentiform Loewenfeld","3.3.3","0","n","0","right","down","NA","down","right","660","2152","NA","5605","660","2","legacy","6","1024","2","48000","-16","experiment","2","even","8","623679","610513","82838","624684","NA","622537","84990","623677","2178","2182","625889","627894","628555","7788","627894","Sternberg task","81","82432","100","yes","1024"
"81.18811881188118","81.18811881188118","822.7128712871287","822.7128712871287","black","experiment","legacy","legacy","legacy","0","uniform","1","undefined","1","right","100","100","0","100","0","100","0","100","0","0","100","100","100","0","100","Tue Oct 20 12:42:08 2020","The main experiment item","yes","Sternbergtask.osexp","C:\Users\chris\OneDrive\Desktop","no","mono","no","18","no","white","no","yes","768","legacy","88","11","C:/Users/chris/OneDrive/Desktop/CM-subject-2.csv","legacy","1 7 5 2 9","Lentiform Loewenfeld","3.3.3","0","n","0","right","down","NA","down","right","662","2152","NA","5605","662","2","legacy","5","1024","2","48000","-16","experiment","2","even","3","629706","610513","82838","630711","NA","628564","84990","629704","2178","2182","631916","633921","634586","7788","633921","Sternberg task","82","83094","101","yes","1024"
"80.3921568627451","80.3921568627451","834.2549019607843","834.2549019607843","black","experiment","legacy","legacy","legacy","0","uniform","0","undefined","0","right","101","101","0","101","0","101","0","101","0","0","101","101","101","0","101","Tue Oct 20 12:42:08 2020","The main experiment item","yes","Sternbergtask.osexp","C:\Users\chris\OneDrive\Desktop","no","mono","no","18","no","white","no","yes","768","legacy","89","11","C:/Users/chris/OneDrive/Desktop/CM-subject-2.csv","legacy","3 9 1","Lentiform Loewenfeld","3.3.3","0","n","0","None","down","NA","down","None","2000","2152","NA","5605","2000","2","legacy","3","1024","2","48000","-16","experiment","2","even","7","635743","610513","82838","636748","NA","634600","84990","635741","2178","2182","637953","639958","641958","7788","639958","Sternberg task","82","85094","102","yes","1024"
"80.58252427184466","80.58252427184466","831.9611650485436","831.9611650485436","black","experiment","legacy","legacy","legacy","0","uniform","1","undefined","1","left","102","102","0","102","0","102","0","102","0","0","102","102","102","0","102","Tue Oct 20 12:42:08 2020","The main experiment item","yes","Sternbergtask.osexp","C:\Users\chris\OneDrive\Desktop","no","mono","no","18","no","white","no","yes","768","legacy","90","11","C:/Users/chris/OneDrive/Desktop/CM-subject-2.csv","legacy","7 2 3","Lentiform Loewenfeld","3.3.3","3","y","0","left","down","NA","down","left","598","2152","NA","5605","598","2","legacy","3","1024","2","48000","-16","experiment","2","even","3","643128","641967","82838","644133","NA","634600","84990","643126","2178","2182","645338","647343","647943","7788","647343","Sternberg task","83","85692","103","yes","1024"
"80.76923076923077","80.76923076923077","842.0480769230769","842.0480769230769","black","experiment","legacy","legacy","legacy","0","uniform","1","undefined","1","left","103","103","0","103","0","103","0","103","0","0","103","103","103","0","103","Tue Oct 20 12:42:08 2020","The main experiment item","yes","Sternbergtask.osexp","C:\Users\chris\OneDrive\Desktop","no","mono","no","18","no","white","no","yes","768","legacy","91","11","C:/Users/chris/OneDrive/Desktop/CM-subject-2.csv","legacy","9 5 3 8 4","Lentiform Loewenfeld","3.3.3","1","y","0","left","down","NA","down","left","1881","2152","NA","5605","1881","2","legacy","5","1024","2","48000","-16","experiment","2","even","9","649094","641967","82838","650099","NA","647955","84990","649092","2178","2182","651304","653309","655191","7788","653309","Sternberg task","84","87573","104","yes","1024"
"80.95238095238095","80.95238095238095","839.0190476190476","839.0190476190476","black","experiment","legacy","legacy","legacy","0","uniform","1","undefined","1","right","104","104","0","104","0","104","0","104","0","0","104","104","104","0","104","Tue Oct 20 12:42:08 2020","The main experiment item","yes","Sternbergtask.osexp","C:\Users\chris\OneDrive\Desktop","no","mono","no","18","no","white","no","yes","768","legacy","92","11","C:/Users/chris/OneDrive/Desktop/CM-subject-2.csv","legacy","1 6 4 3 9 7","Lentiform Loewenfeld","3.3.3","0","n","0","right","down","NA","down","right","524","2152","NA","5605","524","2","legacy","6","1024","2","48000","-16","experiment","2","even","8","656343","641967","82838","657348","NA","655200","84990","656341","2178","2182","658553","660558","661083","7788","660558","Sternberg task","85","88097","105","yes","1024"
"81.13207547169812","81.13207547169812","839.5188679245283","839.5188679245283","black","experiment","legacy","legacy","legacy","0","uniform","1","undefined","1","right","105","105","0","105","0","105","0","105","0","0","105","105","105","0","105","Tue Oct 20 12:42:08 2020","The main experiment item","yes","Sternbergtask.osexp","C:\Users\chris\OneDrive\Desktop","no","mono","no","18","no","white","no","yes","768","legacy","93","11","C:/Users/chris/OneDrive/Desktop/CM-subject-2.csv","legacy","5 3 8 7 2 4","Lentiform Loewenfeld","3.3.3","0","n","0","right","down","NA","down","right","892","2152","NA","5605","892","2","legacy","6","1024","2","48000","-16","experiment","2","even","9","662236","641967","82838","663241","NA","661093","84990","662234","2178","2182","664446","666451","667344","7788","666451","Sternberg task","86","88989","106","yes","1024"
"80.37383177570094","80.37383177570094","850.373831775701","850.373831775701","black","experiment","legacy","legacy","legacy","0","uniform","0","undefined","0","left","106","106","0","106","0","106","0","106","0","0","106","106","106","0","106","Tue Oct 20 12:42:08 2020","The main experiment item","yes","Sternbergtask.osexp","C:\Users\chris\OneDrive\Desktop","no","mono","no","18","no","white","no","yes","768","legacy","94","11","C:/Users/chris/OneDrive/Desktop/CM-subject-2.csv","legacy","9 3 1 2 5","Lentiform Loewenfeld","3.3.3","4","y","0","None","down","NA","down","None","2001","2152","NA","5605","2001","2","legacy","5","1024","2","48000","-16","experiment","2","even","2","668496","641967","82838","669501","NA","667352","84990","668494","2178","2182","670706","672711","674712","7788","672711","Sternberg task","86","90990","107","yes","1024"
"80.55555555555556","80.55555555555556","857.4722222222222","857.4722222222222","black","experiment","legacy","legacy","legacy","0","uniform","1","undefined","1","right","107","107","0","107","0","107","0","107","0","0","107","107","107","0","107","Tue Oct 20 12:42:08 2020","The main experiment item","yes","Sternbergtask.osexp","C:\Users\chris\OneDrive\Desktop","no","mono","no","18","no","white","no","yes","768","legacy","95","11","C:/Users/chris/OneDrive/Desktop/CM-subject-2.csv","legacy","6 8 4","Lentiform Loewenfeld","3.3.3","0","n","0","right","down","NA","down","right","1617","2152","NA","5605","1617","2","legacy","3","1024","2","48000","-16","experiment","2","even","1","675872","674722","82838","676877","NA","667352","84990","675870","2178","2182","678082","680088","681706","7788","680088","Sternberg task","87","92607","108","yes","1024"
"79.81651376146789","79.81651376146789","863.2293577981651","863.2293577981651","black","experiment","legacy","legacy","legacy","0","uniform","0","undefined","0","right","108","108","0","108","0","108","0","108","0","0","108","108","108","0","108","Tue Oct 20 12:42:08 2020","The main experiment item","yes","Sternbergtask.osexp","C:\Users\chris\OneDrive\Desktop","no","mono","no","18","no","white","no","yes","768","legacy","96","11","C:/Users/chris/OneDrive/Desktop/CM-subject-2.csv","legacy","2 5 1 4","Lentiform Loewenfeld","3.3.3","0","n","0","left","down","NA","down","left","1485","2152","NA","5605","1485","2","legacy","4","1024","2","48000","-16","experiment","2","even","6","682858","674722","82838","683862","NA","681715","84990","682856","2178","2182","685066","687071","688557","7788","687071","Sternberg task","87","94092","109","yes","1024"
"79.0909090909091","79.0909090909091","866.4545454545455","866.4545454545455","black","experiment","legacy","legacy","legacy","0","uniform","0","undefined","0","left","109","109","0","109","0","109","0","109","0","0","109","109","109","0","109","Tue Oct 20 12:42:08 2020","The main experiment item","yes","Sternbergtask.osexp","C:\Users\chris\OneDrive\Desktop","no","mono","no","18","no","white","no","yes","768","legacy","97","11","C:/Users/chris/OneDrive/Desktop/CM-subject-2.csv","legacy","6 8 9 3 4 9","Lentiform Loewenfeld","3.3.3","5","y","0","right","down","NA","down","right","1218","2152","NA","5605","1218","2","legacy","6","1024","2","48000","-16","experiment","2","even","4","689708","688566","82838","690713","NA","681715","84990","689706","2178","2182","691918","693924","695143","7788","693924","Sternberg task","87","95310","110","yes","1024"
"79.27927927927928","79.27927927927928","865.7117117117117","865.7117117117117","black","experiment","legacy","legacy","legacy","0","uniform","1","undefined","1","left","110","110","0","110","0","110","0","110","0","0","110","110","110","0","110","Tue Oct 20 12:42:08 2020","The main experiment item","yes","Sternbergtask.osexp","C:\Users\chris\OneDrive\Desktop","no","mono","no","18","no","white","no","yes","768","legacy","98","11","C:/Users/chris/OneDrive/Desktop/CM-subject-2.csv","legacy","8 9 6 1","Lentiform Loewenfeld","3.3.3","2","y","0","left","down","NA","down","left","784","2152","NA","5605","784","2","legacy","4","1024","2","48000","-16","experiment","2","even","9","696285","695152","82838","697290","NA","681715","84990","696283","2178","2182","698495","700501","701286","7788","700500","Sternberg task","88","96094","111","yes","1024"
"79.46428571428571","79.46428571428571","871.2321428571429","871.2321428571429","black","experiment","legacy","legacy","legacy","0","uniform","1","undefined","1","right","111","111","0","111","0","111","0","111","0","0","111","111","111","0","111","Tue Oct 20 12:42:08 2020","The main experiment item","yes","Sternbergtask.osexp","C:\Users\chris\OneDrive\Desktop","no","mono","no","18","no","white","no","yes","768","legacy","99","11","C:/Users/chris/OneDrive/Desktop/CM-subject-2.csv","legacy","4 1","Lentiform Loewenfeld","3.3.3","0","n","0","right","down","NA","down","right","1484","2152","NA","5605","1484","2","legacy","2","1024","2","48000","-16","experiment","2","even","6","702448","695152","82838","703454","NA","701295","84990","702446","2178","2182","704659","706665","708151","7788","706665","Sternberg task","89","97578","112","yes","1024"
"78.76106194690266","78.76106194690266","868.3362831858407","868.3362831858407","black","experiment","legacy","legacy","legacy","0","uniform","0","undefined","0","right","112","112","0","112","0","112","0","112","0","0","112","112","112","0","112","Tue Oct 20 12:42:08 2020","The main experiment item","yes","Sternbergtask.osexp","C:\Users\chris\OneDrive\Desktop","no","mono","no","18","no","white","no","yes","768","legacy","100","11","C:/Users/chris/OneDrive/Desktop/CM-subject-2.csv","legacy","7 3 2 8","Lentiform Loewenfeld","3.3.3","0","n","0","left","down","NA","down","left","544","2152","NA","5605","544","2","legacy","4","1024","2","48000","-16","experiment","2","even","4","709301","695152","82838","710306","NA","708160","84990","709299","2178","2182","711511","713516","714061","7788","713516","Sternberg task","89","98122","113","yes","1024"
"78.94736842105263","78.94736842105263","870.8070175438596","870.8070175438596","black","experiment","legacy","legacy","legacy","0","uniform","1","undefined","1","left","113","113","0","113","0","113","0","113","0","0","113","113","113","0","113","Tue Oct 20 12:42:08 2020","The main experiment item","yes","Sternbergtask.osexp","C:\Users\chris\OneDrive\Desktop","no","mono","no","18","no","white","no","yes","768","legacy","101","11","C:/Users/chris/OneDrive/Desktop/CM-subject-2.csv","legacy","1 4 9 3 2 5","Lentiform Loewenfeld","3.3.3","3","y","0","left","down","NA","down","left","1150","2152","NA","5605","1150","2","legacy","6","1024","2","48000","-16","experiment","2","even","9","715209","714069","82838","716214","NA","708160","84990","715207","2178","2182","717419","719424","720575","7788","719424","Sternberg task","90","99272","114","yes","1024"
"79.1304347826087","79.1304347826087","876.695652173913","876.695652173913","black","experiment","legacy","legacy","legacy","0","uniform","1","undefined","1","left","114","114","0","114","0","114","0","114","0","0","114","114","114","0","114","Tue Oct 20 12:42:08 2020","The main experiment item","yes","Sternbergtask.osexp","C:\Users\chris\OneDrive\Desktop","no","mono","no","18","no","white","no","yes","768","legacy","102","11","C:/Users/chris/OneDrive/Desktop/CM-subject-2.csv","legacy","2 3 7 4","Lentiform Loewenfeld","3.3.3","1","y","0","left","down","NA","down","left","1548","2152","NA","5605","1548","2","legacy","4","1024","2","48000","-16","experiment","2","even","2","721726","714069","82838","722731","NA","720585","84990","721724","2178","2182","723936","725941","727490","7788","725941","Sternberg task","91","100820","115","yes","1024"
"78.44827586206897","78.44827586206897","886.3793103448276","886.3793103448276","black","experiment","legacy","legacy","legacy","0","uniform","0","undefined","0","left","115","115","0","115","0","115","0","115","0","0","115","115","115","0","115","Tue Oct 20 12:42:08 2020","The main experiment item","yes","Sternbergtask.osexp","C:\Users\chris\OneDrive\Desktop","no","mono","no","18","no","white","no","yes","768","legacy","103","11","C:/Users/chris/OneDrive/Desktop/CM-subject-2.csv","legacy","2 8 5 1","Lentiform Loewenfeld","3.3.3","4","y","0","None","down","NA","down","None","2000","2152","NA","5605","2000","2","legacy","4","1024","2","48000","-16","experiment","2","even","1","728648","714069","82838","729653","NA","727499","84990","728646","2178","2182","730858","732863","734864","7788","732863","Sternberg task","91","102820","116","yes","1024"
"78.63247863247864","78.63247863247864","895.0769230769231","895.0769230769231","black","experiment","legacy","legacy","legacy","0","uniform","1","undefined","1","right","116","116","0","116","0","116","0","116","0","0","116","116","116","0","116","Tue Oct 20 12:42:08 2020","The main experiment item","yes","Sternbergtask.osexp","C:\Users\chris\OneDrive\Desktop","no","mono","no","18","no","white","no","yes","768","legacy","104","11","C:/Users/chris/OneDrive/Desktop/CM-subject-2.csv","legacy","7 9","Lentiform Loewenfeld","3.3.3","0","n","0","right","down","NA","down","right","1904","2152","NA","5605","1904","2","legacy","2","1024","2","48000","-16","experiment","2","even","1","736025","734873","82838","737030","NA","727499","84990","736023","2178","2182","738235","740240","742145","7788","740240","Sternberg task","92","104724","117","yes","1024"
