"acc","accuracy","average_response_time","avg_rt","background","block","canvas_backend","clock_backend","color_backend","compensation","coordinates","correct","correct_Instructions1","correct_keyboard_response","correct_response","count_ISI","count_Instructions1","count_Practiceloop","count_closing","count_correctFeedback","count_experiment","count_experimentalLoop","count_expsequence","count_fixation","count_incorrectFeedback","count_instructions2","count_keyboard_response","count_logger","count_memoryset","count_probe","datetime","description","disable_garbage_collection","experiment_file","experiment_path","font_bold","font_family","font_italic","font_size","font_underline","foreground","form_clicks","fullscreen","height","keyboard_backend","live_row","live_row_Practiceloop","logfile","mouse_backend","numberSet","opensesame_codename","opensesame_version","posInSet","present","psychopy_suppress_warnings","repeat_cycle","response","response_Instructions1","response_closing","response_instructions2","response_keyboard_response","response_time","response_time_Instructions1","response_time_closing","response_time_instructions2","response_time_keyboard_response","round_decimals","sampler_backend","setSize","sound_buf_size","sound_channels","sound_freq","sound_sample_size","start","subject_nr","subject_parity","target","time_ISI","time_Instructions1","time_Practiceloop","time_closing","time_correctFeedback","time_experiment","time_experimentalLoop","time_expsequence","time_fixation","time_incorrectFeedback","time_instructions2","time_keyboard_response","time_logger","time_memoryset","time_probe","title","total_correct","total_response_time","total_responses","uniform_coordinates","width"
"100","100","588","588","black","practice","legacy","legacy","legacy","0","uniform","1","undefined","1","right","0","0","0","0","0","0","0","0","0","0","0","0","0","0","0","10/25/20 18:13:03","The main experiment item","yes","SternbergTask.osexp","C:\Users\User\Desktop\Quant 2020\Sternberg Task 3","no","mono","no","18","no","white","no","yes","768","legacy","0","0","C:/Users/User/Desktop/Quant 2020/Sternberg Task 3/VT-subject-3.csv","legacy","5","Lentiform Loewenfeld","3.3.3","0","n","yes","0","right","left","NA","NA","right","588","7556","NA","NA","588","2","legacy","1","1024","2","48000","-16","experiment","3","odd","3","12813","1933","9490","NA","NA","1926","NA","10598","10601","NA","NA","14819","15407","11607","14819","Sternberg Task","1","588","1","yes","1024"
"100","100","620.5","620.5","black","practice","legacy","legacy","legacy","0","uniform","1","undefined","1","left","1","0","0","0","1","0","0","1","1","1","0","1","1","1","1","10/25/20 18:13:03","The main experiment item","yes","SternbergTask.osexp","C:\Users\User\Desktop\Quant 2020\Sternberg Task 3","no","mono","no","18","no","white","no","yes","768","legacy","1","1","C:/Users/User/Desktop/Quant 2020/Sternberg Task 3/VT-subject-3.csv","legacy","6","Lentiform Loewenfeld","3.3.3","1","y","yes","0","left","left","NA","NA","left","653","7556","NA","NA","653","2","legacy","1","1024","2","48000","-16","experiment","3","odd","6","18845","1933","9490","NA","15490","1926","NA","16631","16634","NA","NA","20852","21506","17639","20851","Sternberg Task","2","1241","2","yes","1024"
"100","100","682.666666667","682.666666667","black","practice","legacy","legacy","legacy","0","uniform","1","undefined","1","right","2","0","0","0","2","0","0","2","2","2","0","2","2","2","2","10/25/20 18:13:03","The main experiment item","yes","SternbergTask.osexp","C:\Users\User\Desktop\Quant 2020\Sternberg Task 3","no","mono","no","18","no","white","no","yes","768","legacy","2","2","C:/Users/User/Desktop/Quant 2020/Sternberg Task 3/VT-subject-3.csv","legacy","4 1 5","Lentiform Loewenfeld","3.3.3","0","n","yes","0","right","left","NA","NA","right","807","7556","NA","NA","807","2","legacy","3","1024","2","48000","-16","experiment","3","odd","2","24872","1933","9490","NA","21511","1926","NA","22657","22660","NA","NA","26878","27686","23666","26878","Sternberg Task","3","2048","3","yes","1024"
"100","100","726.5","726.5","black","practice","legacy","legacy","legacy","0","uniform","1","undefined","1","right","3","0","0","0","3","0","0","3","3","3","0","3","3","3","3","10/25/20 18:13:03","The main experiment item","yes","SternbergTask.osexp","C:\Users\User\Desktop\Quant 2020\Sternberg Task 3","no","mono","no","18","no","white","no","yes","768","legacy","3","3","C:/Users/User/Desktop/Quant 2020/Sternberg Task 3/VT-subject-3.csv","legacy","5 7 8 4 1 2","Lentiform Loewenfeld","3.3.3","0","n","yes","0","right","left","NA","NA","right","858","7556","NA","NA","858","2","legacy","6","1024","2","48000","-16","experiment","3","odd","6","31051","1933","9490","NA","27691","1926","NA","28836","28839","NA","NA","33058","33917","29845","33057","Sternberg Task","4","2906","4","yes","1024"
"100","100","847.6","847.6","black","practice","legacy","legacy","legacy","0","uniform","1","undefined","1","left","4","0","0","0","4","0","0","4","4","4","0","4","4","4","4","10/25/20 18:13:03","The main experiment item","yes","SternbergTask.osexp","C:\Users\User\Desktop\Quant 2020\Sternberg Task 3","no","mono","no","18","no","white","no","yes","768","legacy","4","4","C:/Users/User/Desktop/Quant 2020/Sternberg Task 3/VT-subject-3.csv","legacy","2 9 4","Lentiform Loewenfeld","3.3.3","3","y","yes","0","left","left","NA","NA","left","1332","7556","NA","NA","1332","2","legacy","3","1024","2","48000","-16","experiment","3","odd","4","37276","1933","9490","NA","33922","1926","NA","35061","35064","NA","NA","39283","40616","36070","39283","Sternberg Task","5","4238","5","yes","1024"
"100","100","864.666666667","864.666666667","black","practice","legacy","legacy","legacy","0","uniform","1","undefined","1","right","5","0","0","0","5","0","0","5","5","5","0","5","5","5","5","10/25/20 18:13:03","The main experiment item","yes","SternbergTask.osexp","C:\Users\User\Desktop\Quant 2020\Sternberg Task 3","no","mono","no","18","no","white","no","yes","768","legacy","5","5","C:/Users/User/Desktop/Quant 2020/Sternberg Task 3/VT-subject-3.csv","legacy","3 1 9 4","Lentiform Loewenfeld","3.3.3","0","n","yes","0","right","left","NA","NA","right","950","7556","NA","NA","950","2","legacy","4","1024","2","48000","-16","experiment","3","odd","6","43971","1933","9490","NA","40621","1926","NA","41756","41759","NA","NA","45977","46928","42765","45976","Sternberg Task","6","5188","6","yes","1024"
"100","100","850","850","black","practice","legacy","legacy","legacy","0","uniform","1","undefined","1","left","6","0","0","0","6","0","0","6","6","6","0","6","6","6","6","10/25/20 18:13:03","The main experiment item","yes","SternbergTask.osexp","C:\Users\User\Desktop\Quant 2020\Sternberg Task 3","no","mono","no","18","no","white","no","yes","768","legacy","6","6","C:/Users/User/Desktop/Quant 2020/Sternberg Task 3/VT-subject-3.csv","legacy","4 8","Lentiform Loewenfeld","3.3.3","1","y","yes","0","left","left","NA","NA","left","762","7556","NA","NA","762","2","legacy","2","1024","2","48000","-16","experiment","3","odd","4","50283","1933","9490","NA","46933","1926","NA","48069","48072","NA","NA","52291","53054","49078","52290","Sternberg Task","7","5950","7","yes","1024"
"100","100","864.375","864.375","black","practice","legacy","legacy","legacy","0","uniform","1","undefined","1","left","7","0","0","0","7","0","0","7","7","7","0","7","7","7","7","10/25/20 18:13:03","The main experiment item","yes","SternbergTask.osexp","C:\Users\User\Desktop\Quant 2020\Sternberg Task 3","no","mono","no","18","no","white","no","yes","768","legacy","7","7","C:/Users/User/Desktop/Quant 2020/Sternberg Task 3/VT-subject-3.csv","legacy","4 3 1 7 9 8","Lentiform Loewenfeld","3.3.3","1","y","yes","0","left","left","NA","NA","left","965","7556","NA","NA","965","2","legacy","6","1024","2","48000","-16","experiment","3","odd","4","56407","1933","9490","NA","53059","1926","NA","54193","54195","NA","NA","58413","59379","55201","58412","Sternberg Task","8","6915","8","yes","1024"
"100","100","952.555555556","952.555555556","black","practice","legacy","legacy","legacy","0","uniform","1","undefined","1","right","8","0","0","0","8","0","0","8","8","8","0","8","8","8","8","10/25/20 18:13:03","The main experiment item","yes","SternbergTask.osexp","C:\Users\User\Desktop\Quant 2020\Sternberg Task 3","no","mono","no","18","no","white","no","yes","768","legacy","8","8","C:/Users/User/Desktop/Quant 2020/Sternberg Task 3/VT-subject-3.csv","legacy","2 1","Lentiform Loewenfeld","3.3.3","0","n","yes","0","right","left","NA","NA","right","1658","7556","NA","NA","1658","2","legacy","2","1024","2","48000","-16","experiment","3","odd","5","62739","1933","9490","NA","59384","1926","NA","60523","60526","NA","NA","64746","66405","61534","64746","Sternberg Task","9","8573","9","yes","1024"
"100","100","918","918","black","practice","legacy","legacy","legacy","0","uniform","1","undefined","1","right","9","0","0","0","9","0","0","9","9","9","0","9","9","9","9","10/25/20 18:13:03","The main experiment item","yes","SternbergTask.osexp","C:\Users\User\Desktop\Quant 2020\Sternberg Task 3","no","mono","no","18","no","white","no","yes","768","legacy","9","9","C:/Users/User/Desktop/Quant 2020/Sternberg Task 3/VT-subject-3.csv","legacy","9 6 7 4 5","Lentiform Loewenfeld","3.3.3","0","n","yes","0","right","left","NA","NA","right","607","7556","NA","NA","607","2","legacy","5","1024","2","48000","-16","experiment","3","odd","3","69759","1933","9490","NA","66410","1926","NA","67546","67548","NA","NA","71767","72375","68553","71766","Sternberg Task","10","9180","10","yes","1024"
"100","100","892.909090909","892.909090909","black","practice","legacy","legacy","legacy","0","uniform","1","undefined","1","left","10","0","0","0","10","0","0","10","10","10","0","10","10","10","10","10/25/20 18:13:03","The main experiment item","yes","SternbergTask.osexp","C:\Users\User\Desktop\Quant 2020\Sternberg Task 3","no","mono","no","18","no","white","no","yes","768","legacy","10","10","C:/Users/User/Desktop/Quant 2020/Sternberg Task 3/VT-subject-3.csv","legacy","1 5 2 9","Lentiform Loewenfeld","3.3.3","2","y","yes","0","left","left","NA","NA","left","642","7556","NA","NA","642","2","legacy","4","1024","2","48000","-16","experiment","3","odd","5","75735","1933","9490","NA","72380","1926","NA","73521","73524","NA","NA","77742","78385","74529","77742","Sternberg Task","11","9822","11","yes","1024"
"100","100","879.083333333","879.083333333","black","practice","legacy","legacy","legacy","0","uniform","1","undefined","1","left","11","0","0","0","11","0","0","11","11","11","0","11","11","11","11","10/25/20 18:13:03","The main experiment item","yes","SternbergTask.osexp","C:\Users\User\Desktop\Quant 2020\Sternberg Task 3","no","mono","no","18","no","white","no","yes","768","legacy","11","11","C:/Users/User/Desktop/Quant 2020/Sternberg Task 3/VT-subject-3.csv","legacy","1 7 9 8 5","Lentiform Loewenfeld","3.3.3","4","y","yes","0","left","left","NA","NA","left","727","7556","NA","NA","727","2","legacy","5","1024","2","48000","-16","experiment","3","odd","8","81749","1933","9490","NA","78390","1926","NA","79533","79536","NA","NA","83755","84482","80542","83755","Sternberg Task","12","10549","12","yes","1024"
"100","100","866.692307692","866.692307692","black","experiment","legacy","legacy","legacy","0","uniform","1","undefined","1","right","12","0","0","0","12","0","0","12","12","12","0","12","12","12","12","10/25/20 18:13:03","The main experiment item","yes","SternbergTask.osexp","C:\Users\User\Desktop\Quant 2020\Sternberg Task 3","no","mono","no","18","no","white","no","yes","768","legacy","0","11","C:/Users/User/Desktop/Quant 2020/Sternberg Task 3/VT-subject-3.csv","legacy","6 9 4 5 2","Lentiform Loewenfeld","3.3.3","0","n","yes","0","right","left","NA","space","right","718","7556","NA","35110","718","2","legacy","5","1024","2","48000","-16","experiment","3","odd","1","123011","1933","9490","NA","84488","1926","120642","120796","120799","NA","85532","125017","125736","121805","125017","Sternberg Task","13","11267","13","yes","1024"
"100","100","873.071428571","873.071428571","black","experiment","legacy","legacy","legacy","0","uniform","1","undefined","1","left","13","0","0","0","13","0","0","13","13","13","0","13","13","13","13","10/25/20 18:13:03","The main experiment item","yes","SternbergTask.osexp","C:\Users\User\Desktop\Quant 2020\Sternberg Task 3","no","mono","no","18","no","white","no","yes","768","legacy","1","11","C:/Users/User/Desktop/Quant 2020/Sternberg Task 3/VT-subject-3.csv","legacy","8 5 1 3 9","Lentiform Loewenfeld","3.3.3","4","y","yes","0","left","left","NA","space","left","956","7556","NA","35110","956","2","legacy","5","1024","2","48000","-16","experiment","3","odd","3","129098","1933","9490","NA","125741","1926","120642","126883","126886","NA","85532","131104","132061","127892","131104","Sternberg Task","14","12223","14","yes","1024"
"100","100","866","866","black","experiment","legacy","legacy","legacy","0","uniform","1","undefined","1","right","14","0","0","0","14","0","0","14","14","14","0","14","14","14","14","10/25/20 18:13:03","The main experiment item","yes","SternbergTask.osexp","C:\Users\User\Desktop\Quant 2020\Sternberg Task 3","no","mono","no","18","no","white","no","yes","768","legacy","2","11","C:/Users/User/Desktop/Quant 2020/Sternberg Task 3/VT-subject-3.csv","legacy","7 8 6 1","Lentiform Loewenfeld","3.3.3","0","n","yes","0","right","left","NA","space","right","767","7556","NA","35110","767","2","legacy","4","1024","2","48000","-16","experiment","3","odd","3","135426","1933","9490","NA","132067","1926","120642","133212","133214","NA","85532","137432","138199","134219","137432","Sternberg Task","15","12990","15","yes","1024"
"100","100","849.8125","849.8125","black","experiment","legacy","legacy","legacy","0","uniform","1","undefined","1","left","15","0","0","0","15","0","0","15","15","15","0","15","15","15","15","10/25/20 18:13:03","The main experiment item","yes","SternbergTask.osexp","C:\Users\User\Desktop\Quant 2020\Sternberg Task 3","no","mono","no","18","no","white","no","yes","768","legacy","3","11","C:/Users/User/Desktop/Quant 2020/Sternberg Task 3/VT-subject-3.csv","legacy","2 3 7 4","Lentiform Loewenfeld","3.3.3","1","y","yes","0","left","left","NA","space","left","607","7556","NA","35110","607","2","legacy","4","1024","2","48000","-16","experiment","3","odd","2","141554","1933","9490","NA","138204","1926","120642","139340","139342","NA","85532","143560","144167","140348","143559","Sternberg Task","16","13597","16","yes","1024"
"100","100","843.411764706","843.411764706","black","experiment","legacy","legacy","legacy","0","uniform","1","undefined","1","right","16","0","0","0","16","0","0","16","16","16","0","16","16","16","16","10/25/20 18:13:03","The main experiment item","yes","SternbergTask.osexp","C:\Users\User\Desktop\Quant 2020\Sternberg Task 3","no","mono","no","18","no","white","no","yes","768","legacy","4","11","C:/Users/User/Desktop/Quant 2020/Sternberg Task 3/VT-subject-3.csv","legacy","1 5 3 2 8","Lentiform Loewenfeld","3.3.3","0","n","yes","0","right","left","NA","space","right","741","7556","NA","35110","741","2","legacy","5","1024","2","48000","-16","experiment","3","odd","4","147522","1933","9490","NA","144173","1926","120642","145308","145311","NA","85532","149529","150271","146317","149529","Sternberg Task","17","14338","17","yes","1024"
"100","100","830.444444444","830.444444444","black","experiment","legacy","legacy","legacy","0","uniform","1","undefined","1","left","17","0","0","0","17","0","0","17","17","17","0","17","17","17","17","10/25/20 18:13:03","The main experiment item","yes","SternbergTask.osexp","C:\Users\User\Desktop\Quant 2020\Sternberg Task 3","no","mono","no","18","no","white","no","yes","768","legacy","5","11","C:/Users/User/Desktop/Quant 2020/Sternberg Task 3/VT-subject-3.csv","legacy","9 6 2 4 1","Lentiform Loewenfeld","3.3.3","4","y","yes","0","left","left","NA","space","left","610","7556","NA","35110","610","2","legacy","5","1024","2","48000","-16","experiment","3","odd","4","153632","1933","9490","NA","150276","1926","120642","151418","151420","NA","85532","155639","156249","152426","155639","Sternberg Task","18","14948","18","yes","1024"
"100","100","823.210526316","823.210526316","black","experiment","legacy","legacy","legacy","0","uniform","1","undefined","1","right","18","0","0","0","18","0","0","18","18","18","0","18","18","18","18","10/25/20 18:13:03","The main experiment item","yes","SternbergTask.osexp","C:\Users\User\Desktop\Quant 2020\Sternberg Task 3","no","mono","no","18","no","white","no","yes","768","legacy","6","11","C:/Users/User/Desktop/Quant 2020/Sternberg Task 3/VT-subject-3.csv","legacy","2 8 6 3 1","Lentiform Loewenfeld","3.3.3","0","n","yes","0","right","left","NA","space","right","693","7556","NA","35110","693","2","legacy","5","1024","2","48000","-16","experiment","3","odd","7","159604","1933","9490","NA","156255","1926","120642","157390","157392","NA","85532","161610","162304","158398","161609","Sternberg Task","19","15641","19","yes","1024"
"100","100","813.45","813.45","black","experiment","legacy","legacy","legacy","0","uniform","1","undefined","1","right","19","0","0","0","19","0","0","19","19","19","0","19","19","19","19","10/25/20 18:13:03","The main experiment item","yes","SternbergTask.osexp","C:\Users\User\Desktop\Quant 2020\Sternberg Task 3","no","mono","no","18","no","white","no","yes","768","legacy","7","11","C:/Users/User/Desktop/Quant 2020/Sternberg Task 3/VT-subject-3.csv","legacy","2 8 9","Lentiform Loewenfeld","3.3.3","0","n","yes","0","right","left","NA","space","right","628","7556","NA","35110","628","2","legacy","3","1024","2","48000","-16","experiment","3","odd","6","165663","1933","9490","NA","162309","1926","120642","163449","163452","NA","85532","167670","168298","164458","167669","Sternberg Task","20","16269","20","yes","1024"
"100","100","839.523809524","839.523809524","black","experiment","legacy","legacy","legacy","0","uniform","1","undefined","1","right","20","0","0","0","20","0","0","20","20","20","0","20","20","20","20","10/25/20 18:13:03","The main experiment item","yes","SternbergTask.osexp","C:\Users\User\Desktop\Quant 2020\Sternberg Task 3","no","mono","no","18","no","white","no","yes","768","legacy","8","11","C:/Users/User/Desktop/Quant 2020/Sternberg Task 3/VT-subject-3.csv","legacy","6 8 4","Lentiform Loewenfeld","3.3.3","0","n","yes","0","right","left","NA","space","right","1361","7556","NA","35110","1361","2","legacy","3","1024","2","48000","-16","experiment","3","odd","1","171665","1933","9490","NA","168304","1926","120642","169451","169453","NA","85532","173672","175034","170459","173671","Sternberg Task","21","17630","21","yes","1024"
"100","100","840.545454545","840.545454545","black","experiment","legacy","legacy","legacy","0","uniform","1","undefined","1","right","21","0","0","0","21","0","0","21","21","21","0","21","21","21","21","10/25/20 18:13:03","The main experiment item","yes","SternbergTask.osexp","C:\Users\User\Desktop\Quant 2020\Sternberg Task 3","no","mono","no","18","no","white","no","yes","768","legacy","9","11","C:/Users/User/Desktop/Quant 2020/Sternberg Task 3/VT-subject-3.csv","legacy","7 6 4 8 1 2","Lentiform Loewenfeld","3.3.3","0","n","yes","0","right","left","NA","space","right","862","7556","NA","35110","862","2","legacy","6","1024","2","48000","-16","experiment","3","odd","9","178389","1933","9490","NA","175039","1926","120642","176174","176177","NA","85532","180395","181258","177182","180395","Sternberg Task","22","18492","22","yes","1024"
"100","100","831.782608696","831.782608696","black","experiment","legacy","legacy","legacy","0","uniform","1","undefined","1","left","22","0","0","0","22","0","0","22","22","22","0","22","22","22","22","10/25/20 18:13:03","The main experiment item","yes","SternbergTask.osexp","C:\Users\User\Desktop\Quant 2020\Sternberg Task 3","no","mono","no","18","no","white","no","yes","768","legacy","10","11","C:/Users/User/Desktop/Quant 2020/Sternberg Task 3/VT-subject-3.csv","legacy","7","Lentiform Loewenfeld","3.3.3","1","y","yes","0","left","left","NA","space","left","639","7556","NA","35110","639","2","legacy","1","1024","2","48000","-16","experiment","3","odd","7","184610","1933","9490","NA","181263","1926","120642","182395","182398","NA","85532","186616","187256","183404","186616","Sternberg Task","23","19131","23","yes","1024"
"100","100","824.875","824.875","black","experiment","legacy","legacy","legacy","0","uniform","1","undefined","1","right","23","0","0","0","23","0","0","23","23","23","0","23","23","23","23","10/25/20 18:13:03","The main experiment item","yes","SternbergTask.osexp","C:\Users\User\Desktop\Quant 2020\Sternberg Task 3","no","mono","no","18","no","white","no","yes","768","legacy","11","11","C:/Users/User/Desktop/Quant 2020/Sternberg Task 3/VT-subject-3.csv","legacy","4 2 6 9","Lentiform Loewenfeld","3.3.3","0","n","yes","0","right","left","NA","space","right","666","7556","NA","35110","666","2","legacy","4","1024","2","48000","-16","experiment","3","odd","7","190616","1933","9490","NA","187261","1926","120642","188405","188407","NA","85532","192623","193290","189413","192623","Sternberg Task","24","19797","24","yes","1024"
"100","100","824.8","824.8","black","experiment","legacy","legacy","legacy","0","uniform","1","undefined","1","left","24","0","0","0","24","0","0","24","24","24","0","24","24","24","24","10/25/20 18:13:03","The main experiment item","yes","SternbergTask.osexp","C:\Users\User\Desktop\Quant 2020\Sternberg Task 3","no","mono","no","18","no","white","no","yes","768","legacy","12","11","C:/Users/User/Desktop/Quant 2020/Sternberg Task 3/VT-subject-3.csv","legacy","8 7 3","Lentiform Loewenfeld","3.3.3","1","y","yes","0","left","left","NA","space","left","823","7556","NA","35110","823","2","legacy","3","1024","2","48000","-16","experiment","3","odd","8","196651","1933","9490","NA","193295","1926","120642","194437","194439","NA","85532","198657","199481","195445","198657","Sternberg Task","25","20620","25","yes","1024"
"100","100","813.769230769","813.769230769","black","experiment","legacy","legacy","legacy","0","uniform","1","undefined","1","right","25","0","0","0","25","0","0","25","25","25","0","25","25","25","25","10/25/20 18:13:03","The main experiment item","yes","SternbergTask.osexp","C:\Users\User\Desktop\Quant 2020\Sternberg Task 3","no","mono","no","18","no","white","no","yes","768","legacy","13","11","C:/Users/User/Desktop/Quant 2020/Sternberg Task 3/VT-subject-3.csv","legacy","6 2 9 3 8 4","Lentiform Loewenfeld","3.3.3","0","n","yes","0","right","left","NA","space","right","538","7556","NA","35110","538","2","legacy","6","1024","2","48000","-16","experiment","3","odd","1","202836","1933","9490","NA","199486","1926","120642","200622","200624","NA","85532","204843","205382","201630","204843","Sternberg Task","26","21158","26","yes","1024"
"100","100","802.555555556","802.555555556","black","experiment","legacy","legacy","legacy","0","uniform","1","undefined","1","right","26","0","0","0","26","0","0","26","26","26","0","26","26","26","26","10/25/20 18:13:03","The main experiment item","yes","SternbergTask.osexp","C:\Users\User\Desktop\Quant 2020\Sternberg Task 3","no","mono","no","18","no","white","no","yes","768","legacy","14","11","C:/Users/User/Desktop/Quant 2020/Sternberg Task 3/VT-subject-3.csv","legacy","8 9","Lentiform Loewenfeld","3.3.3","0","n","yes","0","right","left","NA","space","right","511","7556","NA","35110","511","2","legacy","2","1024","2","48000","-16","experiment","3","odd","5","208742","1933","9490","NA","205387","1926","120642","206527","206530","NA","85532","210749","211261","207536","210749","Sternberg Task","27","21669","27","yes","1024"
"100","100","810.285714286","810.285714286","black","experiment","legacy","legacy","legacy","0","uniform","1","undefined","1","right","27","0","0","0","27","0","0","27","27","27","0","27","27","27","27","10/25/20 18:13:03","The main experiment item","yes","SternbergTask.osexp","C:\Users\User\Desktop\Quant 2020\Sternberg Task 3","no","mono","no","18","no","white","no","yes","768","legacy","15","11","C:/Users/User/Desktop/Quant 2020/Sternberg Task 3/VT-subject-3.csv","legacy","6 7 5 9","Lentiform Loewenfeld","3.3.3","0","n","yes","0","right","left","NA","space","right","1019","7556","NA","35110","1019","2","legacy","4","1024","2","48000","-16","experiment","3","odd","2","214610","1933","9490","NA","211266","1926","120642","212396","212399","NA","85532","216618","217638","213404","216618","Sternberg Task","28","22688","28","yes","1024"
"100","100","805.931034483","805.931034483","black","experiment","legacy","legacy","legacy","0","uniform","1","undefined","1","left","28","0","0","0","28","0","0","28","28","28","0","28","28","28","28","10/25/20 18:13:03","The main experiment item","yes","SternbergTask.osexp","C:\Users\User\Desktop\Quant 2020\Sternberg Task 3","no","mono","no","18","no","white","no","yes","768","legacy","16","11","C:/Users/User/Desktop/Quant 2020/Sternberg Task 3/VT-subject-3.csv","legacy","9 5 3 8 4","Lentiform Loewenfeld","3.3.3","1","y","yes","0","left","left","NA","space","left","684","7556","NA","35110","684","2","legacy","5","1024","2","48000","-16","experiment","3","odd","9","220994","1933","9490","NA","217643","1926","120642","218779","218781","NA","85532","223000","223685","219787","222999","Sternberg Task","29","23372","29","yes","1024"
"100","100","817.8","817.8","black","experiment","legacy","legacy","legacy","0","uniform","1","undefined","1","left","29","0","0","0","29","0","0","29","29","29","0","29","29","29","29","10/25/20 18:13:03","The main experiment item","yes","SternbergTask.osexp","C:\Users\User\Desktop\Quant 2020\Sternberg Task 3","no","mono","no","18","no","white","no","yes","768","legacy","17","11","C:/Users/User/Desktop/Quant 2020/Sternberg Task 3/VT-subject-3.csv","legacy","7 4 2 6 3 5","Lentiform Loewenfeld","3.3.3","6","y","yes","0","left","left","NA","space","left","1162","7556","NA","35110","1162","2","legacy","6","1024","2","48000","-16","experiment","3","odd","5","227044","1933","9490","NA","223690","1926","120642","224829","224832","NA","85532","229050","230213","225837","229049","Sternberg Task","30","24534","30","yes","1024"
"100","100","807.64516129","807.64516129","black","experiment","legacy","legacy","legacy","0","uniform","1","undefined","1","left","30","0","0","0","30","0","0","30","30","30","0","30","30","30","30","10/25/20 18:13:03","The main experiment item","yes","SternbergTask.osexp","C:\Users\User\Desktop\Quant 2020\Sternberg Task 3","no","mono","no","18","no","white","no","yes","768","legacy","18","11","C:/Users/User/Desktop/Quant 2020/Sternberg Task 3/VT-subject-3.csv","legacy","2 4 8 5 1 3","Lentiform Loewenfeld","3.3.3","1","y","yes","0","left","left","NA","space","left","503","7556","NA","35110","503","2","legacy","6","1024","2","48000","-16","experiment","3","odd","2","233586","1933","9490","NA","230218","1926","120642","231375","231379","NA","85532","235594","236098","232381","235593","Sternberg Task","31","25037","31","yes","1024"
"100","100","801.46875","801.46875","black","experiment","legacy","legacy","legacy","0","uniform","1","undefined","1","right","31","0","0","0","31","0","0","31","31","31","0","31","31","31","31","10/25/20 18:13:03","The main experiment item","yes","SternbergTask.osexp","C:\Users\User\Desktop\Quant 2020\Sternberg Task 3","no","mono","no","18","no","white","no","yes","768","legacy","19","11","C:/Users/User/Desktop/Quant 2020/Sternberg Task 3/VT-subject-3.csv","legacy","2 8 7 9 5 3","Lentiform Loewenfeld","3.3.3","0","n","yes","0","right","left","NA","space","right","610","7556","NA","35110","610","2","legacy","6","1024","2","48000","-16","experiment","3","odd","6","239460","1933","9490","NA","236103","1926","120642","237246","237248","NA","85532","241466","242077","238253","241466","Sternberg Task","32","25647","32","yes","1024"
"100","100","793.878787879","793.878787879","black","experiment","legacy","legacy","legacy","0","uniform","1","undefined","1","right","32","0","0","0","32","0","0","32","32","32","0","32","32","32","32","10/25/20 18:13:03","The main experiment item","yes","SternbergTask.osexp","C:\Users\User\Desktop\Quant 2020\Sternberg Task 3","no","mono","no","18","no","white","no","yes","768","legacy","20","11","C:/Users/User/Desktop/Quant 2020/Sternberg Task 3/VT-subject-3.csv","legacy","2 6 4 3 9","Lentiform Loewenfeld","3.3.3","0","n","yes","0","right","left","NA","space","right","551","7556","NA","35110","551","2","legacy","5","1024","2","48000","-16","experiment","3","odd","1","245435","1933","9490","NA","242082","1926","120642","243220","243222","NA","85532","247441","247993","244229","247441","Sternberg Task","33","26198","33","yes","1024"
"100","100","789.794117647","789.794117647","black","experiment","legacy","legacy","legacy","0","uniform","1","undefined","1","right","33","0","0","0","33","0","0","33","33","33","0","33","33","33","33","10/25/20 18:13:03","The main experiment item","yes","SternbergTask.osexp","C:\Users\User\Desktop\Quant 2020\Sternberg Task 3","no","mono","no","18","no","white","no","yes","768","legacy","21","11","C:/Users/User/Desktop/Quant 2020/Sternberg Task 3/VT-subject-3.csv","legacy","7 1 5 6 3","Lentiform Loewenfeld","3.3.3","0","n","yes","0","right","left","NA","space","right","655","7556","NA","35110","655","2","legacy","5","1024","2","48000","-16","experiment","3","odd","8","251345","1933","9490","NA","247998","1926","120642","249131","249133","NA","85532","253351","254007","250138","253351","Sternberg Task","34","26853","34","yes","1024"
"100","100","786.371428571","786.371428571","black","experiment","legacy","legacy","legacy","0","uniform","1","undefined","1","right","34","0","0","0","34","0","0","34","34","34","0","34","34","34","34","10/25/20 18:13:03","The main experiment item","yes","SternbergTask.osexp","C:\Users\User\Desktop\Quant 2020\Sternberg Task 3","no","mono","no","18","no","white","no","yes","768","legacy","22","11","C:/Users/User/Desktop/Quant 2020/Sternberg Task 3/VT-subject-3.csv","legacy","8 5 4 2 9 6","Lentiform Loewenfeld","3.3.3","0","n","yes","0","right","left","NA","space","right","670","7556","NA","35110","670","2","legacy","6","1024","2","48000","-16","experiment","3","odd","3","257368","1933","9490","NA","254012","1926","120642","255154","255156","NA","85532","259375","260046","256163","259374","Sternberg Task","35","27523","35","yes","1024"
"100","100","781.472222222","781.472222222","black","experiment","legacy","legacy","legacy","0","uniform","1","undefined","1","right","35","0","0","0","35","0","0","35","35","35","0","35","35","35","35","10/25/20 18:13:03","The main experiment item","yes","SternbergTask.osexp","C:\Users\User\Desktop\Quant 2020\Sternberg Task 3","no","mono","no","18","no","white","no","yes","768","legacy","23","11","C:/Users/User/Desktop/Quant 2020/Sternberg Task 3/VT-subject-3.csv","legacy","4 2 7 6 1 3","Lentiform Loewenfeld","3.3.3","0","n","yes","0","right","left","NA","space","right","610","7556","NA","35110","610","2","legacy","6","1024","2","48000","-16","experiment","3","odd","8","263405","1933","9490","NA","260051","1926","120642","261190","261193","NA","85532","265411","266022","262198","265410","Sternberg Task","36","28133","36","yes","1024"
"100","100","782.243243243","782.243243243","black","experiment","legacy","legacy","legacy","0","uniform","1","undefined","1","left","36","0","0","0","36","0","0","36","36","36","0","36","36","36","36","10/25/20 18:13:03","The main experiment item","yes","SternbergTask.osexp","C:\Users\User\Desktop\Quant 2020\Sternberg Task 3","no","mono","no","18","no","white","no","yes","768","legacy","24","11","C:/Users/User/Desktop/Quant 2020/Sternberg Task 3/VT-subject-3.csv","legacy","9 3 8 2 1 4","Lentiform Loewenfeld","3.3.3","3","y","yes","0","left","left","NA","space","left","810","7556","NA","35110","810","2","legacy","6","1024","2","48000","-16","experiment","3","odd","8","269377","1933","9490","NA","266027","1926","120642","267162","267165","NA","85532","271383","272194","268171","271382","Sternberg Task","37","28943","37","yes","1024"
"100","100","777.921052632","777.921052632","black","experiment","legacy","legacy","legacy","0","uniform","1","undefined","1","right","37","0","0","0","37","0","0","37","37","37","0","37","37","37","37","10/25/20 18:13:03","The main experiment item","yes","SternbergTask.osexp","C:\Users\User\Desktop\Quant 2020\Sternberg Task 3","no","mono","no","18","no","white","no","yes","768","legacy","25","11","C:/Users/User/Desktop/Quant 2020/Sternberg Task 3/VT-subject-3.csv","legacy","1","Lentiform Loewenfeld","3.3.3","0","n","yes","0","right","left","NA","space","right","618","7556","NA","35110","618","2","legacy","1","1024","2","48000","-16","experiment","3","odd","7","275552","1933","9490","NA","272199","1926","120642","273337","273340","NA","85532","277559","278178","274346","277558","Sternberg Task","38","29561","38","yes","1024"
"100","100","774.384615385","774.384615385","black","experiment","legacy","legacy","legacy","0","uniform","1","undefined","1","left","38","0","0","0","38","0","0","38","38","38","0","38","38","38","38","10/25/20 18:13:03","The main experiment item","yes","SternbergTask.osexp","C:\Users\User\Desktop\Quant 2020\Sternberg Task 3","no","mono","no","18","no","white","no","yes","768","legacy","26","11","C:/Users/User/Desktop/Quant 2020/Sternberg Task 3/VT-subject-3.csv","legacy","8 9 6 1","Lentiform Loewenfeld","3.3.3","2","y","yes","0","left","left","NA","space","left","640","7556","NA","35110","640","2","legacy","4","1024","2","48000","-16","experiment","3","odd","9","281532","1933","9490","NA","278183","1926","120642","279319","279321","NA","85532","283539","284180","280326","283538","Sternberg Task","39","30201","39","yes","1024"
"100","100","770.9","770.9","black","experiment","legacy","legacy","legacy","0","uniform","1","undefined","1","left","39","0","0","0","39","0","0","39","39","39","0","39","39","39","39","10/25/20 18:13:03","The main experiment item","yes","SternbergTask.osexp","C:\Users\User\Desktop\Quant 2020\Sternberg Task 3","no","mono","no","18","no","white","no","yes","768","legacy","27","11","C:/Users/User/Desktop/Quant 2020/Sternberg Task 3/VT-subject-3.csv","legacy","4","Lentiform Loewenfeld","3.3.3","1","y","yes","0","left","left","NA","space","left","635","7556","NA","35110","635","2","legacy","1","1024","2","48000","-16","experiment","3","odd","4","287530","1933","9490","NA","284185","1926","120642","285315","285318","NA","85532","289536","290172","286324","289536","Sternberg Task","40","30836","40","yes","1024"
"100","100","771.487804878","771.487804878","black","experiment","legacy","legacy","legacy","0","uniform","1","undefined","1","right","40","0","0","0","40","0","0","40","40","40","0","40","40","40","40","10/25/20 18:13:03","The main experiment item","yes","SternbergTask.osexp","C:\Users\User\Desktop\Quant 2020\Sternberg Task 3","no","mono","no","18","no","white","no","yes","768","legacy","28","11","C:/Users/User/Desktop/Quant 2020/Sternberg Task 3/VT-subject-3.csv","legacy","7 3 2 8","Lentiform Loewenfeld","3.3.3","0","n","yes","0","right","left","NA","space","right","795","7556","NA","35110","795","2","legacy","4","1024","2","48000","-16","experiment","3","odd","4","293526","1933","9490","NA","290177","1926","120642","291312","291315","NA","85532","295533","296329","292321","295533","Sternberg Task","41","31631","41","yes","1024"
"100","100","772.785714286","772.785714286","black","experiment","legacy","legacy","legacy","0","uniform","1","undefined","1","left","41","0","0","0","41","0","0","41","41","41","0","41","41","41","41","10/25/20 18:13:03","The main experiment item","yes","SternbergTask.osexp","C:\Users\User\Desktop\Quant 2020\Sternberg Task 3","no","mono","no","18","no","white","no","yes","768","legacy","29","11","C:/Users/User/Desktop/Quant 2020/Sternberg Task 3/VT-subject-3.csv","legacy","2 8 5 1","Lentiform Loewenfeld","3.3.3","4","y","yes","0","left","left","NA","space","left","826","7556","NA","35110","826","2","legacy","4","1024","2","48000","-16","experiment","3","odd","1","299683","1933","9490","NA","296334","1926","120642","297469","297472","NA","85532","301690","302517","298477","301689","Sternberg Task","42","32457","42","yes","1024"
"100","100","779.209302326","779.209302326","black","experiment","legacy","legacy","legacy","0","uniform","1","undefined","1","right","42","0","0","0","42","0","0","42","42","42","0","42","42","42","42","10/25/20 18:13:03","The main experiment item","yes","SternbergTask.osexp","C:\Users\User\Desktop\Quant 2020\Sternberg Task 3","no","mono","no","18","no","white","no","yes","768","legacy","30","11","C:/Users/User/Desktop/Quant 2020/Sternberg Task 3/VT-subject-3.csv","legacy","1 7 5 2","Lentiform Loewenfeld","3.3.3","0","n","yes","0","right","left","NA","space","right","1049","7556","NA","35110","1049","2","legacy","4","1024","2","48000","-16","experiment","3","odd","3","305879","1933","9490","NA","302523","1926","120642","303664","303667","NA","85532","307886","308936","304673","307885","Sternberg Task","43","33506","43","yes","1024"
"100","100","777.636363636","777.636363636","black","experiment","legacy","legacy","legacy","0","uniform","1","undefined","1","right","43","0","0","0","43","0","0","43","43","43","0","43","43","43","43","10/25/20 18:13:03","The main experiment item","yes","SternbergTask.osexp","C:\Users\User\Desktop\Quant 2020\Sternberg Task 3","no","mono","no","18","no","white","no","yes","768","legacy","31","11","C:/Users/User/Desktop/Quant 2020/Sternberg Task 3/VT-subject-3.csv","legacy","8 6 3 4 7","Lentiform Loewenfeld","3.3.3","0","n","yes","0","right","left","NA","space","right","710","7556","NA","35110","710","2","legacy","5","1024","2","48000","-16","experiment","3","odd","1","312299","1933","9490","NA","308942","1926","120642","310085","310087","NA","85532","314303","315014","311093","314302","Sternberg Task","44","34216","44","yes","1024"
"100","100","774.244444444","774.244444444","black","experiment","legacy","legacy","legacy","0","uniform","1","undefined","1","left","44","0","0","0","44","0","0","44","44","44","0","44","44","44","44","10/25/20 18:13:03","The main experiment item","yes","SternbergTask.osexp","C:\Users\User\Desktop\Quant 2020\Sternberg Task 3","no","mono","no","18","no","white","no","yes","768","legacy","32","11","C:/Users/User/Desktop/Quant 2020/Sternberg Task 3/VT-subject-3.csv","legacy","3 4","Lentiform Loewenfeld","3.3.3","1","y","yes","0","left","left","NA","space","left","625","7556","NA","35110","625","2","legacy","2","1024","2","48000","-16","experiment","3","odd","3","318368","1933","9490","NA","315019","1926","120642","316153","316156","NA","85532","320374","321000","317161","320374","Sternberg Task","45","34841","45","yes","1024"
"100","100","771.326086957","771.326086957","black","experiment","legacy","legacy","legacy","0","uniform","1","undefined","1","right","45","0","0","0","45","0","0","45","45","45","0","45","45","45","45","10/25/20 18:13:03","The main experiment item","yes","SternbergTask.osexp","C:\Users\User\Desktop\Quant 2020\Sternberg Task 3","no","mono","no","18","no","white","no","yes","768","legacy","33","11","C:/Users/User/Desktop/Quant 2020/Sternberg Task 3/VT-subject-3.csv","legacy","5 2","Lentiform Loewenfeld","3.3.3","0","n","yes","0","right","left","NA","space","right","640","7556","NA","35110","640","2","legacy","2","1024","2","48000","-16","experiment","3","odd","7","324346","1933","9490","NA","321006","1926","120642","322131","322134","NA","85532","326352","326993","323139","326352","Sternberg Task","46","35481","46","yes","1024"
"100","100","775.489361702","775.489361702","black","experiment","legacy","legacy","legacy","0","uniform","1","undefined","1","left","46","0","0","0","46","0","0","46","46","46","0","46","46","46","46","10/25/20 18:13:03","The main experiment item","yes","SternbergTask.osexp","C:\Users\User\Desktop\Quant 2020\Sternberg Task 3","no","mono","no","18","no","white","no","yes","768","legacy","34","11","C:/Users/User/Desktop/Quant 2020/Sternberg Task 3/VT-subject-3.csv","legacy","7 2 3","Lentiform Loewenfeld","3.3.3","3","y","yes","0","left","left","NA","space","left","967","7556","NA","35110","967","2","legacy","3","1024","2","48000","-16","experiment","3","odd","3","330347","1933","9490","NA","326998","1926","120642","328132","328135","NA","85532","332353","333321","329141","332352","Sternberg Task","47","36448","47","yes","1024"
"100","100","776.833333333","776.833333333","black","experiment","legacy","legacy","legacy","0","uniform","1","undefined","1","left","47","0","0","0","47","0","0","47","47","47","0","47","47","47","47","10/25/20 18:13:03","The main experiment item","yes","SternbergTask.osexp","C:\Users\User\Desktop\Quant 2020\Sternberg Task 3","no","mono","no","18","no","white","no","yes","768","legacy","35","11","C:/Users/User/Desktop/Quant 2020/Sternberg Task 3/VT-subject-3.csv","legacy","5 7 8 2 3 8","Lentiform Loewenfeld","3.3.3","5","y","yes","0","left","left","NA","space","left","840","7556","NA","35110","840","2","legacy","6","1024","2","48000","-16","experiment","3","odd","3","336673","1933","9490","NA","333326","1926","120642","334457","334460","NA","85532","338679","339520","335466","338678","Sternberg Task","48","37288","48","yes","1024"
"100","100","775.571428571","775.571428571","black","experiment","legacy","legacy","legacy","0","uniform","1","undefined","1","right","48","0","0","0","48","0","0","48","48","48","0","48","48","48","48","10/25/20 18:13:03","The main experiment item","yes","SternbergTask.osexp","C:\Users\User\Desktop\Quant 2020\Sternberg Task 3","no","mono","no","18","no","white","no","yes","768","legacy","36","11","C:/Users/User/Desktop/Quant 2020/Sternberg Task 3/VT-subject-3.csv","legacy","5 9 2 3","Lentiform Loewenfeld","3.3.3","0","n","yes","0","right","left","NA","space","right","715","7556","NA","35110","715","2","legacy","4","1024","2","48000","-16","experiment","3","odd","8","342877","1933","9490","NA","339525","1926","120642","340662","340664","NA","85532","344883","345599","341671","344882","Sternberg Task","49","38003","49","yes","1024"
"100","100","775.2","775.2","black","experiment","legacy","legacy","legacy","0","uniform","1","undefined","1","left","49","0","0","0","49","0","0","49","49","49","0","49","49","49","49","10/25/20 18:13:03","The main experiment item","yes","SternbergTask.osexp","C:\Users\User\Desktop\Quant 2020\Sternberg Task 3","no","mono","no","18","no","white","no","yes","768","legacy","37","11","C:/Users/User/Desktop/Quant 2020/Sternberg Task 3/VT-subject-3.csv","legacy","8 3","Lentiform Loewenfeld","3.3.3","2","y","yes","0","left","left","NA","space","left","757","7556","NA","35110","757","2","legacy","2","1024","2","48000","-16","experiment","3","odd","3","348960","1933","9490","NA","345604","1926","120642","346744","346747","NA","85532","350963","351721","347753","350963","Sternberg Task","50","38760","50","yes","1024"
"100","100","779.333333333","779.333333333","black","experiment","legacy","legacy","legacy","0","uniform","1","undefined","1","right","50","0","0","0","50","0","0","50","50","50","0","50","50","50","50","10/25/20 18:13:03","The main experiment item","yes","SternbergTask.osexp","C:\Users\User\Desktop\Quant 2020\Sternberg Task 3","no","mono","no","18","no","white","no","yes","768","legacy","38","11","C:/Users/User/Desktop/Quant 2020/Sternberg Task 3/VT-subject-3.csv","legacy","2 7 5","Lentiform Loewenfeld","3.3.3","0","n","yes","0","right","left","NA","space","right","986","7556","NA","35110","986","2","legacy","3","1024","2","48000","-16","experiment","3","odd","8","355079","1933","9490","NA","351726","1926","120642","352866","352868","NA","85532","357086","358073","353874","357086","Sternberg Task","51","39746","51","yes","1024"
"100","100","778.480769231","778.480769231","black","experiment","legacy","legacy","legacy","0","uniform","1","undefined","1","right","51","0","0","0","51","0","0","51","51","51","0","51","51","51","51","10/25/20 18:13:03","The main experiment item","yes","SternbergTask.osexp","C:\Users\User\Desktop\Quant 2020\Sternberg Task 3","no","mono","no","18","no","white","no","yes","768","legacy","39","11","C:/Users/User/Desktop/Quant 2020/Sternberg Task 3/VT-subject-3.csv","legacy","8 2 1 4 5 9","Lentiform Loewenfeld","3.3.3","0","n","yes","0","right","left","NA","space","right","735","7556","NA","35110","735","2","legacy","6","1024","2","48000","-16","experiment","3","odd","7","361426","1933","9490","NA","358078","1926","120642","359211","359214","NA","85532","363432","364168","360220","363431","Sternberg Task","52","40481","52","yes","1024"
"100","100","778.867924528","778.867924528","black","experiment","legacy","legacy","legacy","0","uniform","1","undefined","1","right","52","0","0","0","52","0","0","52","52","52","0","52","52","52","52","10/25/20 18:13:03","The main experiment item","yes","SternbergTask.osexp","C:\Users\User\Desktop\Quant 2020\Sternberg Task 3","no","mono","no","18","no","white","no","yes","768","legacy","40","11","C:/Users/User/Desktop/Quant 2020/Sternberg Task 3/VT-subject-3.csv","legacy","8 4 3 5","Lentiform Loewenfeld","3.3.3","0","n","yes","0","right","left","NA","space","right","799","7556","NA","35110","799","2","legacy","4","1024","2","48000","-16","experiment","3","odd","6","367530","1933","9490","NA","364173","1926","120642","365315","365318","NA","85532","369537","370337","366324","369537","Sternberg Task","53","41280","53","yes","1024"
"100","100","778.425925926","778.425925926","black","experiment","legacy","legacy","legacy","0","uniform","1","undefined","1","left","53","0","0","0","53","0","0","53","53","53","0","53","53","53","53","10/25/20 18:13:03","The main experiment item","yes","SternbergTask.osexp","C:\Users\User\Desktop\Quant 2020\Sternberg Task 3","no","mono","no","18","no","white","no","yes","768","legacy","41","11","C:/Users/User/Desktop/Quant 2020/Sternberg Task 3/VT-subject-3.csv","legacy","4 3 2 5 8","Lentiform Loewenfeld","3.3.3","2","y","yes","0","left","left","NA","space","left","755","7556","NA","35110","755","2","legacy","5","1024","2","48000","-16","experiment","3","odd","3","373689","1933","9490","NA","370343","1926","120642","371475","371477","NA","85532","375695","376451","372483","375695","Sternberg Task","54","42035","54","yes","1024"
"100","100","775.145454545","775.145454545","black","experiment","legacy","legacy","legacy","0","uniform","1","undefined","1","left","54","0","0","0","54","0","0","54","54","54","0","54","54","54","54","10/25/20 18:13:03","The main experiment item","yes","SternbergTask.osexp","C:\Users\User\Desktop\Quant 2020\Sternberg Task 3","no","mono","no","18","no","white","no","yes","768","legacy","42","11","C:/Users/User/Desktop/Quant 2020/Sternberg Task 3/VT-subject-3.csv","legacy","7 8 4 6 9 5","Lentiform Loewenfeld","3.3.3","4","y","yes","0","left","left","NA","space","left","598","7556","NA","35110","598","2","legacy","6","1024","2","48000","-16","experiment","3","odd","6","379808","1933","9490","NA","376456","1926","120642","377594","377596","NA","85532","381814","382414","378601","381814","Sternberg Task","55","42633","55","yes","1024"
"100","100","773.767857143","773.767857143","black","experiment","legacy","legacy","legacy","0","uniform","1","undefined","1","right","55","0","0","0","55","0","0","55","55","55","0","55","55","55","55","10/25/20 18:13:03","The main experiment item","yes","SternbergTask.osexp","C:\Users\User\Desktop\Quant 2020\Sternberg Task 3","no","mono","no","18","no","white","no","yes","768","legacy","43","11","C:/Users/User/Desktop/Quant 2020/Sternberg Task 3/VT-subject-3.csv","legacy","1 4 9 2 5","Lentiform Loewenfeld","3.3.3","0","n","yes","0","right","left","NA","space","right","698","7556","NA","35110","698","2","legacy","5","1024","2","48000","-16","experiment","3","odd","7","385794","1933","9490","NA","382419","1926","120642","383579","383582","NA","85532","387800","388500","384587","387800","Sternberg Task","56","43331","56","yes","1024"
"100","100","770.912280702","770.912280702","black","experiment","legacy","legacy","legacy","0","uniform","1","undefined","1","left","56","0","0","0","56","0","0","56","56","56","0","56","56","56","56","10/25/20 18:13:03","The main experiment item","yes","SternbergTask.osexp","C:\Users\User\Desktop\Quant 2020\Sternberg Task 3","no","mono","no","18","no","white","no","yes","768","legacy","44","11","C:/Users/User/Desktop/Quant 2020/Sternberg Task 3/VT-subject-3.csv","legacy","7 1 3","Lentiform Loewenfeld","3.3.3","2","y","yes","0","left","left","NA","space","left","611","7556","NA","35110","611","2","legacy","3","1024","2","48000","-16","experiment","3","odd","1","391868","1933","9490","NA","388505","1926","120642","389653","389656","NA","85532","393874","394487","390662","393874","Sternberg Task","57","43942","57","yes","1024"
"100","100","767.672413793","767.672413793","black","experiment","legacy","legacy","legacy","0","uniform","1","undefined","1","left","57","0","0","0","57","0","0","57","57","57","0","57","57","57","57","10/25/20 18:13:03","The main experiment item","yes","SternbergTask.osexp","C:\Users\User\Desktop\Quant 2020\Sternberg Task 3","no","mono","no","18","no","white","no","yes","768","legacy","45","11","C:/Users/User/Desktop/Quant 2020/Sternberg Task 3/VT-subject-3.csv","legacy","5 2 6","Lentiform Loewenfeld","3.3.3","2","y","yes","0","left","left","NA","space","left","583","7556","NA","35110","583","2","legacy","3","1024","2","48000","-16","experiment","3","odd","2","397842","1933","9490","NA","394492","1926","120642","395629","395631","NA","85532","399849","400433","396637","399849","Sternberg Task","58","44525","58","yes","1024"
"98.3050847458","98.3050847458","768.745762712","768.745762712","black","experiment","legacy","legacy","legacy","0","uniform","0","undefined","0","left","58","0","0","0","58","0","0","58","58","58","0","58","58","58","58","10/25/20 18:13:03","The main experiment item","yes","SternbergTask.osexp","C:\Users\User\Desktop\Quant 2020\Sternberg Task 3","no","mono","no","18","no","white","no","yes","768","legacy","46","11","C:/Users/User/Desktop/Quant 2020/Sternberg Task 3/VT-subject-3.csv","legacy","5 2 9 6 1 7","Lentiform Loewenfeld","3.3.3","3","y","yes","0","right","left","NA","space","right","831","7556","NA","35110","831","2","legacy","6","1024","2","48000","-16","experiment","3","odd","9","403794","1933","9490","NA","400438","1926","120642","401579","401582","NA","85532","405800","406632","402588","405799","Sternberg Task","58","45356","59","yes","1024"
"98.3333333333","98.3333333333","765.616666667","765.616666667","black","experiment","legacy","legacy","legacy","0","uniform","1","undefined","1","left","59","0","0","0","59","0","0","59","59","59","0","59","59","59","59","10/25/20 18:13:03","The main experiment item","yes","SternbergTask.osexp","C:\Users\User\Desktop\Quant 2020\Sternberg Task 3","no","mono","no","18","no","white","no","yes","768","legacy","47","11","C:/Users/User/Desktop/Quant 2020/Sternberg Task 3/VT-subject-3.csv","legacy","6 8 9 3 4 9","Lentiform Loewenfeld","3.3.3","5","y","yes","0","left","left","NA","space","left","581","7556","NA","35110","581","2","legacy","6","1024","2","48000","-16","experiment","3","odd","4","409990","1933","9490","NA","400438","1926","120642","407776","407778","406637","85532","411996","412579","408784","411995","Sternberg Task","59","45937","60","yes","1024"
"98.3606557377","98.3606557377","761.836065574","761.836065574","black","experiment","legacy","legacy","legacy","0","uniform","1","undefined","1","right","60","0","0","0","60","0","0","60","60","60","0","60","60","60","60","10/25/20 18:13:03","The main experiment item","yes","SternbergTask.osexp","C:\Users\User\Desktop\Quant 2020\Sternberg Task 3","no","mono","no","18","no","white","no","yes","768","legacy","48","11","C:/Users/User/Desktop/Quant 2020/Sternberg Task 3/VT-subject-3.csv","legacy","3 4 2","Lentiform Loewenfeld","3.3.3","0","n","yes","0","right","left","NA","space","right","535","7556","NA","35110","535","2","legacy","3","1024","2","48000","-16","experiment","3","odd","5","415932","1933","9490","NA","412584","1926","120642","413717","413720","406637","85532","417938","418475","414726","417937","Sternberg Task","60","46472","61","yes","1024"
"98.3870967742","98.3870967742","759.35483871","759.35483871","black","experiment","legacy","legacy","legacy","0","uniform","1","undefined","1","left","61","0","0","0","61","0","0","61","61","61","0","61","61","61","61","10/25/20 18:13:03","The main experiment item","yes","SternbergTask.osexp","C:\Users\User\Desktop\Quant 2020\Sternberg Task 3","no","mono","no","18","no","white","no","yes","768","legacy","49","11","C:/Users/User/Desktop/Quant 2020/Sternberg Task 3/VT-subject-3.csv","legacy","6 7 8 5","Lentiform Loewenfeld","3.3.3","3","y","yes","0","left","left","NA","space","left","608","7556","NA","35110","608","2","legacy","4","1024","2","48000","-16","experiment","3","odd","8","421835","1933","9490","NA","418480","1926","120642","419620","419623","406637","85532","423841","424451","420629","423840","Sternberg Task","61","47080","62","yes","1024"
"98.4126984127","98.4126984127","762.920634921","762.920634921","black","experiment","legacy","legacy","legacy","0","uniform","1","undefined","1","right","62","0","0","0","62","0","0","62","62","62","0","62","62","62","62","10/25/20 18:13:03","The main experiment item","yes","SternbergTask.osexp","C:\Users\User\Desktop\Quant 2020\Sternberg Task 3","no","mono","no","18","no","white","no","yes","768","legacy","50","11","C:/Users/User/Desktop/Quant 2020/Sternberg Task 3/VT-subject-3.csv","legacy","8 4 3 9","Lentiform Loewenfeld","3.3.3","0","n","yes","0","right","left","NA","space","right","984","7556","NA","35110","984","2","legacy","4","1024","2","48000","-16","experiment","3","odd","5","427808","1933","9490","NA","424459","1926","120642","425593","425596","406637","85532","429815","430800","426602","429814","Sternberg Task","62","48064","63","yes","1024"
"98.4375","98.4375","761.40625","761.40625","black","experiment","legacy","legacy","legacy","0","uniform","1","undefined","1","right","63","0","0","0","63","0","0","63","63","63","0","63","63","63","63","10/25/20 18:13:03","The main experiment item","yes","SternbergTask.osexp","C:\Users\User\Desktop\Quant 2020\Sternberg Task 3","no","mono","no","18","no","white","no","yes","768","legacy","51","11","C:/Users/User/Desktop/Quant 2020/Sternberg Task 3/VT-subject-3.csv","legacy","1 3 2 6 9","Lentiform Loewenfeld","3.3.3","0","n","yes","0","right","left","NA","space","right","666","7556","NA","35110","666","2","legacy","5","1024","2","48000","-16","experiment","3","odd","5","434165","1933","9490","NA","430806","1926","120642","431951","431954","406637","85532","436172","436840","432959","436172","Sternberg Task","63","48730","64","yes","1024"
"98.4615384615","98.4615384615","765.661538462","765.661538462","black","experiment","legacy","legacy","legacy","0","uniform","1","undefined","1","left","64","0","0","0","64","0","0","64","64","64","0","64","64","64","64","10/25/20 18:13:03","The main experiment item","yes","SternbergTask.osexp","C:\Users\User\Desktop\Quant 2020\Sternberg Task 3","no","mono","no","18","no","white","no","yes","768","legacy","52","11","C:/Users/User/Desktop/Quant 2020/Sternberg Task 3/VT-subject-3.csv","legacy","8 5 4 7 3 1","Lentiform Loewenfeld","3.3.3","2","y","yes","0","left","left","NA","space","left","1038","7556","NA","35110","1038","2","legacy","6","1024","2","48000","-16","experiment","3","odd","5","440196","1933","9490","NA","436845","1926","120642","437981","437984","406637","85532","442202","443242","438989","442202","Sternberg Task","64","49768","65","yes","1024"
"98.4848484848","98.4848484848","763.378787879","763.378787879","black","experiment","legacy","legacy","legacy","0","uniform","1","undefined","1","right","65","0","0","0","65","0","0","65","65","65","0","65","65","65","65","10/25/20 18:13:03","The main experiment item","yes","SternbergTask.osexp","C:\Users\User\Desktop\Quant 2020\Sternberg Task 3","no","mono","no","18","no","white","no","yes","768","legacy","53","11","C:/Users/User/Desktop/Quant 2020/Sternberg Task 3/VT-subject-3.csv","legacy","7 1 8 4 9 3","Lentiform Loewenfeld","3.3.3","0","n","yes","0","right","left","NA","space","right","615","7556","NA","35110","615","2","legacy","6","1024","2","48000","-16","experiment","3","odd","6","446595","1933","9490","NA","443247","1926","120642","444380","444383","406637","85532","448601","449217","445389","448601","Sternberg Task","65","50383","66","yes","1024"
"98.5074626866","98.5074626866","769.104477612","769.104477612","black","experiment","legacy","legacy","legacy","0","uniform","1","undefined","1","right","66","0","0","0","66","0","0","66","66","66","0","66","66","66","66","10/25/20 18:13:03","The main experiment item","yes","SternbergTask.osexp","C:\Users\User\Desktop\Quant 2020\Sternberg Task 3","no","mono","no","18","no","white","no","yes","768","legacy","54","11","C:/Users/User/Desktop/Quant 2020/Sternberg Task 3/VT-subject-3.csv","legacy","8 5 7 3 6","Lentiform Loewenfeld","3.3.3","0","n","yes","0","right","left","NA","space","right","1147","7556","NA","35110","1147","2","legacy","5","1024","2","48000","-16","experiment","3","odd","9","452582","1933","9490","NA","449222","1926","120642","450367","450370","406637","85532","454588","455736","451376","454587","Sternberg Task","66","51530","67","yes","1024"
"98.5294117647","98.5294117647","770.720588235","770.720588235","black","experiment","legacy","legacy","legacy","0","uniform","1","undefined","1","left","67","0","0","0","67","0","0","67","67","67","0","67","67","67","67","10/25/20 18:13:03","The main experiment item","yes","SternbergTask.osexp","C:\Users\User\Desktop\Quant 2020\Sternberg Task 3","no","mono","no","18","no","white","no","yes","768","legacy","55","11","C:/Users/User/Desktop/Quant 2020/Sternberg Task 3/VT-subject-3.csv","legacy","6 9 3 1","Lentiform Loewenfeld","3.3.3","4","y","yes","0","left","left","NA","space","left","879","7556","NA","35110","879","2","legacy","4","1024","2","48000","-16","experiment","3","odd","1","459093","1933","9490","NA","455741","1926","120642","456879","456881","406637","85532","461099","461980","457887","461099","Sternberg Task","67","52409","68","yes","1024"
"98.5507246377","98.5507246377","768.913043478","768.913043478","black","experiment","legacy","legacy","legacy","0","uniform","1","undefined","1","right","68","0","0","0","68","0","0","68","68","68","0","68","68","68","68","10/25/20 18:13:03","The main experiment item","yes","SternbergTask.osexp","C:\Users\User\Desktop\Quant 2020\Sternberg Task 3","no","mono","no","18","no","white","no","yes","768","legacy","56","11","C:/Users/User/Desktop/Quant 2020/Sternberg Task 3/VT-subject-3.csv","legacy","4 8 1 2","Lentiform Loewenfeld","3.3.3","0","n","yes","0","right","left","NA","space","right","646","7556","NA","35110","646","2","legacy","4","1024","2","48000","-16","experiment","3","odd","7","465335","1933","9490","NA","461985","1926","120642","463121","463124","406637","85532","467341","467988","464129","467341","Sternberg Task","68","53055","69","yes","1024"
"98.5714285714","98.5714285714","771.671428571","771.671428571","black","experiment","legacy","legacy","legacy","0","uniform","1","undefined","1","left","69","0","0","0","69","0","0","69","69","69","0","69","69","69","69","10/25/20 18:13:03","The main experiment item","yes","SternbergTask.osexp","C:\Users\User\Desktop\Quant 2020\Sternberg Task 3","no","mono","no","18","no","white","no","yes","768","legacy","57","11","C:/Users/User/Desktop/Quant 2020/Sternberg Task 3/VT-subject-3.csv","legacy","1 4 9 3 2 5","Lentiform Loewenfeld","3.3.3","3","y","yes","0","left","left","NA","space","left","962","7556","NA","35110","962","2","legacy","6","1024","2","48000","-16","experiment","3","odd","9","471340","1933","9490","NA","467994","1926","120642","469127","469129","406637","85532","473347","474310","470135","473346","Sternberg Task","69","54017","70","yes","1024"
"98.5915492958","98.5915492958","768.450704225","768.450704225","black","experiment","legacy","legacy","legacy","0","uniform","1","undefined","1","right","70","0","0","0","70","0","0","70","70","70","0","70","70","70","70","10/25/20 18:13:03","The main experiment item","yes","SternbergTask.osexp","C:\Users\User\Desktop\Quant 2020\Sternberg Task 3","no","mono","no","18","no","white","no","yes","768","legacy","58","11","C:/Users/User/Desktop/Quant 2020/Sternberg Task 3/VT-subject-3.csv","legacy","4 1","Lentiform Loewenfeld","3.3.3","0","n","yes","0","right","left","NA","space","right","543","7556","NA","35110","543","2","legacy","2","1024","2","48000","-16","experiment","3","odd","6","477670","1933","9490","NA","474316","1926","120642","475456","475458","406637","85532","479676","480220","476464","479676","Sternberg Task","70","54560","71","yes","1024"
"98.6111111111","98.6111111111","769.444444444","769.444444444","black","experiment","legacy","legacy","legacy","0","uniform","1","undefined","1","right","71","0","0","0","71","0","0","71","71","71","0","71","71","71","71","10/25/20 18:13:03","The main experiment item","yes","SternbergTask.osexp","C:\Users\User\Desktop\Quant 2020\Sternberg Task 3","no","mono","no","18","no","white","no","yes","768","legacy","59","11","C:/Users/User/Desktop/Quant 2020/Sternberg Task 3/VT-subject-3.csv","legacy","3 9 1","Lentiform Loewenfeld","3.3.3","0","n","yes","0","right","left","NA","space","right","840","7556","NA","35110","840","2","legacy","3","1024","2","48000","-16","experiment","3","odd","7","483565","1933","9490","NA","480225","1926","120642","481351","481353","406637","85532","485571","486413","482359","485570","Sternberg Task","71","55400","72","yes","1024"
"98.6301369863","98.6301369863","769.684931507","769.684931507","black","experiment","legacy","legacy","legacy","0","uniform","1","undefined","1","right","72","0","0","0","72","0","0","72","72","72","0","72","72","72","72","10/25/20 18:13:03","The main experiment item","yes","SternbergTask.osexp","C:\Users\User\Desktop\Quant 2020\Sternberg Task 3","no","mono","no","18","no","white","no","yes","768","legacy","60","11","C:/Users/User/Desktop/Quant 2020/Sternberg Task 3/VT-subject-3.csv","legacy","1 4 3 6 5","Lentiform Loewenfeld","3.3.3","0","n","yes","0","right","left","NA","space","right","787","7556","NA","35110","787","2","legacy","5","1024","2","48000","-16","experiment","3","odd","8","489780","1933","9490","NA","486418","1926","120642","487564","487567","406637","85532","491786","492574","488573","491786","Sternberg Task","72","56187","73","yes","1024"
"98.6486486486","98.6486486486","768.513513514","768.513513514","black","experiment","legacy","legacy","legacy","0","uniform","1","undefined","1","left","73","0","0","0","73","0","0","73","73","73","0","73","73","73","73","10/25/20 18:13:03","The main experiment item","yes","SternbergTask.osexp","C:\Users\User\Desktop\Quant 2020\Sternberg Task 3","no","mono","no","18","no","white","no","yes","768","legacy","61","11","C:/Users/User/Desktop/Quant 2020/Sternberg Task 3/VT-subject-3.csv","legacy","7 6","Lentiform Loewenfeld","3.3.3","2","y","yes","0","left","left","NA","space","left","683","7556","NA","35110","683","2","legacy","2","1024","2","48000","-16","experiment","3","odd","6","495934","1933","9490","NA","492579","1926","120642","493720","493722","406637","85532","497940","498624","494728","497940","Sternberg Task","73","56870","74","yes","1024"
"98.6666666667","98.6666666667","769.786666667","769.786666667","black","experiment","legacy","legacy","legacy","0","uniform","1","undefined","1","right","74","0","0","0","74","0","0","74","74","74","0","74","74","74","74","10/25/20 18:13:03","The main experiment item","yes","SternbergTask.osexp","C:\Users\User\Desktop\Quant 2020\Sternberg Task 3","no","mono","no","18","no","white","no","yes","768","legacy","62","11","C:/Users/User/Desktop/Quant 2020/Sternberg Task 3/VT-subject-3.csv","legacy","7 9","Lentiform Loewenfeld","3.3.3","0","n","yes","0","right","left","NA","space","right","864","7556","NA","35110","864","2","legacy","2","1024","2","48000","-16","experiment","3","odd","1","501995","1933","9490","NA","498629","1926","120642","499779","499782","406637","85532","504001","504866","500788","504000","Sternberg Task","74","57734","75","yes","1024"
"98.6842105263","98.6842105263","767.802631579","767.802631579","black","experiment","legacy","legacy","legacy","0","uniform","1","undefined","1","right","75","0","0","0","75","0","0","75","75","75","0","75","75","75","75","10/25/20 18:13:03","The main experiment item","yes","SternbergTask.osexp","C:\Users\User\Desktop\Quant 2020\Sternberg Task 3","no","mono","no","18","no","white","no","yes","768","legacy","63","11","C:/Users/User/Desktop/Quant 2020/Sternberg Task 3/VT-subject-3.csv","legacy","1 7 8 3 9","Lentiform Loewenfeld","3.3.3","0","n","yes","0","right","left","NA","space","right","619","7556","NA","35110","619","2","legacy","5","1024","2","48000","-16","experiment","3","odd","2","508221","1933","9490","NA","504871","1926","120642","506006","506009","406637","85532","510227","510848","507015","510226","Sternberg Task","75","58353","76","yes","1024"
"98.7012987013","98.7012987013","765.025974026","765.025974026","black","experiment","legacy","legacy","legacy","0","uniform","1","undefined","1","right","76","0","0","0","76","0","0","76","76","76","0","76","76","76","76","10/25/20 18:13:03","The main experiment item","yes","SternbergTask.osexp","C:\Users\User\Desktop\Quant 2020\Sternberg Task 3","no","mono","no","18","no","white","no","yes","768","legacy","64","11","C:/Users/User/Desktop/Quant 2020/Sternberg Task 3/VT-subject-3.csv","legacy","1 8 7","Lentiform Loewenfeld","3.3.3","0","n","yes","0","right","left","NA","space","right","554","7556","NA","35110","554","2","legacy","3","1024","2","48000","-16","experiment","3","odd","4","514210","1933","9490","NA","510853","1926","120642","511995","511998","406637","85532","516216","516772","513004","516216","Sternberg Task","76","58907","77","yes","1024"
"98.7179487179","98.7179487179","768.961538462","768.961538462","black","experiment","legacy","legacy","legacy","0","uniform","1","undefined","1","left","77","0","0","0","77","0","0","77","77","77","0","77","77","77","77","10/25/20 18:13:03","The main experiment item","yes","SternbergTask.osexp","C:\Users\User\Desktop\Quant 2020\Sternberg Task 3","no","mono","no","18","no","white","no","yes","768","legacy","65","11","C:/Users/User/Desktop/Quant 2020/Sternberg Task 3/VT-subject-3.csv","legacy","8","Lentiform Loewenfeld","3.3.3","1","y","yes","0","left","left","NA","space","left","1072","7556","NA","35110","1072","2","legacy","1","1024","2","48000","-16","experiment","3","odd","8","520125","1933","9490","NA","516777","1926","120642","517910","517912","406637","85532","522131","523205","518918","522131","Sternberg Task","77","59979","78","yes","1024"
"98.7341772152","98.7341772152","770.430379747","770.430379747","black","experiment","legacy","legacy","legacy","0","uniform","1","undefined","1","left","78","0","0","0","78","0","0","78","78","78","0","78","78","78","78","10/25/20 18:13:03","The main experiment item","yes","SternbergTask.osexp","C:\Users\User\Desktop\Quant 2020\Sternberg Task 3","no","mono","no","18","no","white","no","yes","768","legacy","66","11","C:/Users/User/Desktop/Quant 2020/Sternberg Task 3/VT-subject-3.csv","legacy","8 1 6","Lentiform Loewenfeld","3.3.3","3","y","yes","0","left","left","NA","space","left","885","7556","NA","35110","885","2","legacy","3","1024","2","48000","-16","experiment","3","odd","6","526563","1933","9490","NA","523210","1926","120642","524348","524351","406637","85532","528569","529456","525357","528569","Sternberg Task","78","60864","79","yes","1024"
"98.75","98.75","766.975","766.975","black","experiment","legacy","legacy","legacy","0","uniform","1","undefined","1","left","79","0","0","0","79","0","0","79","79","79","0","79","79","79","79","10/25/20 18:13:03","The main experiment item","yes","SternbergTask.osexp","C:\Users\User\Desktop\Quant 2020\Sternberg Task 3","no","mono","no","18","no","white","no","yes","768","legacy","67","11","C:/Users/User/Desktop/Quant 2020/Sternberg Task 3/VT-subject-3.csv","legacy","2 3","Lentiform Loewenfeld","3.3.3","1","y","yes","0","left","left","NA","space","left","494","7556","NA","35110","494","2","legacy","2","1024","2","48000","-16","experiment","3","odd","2","532809","1933","9490","NA","529462","1926","120642","530596","530598","406637","85532","534816","535312","531604","534815","Sternberg Task","79","61358","80","yes","1024"
"98.7654320988","98.7654320988","765.259259259","765.259259259","black","experiment","legacy","legacy","legacy","0","uniform","1","undefined","1","left","80","0","0","0","80","0","0","80","80","80","0","80","80","80","80","10/25/20 18:13:03","The main experiment item","yes","SternbergTask.osexp","C:\Users\User\Desktop\Quant 2020\Sternberg Task 3","no","mono","no","18","no","white","no","yes","768","legacy","68","11","C:/Users/User/Desktop/Quant 2020/Sternberg Task 3/VT-subject-3.csv","legacy","4 6 2 5 1","Lentiform Loewenfeld","3.3.3","5","y","yes","0","left","left","NA","space","left","628","7556","NA","35110","628","2","legacy","5","1024","2","48000","-16","experiment","3","odd","1","538667","1933","9490","NA","535317","1926","120642","536452","536455","406637","85532","540673","541303","537460","540673","Sternberg Task","80","61986","81","yes","1024"
"98.7804878049","98.7804878049","766.146341463","766.146341463","black","experiment","legacy","legacy","legacy","0","uniform","1","undefined","1","left","81","0","0","0","81","0","0","81","81","81","0","81","81","81","81","10/25/20 18:13:03","The main experiment item","yes","SternbergTask.osexp","C:\Users\User\Desktop\Quant 2020\Sternberg Task 3","no","mono","no","18","no","white","no","yes","768","legacy","69","11","C:/Users/User/Desktop/Quant 2020/Sternberg Task 3/VT-subject-3.csv","legacy","2 6 1 7 4","Lentiform Loewenfeld","3.3.3","2","y","yes","0","left","left","NA","space","left","838","7556","NA","35110","838","2","legacy","5","1024","2","48000","-16","experiment","3","odd","6","544662","1933","9490","NA","541310","1926","120642","542448","542450","406637","85532","546668","547507","543456","546668","Sternberg Task","81","62824","82","yes","1024"
"98.7951807229","98.7951807229","767.192771084","767.192771084","black","experiment","legacy","legacy","legacy","0","uniform","1","undefined","1","left","82","0","0","0","82","0","0","82","82","82","0","82","82","82","82","10/25/20 18:13:03","The main experiment item","yes","SternbergTask.osexp","C:\Users\User\Desktop\Quant 2020\Sternberg Task 3","no","mono","no","18","no","white","no","yes","768","legacy","70","11","C:/Users/User/Desktop/Quant 2020/Sternberg Task 3/VT-subject-3.csv","legacy","3 4 9 6 2 9","Lentiform Loewenfeld","3.3.3","5","y","yes","0","left","left","NA","space","left","853","7556","NA","35110","853","2","legacy","6","1024","2","48000","-16","experiment","3","odd","2","550865","1933","9490","NA","547512","1926","120642","548649","548652","406637","85532","552871","553726","549657","552871","Sternberg Task","82","63677","83","yes","1024"
"98.8095238095","98.8095238095","766.142857143","766.142857143","black","experiment","legacy","legacy","legacy","0","uniform","1","undefined","1","right","83","0","0","0","83","0","0","83","83","83","0","83","83","83","83","10/25/20 18:13:03","The main experiment item","yes","SternbergTask.osexp","C:\Users\User\Desktop\Quant 2020\Sternberg Task 3","no","mono","no","18","no","white","no","yes","768","legacy","71","11","C:/Users/User/Desktop/Quant 2020/Sternberg Task 3/VT-subject-3.csv","legacy","5 7 3","Lentiform Loewenfeld","3.3.3","0","n","yes","0","right","left","NA","space","right","679","7556","NA","35110","679","2","legacy","3","1024","2","48000","-16","experiment","3","odd","9","557080","1933","9490","NA","553731","1926","120642","554866","554869","406637","85532","559086","559767","555875","559085","Sternberg Task","83","64356","84","yes","1024"
"97.6470588235","97.6470588235","767.823529412","767.823529412","black","experiment","legacy","legacy","legacy","0","uniform","0","undefined","0","left","84","0","0","0","84","0","0","84","84","84","0","84","84","84","84","10/25/20 18:13:03","The main experiment item","yes","SternbergTask.osexp","C:\Users\User\Desktop\Quant 2020\Sternberg Task 3","no","mono","no","18","no","white","no","yes","768","legacy","72","11","C:/Users/User/Desktop/Quant 2020/Sternberg Task 3/VT-subject-3.csv","legacy","6 9 7 4 5 1","Lentiform Loewenfeld","3.3.3","2","y","yes","0","right","left","NA","space","right","909","7556","NA","35110","909","2","legacy","6","1024","2","48000","-16","experiment","3","odd","9","563135","1933","9490","NA","559772","1926","120642","560920","560923","406637","85532","565142","566053","561928","565141","Sternberg Task","83","65265","85","yes","1024"
"97.6744186047","97.6744186047","769.511627907","769.511627907","black","experiment","legacy","legacy","legacy","0","uniform","1","undefined","1","right","85","0","0","0","85","0","0","85","85","85","0","85","85","85","85","10/25/20 18:13:03","The main experiment item","yes","SternbergTask.osexp","C:\Users\User\Desktop\Quant 2020\Sternberg Task 3","no","mono","no","18","no","white","no","yes","768","legacy","73","11","C:/Users/User/Desktop/Quant 2020/Sternberg Task 3/VT-subject-3.csv","legacy","1 7 5 2 9","Lentiform Loewenfeld","3.3.3","0","n","yes","0","right","left","NA","space","right","913","7556","NA","35110","913","2","legacy","5","1024","2","48000","-16","experiment","3","odd","3","569406","1933","9490","NA","559772","1926","120642","567191","567194","566058","85532","571409","572324","568199","571409","Sternberg Task","84","66178","86","yes","1024"
"97.7011494253","97.7011494253","767.379310345","767.379310345","black","experiment","legacy","legacy","legacy","0","uniform","1","undefined","1","left","86","0","0","0","86","0","0","86","86","86","0","86","86","86","86","10/25/20 18:13:03","The main experiment item","yes","SternbergTask.osexp","C:\Users\User\Desktop\Quant 2020\Sternberg Task 3","no","mono","no","18","no","white","no","yes","768","legacy","74","11","C:/Users/User/Desktop/Quant 2020/Sternberg Task 3/VT-subject-3.csv","legacy","9 8 4","Lentiform Loewenfeld","3.3.3","1","y","yes","0","left","left","NA","space","left","584","7556","NA","35110","584","2","legacy","3","1024","2","48000","-16","experiment","3","odd","9","575680","1933","9490","NA","572329","1926","120642","573465","573468","566058","85532","577686","578272","574473","577685","Sternberg Task","85","66762","87","yes","1024"
"97.7272727273","97.7272727273","766.272727273","766.272727273","black","experiment","legacy","legacy","legacy","0","uniform","1","undefined","1","right","87","0","0","0","87","0","0","87","87","87","0","87","87","87","87","10/25/20 18:13:03","The main experiment item","yes","SternbergTask.osexp","C:\Users\User\Desktop\Quant 2020\Sternberg Task 3","no","mono","no","18","no","white","no","yes","768","legacy","75","11","C:/Users/User/Desktop/Quant 2020/Sternberg Task 3/VT-subject-3.csv","legacy","6 9 7 3 8 2","Lentiform Loewenfeld","3.3.3","0","n","yes","0","right","left","NA","space","right","670","7556","NA","35110","670","2","legacy","6","1024","2","48000","-16","experiment","3","odd","5","581626","1933","9490","NA","578277","1926","120642","579411","579414","566058","85532","583632","584303","580419","583632","Sternberg Task","86","67432","88","yes","1024"
"97.7528089888","97.7528089888","764.853932584","764.853932584","black","experiment","legacy","legacy","legacy","0","uniform","1","undefined","1","left","88","0","0","0","88","0","0","88","88","88","0","88","88","88","88","10/25/20 18:13:03","The main experiment item","yes","SternbergTask.osexp","C:\Users\User\Desktop\Quant 2020\Sternberg Task 3","no","mono","no","18","no","white","no","yes","768","legacy","76","11","C:/Users/User/Desktop/Quant 2020/Sternberg Task 3/VT-subject-3.csv","legacy","4 1 8 7 5","Lentiform Loewenfeld","3.3.3","3","y","yes","0","left","left","NA","space","left","640","7556","NA","35110","640","2","legacy","5","1024","2","48000","-16","experiment","3","odd","8","587653","1933","9490","NA","584308","1926","120642","585439","585441","566058","85532","589659","590301","586446","589659","Sternberg Task","87","68072","89","yes","1024"
"97.7777777778","97.7777777778","766.8","766.8","black","experiment","legacy","legacy","legacy","0","uniform","1","undefined","1","right","89","0","0","0","89","0","0","89","89","89","0","89","89","89","89","10/25/20 18:13:03","The main experiment item","yes","SternbergTask.osexp","C:\Users\User\Desktop\Quant 2020\Sternberg Task 3","no","mono","no","18","no","white","no","yes","768","legacy","77","11","C:/Users/User/Desktop/Quant 2020/Sternberg Task 3/VT-subject-3.csv","legacy","9 7 4 5 8","Lentiform Loewenfeld","3.3.3","0","n","yes","0","right","left","NA","space","right","940","7556","NA","35110","940","2","legacy","5","1024","2","48000","-16","experiment","3","odd","6","593658","1933","9490","NA","590306","1926","120642","591444","591446","566058","85532","595665","596607","592452","595664","Sternberg Task","88","69012","90","yes","1024"
"97.8021978022","97.8021978022","765.43956044","765.43956044","black","experiment","legacy","legacy","legacy","0","uniform","1","undefined","1","left","90","0","0","0","90","0","0","90","90","90","0","90","90","90","90","10/25/20 18:13:03","The main experiment item","yes","SternbergTask.osexp","C:\Users\User\Desktop\Quant 2020\Sternberg Task 3","no","mono","no","18","no","white","no","yes","768","legacy","78","11","C:/Users/User/Desktop/Quant 2020/Sternberg Task 3/VT-subject-3.csv","legacy","9 4 2","Lentiform Loewenfeld","3.3.3","1","y","yes","0","left","left","NA","space","left","643","7556","NA","35110","643","2","legacy","3","1024","2","48000","-16","experiment","3","odd","9","599972","1933","9490","NA","596612","1926","120642","597757","597760","566058","85532","601979","602623","598766","601978","Sternberg Task","89","69655","91","yes","1024"
"97.8260869565","97.8260869565","764.293478261","764.293478261","black","experiment","legacy","legacy","legacy","0","uniform","1","undefined","1","right","91","0","0","0","91","0","0","91","91","91","0","91","91","91","91","10/25/20 18:13:03","The main experiment item","yes","SternbergTask.osexp","C:\Users\User\Desktop\Quant 2020\Sternberg Task 3","no","mono","no","18","no","white","no","yes","768","legacy","79","11","C:/Users/User/Desktop/Quant 2020/Sternberg Task 3/VT-subject-3.csv","legacy","2 5 1 4","Lentiform Loewenfeld","3.3.3","0","n","yes","0","right","left","NA","space","right","660","7556","NA","35110","660","2","legacy","4","1024","2","48000","-16","experiment","3","odd","6","605978","1933","9490","NA","602628","1926","120642","603763","603766","566058","85532","607984","608645","604772","607983","Sternberg Task","90","70315","92","yes","1024"
"96.7741935484","96.7741935484","764.849462366","764.849462366","black","experiment","legacy","legacy","legacy","0","uniform","0","undefined","0","left","92","0","0","0","92","0","0","92","92","92","0","92","92","92","92","10/25/20 18:13:03","The main experiment item","yes","SternbergTask.osexp","C:\Users\User\Desktop\Quant 2020\Sternberg Task 3","no","mono","no","18","no","white","no","yes","768","legacy","80","11","C:/Users/User/Desktop/Quant 2020/Sternberg Task 3/VT-subject-3.csv","legacy","4 1 5","Lentiform Loewenfeld","3.3.3","2","y","yes","0","right","left","NA","space","right","816","7556","NA","35110","816","2","legacy","3","1024","2","48000","-16","experiment","3","odd","1","612004","1933","9490","NA","608651","1926","120642","609790","609792","566058","85532","614012","614830","610799","614011","Sternberg Task","90","71131","93","yes","1024"
"96.8085106383","96.8085106383","764.712765957","764.712765957","black","experiment","legacy","legacy","legacy","0","uniform","1","undefined","1","right","93","0","0","0","93","0","0","93","93","93","0","93","93","93","93","10/25/20 18:13:03","The main experiment item","yes","SternbergTask.osexp","C:\Users\User\Desktop\Quant 2020\Sternberg Task 3","no","mono","no","18","no","white","no","yes","768","legacy","81","11","C:/Users/User/Desktop/Quant 2020/Sternberg Task 3/VT-subject-3.csv","legacy","1 6 4 3 9 7","Lentiform Loewenfeld","3.3.3","0","n","yes","0","right","left","NA","space","right","752","7556","NA","35110","752","2","legacy","6","1024","2","48000","-16","experiment","3","odd","8","618186","1933","9490","NA","608651","1926","120642","615972","615974","614835","85532","620192","620946","616980","620192","Sternberg Task","91","71883","94","yes","1024"
"96.8421052632","96.8421052632","765.2","765.2","black","experiment","legacy","legacy","legacy","0","uniform","1","undefined","1","left","94","0","0","0","94","0","0","94","94","94","0","94","94","94","94","10/25/20 18:13:03","The main experiment item","yes","SternbergTask.osexp","C:\Users\User\Desktop\Quant 2020\Sternberg Task 3","no","mono","no","18","no","white","no","yes","768","legacy","82","11","C:/Users/User/Desktop/Quant 2020/Sternberg Task 3/VT-subject-3.csv","legacy","7 1 8 5 6 2","Lentiform Loewenfeld","3.3.3","2","y","yes","0","left","left","NA","space","left","811","7556","NA","35110","811","2","legacy","6","1024","2","48000","-16","experiment","3","odd","1","624307","1933","9490","NA","620951","1926","120642","622092","622095","614835","85532","626313","627126","623100","626313","Sternberg Task","92","72694","95","yes","1024"
"96.875","96.875","765.34375","765.34375","black","experiment","legacy","legacy","legacy","0","uniform","1","undefined","1","left","95","0","0","0","95","0","0","95","95","95","0","95","95","95","95","10/25/20 18:13:03","The main experiment item","yes","SternbergTask.osexp","C:\Users\User\Desktop\Quant 2020\Sternberg Task 3","no","mono","no","18","no","white","no","yes","768","legacy","83","11","C:/Users/User/Desktop/Quant 2020/Sternberg Task 3/VT-subject-3.csv","legacy","5 7 3 6 2","Lentiform Loewenfeld","3.3.3","5","y","yes","0","left","left","NA","space","left","779","7556","NA","35110","779","2","legacy","5","1024","2","48000","-16","experiment","3","odd","2","630488","1933","9490","NA","627131","1926","120642","628273","628276","614835","85532","632494","633275","629281","632494","Sternberg Task","93","73473","96","yes","1024"
"96.9072164948","96.9072164948","766.391752577","766.391752577","black","experiment","legacy","legacy","legacy","0","uniform","1","undefined","1","left","96","0","0","0","96","0","0","96","96","96","0","96","96","96","96","10/25/20 18:13:03","The main experiment item","yes","SternbergTask.osexp","C:\Users\User\Desktop\Quant 2020\Sternberg Task 3","no","mono","no","18","no","white","no","yes","768","legacy","84","11","C:/Users/User/Desktop/Quant 2020/Sternberg Task 3/VT-subject-3.csv","legacy","3 9 7 6 4","Lentiform Loewenfeld","3.3.3","3","y","yes","0","left","left","NA","space","left","867","7556","NA","35110","867","2","legacy","5","1024","2","48000","-16","experiment","3","odd","7","636632","1933","9490","NA","633280","1926","120642","634418","634420","614835","85532","638638","639507","635425","638638","Sternberg Task","94","74340","97","yes","1024"
"96.9387755102","96.9387755102","767.683673469","767.683673469","black","experiment","legacy","legacy","legacy","0","uniform","1","undefined","1","right","97","0","0","0","97","0","0","97","97","97","0","97","97","97","97","10/25/20 18:13:03","The main experiment item","yes","SternbergTask.osexp","C:\Users\User\Desktop\Quant 2020\Sternberg Task 3","no","mono","no","18","no","white","no","yes","768","legacy","85","11","C:/Users/User/Desktop/Quant 2020/Sternberg Task 3/VT-subject-3.csv","legacy","5","Lentiform Loewenfeld","3.3.3","0","n","yes","0","right","left","NA","space","right","893","7556","NA","35110","893","2","legacy","1","1024","2","48000","-16","experiment","3","odd","8","642860","1933","9490","NA","639512","1926","120642","640646","640648","614835","85532","644866","645760","641654","644866","Sternberg Task","95","75233","98","yes","1024"
"96.9696969697","96.9696969697","767.828282828","767.828282828","black","experiment","legacy","legacy","legacy","0","uniform","1","undefined","1","right","98","0","0","0","98","0","0","98","98","98","0","98","98","98","98","10/25/20 18:13:03","The main experiment item","yes","SternbergTask.osexp","C:\Users\User\Desktop\Quant 2020\Sternberg Task 3","no","mono","no","18","no","white","no","yes","768","legacy","86","11","C:/Users/User/Desktop/Quant 2020/Sternberg Task 3/VT-subject-3.csv","legacy","7 1","Lentiform Loewenfeld","3.3.3","0","n","yes","0","right","left","NA","space","right","782","7556","NA","35110","782","2","legacy","2","1024","2","48000","-16","experiment","3","odd","8","649115","1933","9490","NA","645766","1926","120642","646901","646903","614835","85532","651121","651904","647909","651121","Sternberg Task","96","76015","99","yes","1024"
"97","97","771.4","771.4","black","experiment","legacy","legacy","legacy","0","uniform","1","undefined","1","left","99","0","0","0","99","0","0","99","99","99","0","99","99","99","99","10/25/20 18:13:03","The main experiment item","yes","SternbergTask.osexp","C:\Users\User\Desktop\Quant 2020\Sternberg Task 3","no","mono","no","18","no","white","no","yes","768","legacy","87","11","C:/Users/User/Desktop/Quant 2020/Sternberg Task 3/VT-subject-3.csv","legacy","2 4 6 9","Lentiform Loewenfeld","3.3.3","3","y","yes","0","left","left","NA","space","left","1125","7556","NA","35110","1125","2","legacy","4","1024","2","48000","-16","experiment","3","odd","6","655263","1933","9490","NA","651910","1926","120642","653049","653052","614835","85532","657270","658397","654057","657269","Sternberg Task","97","77140","100","yes","1024"
"97.0297029703","97.0297029703","774.930693069","774.930693069","black","experiment","legacy","legacy","legacy","0","uniform","1","undefined","1","right","100","0","0","0","100","0","0","100","100","100","0","100","100","100","100","10/25/20 18:13:03","The main experiment item","yes","SternbergTask.osexp","C:\Users\User\Desktop\Quant 2020\Sternberg Task 3","no","mono","no","18","no","white","no","yes","768","legacy","88","11","C:/Users/User/Desktop/Quant 2020/Sternberg Task 3/VT-subject-3.csv","legacy","1 4 9 3","Lentiform Loewenfeld","3.3.3","0","n","yes","0","right","left","NA","space","right","1128","7556","NA","35110","1128","2","legacy","4","1024","2","48000","-16","experiment","3","odd","5","661749","1933","9490","NA","658403","1926","120642","659535","659538","614835","85532","663756","664886","660543","663756","Sternberg Task","98","78268","101","yes","1024"
"97.0588235294","97.0588235294","777.303921569","777.303921569","black","experiment","legacy","legacy","legacy","0","uniform","1","undefined","1","left","101","0","0","0","101","0","0","101","101","101","0","101","101","101","101","10/25/20 18:13:03","The main experiment item","yes","SternbergTask.osexp","C:\Users\User\Desktop\Quant 2020\Sternberg Task 3","no","mono","no","18","no","white","no","yes","768","legacy","89","11","C:/Users/User/Desktop/Quant 2020/Sternberg Task 3/VT-subject-3.csv","legacy","3 5 7 1","Lentiform Loewenfeld","3.3.3","3","y","yes","0","left","left","NA","space","left","1017","7556","NA","35110","1017","2","legacy","4","1024","2","48000","-16","experiment","3","odd","7","668250","1933","9490","NA","664891","1926","120642","666035","666038","614835","85532","670256","671274","667044","670255","Sternberg Task","99","79285","102","yes","1024"
"97.0873786408","97.0873786408","776.310679612","776.310679612","black","experiment","legacy","legacy","legacy","0","uniform","1","undefined","1","left","102","0","0","0","102","0","0","102","102","102","0","102","102","102","102","10/25/20 18:13:03","The main experiment item","yes","SternbergTask.osexp","C:\Users\User\Desktop\Quant 2020\Sternberg Task 3","no","mono","no","18","no","white","no","yes","768","legacy","90","11","C:/Users/User/Desktop/Quant 2020/Sternberg Task 3/VT-subject-3.csv","legacy","3 9 6 2","Lentiform Loewenfeld","3.3.3","4","y","yes","0","left","left","NA","space","left","675","7556","NA","35110","675","2","legacy","4","1024","2","48000","-16","experiment","3","odd","2","674629","1933","9490","NA","671280","1926","120642","672414","672417","614835","85532","676635","677311","673423","676634","Sternberg Task","100","79960","103","yes","1024"
"96.1538461538","96.1538461538","788.076923077","788.076923077","black","experiment","legacy","legacy","legacy","0","uniform","0","undefined","0","left","103","0","0","0","103","0","0","103","103","103","0","103","103","103","103","10/25/20 18:13:03","The main experiment item","yes","SternbergTask.osexp","C:\Users\User\Desktop\Quant 2020\Sternberg Task 3","no","mono","no","18","no","white","no","yes","768","legacy","91","11","C:/Users/User/Desktop/Quant 2020/Sternberg Task 3/VT-subject-3.csv","legacy","4 7 6 8 2 3","Lentiform Loewenfeld","3.3.3","6","y","yes","0","None","left","NA","space","None","2000","7556","NA","35110","2000","2","legacy","6","1024","2","48000","-16","experiment","3","odd","3","680679","1933","9490","NA","677316","1926","120642","678464","678467","614835","85532","682685","684686","679472","682685","Sternberg Task","100","81960","104","yes","1024"
"96.1904761905","96.1904761905","786.723809524","786.723809524","black","experiment","legacy","legacy","legacy","0","uniform","1","undefined","1","left","104","0","0","0","104","0","0","104","104","104","0","104","104","104","104","10/25/20 18:13:03","The main experiment item","yes","SternbergTask.osexp","C:\Users\User\Desktop\Quant 2020\Sternberg Task 3","no","mono","no","18","no","white","no","yes","768","legacy","92","11","C:/Users/User/Desktop/Quant 2020/Sternberg Task 3/VT-subject-3.csv","legacy","9 1 7 2","Lentiform Loewenfeld","3.3.3","2","y","yes","0","left","left","NA","space","left","646","7556","NA","35110","646","2","legacy","4","1024","2","48000","-16","experiment","3","odd","1","688053","1933","9490","NA","677316","1926","120642","685838","685840","684691","85532","690059","690707","686846","690059","Sternberg Task","101","82606","105","yes","1024"
"96.2264150943","96.2264150943","786.122641509","786.122641509","black","experiment","legacy","legacy","legacy","0","uniform","1","undefined","1","right","105","0","0","0","105","0","0","105","105","105","0","105","105","105","105","10/25/20 18:13:03","The main experiment item","yes","SternbergTask.osexp","C:\Users\User\Desktop\Quant 2020\Sternberg Task 3","no","mono","no","18","no","white","no","yes","768","legacy","93","11","C:/Users/User/Desktop/Quant 2020/Sternberg Task 3/VT-subject-3.csv","legacy","6 8","Lentiform Loewenfeld","3.3.3","0","n","yes","0","right","left","NA","space","right","723","7556","NA","35110","723","2","legacy","2","1024","2","48000","-16","experiment","3","odd","9","694062","1933","9490","NA","690712","1926","120642","691847","691850","684691","85532","696069","696794","692856","696069","Sternberg Task","102","83329","106","yes","1024"
"96.261682243","96.261682243","785.906542056","785.906542056","black","experiment","legacy","legacy","legacy","0","uniform","1","undefined","1","right","106","0","0","0","106","0","0","106","106","106","0","106","106","106","106","10/25/20 18:13:03","The main experiment item","yes","SternbergTask.osexp","C:\Users\User\Desktop\Quant 2020\Sternberg Task 3","no","mono","no","18","no","white","no","yes","768","legacy","94","11","C:/Users/User/Desktop/Quant 2020/Sternberg Task 3/VT-subject-3.csv","legacy","3 4 9 6 7 8","Lentiform Loewenfeld","3.3.3","0","n","yes","0","right","left","NA","space","right","763","7556","NA","35110","763","2","legacy","6","1024","2","48000","-16","experiment","3","odd","2","700149","1933","9490","NA","696799","1926","120642","697934","697937","684691","85532","702157","702922","698943","702156","Sternberg Task","103","84092","107","yes","1024"
"96.2962962963","96.2962962963","788.425925926","788.425925926","black","experiment","legacy","legacy","legacy","0","uniform","1","undefined","1","left","107","0","0","0","107","0","0","107","107","107","0","107","107","107","107","10/25/20 18:13:03","The main experiment item","yes","SternbergTask.osexp","C:\Users\User\Desktop\Quant 2020\Sternberg Task 3","no","mono","no","18","no","white","no","yes","768","legacy","95","11","C:/Users/User/Desktop/Quant 2020/Sternberg Task 3/VT-subject-3.csv","legacy","7 8 6 3 1","Lentiform Loewenfeld","3.3.3","5","y","yes","0","left","left","NA","space","left","1058","7556","NA","35110","1058","2","legacy","5","1024","2","48000","-16","experiment","3","odd","1","706280","1933","9490","NA","702927","1926","120642","704065","704067","684691","85532","708286","709346","705074","708286","Sternberg Task","104","85150","108","yes","1024"
"96.3302752294","96.3302752294","787.71559633","787.71559633","black","experiment","legacy","legacy","legacy","0","uniform","1","undefined","1","left","108","0","0","0","108","0","0","108","108","108","0","108","108","108","108","10/25/20 18:13:03","The main experiment item","yes","SternbergTask.osexp","C:\Users\User\Desktop\Quant 2020\Sternberg Task 3","no","mono","no","18","no","white","no","yes","768","legacy","96","11","C:/Users/User/Desktop/Quant 2020/Sternberg Task 3/VT-subject-3.csv","legacy","3 5 4 7","Lentiform Loewenfeld","3.3.3","1","y","yes","0","left","left","NA","space","left","711","7556","NA","35110","711","2","legacy","4","1024","2","48000","-16","experiment","3","odd","3","712712","1933","9490","NA","709351","1926","120642","710497","710500","684691","85532","714718","715431","711506","714718","Sternberg Task","105","85861","109","yes","1024"
"96.3636363636","96.3636363636","786.618181818","786.618181818","black","experiment","legacy","legacy","legacy","0","uniform","1","undefined","1","left","109","0","0","0","109","0","0","109","109","109","0","109","109","109","109","10/25/20 18:13:03","The main experiment item","yes","SternbergTask.osexp","C:\Users\User\Desktop\Quant 2020\Sternberg Task 3","no","mono","no","18","no","white","no","yes","768","legacy","97","11","C:/Users/User/Desktop/Quant 2020/Sternberg Task 3/VT-subject-3.csv","legacy","8 9 5 7 1 6","Lentiform Loewenfeld","3.3.3","4","y","yes","0","left","left","NA","space","left","667","7556","NA","35110","667","2","legacy","6","1024","2","48000","-16","experiment","3","odd","7","718786","1933","9490","NA","715436","1926","120642","716573","716575","684691","85532","720794","721463","717581","720793","Sternberg Task","106","86528","110","yes","1024"
"96.3963963964","96.3963963964","785.153153153","785.153153153","black","experiment","legacy","legacy","legacy","0","uniform","1","undefined","1","right","110","0","0","0","110","0","0","110","110","110","0","110","110","110","110","10/25/20 18:13:03","The main experiment item","yes","SternbergTask.osexp","C:\Users\User\Desktop\Quant 2020\Sternberg Task 3","no","mono","no","18","no","white","no","yes","768","legacy","98","11","C:/Users/User/Desktop/Quant 2020/Sternberg Task 3/VT-subject-3.csv","legacy","7 4 2 8 1 9","Lentiform Loewenfeld","3.3.3","0","n","yes","0","right","left","NA","space","right","624","7556","NA","35110","624","2","legacy","6","1024","2","48000","-16","experiment","3","odd","5","724816","1933","9490","NA","721468","1926","120642","722601","722604","684691","85532","726823","727448","723610","726822","Sternberg Task","107","87152","111","yes","1024"
"95.5357142857","95.5357142857","783.383928571","783.383928571","black","experiment","legacy","legacy","legacy","0","uniform","0","undefined","0","left","111","0","0","0","111","0","0","111","111","111","0","111","111","111","111","10/25/20 18:13:03","The main experiment item","yes","SternbergTask.osexp","C:\Users\User\Desktop\Quant 2020\Sternberg Task 3","no","mono","no","18","no","white","no","yes","768","legacy","99","11","C:/Users/User/Desktop/Quant 2020/Sternberg Task 3/VT-subject-3.csv","legacy","6 5","Lentiform Loewenfeld","3.3.3","2","y","yes","0","right","left","NA","space","right","587","7556","NA","35110","587","2","legacy","2","1024","2","48000","-16","experiment","3","odd","5","730805","1933","9490","NA","727453","1926","120642","728591","728594","684691","85532","732810","733399","729600","732810","Sternberg Task","107","87739","112","yes","1024"
"95.5752212389","95.5752212389","783.734513274","783.734513274","black","experiment","legacy","legacy","legacy","0","uniform","1","undefined","1","right","112","0","0","0","112","0","0","112","112","112","0","112","112","112","112","10/25/20 18:13:03","The main experiment item","yes","SternbergTask.osexp","C:\Users\User\Desktop\Quant 2020\Sternberg Task 3","no","mono","no","18","no","white","no","yes","768","legacy","100","11","C:/Users/User/Desktop/Quant 2020/Sternberg Task 3/VT-subject-3.csv","legacy","9 8 2 7 4","Lentiform Loewenfeld","3.3.3","0","n","yes","0","right","left","NA","space","right","823","7556","NA","35110","823","2","legacy","5","1024","2","48000","-16","experiment","3","odd","5","736754","1933","9490","NA","727453","1926","120642","734539","734542","733404","85532","738760","739585","735548","738759","Sternberg Task","108","88562","113","yes","1024"
"95.6140350877","95.6140350877","784.48245614","784.48245614","black","experiment","legacy","legacy","legacy","0","uniform","1","undefined","1","right","113","0","0","0","113","0","0","113","113","113","0","113","113","113","113","10/25/20 18:13:03","The main experiment item","yes","SternbergTask.osexp","C:\Users\User\Desktop\Quant 2020\Sternberg Task 3","no","mono","no","18","no","white","no","yes","768","legacy","101","11","C:/Users/User/Desktop/Quant 2020/Sternberg Task 3/VT-subject-3.csv","legacy","5 3 2 6 9 8","Lentiform Loewenfeld","3.3.3","0","n","yes","0","right","left","NA","space","right","869","7556","NA","35110","869","2","legacy","6","1024","2","48000","-16","experiment","3","odd","4","742950","1933","9490","NA","739590","1926","120642","740736","740738","733404","85532","744956","745827","741744","744956","Sternberg Task","109","89431","114","yes","1024"
"95.652173913","95.652173913","788.191304348","788.191304348","black","experiment","legacy","legacy","legacy","0","uniform","1","undefined","1","left","114","0","0","0","114","0","0","114","114","114","0","114","114","114","114","10/25/20 18:13:03","The main experiment item","yes","SternbergTask.osexp","C:\Users\User\Desktop\Quant 2020\Sternberg Task 3","no","mono","no","18","no","white","no","yes","768","legacy","102","11","C:/Users/User/Desktop/Quant 2020/Sternberg Task 3/VT-subject-3.csv","legacy","9 3 1 2 5","Lentiform Loewenfeld","3.3.3","4","y","yes","0","left","left","NA","space","left","1211","7556","NA","35110","1211","2","legacy","5","1024","2","48000","-16","experiment","3","odd","2","749194","1933","9490","NA","745832","1926","120642","746979","746982","733404","85532","751202","752414","747988","751201","Sternberg Task","110","90642","115","yes","1024"
