"acc","accuracy","average_response_time","avg_rt","background","block","canvas_backend","clock_backend","color_backend","compensation","coordinates","correct","correct_instruction1","correct_keyboard_response","correct_response","count_ISI","count_correctFeedback","count_expSequence","count_experiment","count_experimentLoop","count_fixation","count_incorrectFeedback","count_instruction1","count_instructions2","count_keyboard_response","count_logger","count_memorySet","count_practiceLoop","count_probe","count_thankYou","datetime","description","disable_garbage_collection","experiment_file","experiment_path","font_bold","font_family","font_italic","font_size","font_underline","foreground","form_clicks","fullscreen","height","keyboard_backend","live_row","live_row_practiceLoop","logfile","mouse_backend","numberSet","opensesame_codename","opensesame_version","posInSet","present","repeat_cycle","response","response_instruction1","response_instructions2","response_keyboard_response","response_thankYou","response_time","response_time_instruction1","response_time_instructions2","response_time_keyboard_response","response_time_thankYou","round_decimals","sampler_backend","setSize","sound_buf_size","sound_channels","sound_freq","sound_sample_size","start","subject_nr","subject_parity","target","time_ISI","time_correctFeedback","time_expSequence","time_experiment","time_experimentLoop","time_fixation","time_incorrectFeedback","time_instruction1","time_instructions2","time_keyboard_response","time_logger","time_memorySet","time_practiceLoop","time_probe","time_thankYou","title","total_correct","total_response_time","total_responses","uniform_coordinates","width"
"100","100","663","663","black","practice","legacy","legacy","legacy","0","uniform","1","undefined","1","right","0","0","0","0","0","0","0","0","0","0","0","0","0","0","0","10/18/20 18:33:21","The main experiment item","yes","SternbergTask.osexp","C:\Users\Jennifer Wright\Desktop\PSYC5613\STERNBERGTASK","no","mono","no","18","no","white","no","yes","768","legacy","0","0","C:/Users/Jennifer Wright/Desktop/PSYC5613/STERNBERGTASK/jw-subject-1.csv","legacy","2 1","Lentiform Loewenfeld","3.3.3","0","n","0","right","right","NA","right","NA","663","64998","NA","663","NA","2","legacy","2","1024","2","48000","-16","experiment","1","odd","5","74804","NA","72588","4954","NA","72594","NA","4960","NA","76809","77473","73599","69961","76809","NA","SternbergTask","1","663","1","yes","1024"
"100","100","926","926","black","practice","legacy","legacy","legacy","0","uniform","1","undefined","1","right","1","1","1","0","0","1","1","0","0","1","1","1","0","1","0","10/18/20 18:33:21","The main experiment item","yes","SternbergTask.osexp","C:\Users\Jennifer Wright\Desktop\PSYC5613\STERNBERGTASK","no","mono","no","18","no","white","no","yes","768","legacy","1","1","C:/Users/Jennifer Wright/Desktop/PSYC5613/STERNBERGTASK/jw-subject-1.csv","legacy","9 6 7 4 5","Lentiform Loewenfeld","3.3.3","0","n","0","right","right","NA","right","NA","1189","64998","NA","1189","NA","2","legacy","5","1024","2","48000","-16","experiment","1","odd","3","81201","77734","78985","4954","NA","78990","NA","4960","NA","83206","84396","79996","69961","83206","NA","SternbergTask","2","1852","2","yes","1024"
"100","100","1261.33333333","1261.33333333","black","practice","legacy","legacy","legacy","0","uniform","1","undefined","1","right","2","2","2","0","0","2","2","0","0","2","2","2","0","2","0","10/18/20 18:33:21","The main experiment item","yes","SternbergTask.osexp","C:\Users\Jennifer Wright\Desktop\PSYC5613\STERNBERGTASK","no","mono","no","18","no","white","no","yes","768","legacy","2","2","C:/Users/Jennifer Wright/Desktop/PSYC5613/STERNBERGTASK/jw-subject-1.csv","legacy","5 7 8 4 1 2","Lentiform Loewenfeld","3.3.3","0","n","0","right","right","NA","right","NA","1932","64998","NA","1932","NA","2","legacy","6","1024","2","48000","-16","experiment","1","odd","6","87917","84458","85703","4954","NA","85708","NA","4960","NA","89922","91855","86713","69961","89922","NA","SternbergTask","3","3784","3","yes","1024"
"100","100","1238.75","1238.75","black","practice","legacy","legacy","legacy","0","uniform","1","undefined","1","left","3","3","3","0","0","3","3","0","0","3","3","3","0","3","0","10/18/20 18:33:21","The main experiment item","yes","SternbergTask.osexp","C:\Users\Jennifer Wright\Desktop\PSYC5613\STERNBERGTASK","no","mono","no","18","no","white","no","yes","768","legacy","3","3","C:/Users/Jennifer Wright/Desktop/PSYC5613/STERNBERGTASK/jw-subject-1.csv","legacy","2 9 4","Lentiform Loewenfeld","3.3.3","3","y","0","left","right","NA","left","NA","1171","64998","NA","1171","NA","2","legacy","3","1024","2","48000","-16","experiment","1","odd","4","95365","91920","93150","4954","NA","93156","NA","4960","NA","97371","98543","94160","69961","97371","NA","SternbergTask","4","4955","4","yes","1024"
"100","100","1190.4","1190.4","black","practice","legacy","legacy","legacy","0","uniform","1","undefined","1","left","4","4","4","0","0","4","4","0","0","4","4","4","0","4","0","10/18/20 18:33:21","The main experiment item","yes","SternbergTask.osexp","C:\Users\Jennifer Wright\Desktop\PSYC5613\STERNBERGTASK","no","mono","no","18","no","white","no","yes","768","legacy","4","4","C:/Users/Jennifer Wright/Desktop/PSYC5613/STERNBERGTASK/jw-subject-1.csv","legacy","6","Lentiform Loewenfeld","3.3.3","1","y","0","left","right","NA","left","NA","997","64998","NA","997","NA","2","legacy","1","1024","2","48000","-16","experiment","1","odd","6","102046","98605","99831","4954","NA","99836","NA","4960","NA","104051","105049","100840","69961","104050","NA","SternbergTask","5","5952","5","yes","1024"
"100","100","1138.16666667","1138.16666667","black","practice","legacy","legacy","legacy","0","uniform","1","undefined","1","right","5","5","5","0","0","5","5","0","0","5","5","5","0","5","0","10/18/20 18:33:21","The main experiment item","yes","SternbergTask.osexp","C:\Users\Jennifer Wright\Desktop\PSYC5613\STERNBERGTASK","no","mono","no","18","no","white","no","yes","768","legacy","5","5","C:/Users/Jennifer Wright/Desktop/PSYC5613/STERNBERGTASK/jw-subject-1.csv","legacy","4 1 5","Lentiform Loewenfeld","3.3.3","0","n","0","right","right","NA","right","NA","877","64998","NA","877","NA","2","legacy","3","1024","2","48000","-16","experiment","1","odd","2","108526","105082","106312","4954","NA","106317","NA","4960","NA","110531","111409","107322","69961","110531","NA","SternbergTask","6","6829","6","yes","1024"
"100","100","1076.71428571","1076.71428571","black","practice","legacy","legacy","legacy","0","uniform","1","undefined","1","right","6","6","6","0","0","6","6","0","0","6","6","6","0","6","0","10/18/20 18:33:21","The main experiment item","yes","SternbergTask.osexp","C:\Users\Jennifer Wright\Desktop\PSYC5613\STERNBERGTASK","no","mono","no","18","no","white","no","yes","768","legacy","6","6","C:/Users/Jennifer Wright/Desktop/PSYC5613/STERNBERGTASK/jw-subject-1.csv","legacy","5","Lentiform Loewenfeld","3.3.3","0","n","0","right","right","NA","right","NA","708","64998","NA","708","NA","2","legacy","1","1024","2","48000","-16","experiment","1","odd","3","114936","111479","112723","4954","NA","112728","NA","4960","NA","116942","117651","113732","69961","116942","NA","SternbergTask","7","7537","7","yes","1024"
"100","100","1034","1034","black","practice","legacy","legacy","legacy","0","uniform","1","undefined","1","left","7","7","7","0","0","7","7","0","0","7","7","7","0","7","0","10/18/20 18:33:21","The main experiment item","yes","SternbergTask.osexp","C:\Users\Jennifer Wright\Desktop\PSYC5613\STERNBERGTASK","no","mono","no","18","no","white","no","yes","768","legacy","7","7","C:/Users/Jennifer Wright/Desktop/PSYC5613/STERNBERGTASK/jw-subject-1.csv","legacy","4 8","Lentiform Loewenfeld","3.3.3","1","y","0","left","right","NA","left","NA","735","64998","NA","735","NA","2","legacy","2","1024","2","48000","-16","experiment","1","odd","4","121186","117732","118964","4954","NA","118970","NA","4960","NA","123193","123930","119976","69961","123192","NA","SternbergTask","8","8272","8","yes","1024"
"100","100","1096.22222222","1096.22222222","black","practice","legacy","legacy","legacy","0","uniform","1","undefined","1","right","8","8","8","0","0","8","8","0","0","8","8","8","0","8","0","10/18/20 18:33:21","The main experiment item","yes","SternbergTask.osexp","C:\Users\Jennifer Wright\Desktop\PSYC5613\STERNBERGTASK","no","mono","no","18","no","white","no","yes","768","legacy","8","8","C:/Users/Jennifer Wright/Desktop/PSYC5613/STERNBERGTASK/jw-subject-1.csv","legacy","3 1 9 4","Lentiform Loewenfeld","3.3.3","0","n","0","right","right","NA","right","NA","1594","64998","NA","1594","NA","2","legacy","4","1024","2","48000","-16","experiment","1","odd","6","127465","123992","125247","4954","NA","125253","NA","4960","NA","129474","131069","126258","69961","129473","NA","SternbergTask","9","9866","9","yes","1024"
"100","100","1166.8","1166.8","black","practice","legacy","legacy","legacy","0","uniform","1","undefined","1","left","9","9","9","0","0","9","9","0","0","9","9","9","0","9","0","10/18/20 18:33:21","The main experiment item","yes","SternbergTask.osexp","C:\Users\Jennifer Wright\Desktop\PSYC5613\STERNBERGTASK","no","mono","no","18","no","white","no","yes","768","legacy","9","9","C:/Users/Jennifer Wright/Desktop/PSYC5613/STERNBERGTASK/jw-subject-1.csv","legacy","1 7 9 8 5","Lentiform Loewenfeld","3.3.3","4","y","0","left","right","NA","left","NA","1802","64998","NA","1802","NA","2","legacy","5","1024","2","48000","-16","experiment","1","odd","8","134668","131198","132450","4954","NA","132457","NA","4960","NA","136675","138479","133462","69961","136674","NA","SternbergTask","10","11668","10","yes","1024"
"100","100","1141.27272727","1141.27272727","black","practice","legacy","legacy","legacy","0","uniform","1","undefined","1","left","10","10","10","0","0","10","10","0","0","10","10","10","0","10","0","10/18/20 18:33:21","The main experiment item","yes","SternbergTask.osexp","C:\Users\Jennifer Wright\Desktop\PSYC5613\STERNBERGTASK","no","mono","no","18","no","white","no","yes","768","legacy","10","10","C:/Users/Jennifer Wright/Desktop/PSYC5613/STERNBERGTASK/jw-subject-1.csv","legacy","1 5 2 9","Lentiform Loewenfeld","3.3.3","2","y","0","left","right","NA","left","NA","886","64998","NA","886","NA","2","legacy","4","1024","2","48000","-16","experiment","1","odd","5","141962","138512","139746","4954","NA","139752","NA","4960","NA","143967","144855","140757","69961","143967","NA","SternbergTask","11","12554","11","yes","1024"
"100","100","1123","1123","black","practice","legacy","legacy","legacy","0","uniform","1","undefined","1","left","11","11","11","0","0","11","11","0","0","11","11","11","0","11","0","10/18/20 18:33:21","The main experiment item","yes","SternbergTask.osexp","C:\Users\Jennifer Wright\Desktop\PSYC5613\STERNBERGTASK","no","mono","no","18","no","white","no","yes","768","legacy","11","11","C:/Users/Jennifer Wright/Desktop/PSYC5613/STERNBERGTASK/jw-subject-1.csv","legacy","4 3 1 7 9 8","Lentiform Loewenfeld","3.3.3","1","y","0","left","right","NA","left","NA","922","64998","NA","922","NA","2","legacy","6","1024","2","48000","-16","experiment","1","odd","4","148347","144895","146130","4954","NA","146136","NA","4960","NA","150352","151276","147141","69961","150352","NA","SternbergTask","12","13476","12","yes","1024"
"100","100","1126.69230769","1126.69230769","black","experiment","legacy","legacy","legacy","0","uniform","1","undefined","1","right","12","12","12","0","0","12","12","0","0","12","12","12","0","12","0","10/18/20 18:33:21","The main experiment item","yes","SternbergTask.osexp","C:\Users\Jennifer Wright\Desktop\PSYC5613\STERNBERGTASK","no","mono","no","18","no","white","no","yes","768","legacy","0","11","C:/Users/Jennifer Wright/Desktop/PSYC5613/STERNBERGTASK/jw-subject-1.csv","legacy","3 9 1","Lentiform Loewenfeld","3.3.3","0","n","0","right","right","left","right","NA","1171","64998","24990","1171","NA","2","legacy","3","1024","2","48000","-16","experiment","1","odd","7","179886","151310","177670","4954","177370","177676","NA","4960","152379","181892","183064","178682","69961","181891","NA","SternbergTask","13","14647","13","yes","1024"
"100","100","1145.5","1145.5","black","experiment","legacy","legacy","legacy","0","uniform","1","undefined","1","right","13","13","13","0","0","13","13","0","0","13","13","13","0","13","0","10/18/20 18:33:21","The main experiment item","yes","SternbergTask.osexp","C:\Users\Jennifer Wright\Desktop\PSYC5613\STERNBERGTASK","no","mono","no","18","no","white","no","yes","768","legacy","1","11","C:/Users/Jennifer Wright/Desktop/PSYC5613/STERNBERGTASK/jw-subject-1.csv","legacy","9","Lentiform Loewenfeld","3.3.3","0","n","0","right","right","left","right","NA","1390","64998","24990","1390","NA","2","legacy","1","1024","2","48000","-16","experiment","1","odd","6","186613","183152","184397","4954","177370","184403","NA","4960","152379","188617","190008","185408","69961","188617","NA","SternbergTask","14","16037","14","yes","1024"
"100","100","1146.73333333","1146.73333333","black","experiment","legacy","legacy","legacy","0","uniform","1","undefined","1","right","14","14","14","0","0","14","14","0","0","14","14","14","0","14","0","10/18/20 18:33:21","The main experiment item","yes","SternbergTask.osexp","C:\Users\Jennifer Wright\Desktop\PSYC5613\STERNBERGTASK","no","mono","no","18","no","white","no","yes","768","legacy","2","11","C:/Users/Jennifer Wright/Desktop/PSYC5613/STERNBERGTASK/jw-subject-1.csv","legacy","2 8 6 3 1","Lentiform Loewenfeld","3.3.3","0","n","0","right","right","left","right","NA","1164","64998","24990","1164","NA","2","legacy","5","1024","2","48000","-16","experiment","1","odd","7","193532","190087","191316","4954","177370","191321","NA","4960","152379","195537","196703","192326","69961","195537","NA","SternbergTask","15","17201","15","yes","1024"
"93.75","93.75","1166.0625","1166.0625","black","experiment","legacy","legacy","legacy","0","uniform","0","undefined","0","left","15","15","15","0","0","15","15","0","0","15","15","15","0","15","0","10/18/20 18:33:21","The main experiment item","yes","SternbergTask.osexp","C:\Users\Jennifer Wright\Desktop\PSYC5613\STERNBERGTASK","no","mono","no","18","no","white","no","yes","768","legacy","3","11","C:/Users/Jennifer Wright/Desktop/PSYC5613/STERNBERGTASK/jw-subject-1.csv","legacy","3 2 1 4 7","Lentiform Loewenfeld","3.3.3","2","y","0","right","right","left","right","NA","1456","64998","24990","1456","NA","2","legacy","5","1024","2","48000","-16","experiment","1","odd","2","200213","196774","197998","4954","177370","198003","NA","4960","152379","202219","203677","199008","69961","202218","NA","SternbergTask","15","18657","16","yes","1024"
"94.1176470588","94.1176470588","1153.47058824","1153.47058824","black","experiment","legacy","legacy","legacy","0","uniform","1","undefined","1","right","16","16","16","0","0","16","16","0","0","16","16","16","0","16","0","10/18/20 18:33:21","The main experiment item","yes","SternbergTask.osexp","C:\Users\Jennifer Wright\Desktop\PSYC5613\STERNBERGTASK","no","mono","no","18","no","white","no","yes","768","legacy","4","11","C:/Users/Jennifer Wright/Desktop/PSYC5613/STERNBERGTASK/jw-subject-1.csv","legacy","1 7 8 3 9","Lentiform Loewenfeld","3.3.3","0","n","0","right","right","left","right","NA","952","64998","24990","952","NA","2","legacy","5","1024","2","48000","-16","experiment","1","odd","2","207187","196774","204972","4954","177370","204977","203748","4960","152379","209194","210147","205982","69961","209193","NA","SternbergTask","16","19609","17","yes","1024"
"94.4444444444","94.4444444444","1139.22222222","1139.22222222","black","experiment","legacy","legacy","legacy","0","uniform","1","undefined","1","right","17","17","17","0","0","17","17","0","0","17","17","17","0","17","0","10/18/20 18:33:21","The main experiment item","yes","SternbergTask.osexp","C:\Users\Jennifer Wright\Desktop\PSYC5613\STERNBERGTASK","no","mono","no","18","no","white","no","yes","768","legacy","5","11","C:/Users/Jennifer Wright/Desktop/PSYC5613/STERNBERGTASK/jw-subject-1.csv","legacy","6 8 4","Lentiform Loewenfeld","3.3.3","0","n","0","right","right","left","right","NA","897","64998","24990","897","NA","2","legacy","3","1024","2","48000","-16","experiment","1","odd","1","213679","210213","211463","4954","177370","211470","203748","4960","152379","215685","216584","212475","69961","215685","NA","SternbergTask","17","20506","18","yes","1024"
"94.7368421053","94.7368421053","1134.68421053","1134.68421053","black","experiment","legacy","legacy","legacy","0","uniform","1","undefined","1","right","18","18","18","0","0","18","18","0","0","18","18","18","0","18","0","10/18/20 18:33:21","The main experiment item","yes","SternbergTask.osexp","C:\Users\Jennifer Wright\Desktop\PSYC5613\STERNBERGTASK","no","mono","no","18","no","white","no","yes","768","legacy","6","11","C:/Users/Jennifer Wright/Desktop/PSYC5613/STERNBERGTASK/jw-subject-1.csv","legacy","1 6 4 3 9 7","Lentiform Loewenfeld","3.3.3","0","n","0","right","right","left","right","NA","1053","64998","24990","1053","NA","2","legacy","6","1024","2","48000","-16","experiment","1","odd","8","220103","216655","217888","4954","177370","217893","203748","4960","152379","222109","223164","218898","69961","222109","NA","SternbergTask","18","21559","19","yes","1024"
"95","95","1119.05","1119.05","black","experiment","legacy","legacy","legacy","0","uniform","1","undefined","1","right","19","19","19","0","0","19","19","0","0","19","19","19","0","19","0","10/18/20 18:33:21","The main experiment item","yes","SternbergTask.osexp","C:\Users\Jennifer Wright\Desktop\PSYC5613\STERNBERGTASK","no","mono","no","18","no","white","no","yes","768","legacy","7","11","C:/Users/Jennifer Wright/Desktop/PSYC5613/STERNBERGTASK/jw-subject-1.csv","legacy","5 9 2 3","Lentiform Loewenfeld","3.3.3","0","n","0","right","right","left","right","NA","822","64998","24990","822","NA","2","legacy","4","1024","2","48000","-16","experiment","1","odd","8","226656","223209","224440","4954","177370","224446","203748","4960","152379","228660","229484","225451","69961","228660","NA","SternbergTask","19","22381","20","yes","1024"
"95.2380952381","95.2380952381","1106.95238095","1106.95238095","black","experiment","legacy","legacy","legacy","0","uniform","1","undefined","1","right","20","20","20","0","0","20","20","0","0","20","20","20","0","20","0","10/18/20 18:33:21","The main experiment item","yes","SternbergTask.osexp","C:\Users\Jennifer Wright\Desktop\PSYC5613\STERNBERGTASK","no","mono","no","18","no","white","no","yes","768","legacy","8","11","C:/Users/Jennifer Wright/Desktop/PSYC5613/STERNBERGTASK/jw-subject-1.csv","legacy","6 7 5 9","Lentiform Loewenfeld","3.3.3","0","n","0","right","right","left","right","NA","865","64998","24990","865","NA","2","legacy","4","1024","2","48000","-16","experiment","1","odd","2","232995","229552","230780","4954","177370","230786","203748","4960","152379","235002","235869","231790","69961","235001","NA","SternbergTask","20","23246","21","yes","1024"
"95.4545454545","95.4545454545","1094.5","1094.5","black","experiment","legacy","legacy","legacy","0","uniform","1","undefined","1","right","21","21","21","0","0","21","21","0","0","21","21","21","0","21","0","10/18/20 18:33:21","The main experiment item","yes","SternbergTask.osexp","C:\Users\Jennifer Wright\Desktop\PSYC5613\STERNBERGTASK","no","mono","no","18","no","white","no","yes","768","legacy","9","11","C:/Users/Jennifer Wright/Desktop/PSYC5613/STERNBERGTASK/jw-subject-1.csv","legacy","8 5 4 2 9 6","Lentiform Loewenfeld","3.3.3","0","n","0","right","right","left","right","NA","833","64998","24990","833","NA","2","legacy","6","1024","2","48000","-16","experiment","1","odd","3","239373","235928","237159","4954","177370","237164","203748","4960","152379","241378","242213","238168","69961","241378","NA","SternbergTask","21","24079","22","yes","1024"
"95.652173913","95.652173913","1085.95652174","1085.95652174","black","experiment","legacy","legacy","legacy","0","uniform","1","undefined","1","left","22","22","22","0","0","22","22","0","0","22","22","22","0","22","0","10/18/20 18:33:21","The main experiment item","yes","SternbergTask.osexp","C:\Users\Jennifer Wright\Desktop\PSYC5613\STERNBERGTASK","no","mono","no","18","no","white","no","yes","768","legacy","10","11","C:/Users/Jennifer Wright/Desktop/PSYC5613/STERNBERGTASK/jw-subject-1.csv","legacy","4 3 2 5 8","Lentiform Loewenfeld","3.3.3","2","y","0","left","right","left","left","NA","898","64998","24990","898","NA","2","legacy","5","1024","2","48000","-16","experiment","1","odd","3","245689","242249","243474","4954","177370","243480","203748","4960","152379","247694","248594","244484","69961","247693","NA","SternbergTask","22","24977","23","yes","1024"
"95.8333333333","95.8333333333","1077.875","1077.875","black","experiment","legacy","legacy","legacy","0","uniform","1","undefined","1","left","23","23","23","0","0","23","23","0","0","23","23","23","0","23","0","10/18/20 18:33:21","The main experiment item","yes","SternbergTask.osexp","C:\Users\Jennifer Wright\Desktop\PSYC5613\STERNBERGTASK","no","mono","no","18","no","white","no","yes","768","legacy","11","11","C:/Users/Jennifer Wright/Desktop/PSYC5613/STERNBERGTASK/jw-subject-1.csv","legacy","8 3","Lentiform Loewenfeld","3.3.3","2","y","0","left","right","left","left","NA","892","64998","24990","892","NA","2","legacy","2","1024","2","48000","-16","experiment","1","odd","3","252164","248718","249949","4954","177370","249954","203748","4960","152379","254168","255062","250959","69961","254168","NA","SternbergTask","23","25869","24","yes","1024"
"96","96","1063.28","1063.28","black","experiment","legacy","legacy","legacy","0","uniform","1","undefined","1","right","24","24","24","0","0","24","24","0","0","24","24","24","0","24","0","10/18/20 18:33:21","The main experiment item","yes","SternbergTask.osexp","C:\Users\Jennifer Wright\Desktop\PSYC5613\STERNBERGTASK","no","mono","no","18","no","white","no","yes","768","legacy","12","11","C:/Users/Jennifer Wright/Desktop/PSYC5613/STERNBERGTASK/jw-subject-1.csv","legacy","3 4 9 6 7 8","Lentiform Loewenfeld","3.3.3","0","n","0","right","right","left","right","NA","713","64998","24990","713","NA","2","legacy","6","1024","2","48000","-16","experiment","1","odd","2","258541","255096","256327","4954","177370","256333","203748","4960","152379","260546","261261","257337","69961","260546","NA","SternbergTask","24","26582","25","yes","1024"
"96.1538461538","96.1538461538","1080.11538462","1080.11538462","black","experiment","legacy","legacy","legacy","0","uniform","1","undefined","1","right","25","25","25","0","0","25","25","0","0","25","25","25","0","25","0","10/18/20 18:33:21","The main experiment item","yes","SternbergTask.osexp","C:\Users\Jennifer Wright\Desktop\PSYC5613\STERNBERGTASK","no","mono","no","18","no","white","no","yes","768","legacy","13","11","C:/Users/Jennifer Wright/Desktop/PSYC5613/STERNBERGTASK/jw-subject-1.csv","legacy","8 2 1 4 5 9","Lentiform Loewenfeld","3.3.3","0","n","0","right","right","left","right","NA","1501","64998","24990","1501","NA","2","legacy","6","1024","2","48000","-16","experiment","1","odd","7","264749","261301","262533","4954","177370","262538","203748","4960","152379","266755","268257","263543","69961","266754","NA","SternbergTask","25","28083","26","yes","1024"
"92.5925925926","92.5925925926","1103","1103","black","experiment","legacy","legacy","legacy","0","uniform","0","undefined","0","left","26","26","26","0","0","26","26","0","0","26","26","26","0","26","0","10/18/20 18:33:21","The main experiment item","yes","SternbergTask.osexp","C:\Users\Jennifer Wright\Desktop\PSYC5613\STERNBERGTASK","no","mono","no","18","no","white","no","yes","768","legacy","14","11","C:/Users/Jennifer Wright/Desktop/PSYC5613/STERNBERGTASK/jw-subject-1.csv","legacy","5 2 9 6 1 7","Lentiform Loewenfeld","3.3.3","3","y","0","right","right","left","right","NA","1698","64998","24990","1698","NA","2","legacy","6","1024","2","48000","-16","experiment","1","odd","9","271762","268319","269547","4954","177370","269553","203748","4960","152379","273767","275467","270557","69961","273766","NA","SternbergTask","25","29781","27","yes","1024"
"92.8571428571","92.8571428571","1100.42857143","1100.42857143","black","experiment","legacy","legacy","legacy","0","uniform","1","undefined","1","left","27","27","27","0","0","27","27","0","0","27","27","27","0","27","0","10/18/20 18:33:21","The main experiment item","yes","SternbergTask.osexp","C:\Users\Jennifer Wright\Desktop\PSYC5613\STERNBERGTASK","no","mono","no","18","no","white","no","yes","768","legacy","15","11","C:/Users/Jennifer Wright/Desktop/PSYC5613/STERNBERGTASK/jw-subject-1.csv","legacy","3 9 6 2","Lentiform Loewenfeld","3.3.3","4","y","0","left","right","left","left","NA","1031","64998","24990","1031","NA","2","legacy","4","1024","2","48000","-16","experiment","1","odd","2","278974","268319","276759","4954","177370","276765","275537","4960","152379","280978","282011","277770","69961","280978","NA","SternbergTask","26","30812","28","yes","1024"
"93.1034482759","93.1034482759","1088.89655172","1088.89655172","black","experiment","legacy","legacy","legacy","0","uniform","1","undefined","1","left","28","28","28","0","0","28","28","0","0","28","28","28","0","28","0","10/18/20 18:33:21","The main experiment item","yes","SternbergTask.osexp","C:\Users\Jennifer Wright\Desktop\PSYC5613\STERNBERGTASK","no","mono","no","18","no","white","no","yes","768","legacy","16","11","C:/Users/Jennifer Wright/Desktop/PSYC5613/STERNBERGTASK/jw-subject-1.csv","legacy","2 4 6 9","Lentiform Loewenfeld","3.3.3","3","y","0","left","right","left","left","NA","766","64998","24990","766","NA","2","legacy","4","1024","2","48000","-16","experiment","1","odd","6","285530","282091","283316","4954","177370","283321","275537","4960","152379","287535","288303","284326","69961","287534","NA","SternbergTask","27","31578","29","yes","1024"
"93.3333333333","93.3333333333","1102.46666667","1102.46666667","black","experiment","legacy","legacy","legacy","0","uniform","1","undefined","1","right","29","29","29","0","0","29","29","0","0","29","29","29","0","29","0","10/18/20 18:33:21","The main experiment item","yes","SternbergTask.osexp","C:\Users\Jennifer Wright\Desktop\PSYC5613\STERNBERGTASK","no","mono","no","18","no","white","no","yes","768","legacy","17","11","C:/Users/Jennifer Wright/Desktop/PSYC5613/STERNBERGTASK/jw-subject-1.csv","legacy","1 8 7","Lentiform Loewenfeld","3.3.3","0","n","0","right","right","left","right","NA","1496","64998","24990","1496","NA","2","legacy","3","1024","2","48000","-16","experiment","1","odd","4","291808","288367","289593","4954","177370","289599","275537","4960","152379","293813","295311","290604","69961","293813","NA","SternbergTask","28","33074","30","yes","1024"
"93.5483870968","93.5483870968","1096.51612903","1096.51612903","black","experiment","legacy","legacy","legacy","0","uniform","1","undefined","1","left","30","30","30","0","0","30","30","0","0","30","30","30","0","30","0","10/18/20 18:33:21","The main experiment item","yes","SternbergTask.osexp","C:\Users\Jennifer Wright\Desktop\PSYC5613\STERNBERGTASK","no","mono","no","18","no","white","no","yes","768","legacy","18","11","C:/Users/Jennifer Wright/Desktop/PSYC5613/STERNBERGTASK/jw-subject-1.csv","legacy","8 7 3","Lentiform Loewenfeld","3.3.3","1","y","0","left","right","left","left","NA","918","64998","24990","918","NA","2","legacy","3","1024","2","48000","-16","experiment","1","odd","8","298838","295403","296623","4954","177370","296629","275537","4960","152379","300844","301764","297634","69961","300844","NA","SternbergTask","29","33992","31","yes","1024"
"93.75","93.75","1093.21875","1093.21875","black","experiment","legacy","legacy","legacy","0","uniform","1","undefined","1","right","31","31","31","0","0","31","31","0","0","31","31","31","0","31","0","10/18/20 18:33:21","The main experiment item","yes","SternbergTask.osexp","C:\Users\Jennifer Wright\Desktop\PSYC5613\STERNBERGTASK","no","mono","no","18","no","white","no","yes","768","legacy","19","11","C:/Users/Jennifer Wright/Desktop/PSYC5613/STERNBERGTASK/jw-subject-1.csv","legacy","5 3 2 6 9 8","Lentiform Loewenfeld","3.3.3","0","n","0","right","right","left","right","NA","991","64998","24990","991","NA","2","legacy","6","1024","2","48000","-16","experiment","1","odd","4","305251","301800","303038","4954","177370","303043","275537","4960","152379","307258","308251","304047","69961","307257","NA","SternbergTask","30","34983","32","yes","1024"
"93.9393939394","93.9393939394","1088.45454545","1088.45454545","black","experiment","legacy","legacy","legacy","0","uniform","1","undefined","1","right","32","32","32","0","0","32","32","0","0","32","32","32","0","32","0","10/18/20 18:33:21","The main experiment item","yes","SternbergTask.osexp","C:\Users\Jennifer Wright\Desktop\PSYC5613\STERNBERGTASK","no","mono","no","18","no","white","no","yes","768","legacy","20","11","C:/Users/Jennifer Wright/Desktop/PSYC5613/STERNBERGTASK/jw-subject-1.csv","legacy","1 7 5 2","Lentiform Loewenfeld","3.3.3","0","n","0","right","right","left","right","NA","936","64998","24990","936","NA","2","legacy","4","1024","2","48000","-16","experiment","1","odd","3","311768","308319","309547","4954","177370","309552","275537","4960","152379","313773","314712","310561","69961","313773","NA","SternbergTask","31","35919","33","yes","1024"
"94.1176470588","94.1176470588","1089.41176471","1089.41176471","black","experiment","legacy","legacy","legacy","0","uniform","1","undefined","1","right","33","33","33","0","0","33","33","0","0","33","33","33","0","33","0","10/18/20 18:33:21","The main experiment item","yes","SternbergTask.osexp","C:\Users\Jennifer Wright\Desktop\PSYC5613\STERNBERGTASK","no","mono","no","18","no","white","no","yes","768","legacy","21","11","C:/Users/Jennifer Wright/Desktop/PSYC5613/STERNBERGTASK/jw-subject-1.csv","legacy","1 4 3 6 5","Lentiform Loewenfeld","3.3.3","0","n","0","right","right","left","right","NA","1121","64998","24990","1121","NA","2","legacy","5","1024","2","48000","-16","experiment","1","odd","8","318222","314780","316004","4954","177370","316009","275537","4960","152379","320228","321352","317015","69961","320228","NA","SternbergTask","32","37040","34","yes","1024"
"94.2857142857","94.2857142857","1089.57142857","1089.57142857","black","experiment","legacy","legacy","legacy","0","uniform","1","undefined","1","right","34","34","34","0","0","34","34","0","0","34","34","34","0","34","0","10/18/20 18:33:21","The main experiment item","yes","SternbergTask.osexp","C:\Users\Jennifer Wright\Desktop\PSYC5613\STERNBERGTASK","no","mono","no","18","no","white","no","yes","768","legacy","22","11","C:/Users/Jennifer Wright/Desktop/PSYC5613/STERNBERGTASK/jw-subject-1.csv","legacy","2 8 9 4 1","Lentiform Loewenfeld","3.3.3","0","n","0","right","right","left","right","NA","1095","64998","24990","1095","NA","2","legacy","5","1024","2","48000","-16","experiment","1","odd","5","324832","321389","322614","4954","177370","322620","275537","4960","152379","326838","327935","323626","69961","326837","NA","SternbergTask","33","38135","35","yes","1024"
"94.4444444444","94.4444444444","1079.66666667","1079.66666667","black","experiment","legacy","legacy","legacy","0","uniform","1","undefined","1","right","35","35","35","0","0","35","35","0","0","35","35","35","0","35","0","10/18/20 18:33:21","The main experiment item","yes","SternbergTask.osexp","C:\Users\Jennifer Wright\Desktop\PSYC5613\STERNBERGTASK","no","mono","no","18","no","white","no","yes","768","legacy","23","11","C:/Users/Jennifer Wright/Desktop/PSYC5613/STERNBERGTASK/jw-subject-1.csv","legacy","8 4 3 5","Lentiform Loewenfeld","3.3.3","0","n","0","right","right","left","right","NA","733","64998","24990","733","NA","2","legacy","4","1024","2","48000","-16","experiment","1","odd","6","331461","328002","329243","4954","177370","329249","275537","4960","152379","333475","334210","330255","69961","333474","NA","SternbergTask","34","38868","36","yes","1024"
"94.5945945946","94.5945945946","1077.35135135","1077.35135135","black","experiment","legacy","legacy","legacy","0","uniform","1","undefined","1","left","36","36","36","0","0","36","36","0","0","36","36","36","0","36","0","10/18/20 18:33:21","The main experiment item","yes","SternbergTask.osexp","C:\Users\Jennifer Wright\Desktop\PSYC5613\STERNBERGTASK","no","mono","no","18","no","white","no","yes","768","legacy","24","11","C:/Users/Jennifer Wright/Desktop/PSYC5613/STERNBERGTASK/jw-subject-1.csv","legacy","6 1 2","Lentiform Loewenfeld","3.3.3","3","y","0","left","right","left","left","NA","994","64998","24990","994","NA","2","legacy","3","1024","2","48000","-16","experiment","1","odd","2","337733","334281","335513","4954","177370","335519","275537","4960","152379","339739","340735","336524","69961","339739","NA","SternbergTask","35","39862","37","yes","1024"
"94.7368421053","94.7368421053","1072.92105263","1072.92105263","black","experiment","legacy","legacy","legacy","0","uniform","1","undefined","1","right","37","37","37","0","0","37","37","0","0","37","37","37","0","37","0","10/18/20 18:33:21","The main experiment item","yes","SternbergTask.osexp","C:\Users\Jennifer Wright\Desktop\PSYC5613\STERNBERGTASK","no","mono","no","18","no","white","no","yes","768","legacy","25","11","C:/Users/Jennifer Wright/Desktop/PSYC5613/STERNBERGTASK/jw-subject-1.csv","legacy","1 3 2 6 9","Lentiform Loewenfeld","3.3.3","0","n","0","right","right","left","right","NA","909","64998","24990","909","NA","2","legacy","5","1024","2","48000","-16","experiment","1","odd","5","344245","340809","342026","4954","177370","342033","275537","4960","152379","346252","347163","343039","69961","346252","NA","SternbergTask","36","40771","38","yes","1024"
"94.8717948718","94.8717948718","1065.79487179","1065.79487179","black","experiment","legacy","legacy","legacy","0","uniform","1","undefined","1","right","38","38","38","0","0","38","38","0","0","38","38","38","0","38","0","10/18/20 18:33:21","The main experiment item","yes","SternbergTask.osexp","C:\Users\Jennifer Wright\Desktop\PSYC5613\STERNBERGTASK","no","mono","no","18","no","white","no","yes","768","legacy","26","11","C:/Users/Jennifer Wright/Desktop/PSYC5613/STERNBERGTASK/jw-subject-1.csv","legacy","1 5 3 2 8","Lentiform Loewenfeld","3.3.3","0","n","0","right","right","left","right","NA","795","64998","24990","795","NA","2","legacy","5","1024","2","48000","-16","experiment","1","odd","4","350723","347272","348507","4954","177370","348512","275537","4960","152379","352729","353527","349519","69961","352729","NA","SternbergTask","37","41566","39","yes","1024"
"95","95","1064.575","1064.575","black","experiment","legacy","legacy","legacy","0","uniform","1","undefined","1","left","39","39","39","0","0","39","39","0","0","39","39","39","0","39","0","10/18/20 18:33:21","The main experiment item","yes","SternbergTask.osexp","C:\Users\Jennifer Wright\Desktop\PSYC5613\STERNBERGTASK","no","mono","no","18","no","white","no","yes","768","legacy","27","11","C:/Users/Jennifer Wright/Desktop/PSYC5613/STERNBERGTASK/jw-subject-1.csv","legacy","9 3 8 2 1 4","Lentiform Loewenfeld","3.3.3","3","y","0","left","right","left","left","NA","1017","64998","24990","1017","NA","2","legacy","6","1024","2","48000","-16","experiment","1","odd","8","357042","353594","354819","4954","177370","354824","275537","4960","152379","359050","360070","355829","69961","359049","NA","SternbergTask","38","42583","40","yes","1024"
"95.1219512195","95.1219512195","1079.75609756","1079.75609756","black","experiment","legacy","legacy","legacy","0","uniform","1","undefined","1","left","40","40","40","0","0","40","40","0","0","40","40","40","0","40","0","10/18/20 18:33:21","The main experiment item","yes","SternbergTask.osexp","C:\Users\Jennifer Wright\Desktop\PSYC5613\STERNBERGTASK","no","mono","no","18","no","white","no","yes","768","legacy","28","11","C:/Users/Jennifer Wright/Desktop/PSYC5613/STERNBERGTASK/jw-subject-1.csv","legacy","2 5 4 8 7","Lentiform Loewenfeld","3.3.3","3","y","0","left","right","left","left","NA","1687","64998","24990","1687","NA","2","legacy","5","1024","2","48000","-16","experiment","1","odd","4","363583","360134","361362","4954","177370","361368","275537","4960","152379","365594","367284","362374","69961","365594","NA","SternbergTask","39","44270","41","yes","1024"
"95.2380952381","95.2380952381","1082.5952381","1082.5952381","black","experiment","legacy","legacy","legacy","0","uniform","1","undefined","1","left","41","41","41","0","0","41","41","0","0","41","41","41","0","41","0","10/18/20 18:33:21","The main experiment item","yes","SternbergTask.osexp","C:\Users\Jennifer Wright\Desktop\PSYC5613\STERNBERGTASK","no","mono","no","18","no","white","no","yes","768","legacy","29","11","C:/Users/Jennifer Wright/Desktop/PSYC5613/STERNBERGTASK/jw-subject-1.csv","legacy","9 3 1 2 5","Lentiform Loewenfeld","3.3.3","4","y","0","left","right","left","left","NA","1199","64998","24990","1199","NA","2","legacy","5","1024","2","48000","-16","experiment","1","odd","2","370803","367364","368582","4954","177370","368588","275537","4960","152379","372810","374012","369594","69961","372810","NA","SternbergTask","40","45469","42","yes","1024"
"93.023255814","93.023255814","1103.93023256","1103.93023256","black","experiment","legacy","legacy","legacy","0","uniform","0","undefined","0","left","42","42","42","0","0","42","42","0","0","42","42","42","0","42","0","10/18/20 18:33:21","The main experiment item","yes","SternbergTask.osexp","C:\Users\Jennifer Wright\Desktop\PSYC5613\STERNBERGTASK","no","mono","no","18","no","white","no","yes","768","legacy","30","11","C:/Users/Jennifer Wright/Desktop/PSYC5613/STERNBERGTASK/jw-subject-1.csv","legacy","7 4 2 6 3 5","Lentiform Loewenfeld","3.3.3","6","y","0","None","right","left","None","NA","2000","64998","24990","2000","NA","2","legacy","6","1024","2","48000","-16","experiment","1","odd","5","377533","374088","375315","4954","177370","375320","275537","4960","152379","379539","381540","376327","69961","379539","NA","SternbergTask","40","47469","43","yes","1024"
"93.1818181818","93.1818181818","1111.65909091","1111.65909091","black","experiment","legacy","legacy","legacy","0","uniform","1","undefined","1","right","43","43","43","0","0","43","43","0","0","43","43","43","0","43","0","10/18/20 18:33:21","The main experiment item","yes","SternbergTask.osexp","C:\Users\Jennifer Wright\Desktop\PSYC5613\STERNBERGTASK","no","mono","no","18","no","white","no","yes","768","legacy","31","11","C:/Users/Jennifer Wright/Desktop/PSYC5613/STERNBERGTASK/jw-subject-1.csv","legacy","3 9 8 1 6 4","Lentiform Loewenfeld","3.3.3","0","n","0","right","right","left","right","NA","1444","64998","24990","1444","NA","2","legacy","6","1024","2","48000","-16","experiment","1","odd","7","385028","374088","382809","4954","177370","382814","381576","4960","152379","387035","388481","383820","69961","387034","NA","SternbergTask","41","48913","44","yes","1024"
"93.3333333333","93.3333333333","1111.48888889","1111.48888889","black","experiment","legacy","legacy","legacy","0","uniform","1","undefined","1","right","44","44","44","0","0","44","44","0","0","44","44","44","0","44","0","10/18/20 18:33:21","The main experiment item","yes","SternbergTask.osexp","C:\Users\Jennifer Wright\Desktop\PSYC5613\STERNBERGTASK","no","mono","no","18","no","white","no","yes","768","legacy","32","11","C:/Users/Jennifer Wright/Desktop/PSYC5613/STERNBERGTASK/jw-subject-1.csv","legacy","6 9 5","Lentiform Loewenfeld","3.3.3","0","n","0","right","right","left","right","NA","1104","64998","24990","1104","NA","2","legacy","3","1024","2","48000","-16","experiment","1","odd","8","392000","388556","389777","4954","177370","389783","381576","4960","152379","394013","395120","390793","69961","394012","NA","SternbergTask","42","50017","45","yes","1024"
"93.4782608696","93.4782608696","1114.34782609","1114.34782609","black","experiment","legacy","legacy","legacy","0","uniform","1","undefined","1","right","45","45","45","0","0","45","45","0","0","45","45","45","0","45","0","10/18/20 18:33:21","The main experiment item","yes","SternbergTask.osexp","C:\Users\Jennifer Wright\Desktop\PSYC5613\STERNBERGTASK","no","mono","no","18","no","white","no","yes","768","legacy","33","11","C:/Users/Jennifer Wright/Desktop/PSYC5613/STERNBERGTASK/jw-subject-1.csv","legacy","7 9 1 6","Lentiform Loewenfeld","3.3.3","0","n","0","right","right","left","right","NA","1243","64998","24990","1243","NA","2","legacy","4","1024","2","48000","-16","experiment","1","odd","4","398650","395184","396426","4954","177370","396432","381576","4960","152379","400660","401906","397444","69961","400659","NA","SternbergTask","43","51260","46","yes","1024"
"93.6170212766","93.6170212766","1112.21276596","1112.21276596","black","experiment","legacy","legacy","legacy","0","uniform","1","undefined","1","left","46","46","46","0","0","46","46","0","0","46","46","46","0","46","0","10/18/20 18:33:21","The main experiment item","yes","SternbergTask.osexp","C:\Users\Jennifer Wright\Desktop\PSYC5613\STERNBERGTASK","no","mono","no","18","no","white","no","yes","768","legacy","34","11","C:/Users/Jennifer Wright/Desktop/PSYC5613/STERNBERGTASK/jw-subject-1.csv","legacy","9 5 8 1","Lentiform Loewenfeld","3.3.3","2","y","0","left","right","left","left","NA","1014","64998","24990","1014","NA","2","legacy","4","1024","2","48000","-16","experiment","1","odd","5","405404","401945","403182","4954","177370","403188","381576","4960","152379","407410","408427","404196","69961","407410","NA","SternbergTask","44","52274","47","yes","1024"
"93.75","93.75","1115.52083333","1115.52083333","black","experiment","legacy","legacy","legacy","0","uniform","1","undefined","1","left","47","47","47","0","0","47","47","0","0","47","47","47","0","47","0","10/18/20 18:33:21","The main experiment item","yes","SternbergTask.osexp","C:\Users\Jennifer Wright\Desktop\PSYC5613\STERNBERGTASK","no","mono","no","18","no","white","no","yes","768","legacy","35","11","C:/Users/Jennifer Wright/Desktop/PSYC5613/STERNBERGTASK/jw-subject-1.csv","legacy","7 1 8 5 6 2","Lentiform Loewenfeld","3.3.3","2","y","0","left","right","left","left","NA","1271","64998","24990","1271","NA","2","legacy","6","1024","2","48000","-16","experiment","1","odd","1","411942","408501","409723","4954","177370","409729","381576","4960","152379","413949","415222","410736","69961","413948","NA","SternbergTask","45","53545","48","yes","1024"
"91.8367346939","91.8367346939","1110.36734694","1110.36734694","black","experiment","legacy","legacy","legacy","0","uniform","0","undefined","0","right","48","48","48","0","0","48","48","0","0","48","48","48","0","48","0","10/18/20 18:33:21","The main experiment item","yes","SternbergTask.osexp","C:\Users\Jennifer Wright\Desktop\PSYC5613\STERNBERGTASK","no","mono","no","18","no","white","no","yes","768","legacy","36","11","C:/Users/Jennifer Wright/Desktop/PSYC5613/STERNBERGTASK/jw-subject-1.csv","legacy","1 4 9 3","Lentiform Loewenfeld","3.3.3","0","n","0","left","right","left","left","NA","863","64998","24990","863","NA","2","legacy","4","1024","2","48000","-16","experiment","1","odd","5","418742","415289","416521","4954","177370","416526","381576","4960","152379","420748","421613","417535","69961","420748","NA","SternbergTask","45","54408","49","yes","1024"
"92","92","1105.16","1105.16","black","experiment","legacy","legacy","legacy","0","uniform","1","undefined","1","left","49","49","49","0","0","49","49","0","0","49","49","49","0","49","0","10/18/20 18:33:21","The main experiment item","yes","SternbergTask.osexp","C:\Users\Jennifer Wright\Desktop\PSYC5613\STERNBERGTASK","no","mono","no","18","no","white","no","yes","768","legacy","37","11","C:/Users/Jennifer Wright/Desktop/PSYC5613/STERNBERGTASK/jw-subject-1.csv","legacy","3 9 7 6 4","Lentiform Loewenfeld","3.3.3","3","y","0","left","right","left","left","NA","850","64998","24990","850","NA","2","legacy","5","1024","2","48000","-16","experiment","1","odd","7","425124","415289","422906","4954","177370","422911","421686","4960","152379","427134","427987","423917","69961","427134","NA","SternbergTask","46","55258","50","yes","1024"
"92.1568627451","92.1568627451","1101.94117647","1101.94117647","black","experiment","legacy","legacy","legacy","0","uniform","1","undefined","1","left","50","50","50","0","0","50","50","0","0","50","50","50","0","50","0","10/18/20 18:33:21","The main experiment item","yes","SternbergTask.osexp","C:\Users\Jennifer Wright\Desktop\PSYC5613\STERNBERGTASK","no","mono","no","18","no","white","no","yes","768","legacy","38","11","C:/Users/Jennifer Wright/Desktop/PSYC5613/STERNBERGTASK/jw-subject-1.csv","legacy","6 7 9 3 1 2","Lentiform Loewenfeld","3.3.3","1","y","0","left","right","left","left","NA","941","64998","24990","941","NA","2","legacy","6","1024","2","48000","-16","experiment","1","odd","6","431498","428060","429283","4954","177370","429288","421686","4960","152379","433509","434453","430294","69961","433508","NA","SternbergTask","47","56199","51","yes","1024"
"92.3076923077","92.3076923077","1096.11538462","1096.11538462","black","experiment","legacy","legacy","legacy","0","uniform","1","undefined","1","left","51","51","51","0","0","51","51","0","0","51","51","51","0","51","0","10/18/20 18:33:21","The main experiment item","yes","SternbergTask.osexp","C:\Users\Jennifer Wright\Desktop\PSYC5613\STERNBERGTASK","no","mono","no","18","no","white","no","yes","768","legacy","39","11","C:/Users/Jennifer Wright/Desktop/PSYC5613/STERNBERGTASK/jw-subject-1.csv","legacy","9 1 7 2","Lentiform Loewenfeld","3.3.3","2","y","0","left","right","left","left","NA","799","64998","24990","799","NA","2","legacy","4","1024","2","48000","-16","experiment","1","odd","1","438064","434614","435841","4954","177370","435847","421686","4960","152379","440070","440872","436856","69961","440070","NA","SternbergTask","48","56998","52","yes","1024"
"92.4528301887","92.4528301887","1093.18867925","1093.18867925","black","experiment","legacy","legacy","legacy","0","uniform","1","undefined","1","left","52","52","52","0","0","52","52","0","0","52","52","52","0","52","0","10/18/20 18:33:21","The main experiment item","yes","SternbergTask.osexp","C:\Users\Jennifer Wright\Desktop\PSYC5613\STERNBERGTASK","no","mono","no","18","no","white","no","yes","768","legacy","40","11","C:/Users/Jennifer Wright/Desktop/PSYC5613/STERNBERGTASK/jw-subject-1.csv","legacy","6 9 3 1","Lentiform Loewenfeld","3.3.3","4","y","0","left","right","left","left","NA","941","64998","24990","941","NA","2","legacy","4","1024","2","48000","-16","experiment","1","odd","1","444402","440935","442179","4954","177370","442185","421686","4960","152379","446409","447353","443194","69961","446408","NA","SternbergTask","49","57939","53","yes","1024"
"92.5925925926","92.5925925926","1086.2962963","1086.2962963","black","experiment","legacy","legacy","legacy","0","uniform","1","undefined","1","right","53","53","53","0","0","53","53","0","0","53","53","53","0","53","0","10/18/20 18:33:21","The main experiment item","yes","SternbergTask.osexp","C:\Users\Jennifer Wright\Desktop\PSYC5613\STERNBERGTASK","no","mono","no","18","no","white","no","yes","768","legacy","41","11","C:/Users/Jennifer Wright/Desktop/PSYC5613/STERNBERGTASK/jw-subject-1.csv","legacy","5","Lentiform Loewenfeld","3.3.3","0","n","0","right","right","left","right","NA","721","64998","24990","721","NA","2","legacy","1","1024","2","48000","-16","experiment","1","odd","8","450873","447436","448655","4954","177370","448661","421686","4960","152379","452885","453609","449667","69961","452885","NA","SternbergTask","50","58660","54","yes","1024"
"92.7272727273","92.7272727273","1082.47272727","1082.47272727","black","experiment","legacy","legacy","legacy","0","uniform","1","undefined","1","left","54","54","54","0","0","54","54","0","0","54","54","54","0","54","0","10/18/20 18:33:21","The main experiment item","yes","SternbergTask.osexp","C:\Users\Jennifer Wright\Desktop\PSYC5613\STERNBERGTASK","no","mono","no","18","no","white","no","yes","768","legacy","42","11","C:/Users/Jennifer Wright/Desktop/PSYC5613/STERNBERGTASK/jw-subject-1.csv","legacy","6 5","Lentiform Loewenfeld","3.3.3","2","y","0","left","right","left","left","NA","876","64998","24990","876","NA","2","legacy","2","1024","2","48000","-16","experiment","1","odd","5","457103","453648","454880","4954","177370","454886","421686","4960","152379","459110","459989","455897","69961","459109","NA","SternbergTask","51","59536","55","yes","1024"
"92.8571428571","92.8571428571","1077.32142857","1077.32142857","black","experiment","legacy","legacy","legacy","0","uniform","1","undefined","1","left","55","55","55","0","0","55","55","0","0","55","55","55","0","55","0","10/18/20 18:33:21","The main experiment item","yes","SternbergTask.osexp","C:\Users\Jennifer Wright\Desktop\PSYC5613\STERNBERGTASK","no","mono","no","18","no","white","no","yes","768","legacy","43","11","C:/Users/Jennifer Wright/Desktop/PSYC5613/STERNBERGTASK/jw-subject-1.csv","legacy","2 3","Lentiform Loewenfeld","3.3.3","1","y","0","left","right","left","left","NA","794","64998","24990","794","NA","2","legacy","2","1024","2","48000","-16","experiment","1","odd","2","463499","460053","461279","4954","177370","461286","421686","4960","152379","465505","466302","462292","69961","465505","NA","SternbergTask","52","60330","56","yes","1024"
"92.9824561404","92.9824561404","1075.0877193","1075.0877193","black","experiment","legacy","legacy","legacy","0","uniform","1","undefined","1","left","56","56","56","0","0","56","56","0","0","56","56","56","0","56","0","10/18/20 18:33:21","The main experiment item","yes","SternbergTask.osexp","C:\Users\Jennifer Wright\Desktop\PSYC5613\STERNBERGTASK","no","mono","no","18","no","white","no","yes","768","legacy","44","11","C:/Users/Jennifer Wright/Desktop/PSYC5613/STERNBERGTASK/jw-subject-1.csv","legacy","3 5 9 6 2 4","Lentiform Loewenfeld","3.3.3","1","y","0","left","right","left","left","NA","950","64998","24990","950","NA","2","legacy","6","1024","2","48000","-16","experiment","1","odd","3","469816","466375","467594","4954","177370","467599","421686","4960","152379","471822","472775","468605","69961","471822","NA","SternbergTask","53","61280","57","yes","1024"
"93.1034482759","93.1034482759","1080.43103448","1080.43103448","black","experiment","legacy","legacy","legacy","0","uniform","1","undefined","1","right","57","57","57","0","0","57","57","0","0","57","57","57","0","57","0","10/18/20 18:33:21","The main experiment item","yes","SternbergTask.osexp","C:\Users\Jennifer Wright\Desktop\PSYC5613\STERNBERGTASK","no","mono","no","18","no","white","no","yes","768","legacy","45","11","C:/Users/Jennifer Wright/Desktop/PSYC5613/STERNBERGTASK/jw-subject-1.csv","legacy","6 9 4 5 2","Lentiform Loewenfeld","3.3.3","0","n","0","right","right","left","right","NA","1385","64998","24990","1385","NA","2","legacy","5","1024","2","48000","-16","experiment","1","odd","1","476252","472806","474029","4954","177370","474035","421686","4960","152379","478258","479645","475046","69961","478258","NA","SternbergTask","54","62665","58","yes","1024"
"93.2203389831","93.2203389831","1074.03389831","1074.03389831","black","experiment","legacy","legacy","legacy","0","uniform","1","undefined","1","right","58","58","58","0","0","58","58","0","0","58","58","58","0","58","0","10/18/20 18:33:21","The main experiment item","yes","SternbergTask.osexp","C:\Users\Jennifer Wright\Desktop\PSYC5613\STERNBERGTASK","no","mono","no","18","no","white","no","yes","768","legacy","46","11","C:/Users/Jennifer Wright/Desktop/PSYC5613/STERNBERGTASK/jw-subject-1.csv","legacy","7 6 4 8 1 2","Lentiform Loewenfeld","3.3.3","0","n","0","right","right","left","right","NA","703","64998","24990","703","NA","2","legacy","6","1024","2","48000","-16","experiment","1","odd","9","483169","479721","480950","4954","177370","480956","421686","4960","152379","485175","485881","481962","69961","485175","NA","SternbergTask","55","63368","59","yes","1024"
"93.3333333333","93.3333333333","1065.55","1065.55","black","experiment","legacy","legacy","legacy","0","uniform","1","undefined","1","right","59","59","59","0","0","59","59","0","0","59","59","59","0","59","0","10/18/20 18:33:21","The main experiment item","yes","SternbergTask.osexp","C:\Users\Jennifer Wright\Desktop\PSYC5613\STERNBERGTASK","no","mono","no","18","no","white","no","yes","768","legacy","47","11","C:/Users/Jennifer Wright/Desktop/PSYC5613/STERNBERGTASK/jw-subject-1.csv","legacy","1","Lentiform Loewenfeld","3.3.3","0","n","0","right","right","left","right","NA","565","64998","24990","565","NA","2","legacy","1","1024","2","48000","-16","experiment","1","odd","7","489387","485947","487169","4954","177370","487174","421686","4960","152379","491395","491963","488181","69961","491394","NA","SternbergTask","56","63933","60","yes","1024"
"93.4426229508","93.4426229508","1063.75409836","1063.75409836","black","experiment","legacy","legacy","legacy","0","uniform","1","undefined","1","right","60","60","60","0","0","60","60","0","0","60","60","60","0","60","0","10/18/20 18:33:21","The main experiment item","yes","SternbergTask.osexp","C:\Users\Jennifer Wright\Desktop\PSYC5613\STERNBERGTASK","no","mono","no","18","no","white","no","yes","768","legacy","48","11","C:/Users/Jennifer Wright/Desktop/PSYC5613/STERNBERGTASK/jw-subject-1.csv","legacy","7 1 8 4 9 3","Lentiform Loewenfeld","3.3.3","0","n","0","right","right","left","right","NA","956","64998","24990","956","NA","2","legacy","6","1024","2","48000","-16","experiment","1","odd","6","495491","492038","493273","4954","177370","493279","421686","4960","152379","497496","498455","494284","69961","497496","NA","SternbergTask","57","64889","61","yes","1024"
"93.5483870968","93.5483870968","1062.82258065","1062.82258065","black","experiment","legacy","legacy","legacy","0","uniform","1","undefined","1","left","61","61","61","0","0","61","61","0","0","61","61","61","0","61","0","10/18/20 18:33:21","The main experiment item","yes","SternbergTask.osexp","C:\Users\Jennifer Wright\Desktop\PSYC5613\STERNBERGTASK","no","mono","no","18","no","white","no","yes","768","legacy","49","11","C:/Users/Jennifer Wright/Desktop/PSYC5613/STERNBERGTASK/jw-subject-1.csv","legacy","9 6 2 4 1","Lentiform Loewenfeld","3.3.3","4","y","0","left","right","left","left","NA","1006","64998","24990","1006","NA","2","legacy","5","1024","2","48000","-16","experiment","1","odd","4","501980","498525","499757","4954","177370","499762","421686","4960","152379","503986","504995","500772","69961","503986","NA","SternbergTask","58","65895","62","yes","1024"
"93.6507936508","93.6507936508","1059.63492063","1059.63492063","black","experiment","legacy","legacy","legacy","0","uniform","1","undefined","1","left","62","62","62","0","0","62","62","0","0","62","62","62","0","62","0","10/18/20 18:33:21","The main experiment item","yes","SternbergTask.osexp","C:\Users\Jennifer Wright\Desktop\PSYC5613\STERNBERGTASK","no","mono","no","18","no","white","no","yes","768","legacy","50","11","C:/Users/Jennifer Wright/Desktop/PSYC5613/STERNBERGTASK/jw-subject-1.csv","legacy","4 9 7 8 5 3","Lentiform Loewenfeld","3.3.3","4","y","0","left","right","left","left","NA","862","64998","24990","862","NA","2","legacy","6","1024","2","48000","-16","experiment","1","odd","8","508526","505068","506307","4954","177370","506313","421686","4960","152379","510531","511395","507319","69961","510530","NA","SternbergTask","59","66757","63","yes","1024"
"93.75","93.75","1056.046875","1056.046875","black","experiment","legacy","legacy","legacy","0","uniform","1","undefined","1","right","63","63","63","0","0","63","63","0","0","63","63","63","0","63","0","10/18/20 18:33:21","The main experiment item","yes","SternbergTask.osexp","C:\Users\Jennifer Wright\Desktop\PSYC5613\STERNBERGTASK","no","mono","no","18","no","white","no","yes","768","legacy","51","11","C:/Users/Jennifer Wright/Desktop/PSYC5613/STERNBERGTASK/jw-subject-1.csv","legacy","4 8 1 2","Lentiform Loewenfeld","3.3.3","0","n","0","right","right","left","right","NA","830","64998","24990","830","NA","2","legacy","4","1024","2","48000","-16","experiment","1","odd","7","514920","511465","512695","4954","177370","512701","421686","4960","152379","516926","517759","513714","69961","516925","NA","SternbergTask","60","67587","64","yes","1024"
"92.3076923077","92.3076923077","1054.33846154","1054.33846154","black","experiment","legacy","legacy","legacy","0","uniform","0","undefined","0","right","64","64","64","0","0","64","64","0","0","64","64","64","0","64","0","10/18/20 18:33:21","The main experiment item","yes","SternbergTask.osexp","C:\Users\Jennifer Wright\Desktop\PSYC5613\STERNBERGTASK","no","mono","no","18","no","white","no","yes","768","legacy","52","11","C:/Users/Jennifer Wright/Desktop/PSYC5613/STERNBERGTASK/jw-subject-1.csv","legacy","2 7 5","Lentiform Loewenfeld","3.3.3","0","n","0","left","right","left","left","NA","945","64998","24990","945","NA","2","legacy","3","1024","2","48000","-16","experiment","1","odd","8","521239","517794","519021","4954","177370","519027","421686","4960","152379","523245","524193","520033","69961","523245","NA","SternbergTask","60","68532","65","yes","1024"
"92.4242424242","92.4242424242","1054.65151515","1054.65151515","black","experiment","legacy","legacy","legacy","0","uniform","1","undefined","1","left","65","65","65","0","0","65","65","0","0","65","65","65","0","65","0","10/18/20 18:33:21","The main experiment item","yes","SternbergTask.osexp","C:\Users\Jennifer Wright\Desktop\PSYC5613\STERNBERGTASK","no","mono","no","18","no","white","no","yes","768","legacy","53","11","C:/Users/Jennifer Wright/Desktop/PSYC5613/STERNBERGTASK/jw-subject-1.csv","legacy","3 4","Lentiform Loewenfeld","3.3.3","1","y","0","left","right","left","left","NA","1075","64998","24990","1075","NA","2","legacy","2","1024","2","48000","-16","experiment","1","odd","3","527724","517794","525500","4954","177370","525506","524262","4960","152379","529730","530808","526517","69961","529730","NA","SternbergTask","61","69607","66","yes","1024"
"92.5373134328","92.5373134328","1046.50746269","1046.50746269","black","experiment","legacy","legacy","legacy","0","uniform","1","undefined","1","left","66","66","66","0","0","66","66","0","0","66","66","66","0","66","0","10/18/20 18:33:21","The main experiment item","yes","SternbergTask.osexp","C:\Users\Jennifer Wright\Desktop\PSYC5613\STERNBERGTASK","no","mono","no","18","no","white","no","yes","768","legacy","54","11","C:/Users/Jennifer Wright/Desktop/PSYC5613/STERNBERGTASK/jw-subject-1.csv","legacy","7 1 3","Lentiform Loewenfeld","3.3.3","2","y","0","left","right","left","left","NA","509","64998","24990","509","NA","2","legacy","3","1024","2","48000","-16","experiment","1","odd","1","534318","530871","532101","4954","177370","532107","524262","4960","152379","536328","536840","533113","69961","536328","NA","SternbergTask","62","70116","67","yes","1024"
"92.6470588235","92.6470588235","1044.27941176","1044.27941176","black","experiment","legacy","legacy","legacy","0","uniform","1","undefined","1","right","67","67","67","0","0","67","67","0","0","67","67","67","0","67","0","10/18/20 18:33:21","The main experiment item","yes","SternbergTask.osexp","C:\Users\Jennifer Wright\Desktop\PSYC5613\STERNBERGTASK","no","mono","no","18","no","white","no","yes","768","legacy","55","11","C:/Users/Jennifer Wright/Desktop/PSYC5613/STERNBERGTASK/jw-subject-1.csv","legacy","1 4 9 2 5","Lentiform Loewenfeld","3.3.3","0","n","0","right","right","left","right","NA","895","64998","24990","895","NA","2","legacy","5","1024","2","48000","-16","experiment","1","odd","7","540354","536905","538132","4954","177370","538137","524262","4960","152379","542360","543258","539148","69961","542360","NA","SternbergTask","63","71011","68","yes","1024"
"92.7536231884","92.7536231884","1046.76811594","1046.76811594","black","experiment","legacy","legacy","legacy","0","uniform","1","undefined","1","left","68","68","68","0","0","68","68","0","0","68","68","68","0","68","0","10/18/20 18:33:21","The main experiment item","yes","SternbergTask.osexp","C:\Users\Jennifer Wright\Desktop\PSYC5613\STERNBERGTASK","no","mono","no","18","no","white","no","yes","768","legacy","56","11","C:/Users/Jennifer Wright/Desktop/PSYC5613/STERNBERGTASK/jw-subject-1.csv","legacy","8","Lentiform Loewenfeld","3.3.3","1","y","0","left","right","left","left","NA","1216","64998","24990","1216","NA","2","legacy","1","1024","2","48000","-16","experiment","1","odd","8","546748","543289","544521","4954","177370","544527","524262","4960","152379","548755","549974","545538","69961","548755","NA","SternbergTask","64","72227","69","yes","1024"
"91.4285714286","91.4285714286","1042.22857143","1042.22857143","black","experiment","legacy","legacy","legacy","0","uniform","0","undefined","0","left","69","69","69","0","0","69","69","0","0","69","69","69","0","69","0","10/18/20 18:33:21","The main experiment item","yes","SternbergTask.osexp","C:\Users\Jennifer Wright\Desktop\PSYC5613\STERNBERGTASK","no","mono","no","18","no","white","no","yes","768","legacy","57","11","C:/Users/Jennifer Wright/Desktop/PSYC5613/STERNBERGTASK/jw-subject-1.csv","legacy","4 7 6 8 2 3","Lentiform Loewenfeld","3.3.3","6","y","0","right","right","left","right","NA","729","64998","24990","729","NA","2","legacy","6","1024","2","48000","-16","experiment","1","odd","3","553481","550044","551262","4954","177370","551268","524262","4960","152379","555487","556220","552274","69961","555486","NA","SternbergTask","64","72956","70","yes","1024"
"91.5492957746","91.5492957746","1041.63380282","1041.63380282","black","experiment","legacy","legacy","legacy","0","uniform","1","undefined","1","right","70","70","70","0","0","70","70","0","0","70","70","70","0","70","0","10/18/20 18:33:21","The main experiment item","yes","SternbergTask.osexp","C:\Users\Jennifer Wright\Desktop\PSYC5613\STERNBERGTASK","no","mono","no","18","no","white","no","yes","768","legacy","58","11","C:/Users/Jennifer Wright/Desktop/PSYC5613/STERNBERGTASK/jw-subject-1.csv","legacy","5 7 3","Lentiform Loewenfeld","3.3.3","0","n","0","right","right","left","right","NA","1000","64998","24990","1000","NA","2","legacy","3","1024","2","48000","-16","experiment","1","odd","9","559738","550044","557521","4954","177370","557527","556286","4960","152379","561744","562747","558533","69961","561744","NA","SternbergTask","65","73956","71","yes","1024"
"91.6666666667","91.6666666667","1050.05555556","1050.05555556","black","experiment","legacy","legacy","legacy","0","uniform","1","undefined","1","left","71","71","71","0","0","71","71","0","0","71","71","71","0","71","0","10/18/20 18:33:21","The main experiment item","yes","SternbergTask.osexp","C:\Users\Jennifer Wright\Desktop\PSYC5613\STERNBERGTASK","no","mono","no","18","no","white","no","yes","768","legacy","59","11","C:/Users/Jennifer Wright/Desktop/PSYC5613/STERNBERGTASK/jw-subject-1.csv","legacy","2 6 1 7 4","Lentiform Loewenfeld","3.3.3","2","y","0","left","right","left","left","NA","1648","64998","24990","1648","NA","2","legacy","5","1024","2","48000","-16","experiment","1","odd","6","566263","562824","564046","4954","177370","564052","556286","4960","152379","568278","569929","565057","69961","568277","NA","SternbergTask","66","75604","72","yes","1024"
"91.7808219178","91.7808219178","1046.65753425","1046.65753425","black","experiment","legacy","legacy","legacy","0","uniform","1","undefined","1","left","72","72","72","0","0","72","72","0","0","72","72","72","0","72","0","10/18/20 18:33:21","The main experiment item","yes","SternbergTask.osexp","C:\Users\Jennifer Wright\Desktop\PSYC5613\STERNBERGTASK","no","mono","no","18","no","white","no","yes","768","legacy","60","11","C:/Users/Jennifer Wright/Desktop/PSYC5613/STERNBERGTASK/jw-subject-1.csv","legacy","8 9 5 7 1 6","Lentiform Loewenfeld","3.3.3","4","y","0","left","right","left","left","NA","802","64998","24990","802","NA","2","legacy","6","1024","2","48000","-16","experiment","1","odd","7","573452","569990","571234","4954","177370","571240","556286","4960","152379","575458","576263","572246","69961","575458","NA","SternbergTask","67","76406","73","yes","1024"
"91.8918918919","91.8918918919","1041.04054054","1041.04054054","black","experiment","legacy","legacy","legacy","0","uniform","1","undefined","1","left","73","73","73","0","0","73","73","0","0","73","73","73","0","73","0","10/18/20 18:33:21","The main experiment item","yes","SternbergTask.osexp","C:\Users\Jennifer Wright\Desktop\PSYC5613\STERNBERGTASK","no","mono","no","18","no","white","no","yes","768","legacy","61","11","C:/Users/Jennifer Wright/Desktop/PSYC5613/STERNBERGTASK/jw-subject-1.csv","legacy","3 5 4 7","Lentiform Loewenfeld","3.3.3","1","y","0","left","right","left","left","NA","631","64998","24990","631","NA","2","legacy","4","1024","2","48000","-16","experiment","1","odd","3","579788","576334","577568","4954","177370","577574","556286","4960","152379","581794","582429","578581","69961","581794","NA","SternbergTask","68","77037","74","yes","1024"
"92","92","1036.17333333","1036.17333333","black","experiment","legacy","legacy","legacy","0","uniform","1","undefined","1","left","74","74","74","0","0","74","74","0","0","74","74","74","0","74","0","10/18/20 18:33:21","The main experiment item","yes","SternbergTask.osexp","C:\Users\Jennifer Wright\Desktop\PSYC5613\STERNBERGTASK","no","mono","no","18","no","white","no","yes","768","legacy","62","11","C:/Users/Jennifer Wright/Desktop/PSYC5613/STERNBERGTASK/jw-subject-1.csv","legacy","8 5 1 3 9","Lentiform Loewenfeld","3.3.3","4","y","0","left","right","left","left","NA","676","64998","24990","676","NA","2","legacy","5","1024","2","48000","-16","experiment","1","odd","3","585953","582507","583736","4954","177370","583741","556286","4960","152379","587959","588639","584747","69961","587959","NA","SternbergTask","69","77713","75","yes","1024"
"92.1052631579","92.1052631579","1031.07894737","1031.07894737","black","experiment","legacy","legacy","legacy","0","uniform","1","undefined","1","right","75","75","75","0","0","75","75","0","0","75","75","75","0","75","0","10/18/20 18:33:21","The main experiment item","yes","SternbergTask.osexp","C:\Users\Jennifer Wright\Desktop\PSYC5613\STERNBERGTASK","no","mono","no","18","no","white","no","yes","768","legacy","63","11","C:/Users/Jennifer Wright/Desktop/PSYC5613/STERNBERGTASK/jw-subject-1.csv","legacy","2 3 8 5 6 7","Lentiform Loewenfeld","3.3.3","0","n","0","right","right","left","right","NA","649","64998","24990","649","NA","2","legacy","6","1024","2","48000","-16","experiment","1","odd","1","592149","588711","589930","4954","177370","589936","556286","4960","152379","594155","594807","590943","69961","594155","NA","SternbergTask","70","78362","76","yes","1024"
"92.2077922078","92.2077922078","1029.92207792","1029.92207792","black","experiment","legacy","legacy","legacy","0","uniform","1","undefined","1","right","76","76","76","0","0","76","76","0","0","76","76","76","0","76","0","10/18/20 18:33:21","The main experiment item","yes","SternbergTask.osexp","C:\Users\Jennifer Wright\Desktop\PSYC5613\STERNBERGTASK","no","mono","no","18","no","white","no","yes","768","legacy","64","11","C:/Users/Jennifer Wright/Desktop/PSYC5613/STERNBERGTASK/jw-subject-1.csv","legacy","7 8 6 1","Lentiform Loewenfeld","3.3.3","0","n","0","right","right","left","right","NA","942","64998","24990","942","NA","2","legacy","4","1024","2","48000","-16","experiment","1","odd","3","598338","594877","596108","4954","177370","596113","556286","4960","152379","600346","601291","597126","69961","600346","NA","SternbergTask","71","79304","77","yes","1024"
"91.0256410256","91.0256410256","1042.35897436","1042.35897436","black","experiment","legacy","legacy","legacy","0","uniform","0","undefined","0","left","77","77","77","0","0","77","77","0","0","77","77","77","0","77","0","10/18/20 18:33:21","The main experiment item","yes","SternbergTask.osexp","C:\Users\Jennifer Wright\Desktop\PSYC5613\STERNBERGTASK","no","mono","no","18","no","white","no","yes","768","legacy","65","11","C:/Users/Jennifer Wright/Desktop/PSYC5613/STERNBERGTASK/jw-subject-1.csv","legacy","6 9 7 4 5 1","Lentiform Loewenfeld","3.3.3","2","y","0","None","right","left","None","NA","2000","64998","24990","2000","NA","2","legacy","6","1024","2","48000","-16","experiment","1","odd","9","604831","601366","602608","4954","177370","602614","556286","4960","152379","606837","608839","603622","69961","606837","NA","SternbergTask","71","81304","78","yes","1024"
"91.1392405063","91.1392405063","1043.27848101","1043.27848101","black","experiment","legacy","legacy","legacy","0","uniform","1","undefined","1","left","78","78","78","0","0","78","78","0","0","78","78","78","0","78","0","10/18/20 18:33:21","The main experiment item","yes","SternbergTask.osexp","C:\Users\Jennifer Wright\Desktop\PSYC5613\STERNBERGTASK","no","mono","no","18","no","white","no","yes","768","legacy","66","11","C:/Users/Jennifer Wright/Desktop/PSYC5613/STERNBERGTASK/jw-subject-1.csv","legacy","1 4 9 3 2 5","Lentiform Loewenfeld","3.3.3","3","y","0","left","right","left","left","NA","1115","64998","24990","1115","NA","2","legacy","6","1024","2","48000","-16","experiment","1","odd","9","612373","601366","610153","4954","177370","610159","608914","4960","152379","614382","615500","611165","69961","614382","NA","SternbergTask","72","82419","79","yes","1024"
"91.25","91.25","1037.9875","1037.9875","black","experiment","legacy","legacy","legacy","0","uniform","1","undefined","1","right","79","79","79","0","0","79","79","0","0","79","79","79","0","79","0","10/18/20 18:33:21","The main experiment item","yes","SternbergTask.osexp","C:\Users\Jennifer Wright\Desktop\PSYC5613\STERNBERGTASK","no","mono","no","18","no","white","no","yes","768","legacy","67","11","C:/Users/Jennifer Wright/Desktop/PSYC5613/STERNBERGTASK/jw-subject-1.csv","legacy","4 2 7 6 1 3","Lentiform Loewenfeld","3.3.3","0","n","0","right","right","left","right","NA","620","64998","24990","620","NA","2","legacy","6","1024","2","48000","-16","experiment","1","odd","8","619019","615569","616801","4954","177370","616807","608914","4960","152379","621026","621650","617813","69961","621025","NA","SternbergTask","73","83039","80","yes","1024"
"91.3580246914","91.3580246914","1040.58024691","1040.58024691","black","experiment","legacy","legacy","legacy","0","uniform","1","undefined","1","right","80","80","80","0","0","80","80","0","0","80","80","80","0","80","0","10/18/20 18:33:21","The main experiment item","yes","SternbergTask.osexp","C:\Users\Jennifer Wright\Desktop\PSYC5613\STERNBERGTASK","no","mono","no","18","no","white","no","yes","768","legacy","68","11","C:/Users/Jennifer Wright/Desktop/PSYC5613/STERNBERGTASK/jw-subject-1.csv","legacy","6 9 7 3 8 2","Lentiform Loewenfeld","3.3.3","0","n","0","right","right","left","right","NA","1248","64998","24990","1248","NA","2","legacy","6","1024","2","48000","-16","experiment","1","odd","5","625137","621686","622913","4954","177370","622919","608914","4960","152379","627143","628394","623929","69961","627143","NA","SternbergTask","74","84287","81","yes","1024"
"91.4634146341","91.4634146341","1036.36585366","1036.36585366","black","experiment","legacy","legacy","legacy","0","uniform","1","undefined","1","right","81","81","81","0","0","81","81","0","0","81","81","81","0","81","0","10/18/20 18:33:21","The main experiment item","yes","SternbergTask.osexp","C:\Users\Jennifer Wright\Desktop\PSYC5613\STERNBERGTASK","no","mono","no","18","no","white","no","yes","768","legacy","69","11","C:/Users/Jennifer Wright/Desktop/PSYC5613/STERNBERGTASK/jw-subject-1.csv","legacy","9 5 3 2 8 6","Lentiform Loewenfeld","3.3.3","0","n","0","right","right","left","right","NA","695","64998","24990","695","NA","2","legacy","6","1024","2","48000","-16","experiment","1","odd","7","631906","628461","629684","4954","177370","629689","608914","4960","152379","633912","634611","630700","69961","633912","NA","SternbergTask","75","84982","82","yes","1024"
"91.5662650602","91.5662650602","1042.92771084","1042.92771084","black","experiment","legacy","legacy","legacy","0","uniform","1","undefined","1","left","82","82","82","0","0","82","82","0","0","82","82","82","0","82","0","10/18/20 18:33:21","The main experiment item","yes","SternbergTask.osexp","C:\Users\Jennifer Wright\Desktop\PSYC5613\STERNBERGTASK","no","mono","no","18","no","white","no","yes","768","legacy","70","11","C:/Users/Jennifer Wright/Desktop/PSYC5613/STERNBERGTASK/jw-subject-1.csv","legacy","8 5 4 7 3 1","Lentiform Loewenfeld","3.3.3","2","y","0","left","right","left","left","NA","1581","64998","24990","1581","NA","2","legacy","6","1024","2","48000","-16","experiment","1","odd","5","638128","634671","635906","4954","177370","635911","608914","4960","152379","640134","641719","636921","69961","640134","NA","SternbergTask","76","86563","83","yes","1024"
"91.6666666667","91.6666666667","1040.55952381","1040.55952381","black","experiment","legacy","legacy","legacy","0","uniform","1","undefined","1","right","83","83","83","0","0","83","83","0","0","83","83","83","0","83","0","10/18/20 18:33:21","The main experiment item","yes","SternbergTask.osexp","C:\Users\Jennifer Wright\Desktop\PSYC5613\STERNBERGTASK","no","mono","no","18","no","white","no","yes","768","legacy","71","11","C:/Users/Jennifer Wright/Desktop/PSYC5613/STERNBERGTASK/jw-subject-1.csv","legacy","8 9","Lentiform Loewenfeld","3.3.3","0","n","0","right","right","left","right","NA","844","64998","24990","844","NA","2","legacy","2","1024","2","48000","-16","experiment","1","odd","5","645230","641778","643004","4954","177370","643010","608914","4960","152379","647238","648085","644016","69961","647237","NA","SternbergTask","77","87407","84","yes","1024"
"91.7647058824","91.7647058824","1043.04705882","1043.04705882","black","experiment","legacy","legacy","legacy","0","uniform","1","undefined","1","right","84","84","84","0","0","84","84","0","0","84","84","84","0","84","0","10/18/20 18:33:21","The main experiment item","yes","SternbergTask.osexp","C:\Users\Jennifer Wright\Desktop\PSYC5613\STERNBERGTASK","no","mono","no","18","no","white","no","yes","768","legacy","72","11","C:/Users/Jennifer Wright/Desktop/PSYC5613/STERNBERGTASK/jw-subject-1.csv","legacy","9 8 2 7 4","Lentiform Loewenfeld","3.3.3","0","n","0","right","right","left","right","NA","1252","64998","24990","1252","NA","2","legacy","5","1024","2","48000","-16","experiment","1","odd","5","651622","648158","649400","4954","177370","649406","608914","4960","152379","653629","654884","650414","69961","653629","NA","SternbergTask","78","88659","85","yes","1024"
"90.6976744186","90.6976744186","1035.72093023","1035.72093023","black","experiment","legacy","legacy","legacy","0","uniform","0","undefined","0","right","85","85","85","0","0","85","85","0","0","85","85","85","0","85","0","10/18/20 18:33:21","The main experiment item","yes","SternbergTask.osexp","C:\Users\Jennifer Wright\Desktop\PSYC5613\STERNBERGTASK","no","mono","no","18","no","white","no","yes","768","legacy","73","11","C:/Users/Jennifer Wright/Desktop/PSYC5613/STERNBERGTASK/jw-subject-1.csv","legacy","6 2 9 3 8 4","Lentiform Loewenfeld","3.3.3","0","n","0","left","right","left","left","NA","413","64998","24990","413","NA","2","legacy","6","1024","2","48000","-16","experiment","1","odd","1","658409","654953","656186","4954","177370","656192","608914","4960","152379","660417","660833","657198","69961","660416","NA","SternbergTask","78","89072","86","yes","1024"
"90.8045977011","90.8045977011","1034.47126437","1034.47126437","black","experiment","legacy","legacy","legacy","0","uniform","1","undefined","1","left","86","86","86","0","0","86","86","0","0","86","86","86","0","86","0","10/18/20 18:33:21","The main experiment item","yes","SternbergTask.osexp","C:\Users\Jennifer Wright\Desktop\PSYC5613\STERNBERGTASK","no","mono","no","18","no","white","no","yes","768","legacy","74","11","C:/Users/Jennifer Wright/Desktop/PSYC5613/STERNBERGTASK/jw-subject-1.csv","legacy","7 8 4 6 9 5","Lentiform Loewenfeld","3.3.3","4","y","0","left","right","left","left","NA","927","64998","24990","927","NA","2","legacy","6","1024","2","48000","-16","experiment","1","odd","6","664351","654953","662133","4954","177370","662139","660898","4960","152379","666359","667289","663145","69961","666358","NA","SternbergTask","79","89999","87","yes","1024"
"90.9090909091","90.9090909091","1033.31818182","1033.31818182","black","experiment","legacy","legacy","legacy","0","uniform","1","undefined","1","right","87","87","87","0","0","87","87","0","0","87","87","87","0","87","0","10/18/20 18:33:21","The main experiment item","yes","SternbergTask.osexp","C:\Users\Jennifer Wright\Desktop\PSYC5613\STERNBERGTASK","no","mono","no","18","no","white","no","yes","768","legacy","75","11","C:/Users/Jennifer Wright/Desktop/PSYC5613/STERNBERGTASK/jw-subject-1.csv","legacy","2 5 1 4","Lentiform Loewenfeld","3.3.3","0","n","0","right","right","left","right","NA","933","64998","24990","933","NA","2","legacy","4","1024","2","48000","-16","experiment","1","odd","6","670771","667328","668553","4954","177370","668558","660898","4960","152379","672775","673711","669565","69961","672775","NA","SternbergTask","80","90932","88","yes","1024"
"91.0112359551","91.0112359551","1029.47191011","1029.47191011","black","experiment","legacy","legacy","legacy","0","uniform","1","undefined","1","right","88","88","88","0","0","88","88","0","0","88","88","88","0","88","0","10/18/20 18:33:21","The main experiment item","yes","SternbergTask.osexp","C:\Users\Jennifer Wright\Desktop\PSYC5613\STERNBERGTASK","no","mono","no","18","no","white","no","yes","768","legacy","76","11","C:/Users/Jennifer Wright/Desktop/PSYC5613/STERNBERGTASK/jw-subject-1.csv","legacy","9 7 4 5 8","Lentiform Loewenfeld","3.3.3","0","n","0","right","right","left","right","NA","691","64998","24990","691","NA","2","legacy","5","1024","2","48000","-16","experiment","1","odd","6","677311","673864","675094","4954","177370","675099","660898","4960","152379","679318","680012","676105","69961","679318","NA","SternbergTask","81","91623","89","yes","1024"
"91.1111111111","91.1111111111","1027.68888889","1027.68888889","black","experiment","legacy","legacy","legacy","0","uniform","1","undefined","1","left","89","89","89","0","0","89","89","0","0","89","89","89","0","89","0","10/18/20 18:33:21","The main experiment item","yes","SternbergTask.osexp","C:\Users\Jennifer Wright\Desktop\PSYC5613\STERNBERGTASK","no","mono","no","18","no","white","no","yes","768","legacy","77","11","C:/Users/Jennifer Wright/Desktop/PSYC5613/STERNBERGTASK/jw-subject-1.csv","legacy","6 7 8 5","Lentiform Loewenfeld","3.3.3","3","y","0","left","right","left","left","NA","869","64998","24990","869","NA","2","legacy","4","1024","2","48000","-16","experiment","1","odd","8","683496","680047","681278","4954","177370","681284","660898","4960","152379","685501","686374","682289","69961","685501","NA","SternbergTask","82","92492","90","yes","1024"
"91.2087912088","91.2087912088","1026.54945055","1026.54945055","black","experiment","legacy","legacy","legacy","0","uniform","1","undefined","1","left","90","90","90","0","0","90","90","0","0","90","90","90","0","90","0","10/18/20 18:33:21","The main experiment item","yes","SternbergTask.osexp","C:\Users\Jennifer Wright\Desktop\PSYC5613\STERNBERGTASK","no","mono","no","18","no","white","no","yes","768","legacy","78","11","C:/Users/Jennifer Wright/Desktop/PSYC5613/STERNBERGTASK/jw-subject-1.csv","legacy","7 8 6 3 1","Lentiform Loewenfeld","3.3.3","5","y","0","left","right","left","left","NA","924","64998","24990","924","NA","2","legacy","5","1024","2","48000","-16","experiment","1","odd","1","689903","686447","687679","4954","177370","687685","660898","4960","152379","691910","692838","688690","69961","691909","NA","SternbergTask","83","93416","91","yes","1024"
"91.3043478261","91.3043478261","1022.47826087","1022.47826087","black","experiment","legacy","legacy","legacy","0","uniform","1","undefined","1","left","91","91","91","0","0","91","91","0","0","91","91","91","0","91","0","10/18/20 18:33:21","The main experiment item","yes","SternbergTask.osexp","C:\Users\Jennifer Wright\Desktop\PSYC5613\STERNBERGTASK","no","mono","no","18","no","white","no","yes","768","legacy","79","11","C:/Users/Jennifer Wright/Desktop/PSYC5613/STERNBERGTASK/jw-subject-1.csv","legacy","4 6 5 8","Lentiform Loewenfeld","3.3.3","1","y","0","left","right","left","left","NA","652","64998","24990","652","NA","2","legacy","4","1024","2","48000","-16","experiment","1","odd","4","696352","692920","694136","4954","177370","694142","660898","4960","152379","698358","699014","695146","69961","698358","NA","SternbergTask","84","94068","92","yes","1024"
"90.3225806452","90.3225806452","1032.98924731","1032.98924731","black","experiment","legacy","legacy","legacy","0","uniform","0","undefined","0","left","92","92","92","0","0","92","92","0","0","92","92","92","0","92","0","10/18/20 18:33:21","The main experiment item","yes","SternbergTask.osexp","C:\Users\Jennifer Wright\Desktop\PSYC5613\STERNBERGTASK","no","mono","no","18","no","white","no","yes","768","legacy","80","11","C:/Users/Jennifer Wright/Desktop/PSYC5613/STERNBERGTASK/jw-subject-1.csv","legacy","5 7 8 2 3 8","Lentiform Loewenfeld","3.3.3","5","y","0","None","right","left","None","NA","2000","64998","24990","2000","NA","2","legacy","6","1024","2","48000","-16","experiment","1","odd","3","702558","699111","700340","4954","177370","700346","660898","4960","152379","704564","706567","701352","69961","704564","NA","SternbergTask","84","96068","93","yes","1024"
"90.4255319149","90.4255319149","1028.72340426","1028.72340426","black","experiment","legacy","legacy","legacy","0","uniform","1","undefined","1","left","93","93","93","0","0","93","93","0","0","93","93","93","0","93","0","10/18/20 18:33:21","The main experiment item","yes","SternbergTask.osexp","C:\Users\Jennifer Wright\Desktop\PSYC5613\STERNBERGTASK","no","mono","no","18","no","white","no","yes","768","legacy","81","11","C:/Users/Jennifer Wright/Desktop/PSYC5613/STERNBERGTASK/jw-subject-1.csv","legacy","6 2","Lentiform Loewenfeld","3.3.3","1","y","0","left","right","left","left","NA","632","64998","24990","632","NA","2","legacy","2","1024","2","48000","-16","experiment","1","odd","6","710093","699111","707864","4954","177370","707869","706629","4960","152379","712099","712735","708882","69961","712099","NA","SternbergTask","85","96700","94","yes","1024"
"90.5263157895","90.5263157895","1025.77894737","1025.77894737","black","experiment","legacy","legacy","legacy","0","uniform","1","undefined","1","right","94","94","94","0","0","94","94","0","0","94","94","94","0","94","0","10/18/20 18:33:21","The main experiment item","yes","SternbergTask.osexp","C:\Users\Jennifer Wright\Desktop\PSYC5613\STERNBERGTASK","no","mono","no","18","no","white","no","yes","768","legacy","82","11","C:/Users/Jennifer Wright/Desktop/PSYC5613/STERNBERGTASK/jw-subject-1.csv","legacy","8 6 3 4 7","Lentiform Loewenfeld","3.3.3","0","n","0","right","right","left","right","NA","749","64998","24990","749","NA","2","legacy","5","1024","2","48000","-16","experiment","1","odd","1","716244","712806","714025","4954","177370","714031","706629","4960","152379","718250","719003","715037","69961","718250","NA","SternbergTask","86","97449","95","yes","1024"
"90.625","90.625","1023.875","1023.875","black","experiment","legacy","legacy","legacy","0","uniform","1","undefined","1","right","95","95","95","0","0","95","95","0","0","95","95","95","0","95","0","10/18/20 18:33:21","The main experiment item","yes","SternbergTask.osexp","C:\Users\Jennifer Wright\Desktop\PSYC5613\STERNBERGTASK","no","mono","no","18","no","white","no","yes","768","legacy","83","11","C:/Users/Jennifer Wright/Desktop/PSYC5613/STERNBERGTASK/jw-subject-1.csv","legacy","3 4 2","Lentiform Loewenfeld","3.3.3","0","n","0","right","right","left","right","NA","843","64998","24990","843","NA","2","legacy","3","1024","2","48000","-16","experiment","1","odd","5","722532","719072","720313","4954","177370","720319","706629","4960","152379","724538","725385","721325","69961","724538","NA","SternbergTask","87","98292","96","yes","1024"
"90.7216494845","90.7216494845","1022.31958763","1022.31958763","black","experiment","legacy","legacy","legacy","0","uniform","1","undefined","1","left","96","96","96","0","0","96","96","0","0","96","96","96","0","96","0","10/18/20 18:33:21","The main experiment item","yes","SternbergTask.osexp","C:\Users\Jennifer Wright\Desktop\PSYC5613\STERNBERGTASK","no","mono","no","18","no","white","no","yes","768","legacy","84","11","C:/Users/Jennifer Wright/Desktop/PSYC5613/STERNBERGTASK/jw-subject-1.csv","legacy","2 3 7 4","Lentiform Loewenfeld","3.3.3","1","y","0","left","right","left","left","NA","873","64998","24990","873","NA","2","legacy","4","1024","2","48000","-16","experiment","1","odd","2","728924","725462","726701","4954","177370","726707","706629","4960","152379","730929","731805","727715","69961","730929","NA","SternbergTask","88","99165","97","yes","1024"
"90.8163265306","90.8163265306","1022.40816327","1022.40816327","black","experiment","legacy","legacy","legacy","0","uniform","1","undefined","1","left","97","97","97","0","0","97","97","0","0","97","97","97","0","97","0","10/18/20 18:33:21","The main experiment item","yes","SternbergTask.osexp","C:\Users\Jennifer Wright\Desktop\PSYC5613\STERNBERGTASK","no","mono","no","18","no","white","no","yes","768","legacy","85","11","C:/Users/Jennifer Wright/Desktop/PSYC5613/STERNBERGTASK/jw-subject-1.csv","legacy","3 5 7 1","Lentiform Loewenfeld","3.3.3","3","y","0","left","right","left","left","NA","1031","64998","24990","1031","NA","2","legacy","4","1024","2","48000","-16","experiment","1","odd","7","735316","731865","733095","4954","177370","733101","706629","4960","152379","737322","738360","734107","69961","737321","NA","SternbergTask","89","100196","98","yes","1024"
"90.9090909091","90.9090909091","1022.2020202","1022.2020202","black","experiment","legacy","legacy","legacy","0","uniform","1","undefined","1","right","98","98","98","0","0","98","98","0","0","98","98","98","0","98","0","10/18/20 18:33:21","The main experiment item","yes","SternbergTask.osexp","C:\Users\Jennifer Wright\Desktop\PSYC5613\STERNBERGTASK","no","mono","no","18","no","white","no","yes","768","legacy","86","11","C:/Users/Jennifer Wright/Desktop/PSYC5613/STERNBERGTASK/jw-subject-1.csv","legacy","6 3 1 7 9 8","Lentiform Loewenfeld","3.3.3","0","n","0","right","right","left","right","NA","1002","64998","24990","1002","NA","2","legacy","6","1024","2","48000","-16","experiment","1","odd","4","741875","738430","739654","4954","177370","739659","706629","4960","152379","743882","744888","740666","69961","743882","NA","SternbergTask","90","101198","99","yes","1024"
"91","91","1018.96","1018.96","black","experiment","legacy","legacy","legacy","0","uniform","1","undefined","1","right","99","99","99","0","0","99","99","0","0","99","99","99","0","99","0","10/18/20 18:33:21","The main experiment item","yes","SternbergTask.osexp","C:\Users\Jennifer Wright\Desktop\PSYC5613\STERNBERGTASK","no","mono","no","18","no","white","no","yes","768","legacy","87","11","C:/Users/Jennifer Wright/Desktop/PSYC5613/STERNBERGTASK/jw-subject-1.csv","legacy","7 9","Lentiform Loewenfeld","3.3.3","0","n","0","right","right","left","right","NA","698","64998","24990","698","NA","2","legacy","2","1024","2","48000","-16","experiment","1","odd","1","748408","744954","746187","4954","177370","746193","706629","4960","152379","750416","751118","747202","69961","750415","NA","SternbergTask","91","101896","100","yes","1024"
"91.0891089109","91.0891089109","1016.17821782","1016.17821782","black","experiment","legacy","legacy","legacy","0","uniform","1","undefined","1","right","100","100","100","0","0","100","100","0","0","100","100","100","0","100","0","10/18/20 18:33:21","The main experiment item","yes","SternbergTask.osexp","C:\Users\Jennifer Wright\Desktop\PSYC5613\STERNBERGTASK","no","mono","no","18","no","white","no","yes","768","legacy","88","11","C:/Users/Jennifer Wright/Desktop/PSYC5613/STERNBERGTASK/jw-subject-1.csv","legacy","1 6 4","Lentiform Loewenfeld","3.3.3","0","n","0","right","right","left","right","NA","738","64998","24990","738","NA","2","legacy","3","1024","2","48000","-16","experiment","1","odd","7","754604","751161","752385","4954","177370","752392","706629","4960","152379","756609","757350","753398","69961","756609","NA","SternbergTask","92","102634","101","yes","1024"
"91.1764705882","91.1764705882","1014.23529412","1014.23529412","black","experiment","legacy","legacy","legacy","0","uniform","1","undefined","1","left","101","101","101","0","0","101","101","0","0","101","101","101","0","101","0","10/18/20 18:33:21","The main experiment item","yes","SternbergTask.osexp","C:\Users\Jennifer Wright\Desktop\PSYC5613\STERNBERGTASK","no","mono","no","18","no","white","no","yes","768","legacy","89","11","C:/Users/Jennifer Wright/Desktop/PSYC5613/STERNBERGTASK/jw-subject-1.csv","legacy","6 8 9 3 4 9","Lentiform Loewenfeld","3.3.3","5","y","0","left","right","left","left","NA","818","64998","24990","818","NA","2","legacy","6","1024","2","48000","-16","experiment","1","odd","4","760868","757420","758651","4954","177370","758657","706629","4960","152379","762874","763695","759663","69961","762874","NA","SternbergTask","93","103452","102","yes","1024"
"91.2621359223","91.2621359223","1012.50485437","1012.50485437","black","experiment","legacy","legacy","legacy","0","uniform","1","undefined","1","right","102","102","102","0","0","102","102","0","0","102","102","102","0","102","0","10/18/20 18:33:21","The main experiment item","yes","SternbergTask.osexp","C:\Users\Jennifer Wright\Desktop\PSYC5613\STERNBERGTASK","no","mono","no","18","no","white","no","yes","768","legacy","90","11","C:/Users/Jennifer Wright/Desktop/PSYC5613/STERNBERGTASK/jw-subject-1.csv","legacy","6 8","Lentiform Loewenfeld","3.3.3","0","n","0","right","right","left","right","NA","836","64998","24990","836","NA","2","legacy","2","1024","2","48000","-16","experiment","1","odd","9","767222","763758","764997","4954","177370","765003","706629","4960","152379","769229","770069","766009","69961","769229","NA","SternbergTask","94","104288","103","yes","1024"
"91.3461538462","91.3461538462","1010.36538462","1010.36538462","black","experiment","legacy","legacy","legacy","0","uniform","1","undefined","1","right","103","103","103","0","0","103","103","0","0","103","103","103","0","103","0","10/18/20 18:33:21","The main experiment item","yes","SternbergTask.osexp","C:\Users\Jennifer Wright\Desktop\PSYC5613\STERNBERGTASK","no","mono","no","18","no","white","no","yes","768","legacy","91","11","C:/Users/Jennifer Wright/Desktop/PSYC5613/STERNBERGTASK/jw-subject-1.csv","legacy","2 6 4 3 9","Lentiform Loewenfeld","3.3.3","0","n","0","right","right","left","right","NA","790","64998","24990","790","NA","2","legacy","5","1024","2","48000","-16","experiment","1","odd","1","773547","770101","771329","4954","177370","771335","706629","4960","152379","775553","776348","772341","69961","775553","NA","SternbergTask","95","105078","104","yes","1024"
"91.4285714286","91.4285714286","1010.81904762","1010.81904762","black","experiment","legacy","legacy","legacy","0","uniform","1","undefined","1","left","104","104","104","0","0","104","104","0","0","104","104","104","0","104","0","10/18/20 18:33:21","The main experiment item","yes","SternbergTask.osexp","C:\Users\Jennifer Wright\Desktop\PSYC5613\STERNBERGTASK","no","mono","no","18","no","white","no","yes","768","legacy","92","11","C:/Users/Jennifer Wright/Desktop/PSYC5613/STERNBERGTASK/jw-subject-1.csv","legacy","8 9 6 1","Lentiform Loewenfeld","3.3.3","2","y","0","left","right","left","left","NA","1058","64998","24990","1058","NA","2","legacy","4","1024","2","48000","-16","experiment","1","odd","9","779858","776417","777643","4954","177370","777647","706629","4960","152379","781863","782927","778652","69961","781863","NA","SternbergTask","96","106136","105","yes","1024"
"91.5094339623","91.5094339623","1009.66981132","1009.66981132","black","experiment","legacy","legacy","legacy","0","uniform","1","undefined","1","right","105","105","105","0","0","105","105","0","0","105","105","105","0","105","0","10/18/20 18:33:21","The main experiment item","yes","SternbergTask.osexp","C:\Users\Jennifer Wright\Desktop\PSYC5613\STERNBERGTASK","no","mono","no","18","no","white","no","yes","768","legacy","93","11","C:/Users/Jennifer Wright/Desktop/PSYC5613/STERNBERGTASK/jw-subject-1.csv","legacy","5 3 8 7 2 4","Lentiform Loewenfeld","3.3.3","0","n","0","right","right","left","right","NA","889","64998","24990","889","NA","2","legacy","6","1024","2","48000","-16","experiment","1","odd","9","786475","783020","784260","4954","177370","784265","706629","4960","152379","788480","789374","785270","69961","788480","NA","SternbergTask","97","107025","106","yes","1024"
"90.6542056075","90.6542056075","1010.38317757","1010.38317757","black","experiment","legacy","legacy","legacy","0","uniform","0","undefined","0","left","106","106","106","0","0","106","106","0","0","106","106","106","0","106","0","10/18/20 18:33:21","The main experiment item","yes","SternbergTask.osexp","C:\Users\Jennifer Wright\Desktop\PSYC5613\STERNBERGTASK","no","mono","no","18","no","white","no","yes","768","legacy","94","11","C:/Users/Jennifer Wright/Desktop/PSYC5613/STERNBERGTASK/jw-subject-1.csv","legacy","8 1 6","Lentiform Loewenfeld","3.3.3","3","y","0","right","right","left","right","NA","1086","64998","24990","1086","NA","2","legacy","3","1024","2","48000","-16","experiment","1","odd","6","792908","789441","790691","4954","177370","790697","706629","4960","152379","794914","796004","791702","69961","794914","NA","SternbergTask","97","108111","107","yes","1024"
"90.7407407407","90.7407407407","1008.14814815","1008.14814815","black","experiment","legacy","legacy","legacy","0","uniform","1","undefined","1","right","107","107","107","0","0","107","107","0","0","107","107","107","0","107","0","10/18/20 18:33:21","The main experiment item","yes","SternbergTask.osexp","C:\Users\Jennifer Wright\Desktop\PSYC5613\STERNBERGTASK","no","mono","no","18","no","white","no","yes","768","legacy","95","11","C:/Users/Jennifer Wright/Desktop/PSYC5613/STERNBERGTASK/jw-subject-1.csv","legacy","5 2","Lentiform Loewenfeld","3.3.3","0","n","0","right","right","left","right","NA","769","64998","24990","769","NA","2","legacy","2","1024","2","48000","-16","experiment","1","odd","7","799531","789441","797311","4954","177370","797317","796076","4960","152379","801537","802310","798323","69961","801537","NA","SternbergTask","98","108880","108","yes","1024"
"89.9082568807","89.9082568807","1017.24770642","1017.24770642","black","experiment","legacy","legacy","legacy","0","uniform","0","undefined","0","left","108","108","108","0","0","108","108","0","0","108","108","108","0","108","0","10/18/20 18:33:21","The main experiment item","yes","SternbergTask.osexp","C:\Users\Jennifer Wright\Desktop\PSYC5613\STERNBERGTASK","no","mono","no","18","no","white","no","yes","768","legacy","96","11","C:/Users/Jennifer Wright/Desktop/PSYC5613/STERNBERGTASK/jw-subject-1.csv","legacy","8 5 3 7 4 6","Lentiform Loewenfeld","3.3.3","6","y","0","None","right","left","None","NA","2000","64998","24990","2000","NA","2","legacy","6","1024","2","48000","-16","experiment","1","odd","6","805797","802348","803574","4954","177370","803579","796076","4960","152379","807803","809806","804585","69961","807803","NA","SternbergTask","98","110880","109","yes","1024"
"90","90","1019.12727273","1019.12727273","black","experiment","legacy","legacy","legacy","0","uniform","1","undefined","1","left","109","109","109","0","0","109","109","0","0","109","109","109","0","109","0","10/18/20 18:33:21","The main experiment item","yes","SternbergTask.osexp","C:\Users\Jennifer Wright\Desktop\PSYC5613\STERNBERGTASK","no","mono","no","18","no","white","no","yes","768","legacy","97","11","C:/Users/Jennifer Wright/Desktop/PSYC5613/STERNBERGTASK/jw-subject-1.csv","legacy","5 7 3 6 2","Lentiform Loewenfeld","3.3.3","5","y","0","left","right","left","left","NA","1224","64998","24990","1224","NA","2","legacy","5","1024","2","48000","-16","experiment","1","odd","2","813334","802348","811116","4954","177370","811122","809893","4960","152379","815342","816570","812128","69961","815341","NA","SternbergTask","99","112104","110","yes","1024"
"90.0900900901","90.0900900901","1017.7027027","1017.7027027","black","experiment","legacy","legacy","legacy","0","uniform","1","undefined","1","left","110","110","110","0","0","110","110","0","0","110","110","110","0","110","0","10/18/20 18:33:21","The main experiment item","yes","SternbergTask.osexp","C:\Users\Jennifer Wright\Desktop\PSYC5613\STERNBERGTASK","no","mono","no","18","no","white","no","yes","768","legacy","98","11","C:/Users/Jennifer Wright/Desktop/PSYC5613/STERNBERGTASK/jw-subject-1.csv","legacy","7 6","Lentiform Loewenfeld","3.3.3","2","y","0","left","right","left","left","NA","861","64998","24990","861","NA","2","legacy","2","1024","2","48000","-16","experiment","1","odd","6","820096","816642","817881","4954","177370","817887","809893","4960","152379","822107","822972","818891","69961","822107","NA","SternbergTask","100","112965","111","yes","1024"
"90.1785714286","90.1785714286","1017.40178571","1017.40178571","black","experiment","legacy","legacy","legacy","0","uniform","1","undefined","1","left","111","111","111","0","0","111","111","0","0","111","111","111","0","111","0","10/18/20 18:33:21","The main experiment item","yes","SternbergTask.osexp","C:\Users\Jennifer Wright\Desktop\PSYC5613\STERNBERGTASK","no","mono","no","18","no","white","no","yes","768","legacy","99","11","C:/Users/Jennifer Wright/Desktop/PSYC5613/STERNBERGTASK/jw-subject-1.csv","legacy","8 9 5 6 7","Lentiform Loewenfeld","3.3.3","1","y","0","left","right","left","left","NA","984","64998","24990","984","NA","2","legacy","5","1024","2","48000","-16","experiment","1","odd","8","826467","823006","824245","4954","177370","824251","809893","4960","152379","828475","829463","825261","69961","828474","NA","SternbergTask","101","113949","112","yes","1024"
"90.2654867257","90.2654867257","1015","1015","black","experiment","legacy","legacy","legacy","0","uniform","1","undefined","1","right","112","112","112","0","0","112","112","0","0","112","112","112","0","112","0","10/18/20 18:33:21","The main experiment item","yes","SternbergTask.osexp","C:\Users\Jennifer Wright\Desktop\PSYC5613\STERNBERGTASK","no","mono","no","18","no","white","no","yes","768","legacy","100","11","C:/Users/Jennifer Wright/Desktop/PSYC5613/STERNBERGTASK/jw-subject-1.csv","legacy","7 4 2 8 1 9","Lentiform Loewenfeld","3.3.3","0","n","0","right","right","left","right","NA","746","64998","24990","746","NA","2","legacy","6","1024","2","48000","-16","experiment","1","odd","5","832975","829529","830756","4954","177370","830762","809893","4960","152379","834980","835730","831769","69961","834980","NA","SternbergTask","102","114695","113","yes","1024"
