"acc","accuracy","average_response_time","avg_rt","background","block","canvas_backend","clock_backend","color_backend","compensation","coordinates","correct","correct_instructions1","correct_keyboard_response","correct_response","count_ISI","count_IncorrectFeedback","count_PracticeLoop","count_correctFeedback","count_expSequence","count_experiment","count_experimentloop","count_fixation","count_instructions1","count_instructions2","count_keyboard_response","count_logger","count_memorySet","count_probe","count_thankyou","datetime","description","disable_garbage_collection","experiment_file","experiment_path","font_bold","font_family","font_italic","font_size","font_underline","foreground","form_clicks","fullscreen","height","keyboard_backend","live_row","live_row_PracticeLoop","logfile","mouse_backend","numberSet","opensesame_codename","opensesame_version","posInSet","present","psychopy_waitblanking","repeat_cycle","response","response_instructions1","response_instructions2","response_keyboard_response","response_thankyou","response_time","response_time_instructions1","response_time_instructions2","response_time_keyboard_response","response_time_thankyou","round_decimals","sampler_backend","setSize","sound_buf_size","sound_channels","sound_freq","sound_sample_size","start","subject_nr","subject_parity","target","time_ISI","time_IncorrectFeedback","time_PracticeLoop","time_correctFeedback","time_expSequence","time_experiment","time_experimentloop","time_fixation","time_instructions1","time_instructions2","time_keyboard_response","time_logger","time_memorySet","time_probe","time_thankyou","title","total_correct","total_response_time","total_responses","uniform_coordinates","width"
"100","100","1129","1129","black","practice","legacy","legacy","legacy","0","uniform","1","undefined","1","right","0","0","0","0","0","0","0","0","0","0","0","0","0","0","0","Mon Oct 12 09:15:04 2020","The main experiment item","yes","SternbergTask.osexp","C:\Users\Owner","no","mono","no","18","no","white","no","yes","768","legacy","0","0","C:/Users/Owner/KJPsubject-1.csv","legacy","4 1 5","Lentiform Loewenfeld","3.3.3","0","n","yes","0","right","right","NA","right","NA","1129","6690","NA","1129","NA","2","legacy","3","1024","2","48000","-16","experiment","1","odd","2","13628","NA","10243","NA","11418","3546","NA","11420","3552","NA","15632","16762","12424","15632","NA","Sternberg Task ","1","1129","1","yes","1024"
"100","100","1080","1080","black","practice","legacy","legacy","legacy","0","uniform","1","undefined","1","right","1","1","0","1","1","0","0","1","0","0","1","1","1","1","0","Mon Oct 12 09:15:04 2020","The main experiment item","yes","SternbergTask.osexp","C:\Users\Owner","no","mono","no","18","no","white","no","yes","768","legacy","1","1","C:/Users/Owner/KJPsubject-1.csv","legacy","5 7 8 4 1 2","Lentiform Loewenfeld","3.3.3","0","n","yes","0","right","right","NA","right","NA","1031","6690","NA","1031","NA","2","legacy","6","1024","2","48000","-16","experiment","1","odd","6","20105","NA","10243","16791","17896","3546","NA","17897","3552","NA","22109","23141","18901","22109","NA","Sternberg Task ","2","2160","2","yes","1024"
"100","100","970","970","black","practice","legacy","legacy","legacy","0","uniform","1","undefined","1","right","2","2","0","2","2","0","0","2","0","0","2","2","2","2","0","Mon Oct 12 09:15:04 2020","The main experiment item","yes","SternbergTask.osexp","C:\Users\Owner","no","mono","no","18","no","white","no","yes","768","legacy","2","2","C:/Users/Owner/KJPsubject-1.csv","legacy","9 6 7 4 5","Lentiform Loewenfeld","3.3.3","0","n","yes","0","right","right","NA","right","NA","750","6690","NA","750","NA","2","legacy","5","1024","2","48000","-16","experiment","1","odd","3","26463","NA","10243","23144","24253","3546","NA","24255","3552","NA","28467","29217","25259","28467","NA","Sternberg Task ","3","2910","3","yes","1024"
"100","100","978","978","black","practice","legacy","legacy","legacy","0","uniform","1","undefined","1","right","3","3","0","3","3","0","0","3","0","0","3","3","3","3","0","Mon Oct 12 09:15:04 2020","The main experiment item","yes","SternbergTask.osexp","C:\Users\Owner","no","mono","no","18","no","white","no","yes","768","legacy","3","3","C:/Users/Owner/KJPsubject-1.csv","legacy","5","Lentiform Loewenfeld","3.3.3","0","n","yes","0","right","right","NA","right","NA","1002","6690","NA","1002","NA","2","legacy","1","1024","2","48000","-16","experiment","1","odd","3","32568","NA","10243","29221","30357","3546","NA","30359","3552","NA","34573","35575","31363","34572","NA","Sternberg Task ","4","3912","4","yes","1024"
"100","100","935.8","935.8","black","practice","legacy","legacy","legacy","0","uniform","1","undefined","1","left","4","4","0","4","4","0","0","4","0","0","4","4","4","4","0","Mon Oct 12 09:15:04 2020","The main experiment item","yes","SternbergTask.osexp","C:\Users\Owner","no","mono","no","18","no","white","no","yes","768","legacy","4","4","C:/Users/Owner/KJPsubject-1.csv","legacy","4 3 1 7 9 8","Lentiform Loewenfeld","3.3.3","1","y","yes","0","left","right","NA","left","NA","767","6690","NA","767","NA","2","legacy","6","1024","2","48000","-16","experiment","1","odd","4","38855","NA","10243","35578","36648","3546","NA","36650","3552","NA","40856","41624","37651","40856","NA","Sternberg Task ","5","4679","5","yes","1024"
"100","100","887","887","black","practice","legacy","legacy","legacy","0","uniform","1","undefined","1","left","5","5","0","5","5","0","0","5","0","0","5","5","5","5","0","Mon Oct 12 09:15:04 2020","The main experiment item","yes","SternbergTask.osexp","C:\Users\Owner","no","mono","no","18","no","white","no","yes","768","legacy","5","5","C:/Users/Owner/KJPsubject-1.csv","legacy","4 8","Lentiform Loewenfeld","3.3.3","1","y","yes","0","left","right","NA","left","NA","643","6690","NA","643","NA","2","legacy","2","1024","2","48000","-16","experiment","1","odd","4","44950","NA","10243","41627","42741","3546","NA","42742","3552","NA","46954","47598","43746","46954","NA","Sternberg Task ","6","5322","6","yes","1024"
"100","100","904.4285714285714","904.4285714285714","black","practice","legacy","legacy","legacy","0","uniform","1","undefined","1","left","6","6","0","6","6","0","0","6","0","0","6","6","6","6","0","Mon Oct 12 09:15:04 2020","The main experiment item","yes","SternbergTask.osexp","C:\Users\Owner","no","mono","no","18","no","white","no","yes","768","legacy","6","6","C:/Users/Owner/KJPsubject-1.csv","legacy","2 9 4","Lentiform Loewenfeld","3.3.3","3","y","yes","0","left","right","NA","left","NA","1009","6690","NA","1009","NA","2","legacy","3","1024","2","48000","-16","experiment","1","odd","4","50874","NA","10243","47601","48665","3546","NA","48666","3552","NA","52879","53889","49670","52878","NA","Sternberg Task ","7","6331","7","yes","1024"
"100","100","883.375","883.375","black","practice","legacy","legacy","legacy","0","uniform","1","undefined","1","left","7","7","0","7","7","0","0","7","0","0","7","7","7","7","0","Mon Oct 12 09:15:04 2020","The main experiment item","yes","SternbergTask.osexp","C:\Users\Owner","no","mono","no","18","no","white","no","yes","768","legacy","7","7","C:/Users/Owner/KJPsubject-1.csv","legacy","1 7 9 8 5","Lentiform Loewenfeld","3.3.3","4","y","yes","0","left","right","NA","left","NA","736","6690","NA","736","NA","2","legacy","5","1024","2","48000","-16","experiment","1","odd","8","57211","NA","10243","53892","55001","3546","NA","55002","3552","NA","59215","59951","56007","59215","NA","Sternberg Task ","8","7067","8","yes","1024"
"100","100","868.5555555555555","868.5555555555555","black","practice","legacy","legacy","legacy","0","uniform","1","undefined","1","left","8","8","0","8","8","0","0","8","0","0","8","8","8","8","0","Mon Oct 12 09:15:04 2020","The main experiment item","yes","SternbergTask.osexp","C:\Users\Owner","no","mono","no","18","no","white","no","yes","768","legacy","8","8","C:/Users/Owner/KJPsubject-1.csv","legacy","6","Lentiform Loewenfeld","3.3.3","1","y","yes","0","left","right","NA","left","NA","750","6690","NA","750","NA","2","legacy","1","1024","2","48000","-16","experiment","1","odd","6","63280","NA","10243","59955","61071","3546","NA","61073","3552","NA","65284","66035","62077","65284","NA","Sternberg Task ","9","7817","9","yes","1024"
"100","100","849.6","849.6","black","practice","legacy","legacy","legacy","0","uniform","1","undefined","1","right","9","9","0","9","9","0","0","9","0","0","9","9","9","9","0","Mon Oct 12 09:15:04 2020","The main experiment item","yes","SternbergTask.osexp","C:\Users\Owner","no","mono","no","18","no","white","no","yes","768","legacy","9","9","C:/Users/Owner/KJPsubject-1.csv","legacy","2 1","Lentiform Loewenfeld","3.3.3","0","n","yes","0","right","right","NA","right","NA","679","6690","NA","679","NA","2","legacy","2","1024","2","48000","-16","experiment","1","odd","5","69347","NA","10243","66038","67138","3546","NA","67139","3552","NA","71352","72032","68143","71352","NA","Sternberg Task ","10","8496","10","yes","1024"
"100","100","853.8181818181819","853.8181818181819","black","practice","legacy","legacy","legacy","0","uniform","1","undefined","1","right","10","10","0","10","10","0","0","10","0","0","10","10","10","10","0","Mon Oct 12 09:15:04 2020","The main experiment item","yes","SternbergTask.osexp","C:\Users\Owner","no","mono","no","18","no","white","no","yes","768","legacy","10","10","C:/Users/Owner/KJPsubject-1.csv","legacy","3 1 9 4","Lentiform Loewenfeld","3.3.3","0","n","yes","0","right","right","NA","right","NA","896","6690","NA","896","NA","2","legacy","4","1024","2","48000","-16","experiment","1","odd","6","75309","NA","10243","72036","73103","3546","NA","73104","3552","NA","77310","78207","74105","77310","NA","Sternberg Task ","11","9392","11","yes","1024"
"100","100","848.9166666666666","848.9166666666666","black","practice","legacy","legacy","legacy","0","uniform","1","undefined","1","left","11","11","0","11","11","0","0","11","0","0","11","11","11","11","0","Mon Oct 12 09:15:04 2020","The main experiment item","yes","SternbergTask.osexp","C:\Users\Owner","no","mono","no","18","no","white","no","yes","768","legacy","11","11","C:/Users/Owner/KJPsubject-1.csv","legacy","1 5 2 9","Lentiform Loewenfeld","3.3.3","2","y","yes","0","left","right","NA","left","NA","795","6690","NA","795","NA","2","legacy","4","1024","2","48000","-16","experiment","1","odd","5","81524","NA","10243","78210","79315","3546","NA","79316","3552","NA","83530","84327","80320","83530","NA","Sternberg Task ","12","10187","12","yes","1024"
"100","100","838.7692307692307","838.7692307692307","black","experiment","legacy","legacy","legacy","0","uniform","1","undefined","1","right","12","12","0","12","12","0","0","12","0","0","12","12","12","12","0","Mon Oct 12 09:15:04 2020","The main experiment item","yes","SternbergTask.osexp","C:\Users\Owner","no","mono","no","18","no","white","no","yes","768","legacy","0","11","C:/Users/Owner/KJPsubject-1.csv","legacy","3 4 2","Lentiform Loewenfeld","3.3.3","0","n","yes","0","right","right","left","right","NA","717","6690","4404","717","NA","2","legacy","3","1024","2","48000","-16","experiment","1","odd","5","92061","NA","10243","84330","89853","3546","89790","89854","3552","85385","94066","94784","90858","94066","NA","Sternberg Task ","13","10904","13","yes","1024"
"100","100","833.7142857142857","833.7142857142857","black","experiment","legacy","legacy","legacy","0","uniform","1","undefined","1","right","13","13","0","13","13","0","0","13","0","0","13","13","13","13","0","Mon Oct 12 09:15:04 2020","The main experiment item","yes","SternbergTask.osexp","C:\Users\Owner","no","mono","no","18","no","white","no","yes","768","legacy","1","11","C:/Users/Owner/KJPsubject-1.csv","legacy","6 9 5","Lentiform Loewenfeld","3.3.3","0","n","yes","0","right","right","left","right","NA","768","6690","4404","768","NA","2","legacy","3","1024","2","48000","-16","experiment","1","odd","8","98108","NA","10243","94787","95899","3546","89790","95900","3552","85385","100112","100881","96904","100112","NA","Sternberg Task ","14","11672","14","yes","1024"
"100","100","835.7333333333333","835.7333333333333","black","experiment","legacy","legacy","legacy","0","uniform","1","undefined","1","right","14","14","0","14","14","0","0","14","0","0","14","14","14","14","0","Mon Oct 12 09:15:04 2020","The main experiment item","yes","SternbergTask.osexp","C:\Users\Owner","no","mono","no","18","no","white","no","yes","768","legacy","2","11","C:/Users/Owner/KJPsubject-1.csv","legacy","2 8 6 3 1","Lentiform Loewenfeld","3.3.3","0","n","yes","0","right","right","left","right","NA","864","6690","4404","864","NA","2","legacy","5","1024","2","48000","-16","experiment","1","odd","7","104201","NA","10243","100884","101994","3546","89790","101995","3552","85385","106202","107067","102997","106202","NA","Sternberg Task ","15","12536","15","yes","1024"
"100","100","823.875","823.875","black","experiment","legacy","legacy","legacy","0","uniform","1","undefined","1","left","15","15","0","15","15","0","0","15","0","0","15","15","15","15","0","Mon Oct 12 09:15:04 2020","The main experiment item","yes","SternbergTask.osexp","C:\Users\Owner","no","mono","no","18","no","white","no","yes","768","legacy","3","11","C:/Users/Owner/KJPsubject-1.csv","legacy","2 3 7 4","Lentiform Loewenfeld","3.3.3","1","y","yes","0","left","right","left","left","NA","646","6690","4404","646","NA","2","legacy","4","1024","2","48000","-16","experiment","1","odd","2","110386","NA","10243","107071","108179","3546","89790","108180","3552","85385","112391","113038","109182","112390","NA","Sternberg Task ","16","13182","16","yes","1024"
"100","100","828.2941176470588","828.2941176470588","black","experiment","legacy","legacy","legacy","0","uniform","1","undefined","1","left","16","16","0","16","16","0","0","16","0","0","16","16","16","16","0","Mon Oct 12 09:15:04 2020","The main experiment item","yes","SternbergTask.osexp","C:\Users\Owner","no","mono","no","18","no","white","no","yes","768","legacy","4","11","C:/Users/Owner/KJPsubject-1.csv","legacy","6 1 2","Lentiform Loewenfeld","3.3.3","3","y","yes","0","left","right","left","left","NA","899","6690","4404","899","NA","2","legacy","3","1024","2","48000","-16","experiment","1","odd","2","116329","NA","10243","113042","114124","3546","89790","114125","3552","85385","118334","119234","115126","118333","NA","Sternberg Task ","17","14081","17","yes","1024"
"100","100","847.1111111111111","847.1111111111111","black","experiment","legacy","legacy","legacy","0","uniform","1","undefined","1","right","17","17","0","17","17","0","0","17","0","0","17","17","17","17","0","Mon Oct 12 09:15:04 2020","The main experiment item","yes","SternbergTask.osexp","C:\Users\Owner","no","mono","no","18","no","white","no","yes","768","legacy","5","11","C:/Users/Owner/KJPsubject-1.csv","legacy","7 4 2 8 1 9","Lentiform Loewenfeld","3.3.3","0","n","yes","0","right","right","left","right","NA","1167","6690","4404","1167","NA","2","legacy","6","1024","2","48000","-16","experiment","1","odd","5","122555","NA","10243","119237","120345","3546","89790","120347","3552","85385","124559","125727","121351","124559","NA","Sternberg Task ","18","15248","18","yes","1024"
"100","100","863.3684210526316","863.3684210526316","black","experiment","legacy","legacy","legacy","0","uniform","1","undefined","1","right","18","18","0","18","18","0","0","18","0","0","18","18","18","18","0","Mon Oct 12 09:15:04 2020","The main experiment item","yes","SternbergTask.osexp","C:\Users\Owner","no","mono","no","18","no","white","no","yes","768","legacy","6","11","C:/Users/Owner/KJPsubject-1.csv","legacy","7 6 4 8 1 2","Lentiform Loewenfeld","3.3.3","0","n","yes","0","right","right","left","right","NA","1156","6690","4404","1156","NA","2","legacy","6","1024","2","48000","-16","experiment","1","odd","9","129052","NA","10243","125730","126843","3546","89790","126844","3552","85385","131053","132210","127848","131053","NA","Sternberg Task ","19","16404","19","yes","1024"
"100","100","865.65","865.65","black","experiment","legacy","legacy","legacy","0","uniform","1","undefined","1","right","19","19","0","19","19","0","0","19","0","0","19","19","19","19","0","Mon Oct 12 09:15:04 2020","The main experiment item","yes","SternbergTask.osexp","C:\Users\Owner","no","mono","no","18","no","white","no","yes","768","legacy","7","11","C:/Users/Owner/KJPsubject-1.csv","legacy","3 9 8 1 6 4","Lentiform Loewenfeld","3.3.3","0","n","yes","0","right","right","left","right","NA","909","6690","4404","909","NA","2","legacy","6","1024","2","48000","-16","experiment","1","odd","7","135533","NA","10243","132213","133324","3546","89790","133325","3552","85385","137537","138447","134329","137537","NA","Sternberg Task ","20","17313","20","yes","1024"
"100","100","870.6190476190476","870.6190476190476","black","experiment","legacy","legacy","legacy","0","uniform","1","undefined","1","right","20","20","0","20","20","0","0","20","0","0","20","20","20","20","0","Mon Oct 12 09:15:04 2020","The main experiment item","yes","SternbergTask.osexp","C:\Users\Owner","no","mono","no","18","no","white","no","yes","768","legacy","8","11","C:/Users/Owner/KJPsubject-1.csv","legacy","5 3 2 6 9 8","Lentiform Loewenfeld","3.3.3","0","n","yes","0","right","right","left","right","NA","970","6690","4404","970","NA","2","legacy","6","1024","2","48000","-16","experiment","1","odd","4","141776","NA","10243","138453","139567","3546","89790","139568","3552","85385","143777","144748","140572","143777","NA","Sternberg Task ","21","18283","21","yes","1024"
"100","100","855.0909090909091","855.0909090909091","black","experiment","legacy","legacy","legacy","0","uniform","1","undefined","1","left","21","21","0","21","21","0","0","21","0","0","21","21","21","21","0","Mon Oct 12 09:15:04 2020","The main experiment item","yes","SternbergTask.osexp","C:\Users\Owner","no","mono","no","18","no","white","no","yes","768","legacy","9","11","C:/Users/Owner/KJPsubject-1.csv","legacy","2 4 6 9","Lentiform Loewenfeld","3.3.3","3","y","yes","0","left","right","left","left","NA","529","6690","4404","529","NA","2","legacy","4","1024","2","48000","-16","experiment","1","odd","6","148076","NA","10243","144751","145866","3546","89790","145868","3552","85385","150080","150611","146872","150080","NA","Sternberg Task ","22","18812","22","yes","1024"
"100","100","842.6086956521739","842.6086956521739","black","experiment","legacy","legacy","legacy","0","uniform","1","undefined","1","left","22","22","0","22","22","0","0","22","0","0","22","22","22","22","0","Mon Oct 12 09:15:04 2020","The main experiment item","yes","SternbergTask.osexp","C:\Users\Owner","no","mono","no","18","no","white","no","yes","768","legacy","10","11","C:/Users/Owner/KJPsubject-1.csv","legacy","8 9 5 7 1 6","Lentiform Loewenfeld","3.3.3","4","y","yes","0","left","right","left","left","NA","568","6690","4404","568","NA","2","legacy","6","1024","2","48000","-16","experiment","1","odd","7","153939","NA","10243","150614","151729","3546","89790","151731","3552","85385","155943","156513","152735","155943","NA","Sternberg Task ","23","19380","23","yes","1024"
"100","100","854.25","854.25","black","experiment","legacy","legacy","legacy","0","uniform","1","undefined","1","right","23","23","0","23","23","0","0","23","0","0","23","23","23","23","0","Mon Oct 12 09:15:04 2020","The main experiment item","yes","SternbergTask.osexp","C:\Users\Owner","no","mono","no","18","no","white","no","yes","768","legacy","11","11","C:/Users/Owner/KJPsubject-1.csv","legacy","1 3 2 6 9","Lentiform Loewenfeld","3.3.3","0","n","yes","0","right","right","left","right","NA","1122","6690","4404","1122","NA","2","legacy","5","1024","2","48000","-16","experiment","1","odd","5","159832","NA","10243","156516","157623","3546","89790","157624","3552","85385","161833","162956","158628","161833","NA","Sternberg Task ","24","20502","24","yes","1024"
"100","100","843.6","843.6","black","experiment","legacy","legacy","legacy","0","uniform","1","undefined","1","left","24","24","0","24","24","0","0","24","0","0","24","24","24","24","0","Mon Oct 12 09:15:04 2020","The main experiment item","yes","SternbergTask.osexp","C:\Users\Owner","no","mono","no","18","no","white","no","yes","768","legacy","12","11","C:/Users/Owner/KJPsubject-1.csv","legacy","7 1 8 5 6 2","Lentiform Loewenfeld","3.3.3","2","y","yes","0","left","right","left","left","NA","588","6690","4404","588","NA","2","legacy","6","1024","2","48000","-16","experiment","1","odd","1","166315","NA","10243","162960","164106","3546","89790","164107","3552","85385","168316","168906","165111","168316","NA","Sternberg Task ","25","21090","25","yes","1024"
"100","100","844.1923076923077","844.1923076923077","black","experiment","legacy","legacy","legacy","0","uniform","1","undefined","1","left","25","25","0","25","25","0","0","25","0","0","25","25","25","25","0","Mon Oct 12 09:15:04 2020","The main experiment item","yes","SternbergTask.osexp","C:\Users\Owner","no","mono","no","18","no","white","no","yes","768","legacy","13","11","C:/Users/Owner/KJPsubject-1.csv","legacy","5 2 6","Lentiform Loewenfeld","3.3.3","2","y","yes","0","left","right","left","left","NA","859","6690","4404","859","NA","2","legacy","3","1024","2","48000","-16","experiment","1","odd","2","172225","NA","10243","168910","170016","3546","89790","170017","3552","85385","174229","175089","171021","174229","NA","Sternberg Task ","26","21949","26","yes","1024"
"96.29629629629629","96.29629629629629","852.3703703703703","852.3703703703703","black","experiment","legacy","legacy","legacy","0","uniform","0","undefined","0","right","26","26","0","26","26","0","0","26","0","0","26","26","26","26","0","Mon Oct 12 09:15:04 2020","The main experiment item","yes","SternbergTask.osexp","C:\Users\Owner","no","mono","no","18","no","white","no","yes","768","legacy","14","11","C:/Users/Owner/KJPsubject-1.csv","legacy","1 7 8 3 9","Lentiform Loewenfeld","3.3.3","0","n","yes","0","left","right","left","left","NA","1065","6690","4404","1065","NA","2","legacy","5","1024","2","48000","-16","experiment","1","odd","2","178405","NA","10243","175092","176196","3546","89790","176197","3552","85385","180410","181477","177201","180409","NA","Sternberg Task ","26","23014","27","yes","1024"
"96.42857142857143","96.42857142857143","842.5714285714286","842.5714285714286","black","experiment","legacy","legacy","legacy","0","uniform","1","undefined","1","left","27","27","0","27","27","0","0","27","0","0","27","27","27","27","0","Mon Oct 12 09:15:04 2020","The main experiment item","yes","SternbergTask.osexp","C:\Users\Owner","no","mono","no","18","no","white","no","yes","768","legacy","15","11","C:/Users/Owner/KJPsubject-1.csv","legacy","8 1 6","Lentiform Loewenfeld","3.3.3","3","y","yes","0","left","right","left","left","NA","578","6690","4404","578","NA","2","legacy","3","1024","2","48000","-16","experiment","1","odd","6","184797","181480","10243","175092","182587","3546","89790","182589","3552","85385","186801","187380","183593","186801","NA","Sternberg Task ","27","23592","28","yes","1024"
"96.55172413793103","96.55172413793103","830.9310344827586","830.9310344827586","black","experiment","legacy","legacy","legacy","0","uniform","1","undefined","1","right","28","28","0","28","28","0","0","28","0","0","28","28","28","28","0","Mon Oct 12 09:15:04 2020","The main experiment item","yes","SternbergTask.osexp","C:\Users\Owner","no","mono","no","18","no","white","no","yes","768","legacy","16","11","C:/Users/Owner/KJPsubject-1.csv","legacy","7 1","Lentiform Loewenfeld","3.3.3","0","n","yes","0","right","right","left","right","NA","505","6690","4404","505","NA","2","legacy","2","1024","2","48000","-16","experiment","1","odd","8","190654","181480","10243","187383","188445","3546","89790","188447","3552","85385","192658","193164","189450","192658","NA","Sternberg Task ","28","24097","29","yes","1024"
"96.66666666666667","96.66666666666667","821.5333333333333","821.5333333333333","black","experiment","legacy","legacy","legacy","0","uniform","1","undefined","1","right","29","29","0","29","29","0","0","29","0","0","29","29","29","29","0","Mon Oct 12 09:15:04 2020","The main experiment item","yes","SternbergTask.osexp","C:\Users\Owner","no","mono","no","18","no","white","no","yes","768","legacy","17","11","C:/Users/Owner/KJPsubject-1.csv","legacy","1 8 7","Lentiform Loewenfeld","3.3.3","0","n","yes","0","right","right","left","right","NA","549","6690","4404","549","NA","2","legacy","3","1024","2","48000","-16","experiment","1","odd","4","196481","181480","10243","193168","194272","3546","89790","194273","3552","85385","198485","199035","195277","198485","NA","Sternberg Task ","29","24646","30","yes","1024"
"96.7741935483871","96.7741935483871","819.2258064516129","819.2258064516129","black","experiment","legacy","legacy","legacy","0","uniform","1","undefined","1","right","30","30","0","30","30","0","0","30","0","0","30","30","30","30","0","Mon Oct 12 09:15:04 2020","The main experiment item","yes","SternbergTask.osexp","C:\Users\Owner","no","mono","no","18","no","white","no","yes","768","legacy","18","11","C:/Users/Owner/KJPsubject-1.csv","legacy","6 9 4 5 3 2","Lentiform Loewenfeld","3.3.3","0","n","yes","0","right","right","left","right","NA","750","6690","4404","750","NA","2","legacy","6","1024","2","48000","-16","experiment","1","odd","8","202350","181480","10243","199038","200143","3546","89790","200145","3552","85385","204354","205105","201149","204354","NA","Sternberg Task ","30","25396","31","yes","1024"
"96.875","96.875","814.78125","814.78125","black","experiment","legacy","legacy","legacy","0","uniform","1","undefined","1","left","31","31","0","31","31","0","0","31","0","0","31","31","31","31","0","Mon Oct 12 09:15:04 2020","The main experiment item","yes","SternbergTask.osexp","C:\Users\Owner","no","mono","no","18","no","white","no","yes","768","legacy","19","11","C:/Users/Owner/KJPsubject-1.csv","legacy","4 6 2 5 1","Lentiform Loewenfeld","3.3.3","5","y","yes","0","left","right","left","left","NA","677","6690","4404","677","NA","2","legacy","5","1024","2","48000","-16","experiment","1","odd","1","208428","181480","10243","205109","206218","3546","89790","206220","3552","85385","210432","211110","207224","210432","NA","Sternberg Task ","31","26073","32","yes","1024"
"96.96969696969697","96.96969696969697","809.4242424242424","809.4242424242424","black","experiment","legacy","legacy","legacy","0","uniform","1","undefined","1","left","32","32","0","32","32","0","0","32","0","0","32","32","32","32","0","Mon Oct 12 09:15:04 2020","The main experiment item","yes","SternbergTask.osexp","C:\Users\Owner","no","mono","no","18","no","white","no","yes","768","legacy","20","11","C:/Users/Owner/KJPsubject-1.csv","legacy","9 3 1 2 5","Lentiform Loewenfeld","3.3.3","4","y","yes","0","left","right","left","left","NA","638","6690","4404","638","NA","2","legacy","5","1024","2","48000","-16","experiment","1","odd","2","214428","181480","10243","211113","212218","3546","89790","212220","3552","85385","216432","217071","213224","216432","NA","Sternberg Task ","32","26711","33","yes","1024"
"97.05882352941177","97.05882352941177","800.8823529411765","800.8823529411765","black","experiment","legacy","legacy","legacy","0","uniform","1","undefined","1","left","33","33","0","33","33","0","0","33","0","0","33","33","33","33","0","Mon Oct 12 09:15:04 2020","The main experiment item","yes","SternbergTask.osexp","C:\Users\Owner","no","mono","no","18","no","white","no","yes","768","legacy","21","11","C:/Users/Owner/KJPsubject-1.csv","legacy","9 3 8 2 1 4","Lentiform Loewenfeld","3.3.3","3","y","yes","0","left","right","left","left","NA","519","6690","4404","519","NA","2","legacy","6","1024","2","48000","-16","experiment","1","odd","8","220396","181480","10243","217075","218188","3546","89790","218190","3552","85385","222401","222922","219192","222401","NA","Sternberg Task ","33","27230","34","yes","1024"
"97.14285714285714","97.14285714285714","801.8857142857142","801.8857142857142","black","experiment","legacy","legacy","legacy","0","uniform","1","undefined","1","right","34","34","0","34","34","0","0","34","0","0","34","34","34","34","0","Mon Oct 12 09:15:04 2020","The main experiment item","yes","SternbergTask.osexp","C:\Users\Owner","no","mono","no","18","no","white","no","yes","768","legacy","22","11","C:/Users/Owner/KJPsubject-1.csv","legacy","8 5 4 2 9 6","Lentiform Loewenfeld","3.3.3","0","n","yes","0","right","right","left","right","NA","836","6690","4404","836","NA","2","legacy","6","1024","2","48000","-16","experiment","1","odd","3","226209","181480","10243","222925","224000","3546","89790","224001","3552","85385","228213","229050","225005","228213","NA","Sternberg Task ","34","28066","35","yes","1024"
"97.22222222222223","97.22222222222223","804.8055555555555","804.8055555555555","black","experiment","legacy","legacy","legacy","0","uniform","1","undefined","1","right","35","35","0","35","35","0","0","35","0","0","35","35","35","35","0","Mon Oct 12 09:15:04 2020","The main experiment item","yes","SternbergTask.osexp","C:\Users\Owner","no","mono","no","18","no","white","no","yes","768","legacy","23","11","C:/Users/Owner/KJPsubject-1.csv","legacy","6 7 5 9","Lentiform Loewenfeld","3.3.3","0","n","yes","0","right","right","left","right","NA","907","6690","4404","907","NA","2","legacy","4","1024","2","48000","-16","experiment","1","odd","2","232329","181480","10243","229052","230121","3546","89790","230122","3552","85385","234330","235238","231125","234330","NA","Sternberg Task ","35","28973","36","yes","1024"
"97.29729729729729","97.29729729729729","800","800","black","experiment","legacy","legacy","legacy","0","uniform","1","undefined","1","right","36","36","0","36","36","0","0","36","0","0","36","36","36","36","0","Mon Oct 12 09:15:04 2020","The main experiment item","yes","SternbergTask.osexp","C:\Users\Owner","no","mono","no","18","no","white","no","yes","768","legacy","24","11","C:/Users/Owner/KJPsubject-1.csv","legacy","4 2 6 9","Lentiform Loewenfeld","3.3.3","0","n","yes","0","right","right","left","right","NA","627","6690","4404","627","NA","2","legacy","4","1024","2","48000","-16","experiment","1","odd","7","238582","181480","10243","235242","236376","3546","89790","236377","3552","85385","240587","241215","237381","240586","NA","Sternberg Task ","36","29600","37","yes","1024"
"97.36842105263158","97.36842105263158","797.3947368421053","797.3947368421053","black","experiment","legacy","legacy","legacy","0","uniform","1","undefined","1","right","37","37","0","37","37","0","0","37","0","0","37","37","37","37","0","Mon Oct 12 09:15:04 2020","The main experiment item","yes","SternbergTask.osexp","C:\Users\Owner","no","mono","no","18","no","white","no","yes","768","legacy","25","11","C:/Users/Owner/KJPsubject-1.csv","legacy","1 4 9 2 5","Lentiform Loewenfeld","3.3.3","0","n","yes","0","right","right","left","right","NA","701","6690","4404","701","NA","2","legacy","5","1024","2","48000","-16","experiment","1","odd","7","244537","181480","10243","241218","242327","3546","89790","242329","3552","85385","246541","247243","243333","246541","NA","Sternberg Task ","37","30301","38","yes","1024"
"97.43589743589743","97.43589743589743","791.4871794871794","791.4871794871794","black","experiment","legacy","legacy","legacy","0","uniform","1","undefined","1","left","38","38","0","38","38","0","0","38","0","0","38","38","38","38","0","Mon Oct 12 09:15:04 2020","The main experiment item","yes","SternbergTask.osexp","C:\Users\Owner","no","mono","no","18","no","white","no","yes","768","legacy","26","11","C:/Users/Owner/KJPsubject-1.csv","legacy","8 7 3","Lentiform Loewenfeld","3.3.3","1","y","yes","0","left","right","left","left","NA","567","6690","4404","567","NA","2","legacy","3","1024","2","48000","-16","experiment","1","odd","8","250568","181480","10243","247245","248358","3546","89790","248360","3552","85385","252572","253140","249364","252572","NA","Sternberg Task ","38","30868","39","yes","1024"
"97.5","97.5","789.475","789.475","black","experiment","legacy","legacy","legacy","0","uniform","1","undefined","1","left","39","39","0","39","39","0","0","39","0","0","39","39","39","39","0","Mon Oct 12 09:15:04 2020","The main experiment item","yes","SternbergTask.osexp","C:\Users\Owner","no","mono","no","18","no","white","no","yes","768","legacy","27","11","C:/Users/Owner/KJPsubject-1.csv","legacy","6 7 8 5","Lentiform Loewenfeld","3.3.3","3","y","yes","0","left","right","left","left","NA","711","6690","4404","711","NA","2","legacy","4","1024","2","48000","-16","experiment","1","odd","8","256458","181480","10243","253143","254249","3546","89790","254250","3552","85385","258462","259174","255254","258462","NA","Sternberg Task ","39","31579","40","yes","1024"
"97.5609756097561","97.5609756097561","782","782","black","experiment","legacy","legacy","legacy","0","uniform","1","undefined","1","right","40","40","0","40","40","0","0","40","0","0","40","40","40","40","0","Mon Oct 12 09:15:04 2020","The main experiment item","yes","SternbergTask.osexp","C:\Users\Owner","no","mono","no","18","no","white","no","yes","768","legacy","28","11","C:/Users/Owner/KJPsubject-1.csv","legacy","3 9 1","Lentiform Loewenfeld","3.3.3","0","n","yes","0","right","right","left","right","NA","483","6690","4404","483","NA","2","legacy","3","1024","2","48000","-16","experiment","1","odd","7","262493","181480","10243","259178","260283","3546","89790","260285","3552","85385","264498","264982","261289","264498","NA","Sternberg Task ","40","32062","41","yes","1024"
"97.61904761904762","97.61904761904762","783.0238095238095","783.0238095238095","black","experiment","legacy","legacy","legacy","0","uniform","1","undefined","1","right","41","41","0","41","41","0","0","41","0","0","41","41","41","41","0","Mon Oct 12 09:15:04 2020","The main experiment item","yes","SternbergTask.osexp","C:\Users\Owner","no","mono","no","18","no","white","no","yes","768","legacy","29","11","C:/Users/Owner/KJPsubject-1.csv","legacy","2 8 7 9 5 3","Lentiform Loewenfeld","3.3.3","0","n","yes","0","right","right","left","right","NA","825","6690","4404","825","NA","2","legacy","6","1024","2","48000","-16","experiment","1","odd","6","268303","181480","10243","264985","266093","3546","89790","266095","3552","85385","270307","271134","267099","270307","NA","Sternberg Task ","41","32887","42","yes","1024"
"97.67441860465117","97.67441860465117","778.5116279069767","778.5116279069767","black","experiment","legacy","legacy","legacy","0","uniform","1","undefined","1","left","42","42","0","42","42","0","0","42","0","0","42","42","42","42","0","Mon Oct 12 09:15:04 2020","The main experiment item","yes","SternbergTask.osexp","C:\Users\Owner","no","mono","no","18","no","white","no","yes","768","legacy","30","11","C:/Users/Owner/KJPsubject-1.csv","legacy","4 6 5 8","Lentiform Loewenfeld","3.3.3","1","y","yes","0","left","right","left","left","NA","589","6690","4404","589","NA","2","legacy","4","1024","2","48000","-16","experiment","1","odd","4","274462","181480","10243","271137","272252","3546","89790","272253","3552","85385","276463","277053","273258","276463","NA","Sternberg Task ","42","33476","43","yes","1024"
"97.72727272727273","97.72727272727273","775.5909090909091","775.5909090909091","black","experiment","legacy","legacy","legacy","0","uniform","1","undefined","1","left","43","43","0","43","43","0","0","43","0","0","43","43","43","43","0","Mon Oct 12 09:15:04 2020","The main experiment item","yes","SternbergTask.osexp","C:\Users\Owner","no","mono","no","18","no","white","no","yes","768","legacy","31","11","C:/Users/Owner/KJPsubject-1.csv","legacy","2 4 8 5 1 3","Lentiform Loewenfeld","3.3.3","1","y","yes","0","left","right","left","left","NA","650","6690","4404","650","NA","2","legacy","6","1024","2","48000","-16","experiment","1","odd","2","280324","181480","10243","277057","278118","3546","89790","278119","3552","85385","282326","282977","279120","282326","NA","Sternberg Task ","43","34126","44","yes","1024"
"97.77777777777777","97.77777777777777","776.6444444444444","776.6444444444444","black","experiment","legacy","legacy","legacy","0","uniform","1","undefined","1","right","44","44","0","44","44","0","0","44","0","0","44","44","44","44","0","Mon Oct 12 09:15:04 2020","The main experiment item","yes","SternbergTask.osexp","C:\Users\Owner","no","mono","no","18","no","white","no","yes","768","legacy","32","11","C:/Users/Owner/KJPsubject-1.csv","legacy","6 3 1 7 9 8","Lentiform Loewenfeld","3.3.3","0","n","yes","0","right","right","left","right","NA","823","6690","4404","823","NA","2","legacy","6","1024","2","48000","-16","experiment","1","odd","4","286296","181480","10243","282981","284087","3546","89790","284088","3552","85385","288301","289126","285092","288301","NA","Sternberg Task ","44","34949","45","yes","1024"
"97.82608695652173","97.82608695652173","775.7391304347826","775.7391304347826","black","experiment","legacy","legacy","legacy","0","uniform","1","undefined","1","right","45","45","0","45","45","0","0","45","0","0","45","45","45","45","0","Mon Oct 12 09:15:04 2020","The main experiment item","yes","SternbergTask.osexp","C:\Users\Owner","no","mono","no","18","no","white","no","yes","768","legacy","33","11","C:/Users/Owner/KJPsubject-1.csv","legacy","6 9 4 5 2","Lentiform Loewenfeld","3.3.3","0","n","yes","0","right","right","left","right","NA","735","6690","4404","735","NA","2","legacy","5","1024","2","48000","-16","experiment","1","odd","1","292447","181480","10243","289129","290237","3546","89790","290238","3552","85385","294451","295187","291242","294451","NA","Sternberg Task ","45","35684","46","yes","1024"
"97.87234042553192","97.87234042553192","771.8297872340426","771.8297872340426","black","experiment","legacy","legacy","legacy","0","uniform","1","undefined","1","right","46","46","0","46","46","0","0","46","0","0","46","46","46","46","0","Mon Oct 12 09:15:04 2020","The main experiment item","yes","SternbergTask.osexp","C:\Users\Owner","no","mono","no","18","no","white","no","yes","768","legacy","34","11","C:/Users/Owner/KJPsubject-1.csv","legacy","6 8","Lentiform Loewenfeld","3.3.3","0","n","yes","0","right","right","left","right","NA","592","6690","4404","592","NA","2","legacy","2","1024","2","48000","-16","experiment","1","odd","9","298489","181480","10243","295189","296280","3546","89790","296281","3552","85385","300493","301086","297285","300493","NA","Sternberg Task ","46","36276","47","yes","1024"
"97.91666666666667","97.91666666666667","768.2291666666666","768.2291666666666","black","experiment","legacy","legacy","legacy","0","uniform","1","undefined","1","left","47","47","0","47","47","0","0","47","0","0","47","47","47","47","0","Mon Oct 12 09:15:04 2020","The main experiment item","yes","SternbergTask.osexp","C:\Users\Owner","no","mono","no","18","no","white","no","yes","768","legacy","35","11","C:/Users/Owner/KJPsubject-1.csv","legacy","3 4","Lentiform Loewenfeld","3.3.3","1","y","yes","0","left","right","left","left","NA","599","6690","4404","599","NA","2","legacy","2","1024","2","48000","-16","experiment","1","odd","3","304408","181480","10243","301090","302199","3546","89790","302200","3552","85385","306412","307012","303204","306412","NA","Sternberg Task ","47","36875","48","yes","1024"
"97.95918367346938","97.95918367346938","766.0816326530612","766.0816326530612","black","experiment","legacy","legacy","legacy","0","uniform","1","undefined","1","right","48","48","0","48","48","0","0","48","0","0","48","48","48","48","0","Mon Oct 12 09:15:04 2020","The main experiment item","yes","SternbergTask.osexp","C:\Users\Owner","no","mono","no","18","no","white","no","yes","768","legacy","36","11","C:/Users/Owner/KJPsubject-1.csv","legacy","7 1 5 6 3","Lentiform Loewenfeld","3.3.3","0","n","yes","0","right","right","left","right","NA","663","6690","4404","663","NA","2","legacy","5","1024","2","48000","-16","experiment","1","odd","8","310280","181480","10243","307014","308074","3546","89790","308075","3552","85385","312281","312945","309076","312281","NA","Sternberg Task ","48","37538","49","yes","1024"
"98","98","771.8","771.8","black","experiment","legacy","legacy","legacy","0","uniform","1","undefined","1","left","49","49","0","49","49","0","0","49","0","0","49","49","49","49","0","Mon Oct 12 09:15:04 2020","The main experiment item","yes","SternbergTask.osexp","C:\Users\Owner","no","mono","no","18","no","white","no","yes","768","legacy","37","11","C:/Users/Owner/KJPsubject-1.csv","legacy","8 9 6 1","Lentiform Loewenfeld","3.3.3","2","y","yes","0","left","right","left","left","NA","1052","6690","4404","1052","NA","2","legacy","4","1024","2","48000","-16","experiment","1","odd","9","316265","181480","10243","312949","314056","3546","89790","314057","3552","85385","318269","319322","315061","318269","NA","Sternberg Task ","49","38590","50","yes","1024"
"96.07843137254902","96.07843137254902","772.9215686274509","772.9215686274509","black","experiment","legacy","legacy","legacy","0","uniform","0","undefined","0","left","50","50","0","50","50","0","0","50","0","0","50","50","50","50","0","Mon Oct 12 09:15:04 2020","The main experiment item","yes","SternbergTask.osexp","C:\Users\Owner","no","mono","no","18","no","white","no","yes","768","legacy","38","11","C:/Users/Owner/KJPsubject-1.csv","legacy","7 4 2 6 3 5","Lentiform Loewenfeld","3.3.3","6","y","yes","0","right","right","left","right","NA","829","6690","4404","829","NA","2","legacy","6","1024","2","48000","-16","experiment","1","odd","5","322645","181480","10243","319326","320436","3546","89790","320437","3552","85385","324649","325478","321441","324648","NA","Sternberg Task ","49","39419","51","yes","1024"
"96.15384615384616","96.15384615384616","772.6923076923077","772.6923076923077","black","experiment","legacy","legacy","legacy","0","uniform","1","undefined","1","right","51","51","0","51","51","0","0","51","0","0","51","51","51","51","0","Mon Oct 12 09:15:04 2020","The main experiment item","yes","SternbergTask.osexp","C:\Users\Owner","no","mono","no","18","no","white","no","yes","768","legacy","39","11","C:/Users/Owner/KJPsubject-1.csv","legacy","1 7 5 2 9","Lentiform Loewenfeld","3.3.3","0","n","yes","0","right","right","left","right","NA","761","6690","4404","761","NA","2","legacy","5","1024","2","48000","-16","experiment","1","odd","3","328792","325482","10243","319326","326583","3546","89790","326584","3552","85385","330796","331557","327588","330796","NA","Sternberg Task ","50","40180","52","yes","1024"
"96.22641509433963","96.22641509433963","769.377358490566","769.377358490566","black","experiment","legacy","legacy","legacy","0","uniform","1","undefined","1","left","52","52","0","52","52","0","0","52","0","0","52","52","52","52","0","Mon Oct 12 09:15:04 2020","The main experiment item","yes","SternbergTask.osexp","C:\Users\Owner","no","mono","no","18","no","white","no","yes","768","legacy","40","11","C:/Users/Owner/KJPsubject-1.csv","legacy","3 5 9 6 2 4","Lentiform Loewenfeld","3.3.3","1","y","yes","0","left","right","left","left","NA","597","6690","4404","597","NA","2","legacy","6","1024","2","48000","-16","experiment","1","odd","3","334877","325482","10243","331558","332669","3546","89790","332670","3552","85385","336882","337480","333673","336882","NA","Sternberg Task ","51","40777","53","yes","1024"
"96.29629629629629","96.29629629629629","772.8518518518518","772.8518518518518","black","experiment","legacy","legacy","legacy","0","uniform","1","undefined","1","right","53","53","0","53","53","0","0","53","0","0","53","53","53","53","0","Mon Oct 12 09:15:04 2020","The main experiment item","yes","SternbergTask.osexp","C:\Users\Owner","no","mono","no","18","no","white","no","yes","768","legacy","41","11","C:/Users/Owner/KJPsubject-1.csv","legacy","3 4 9 6 7 8","Lentiform Loewenfeld","3.3.3","0","n","yes","0","right","right","left","right","NA","957","6690","4404","957","NA","2","legacy","6","1024","2","48000","-16","experiment","1","odd","2","340795","325482","10243","337483","338586","3546","89790","338587","3552","85385","342796","343754","339591","342796","NA","Sternberg Task ","52","41734","54","yes","1024"
"96.36363636363636","96.36363636363636","776.8909090909091","776.8909090909091","black","experiment","legacy","legacy","legacy","0","uniform","1","undefined","1","right","54","54","0","54","54","0","0","54","0","0","54","54","54","54","0","Mon Oct 12 09:15:04 2020","The main experiment item","yes","SternbergTask.osexp","C:\Users\Owner","no","mono","no","18","no","white","no","yes","768","legacy","42","11","C:/Users/Owner/KJPsubject-1.csv","legacy","1 6 4 3 9 7","Lentiform Loewenfeld","3.3.3","0","n","yes","0","right","right","left","right","NA","995","6690","4404","995","NA","2","legacy","6","1024","2","48000","-16","experiment","1","odd","8","347070","325482","10243","343757","344861","3546","89790","344862","3552","85385","349074","350069","345866","349074","NA","Sternberg Task ","53","42729","55","yes","1024"
"96.42857142857143","96.42857142857143","772.3571428571429","772.3571428571429","black","experiment","legacy","legacy","legacy","0","uniform","1","undefined","1","left","55","55","0","55","55","0","0","55","0","0","55","55","55","55","0","Mon Oct 12 09:15:04 2020","The main experiment item","yes","SternbergTask.osexp","C:\Users\Owner","no","mono","no","18","no","white","no","yes","768","legacy","43","11","C:/Users/Owner/KJPsubject-1.csv","legacy","2 3","Lentiform Loewenfeld","3.3.3","1","y","yes","0","left","right","left","left","NA","523","6690","4404","523","NA","2","legacy","2","1024","2","48000","-16","experiment","1","odd","2","353383","325482","10243","350073","351173","3546","89790","351175","3552","85385","355387","355911","352179","355387","NA","Sternberg Task ","54","43252","56","yes","1024"
"96.49122807017544","96.49122807017544","770.7017543859649","770.7017543859649","black","experiment","legacy","legacy","legacy","0","uniform","1","undefined","1","right","56","56","0","56","56","0","0","56","0","0","56","56","56","56","0","Mon Oct 12 09:15:04 2020","The main experiment item","yes","SternbergTask.osexp","C:\Users\Owner","no","mono","no","18","no","white","no","yes","768","legacy","44","11","C:/Users/Owner/KJPsubject-1.csv","legacy","9 5 3 2 8 6","Lentiform Loewenfeld","3.3.3","0","n","yes","0","right","right","left","right","NA","678","6690","4404","678","NA","2","legacy","6","1024","2","48000","-16","experiment","1","odd","7","359241","325482","10243","355914","357031","3546","89790","357033","3552","85385","361245","361924","358037","361245","NA","Sternberg Task ","55","43930","57","yes","1024"
"96.55172413793103","96.55172413793103","767.6724137931035","767.6724137931035","black","experiment","legacy","legacy","legacy","0","uniform","1","undefined","1","right","57","57","0","57","57","0","0","57","0","0","57","57","57","57","0","Mon Oct 12 09:15:04 2020","The main experiment item","yes","SternbergTask.osexp","C:\Users\Owner","no","mono","no","18","no","white","no","yes","768","legacy","45","11","C:/Users/Owner/KJPsubject-1.csv","legacy","1","Lentiform Loewenfeld","3.3.3","0","n","yes","0","right","right","left","right","NA","595","6690","4404","595","NA","2","legacy","1","1024","2","48000","-16","experiment","1","odd","7","365247","325482","10243","361929","363037","3546","89790","363039","3552","85385","367251","367848","364043","367251","NA","Sternberg Task ","56","44525","58","yes","1024"
"96.61016949152543","96.61016949152543","769.2372881355932","769.2372881355932","black","experiment","legacy","legacy","legacy","0","uniform","1","undefined","1","left","58","58","0","58","58","0","0","58","0","0","58","58","58","58","0","Mon Oct 12 09:15:04 2020","The main experiment item","yes","SternbergTask.osexp","C:\Users\Owner","no","mono","no","18","no","white","no","yes","768","legacy","46","11","C:/Users/Owner/KJPsubject-1.csv","legacy","9 1 6 7 8","Lentiform Loewenfeld","3.3.3","1","y","yes","0","left","right","left","left","NA","860","6690","4404","860","NA","2","legacy","5","1024","2","48000","-16","experiment","1","odd","9","371171","325482","10243","367851","368962","3546","89790","368963","3552","85385","373175","374036","369967","373175","NA","Sternberg Task ","57","45385","59","yes","1024"
"96.66666666666667","96.66666666666667","768.1","768.1","black","experiment","legacy","legacy","legacy","0","uniform","1","undefined","1","right","59","59","0","59","59","0","0","59","0","0","59","59","59","59","0","Mon Oct 12 09:15:04 2020","The main experiment item","yes","SternbergTask.osexp","C:\Users\Owner","no","mono","no","18","no","white","no","yes","768","legacy","47","11","C:/Users/Owner/KJPsubject-1.csv","legacy","7 9","Lentiform Loewenfeld","3.3.3","0","n","yes","0","right","right","left","right","NA","701","6690","4404","701","NA","2","legacy","2","1024","2","48000","-16","experiment","1","odd","1","377361","325482","10243","374040","375151","3546","89790","375153","3552","85385","379365","380068","376157","379365","NA","Sternberg Task ","58","46086","60","yes","1024"
"96.72131147540983","96.72131147540983","770.1475409836065","770.1475409836065","black","experiment","legacy","legacy","legacy","0","uniform","1","undefined","1","right","60","60","0","60","60","0","0","60","0","0","60","60","60","60","0","Mon Oct 12 09:15:04 2020","The main experiment item","yes","SternbergTask.osexp","C:\Users\Owner","no","mono","no","18","no","white","no","yes","768","legacy","48","11","C:/Users/Owner/KJPsubject-1.csv","legacy","1 5 3 2 8","Lentiform Loewenfeld","3.3.3","0","n","yes","0","right","right","left","right","NA","893","6690","4404","893","NA","2","legacy","5","1024","2","48000","-16","experiment","1","odd","4","383395","325482","10243","380072","381186","3546","89790","381187","3552","85385","385399","386294","382191","385399","NA","Sternberg Task ","59","46979","61","yes","1024"
"96.7741935483871","96.7741935483871","773.5967741935484","773.5967741935484","black","experiment","legacy","legacy","legacy","0","uniform","1","undefined","1","left","61","61","0","61","61","0","0","61","0","0","61","61","61","61","0","Mon Oct 12 09:15:04 2020","The main experiment item","yes","SternbergTask.osexp","C:\Users\Owner","no","mono","no","18","no","white","no","yes","768","legacy","49","11","C:/Users/Owner/KJPsubject-1.csv","legacy","7 6","Lentiform Loewenfeld","3.3.3","2","y","yes","0","left","right","left","left","NA","984","6690","4404","984","NA","2","legacy","2","1024","2","48000","-16","experiment","1","odd","6","389616","325482","10243","386297","387408","3546","89790","387409","3552","85385","391621","392606","388413","391621","NA","Sternberg Task ","60","47963","62","yes","1024"
"96.82539682539682","96.82539682539682","773.7619047619048","773.7619047619048","black","experiment","legacy","legacy","legacy","0","uniform","1","undefined","1","right","62","62","0","62","62","0","0","62","0","0","62","62","62","62","0","Mon Oct 12 09:15:04 2020","The main experiment item","yes","SternbergTask.osexp","C:\Users\Owner","no","mono","no","18","no","white","no","yes","768","legacy","50","11","C:/Users/Owner/KJPsubject-1.csv","legacy","7 8 6 1","Lentiform Loewenfeld","3.3.3","0","n","yes","0","right","right","left","right","NA","784","6690","4404","784","NA","2","legacy","4","1024","2","48000","-16","experiment","1","odd","3","395919","325482","10243","392610","393709","3546","89790","393711","3552","85385","397923","398708","394715","397923","NA","Sternberg Task ","61","48747","63","yes","1024"
"96.875","96.875","770.328125","770.328125","black","experiment","legacy","legacy","legacy","0","uniform","1","undefined","1","right","63","63","0","63","63","0","0","63","0","0","63","63","63","63","0","Mon Oct 12 09:15:04 2020","The main experiment item","yes","SternbergTask.osexp","C:\Users\Owner","no","mono","no","18","no","white","no","yes","768","legacy","51","11","C:/Users/Owner/KJPsubject-1.csv","legacy","9","Lentiform Loewenfeld","3.3.3","0","n","yes","0","right","right","left","right","NA","554","6690","4404","554","NA","2","legacy","1","1024","2","48000","-16","experiment","1","odd","6","402022","325482","10243","398711","399813","3546","89790","399814","3552","85385","404027","404582","400818","404026","NA","Sternberg Task ","62","49301","64","yes","1024"
"96.92307692307692","96.92307692307692","769.9230769230769","769.9230769230769","black","experiment","legacy","legacy","legacy","0","uniform","1","undefined","1","right","64","64","0","64","64","0","0","64","0","0","64","64","64","64","0","Mon Oct 12 09:15:04 2020","The main experiment item","yes","SternbergTask.osexp","C:\Users\Owner","no","mono","no","18","no","white","no","yes","768","legacy","52","11","C:/Users/Owner/KJPsubject-1.csv","legacy","6 2 9 3 8 4","Lentiform Loewenfeld","3.3.3","0","n","yes","0","right","right","left","right","NA","744","6690","4404","744","NA","2","legacy","6","1024","2","48000","-16","experiment","1","odd","1","407901","325482","10243","404586","405691","3546","89790","405692","3552","85385","409905","410650","406697","409905","NA","Sternberg Task ","63","50045","65","yes","1024"
"96.96969696969697","96.96969696969697","776.1060606060606","776.1060606060606","black","experiment","legacy","legacy","legacy","0","uniform","1","undefined","1","right","65","65","0","65","65","0","0","65","0","0","65","65","65","65","0","Mon Oct 12 09:15:04 2020","The main experiment item","yes","SternbergTask.osexp","C:\Users\Owner","no","mono","no","18","no","white","no","yes","768","legacy","53","11","C:/Users/Owner/KJPsubject-1.csv","legacy","2 3 8 5 6 7","Lentiform Loewenfeld","3.3.3","0","n","yes","0","right","right","left","right","NA","1178","6690","4404","1178","NA","2","legacy","6","1024","2","48000","-16","experiment","1","odd","1","413972","325482","10243","410653","411763","3546","89790","411764","3552","85385","415976","417155","412768","415976","NA","Sternberg Task ","64","51223","66","yes","1024"
"95.5223880597015","95.5223880597015","778.8656716417911","778.8656716417911","black","experiment","legacy","legacy","legacy","0","uniform","0","undefined","0","left","66","66","0","66","66","0","0","66","0","0","66","66","66","66","0","Mon Oct 12 09:15:04 2020","The main experiment item","yes","SternbergTask.osexp","C:\Users\Owner","no","mono","no","18","no","white","no","yes","768","legacy","54","11","C:/Users/Owner/KJPsubject-1.csv","legacy","4 7 6 8 2 3","Lentiform Loewenfeld","3.3.3","6","y","yes","0","right","right","left","right","NA","961","6690","4404","961","NA","2","legacy","6","1024","2","48000","-16","experiment","1","odd","3","420480","325482","10243","417157","418270","3546","89790","418272","3552","85385","422484","423447","419276","422484","NA","Sternberg Task ","64","52184","67","yes","1024"
"95.58823529411765","95.58823529411765","777.7205882352941","777.7205882352941","black","experiment","legacy","legacy","legacy","0","uniform","1","undefined","1","left","67","67","0","67","67","0","0","67","0","0","67","67","67","67","0","Mon Oct 12 09:15:04 2020","The main experiment item","yes","SternbergTask.osexp","C:\Users\Owner","no","mono","no","18","no","white","no","yes","768","legacy","55","11","C:/Users/Owner/KJPsubject-1.csv","legacy","4","Lentiform Loewenfeld","3.3.3","1","y","yes","0","left","right","left","left","NA","701","6690","4404","701","NA","2","legacy","1","1024","2","48000","-16","experiment","1","odd","4","426770","423450","10243","417157","424561","3546","89790","424562","3552","85385","428774","429477","425566","428774","NA","Sternberg Task ","65","52885","68","yes","1024"
"95.65217391304348","95.65217391304348","776.8840579710145","776.8840579710145","black","experiment","legacy","legacy","legacy","0","uniform","1","undefined","1","right","68","68","0","68","68","0","0","68","0","0","68","68","68","68","0","Mon Oct 12 09:15:04 2020","The main experiment item","yes","SternbergTask.osexp","C:\Users\Owner","no","mono","no","18","no","white","no","yes","768","legacy","56","11","C:/Users/Owner/KJPsubject-1.csv","legacy","5 9 2 3","Lentiform Loewenfeld","3.3.3","0","n","yes","0","right","right","left","right","NA","720","6690","4404","720","NA","2","legacy","4","1024","2","48000","-16","experiment","1","odd","8","432797","423450","10243","429480","430590","3546","89790","430592","3552","85385","434801","435522","431596","434801","NA","Sternberg Task ","66","53605","69","yes","1024"
"95.71428571428571","95.71428571428571","776.3285714285714","776.3285714285714","black","experiment","legacy","legacy","legacy","0","uniform","1","undefined","1","left","69","69","0","69","69","0","0","69","0","0","69","69","69","69","0","Mon Oct 12 09:15:04 2020","The main experiment item","yes","SternbergTask.osexp","C:\Users\Owner","no","mono","no","18","no","white","no","yes","768","legacy","57","11","C:/Users/Owner/KJPsubject-1.csv","legacy","3 5 4 7","Lentiform Loewenfeld","3.3.3","1","y","yes","0","left","right","left","left","NA","738","6690","4404","738","NA","2","legacy","4","1024","2","48000","-16","experiment","1","odd","3","438838","423450","10243","435526","436628","3546","89790","436630","3552","85385","440842","441581","437634","440842","NA","Sternberg Task ","67","54343","70","yes","1024"
"95.77464788732394","95.77464788732394","775.6901408450705","775.6901408450705","black","experiment","legacy","legacy","legacy","0","uniform","1","undefined","1","left","70","70","0","70","70","0","0","70","0","0","70","70","70","70","0","Mon Oct 12 09:15:04 2020","The main experiment item","yes","SternbergTask.osexp","C:\Users\Owner","no","mono","no","18","no","white","no","yes","768","legacy","58","11","C:/Users/Owner/KJPsubject-1.csv","legacy","7 8 4 6 9 5","Lentiform Loewenfeld","3.3.3","4","y","yes","0","left","right","left","left","NA","731","6690","4404","731","NA","2","legacy","6","1024","2","48000","-16","experiment","1","odd","6","444899","423450","10243","441584","442691","3546","89790","442692","3552","85385","446903","447635","443695","446903","NA","Sternberg Task ","68","55074","71","yes","1024"
"95.83333333333333","95.83333333333333","782.3472222222222","782.3472222222222","black","experiment","legacy","legacy","legacy","0","uniform","1","undefined","1","left","71","71","0","71","71","0","0","71","0","0","71","71","71","71","0","Mon Oct 12 09:15:04 2020","The main experiment item","yes","SternbergTask.osexp","C:\Users\Owner","no","mono","no","18","no","white","no","yes","768","legacy","59","11","C:/Users/Owner/KJPsubject-1.csv","legacy","4 1 8 7 5","Lentiform Loewenfeld","3.3.3","3","y","yes","0","left","right","left","left","NA","1255","6690","4404","1255","NA","2","legacy","5","1024","2","48000","-16","experiment","1","odd","8","450954","423450","10243","447638","448744","3546","89790","448745","3552","85385","452958","454215","449749","452958","NA","Sternberg Task ","69","56329","72","yes","1024"
"95.89041095890411","95.89041095890411","780.8082191780821","780.8082191780821","black","experiment","legacy","legacy","legacy","0","uniform","1","undefined","1","left","72","72","0","72","72","0","0","72","0","0","72","72","72","72","0","Mon Oct 12 09:15:04 2020","The main experiment item","yes","SternbergTask.osexp","C:\Users\Owner","no","mono","no","18","no","white","no","yes","768","legacy","60","11","C:/Users/Owner/KJPsubject-1.csv","legacy","7 2 3","Lentiform Loewenfeld","3.3.3","3","y","yes","0","left","right","left","left","NA","670","6690","4404","670","NA","2","legacy","3","1024","2","48000","-16","experiment","1","odd","3","457537","423450","10243","454218","455331","3546","89790","455332","3552","85385","459541","460212","456336","459541","NA","Sternberg Task ","70","56999","73","yes","1024"
"95.94594594594595","95.94594594594595","781.3243243243244","781.3243243243244","black","experiment","legacy","legacy","legacy","0","uniform","1","undefined","1","left","73","73","0","73","73","0","0","73","0","0","73","73","73","73","0","Mon Oct 12 09:15:04 2020","The main experiment item","yes","SternbergTask.osexp","C:\Users\Owner","no","mono","no","18","no","white","no","yes","768","legacy","61","11","C:/Users/Owner/KJPsubject-1.csv","legacy","5 2 9 6 1 7","Lentiform Loewenfeld","3.3.3","3","y","yes","0","left","right","left","left","NA","819","6690","4404","819","NA","2","legacy","6","1024","2","48000","-16","experiment","1","odd","9","463528","423450","10243","460215","461318","3546","89790","461319","3552","85385","465532","466352","462323","465531","NA","Sternberg Task ","71","57818","74","yes","1024"
"96","96","778.76","778.76","black","experiment","legacy","legacy","legacy","0","uniform","1","undefined","1","right","74","74","0","74","74","0","0","74","0","0","74","74","74","74","0","Mon Oct 12 09:15:04 2020","The main experiment item","yes","SternbergTask.osexp","C:\Users\Owner","no","mono","no","18","no","white","no","yes","768","legacy","62","11","C:/Users/Owner/KJPsubject-1.csv","legacy","1 4 3 6 5","Lentiform Loewenfeld","3.3.3","0","n","yes","0","right","right","left","right","NA","589","6690","4404","589","NA","2","legacy","5","1024","2","48000","-16","experiment","1","odd","8","469677","423450","10243","466355","467468","3546","89790","467469","3552","85385","471681","472272","468473","471681","NA","Sternberg Task ","72","58407","75","yes","1024"
"96.05263157894737","96.05263157894737","778.9078947368421","778.9078947368421","black","experiment","legacy","legacy","legacy","0","uniform","1","undefined","1","right","75","75","0","75","75","0","0","75","0","0","75","75","75","75","0","Mon Oct 12 09:15:04 2020","The main experiment item","yes","SternbergTask.osexp","C:\Users\Owner","no","mono","no","18","no","white","no","yes","768","legacy","63","11","C:/Users/Owner/KJPsubject-1.csv","legacy","7 1 8 4 9 3","Lentiform Loewenfeld","3.3.3","0","n","yes","0","right","right","left","right","NA","790","6690","4404","790","NA","2","legacy","6","1024","2","48000","-16","experiment","1","odd","6","475585","423450","10243","472275","473373","3546","89790","473375","3552","85385","477590","478382","474380","477589","NA","Sternberg Task ","73","59197","76","yes","1024"
"96.1038961038961","96.1038961038961","776.6363636363636","776.6363636363636","black","experiment","legacy","legacy","legacy","0","uniform","1","undefined","1","right","76","76","0","76","76","0","0","76","0","0","76","76","76","76","0","Mon Oct 12 09:15:04 2020","The main experiment item","yes","SternbergTask.osexp","C:\Users\Owner","no","mono","no","18","no","white","no","yes","768","legacy","64","11","C:/Users/Owner/KJPsubject-1.csv","legacy","1 7 5 2","Lentiform Loewenfeld","3.3.3","0","n","yes","0","right","right","left","right","NA","604","6690","4404","604","NA","2","legacy","4","1024","2","48000","-16","experiment","1","odd","3","481706","423450","10243","478385","479496","3546","89790","479498","3552","85385","483710","484315","480502","483710","NA","Sternberg Task ","74","59801","77","yes","1024"
"96.15384615384616","96.15384615384616","774.2307692307693","774.2307692307693","black","experiment","legacy","legacy","legacy","0","uniform","1","undefined","1","right","77","77","0","77","77","0","0","77","0","0","77","77","77","77","0","Mon Oct 12 09:15:04 2020","The main experiment item","yes","SternbergTask.osexp","C:\Users\Owner","no","mono","no","18","no","white","no","yes","768","legacy","65","11","C:/Users/Owner/KJPsubject-1.csv","legacy","2 8 9","Lentiform Loewenfeld","3.3.3","0","n","yes","0","right","right","left","right","NA","589","6690","4404","589","NA","2","legacy","3","1024","2","48000","-16","experiment","1","odd","6","487632","423450","10243","484319","485423","3546","89790","485425","3552","85385","489637","490227","486429","489637","NA","Sternberg Task ","75","60390","78","yes","1024"
"96.20253164556962","96.20253164556962","776.9873417721519","776.9873417721519","black","experiment","legacy","legacy","legacy","0","uniform","1","undefined","1","left","78","78","0","78","78","0","0","78","0","0","78","78","78","78","0","Mon Oct 12 09:15:04 2020","The main experiment item","yes","SternbergTask.osexp","C:\Users\Owner","no","mono","no","18","no","white","no","yes","768","legacy","66","11","C:/Users/Owner/KJPsubject-1.csv","legacy","3 9 6 2","Lentiform Loewenfeld","3.3.3","4","y","yes","0","left","right","left","left","NA","992","6690","4404","992","NA","2","legacy","4","1024","2","48000","-16","experiment","1","odd","2","493551","423450","10243","490231","491342","3546","89790","491343","3552","85385","495555","496548","492347","495554","NA","Sternberg Task ","76","61382","79","yes","1024"
"96.25","96.25","774.175","774.175","black","experiment","legacy","legacy","legacy","0","uniform","1","undefined","1","left","79","79","0","79","79","0","0","79","0","0","79","79","79","79","0","Mon Oct 12 09:15:04 2020","The main experiment item","yes","SternbergTask.osexp","C:\Users\Owner","no","mono","no","18","no","white","no","yes","768","legacy","67","11","C:/Users/Owner/KJPsubject-1.csv","legacy","6 2","Lentiform Loewenfeld","3.3.3","1","y","yes","0","left","right","left","left","NA","552","6690","4404","552","NA","2","legacy","2","1024","2","48000","-16","experiment","1","odd","6","499864","423450","10243","496551","497655","3546","89790","497656","3552","85385","501868","502421","498660","501868","NA","Sternberg Task ","77","61934","80","yes","1024"
"95.06172839506173","95.06172839506173","775.6543209876543","775.6543209876543","black","experiment","legacy","legacy","legacy","0","uniform","0","undefined","0","left","80","80","0","80","80","0","0","80","0","0","80","80","80","80","0","Mon Oct 12 09:15:04 2020","The main experiment item","yes","SternbergTask.osexp","C:\Users\Owner","no","mono","no","18","no","white","no","yes","768","legacy","68","11","C:/Users/Owner/KJPsubject-1.csv","legacy","8 9 5 6 7","Lentiform Loewenfeld","3.3.3","1","y","yes","0","right","right","left","right","NA","894","6690","4404","894","NA","2","legacy","5","1024","2","48000","-16","experiment","1","odd","8","505746","423450","10243","502426","503538","3546","89790","503539","3552","85385","507750","508646","504542","507750","NA","Sternberg Task ","77","62828","81","yes","1024"
"95.1219512195122","95.1219512195122","776.8048780487804","776.8048780487804","black","experiment","legacy","legacy","legacy","0","uniform","1","undefined","1","right","81","81","0","81","81","0","0","81","0","0","81","81","81","81","0","Mon Oct 12 09:15:04 2020","The main experiment item","yes","SternbergTask.osexp","C:\Users\Owner","no","mono","no","18","no","white","no","yes","768","legacy","69","11","C:/Users/Owner/KJPsubject-1.csv","legacy","2 6 4 3 9","Lentiform Loewenfeld","3.3.3","0","n","yes","0","right","right","left","right","NA","870","6690","4404","870","NA","2","legacy","5","1024","2","48000","-16","experiment","1","odd","1","511970","508649","10243","502426","509760","3546","89790","509762","3552","85385","513974","514845","510766","513974","NA","Sternberg Task ","78","63698","82","yes","1024"
"95.18072289156626","95.18072289156626","775.5542168674699","775.5542168674699","black","experiment","legacy","legacy","legacy","0","uniform","1","undefined","1","right","82","82","0","82","82","0","0","82","0","0","82","82","82","82","0","Mon Oct 12 09:15:04 2020","The main experiment item","yes","SternbergTask.osexp","C:\Users\Owner","no","mono","no","18","no","white","no","yes","768","legacy","70","11","C:/Users/Owner/KJPsubject-1.csv","legacy","8 5 7 3 6","Lentiform Loewenfeld","3.3.3","0","n","yes","0","right","right","left","right","NA","673","6690","4404","673","NA","2","legacy","5","1024","2","48000","-16","experiment","1","odd","9","518167","508649","10243","514848","515957","3546","89790","515958","3552","85385","520171","520846","516963","520171","NA","Sternberg Task ","79","64371","83","yes","1024"
"95.23809523809524","95.23809523809524","780.3333333333334","780.3333333333334","black","experiment","legacy","legacy","legacy","0","uniform","1","undefined","1","right","83","83","0","83","83","0","0","83","0","0","83","83","83","83","0","Mon Oct 12 09:15:04 2020","The main experiment item","yes","SternbergTask.osexp","C:\Users\Owner","no","mono","no","18","no","white","no","yes","768","legacy","71","11","C:/Users/Owner/KJPsubject-1.csv","legacy","1 4 9 3","Lentiform Loewenfeld","3.3.3","0","n","yes","0","right","right","left","right","NA","1177","6690","4404","1177","NA","2","legacy","4","1024","2","48000","-16","experiment","1","odd","5","524157","508649","10243","520849","521955","3546","89790","521956","3552","85385","526161","527339","522956","526161","NA","Sternberg Task ","80","65548","84","yes","1024"
"95.29411764705883","95.29411764705883","778.364705882353","778.364705882353","black","experiment","legacy","legacy","legacy","0","uniform","1","undefined","1","left","84","84","0","84","84","0","0","84","0","0","84","84","84","84","0","Mon Oct 12 09:15:04 2020","The main experiment item","yes","SternbergTask.osexp","C:\Users\Owner","no","mono","no","18","no","white","no","yes","768","legacy","72","11","C:/Users/Owner/KJPsubject-1.csv","legacy","6 7 9 3 1 2","Lentiform Loewenfeld","3.3.3","1","y","yes","0","left","right","left","left","NA","613","6690","4404","613","NA","2","legacy","6","1024","2","48000","-16","experiment","1","odd","6","530658","508649","10243","527345","528448","3546","89790","528450","3552","85385","532662","533277","529454","532662","NA","Sternberg Task ","81","66161","85","yes","1024"
"95.34883720930233","95.34883720930233","778.0930232558139","778.0930232558139","black","experiment","legacy","legacy","legacy","0","uniform","1","undefined","1","right","85","85","0","85","85","0","0","85","0","0","85","85","85","85","0","Mon Oct 12 09:15:04 2020","The main experiment item","yes","SternbergTask.osexp","C:\Users\Owner","no","mono","no","18","no","white","no","yes","768","legacy","73","11","C:/Users/Owner/KJPsubject-1.csv","legacy","5 2","Lentiform Loewenfeld","3.3.3","0","n","yes","0","right","right","left","right","NA","755","6690","4404","755","NA","2","legacy","2","1024","2","48000","-16","experiment","1","odd","7","536601","508649","10243","533279","534391","3546","89790","534392","3552","85385","538606","539363","535396","538605","NA","Sternberg Task ","82","66916","86","yes","1024"
"95.40229885057471","95.40229885057471","776.528735632184","776.528735632184","black","experiment","legacy","legacy","legacy","0","uniform","1","undefined","1","right","86","86","0","86","86","0","0","86","0","0","86","86","86","86","0","Mon Oct 12 09:15:04 2020","The main experiment item","yes","SternbergTask.osexp","C:\Users\Owner","no","mono","no","18","no","white","no","yes","768","legacy","74","11","C:/Users/Owner/KJPsubject-1.csv","legacy","2 7 5","Lentiform Loewenfeld","3.3.3","0","n","yes","0","right","right","left","right","NA","642","6690","4404","642","NA","2","legacy","3","1024","2","48000","-16","experiment","1","odd","8","542675","508649","10243","539366","540469","3546","89790","540470","3552","85385","544676","545320","541474","544676","NA","Sternberg Task ","83","67558","87","yes","1024"
"95.45454545454545","95.45454545454545","777.6931818181819","777.6931818181819","black","experiment","legacy","legacy","legacy","0","uniform","1","undefined","1","left","87","87","0","87","87","0","0","87","0","0","87","87","87","87","0","Mon Oct 12 09:15:04 2020","The main experiment item","yes","SternbergTask.osexp","C:\Users\Owner","no","mono","no","18","no","white","no","yes","768","legacy","75","11","C:/Users/Owner/KJPsubject-1.csv","legacy","6 5","Lentiform Loewenfeld","3.3.3","2","y","yes","0","left","right","left","left","NA","879","6690","4404","879","NA","2","legacy","2","1024","2","48000","-16","experiment","1","odd","5","548647","508649","10243","545323","546438","3546","89790","546439","3552","85385","550651","551532","547443","550651","NA","Sternberg Task ","84","68437","88","yes","1024"
"95.50561797752809","95.50561797752809","783.123595505618","783.123595505618","black","experiment","legacy","legacy","legacy","0","uniform","1","undefined","1","right","88","88","0","88","88","0","0","88","0","0","88","88","88","88","0","Mon Oct 12 09:15:04 2020","The main experiment item","yes","SternbergTask.osexp","C:\Users\Owner","no","mono","no","18","no","white","no","yes","768","legacy","76","11","C:/Users/Owner/KJPsubject-1.csv","legacy","2 8 9 4 1","Lentiform Loewenfeld","3.3.3","0","n","yes","0","right","right","left","right","NA","1261","6690","4404","1261","NA","2","legacy","5","1024","2","48000","-16","experiment","1","odd","5","554854","508649","10243","551535","552647","3546","89790","552648","3552","85385","556858","558120","553653","556858","NA","Sternberg Task ","85","69698","89","yes","1024"
"95.55555555555556","95.55555555555556","783.4","783.4","black","experiment","legacy","legacy","legacy","0","uniform","1","undefined","1","right","89","89","0","89","89","0","0","89","0","0","89","89","89","89","0","Mon Oct 12 09:15:04 2020","The main experiment item","yes","SternbergTask.osexp","C:\Users\Owner","no","mono","no","18","no","white","no","yes","768","legacy","77","11","C:/Users/Owner/KJPsubject-1.csv","legacy","9 7 4 5 8","Lentiform Loewenfeld","3.3.3","0","n","yes","0","right","right","left","right","NA","808","6690","4404","808","NA","2","legacy","5","1024","2","48000","-16","experiment","1","odd","6","561440","508649","10243","558126","559231","3546","89790","559232","3552","85385","563445","564255","560237","563444","NA","Sternberg Task ","86","70506","90","yes","1024"
"95.6043956043956","95.6043956043956","785.4945054945055","785.4945054945055","black","experiment","legacy","legacy","legacy","0","uniform","1","undefined","1","left","90","90","0","90","90","0","0","90","0","0","90","90","90","90","0","Mon Oct 12 09:15:04 2020","The main experiment item","yes","SternbergTask.osexp","C:\Users\Owner","no","mono","no","18","no","white","no","yes","768","legacy","78","11","C:/Users/Owner/KJPsubject-1.csv","legacy","5 7 8 2 3 8","Lentiform Loewenfeld","3.3.3","5","y","yes","0","left","right","left","left","NA","974","6690","4404","974","NA","2","legacy","6","1024","2","48000","-16","experiment","1","odd","3","567579","508649","10243","564258","565371","3546","89790","565373","3552","85385","569583","570558","566378","569583","NA","Sternberg Task ","87","71480","91","yes","1024"
"95.65217391304348","95.65217391304348","785.4347826086956","785.4347826086956","black","experiment","legacy","legacy","legacy","0","uniform","1","undefined","1","right","91","91","0","91","91","0","0","91","0","0","91","91","91","91","0","Mon Oct 12 09:15:04 2020","The main experiment item","yes","SternbergTask.osexp","C:\Users\Owner","no","mono","no","18","no","white","no","yes","768","legacy","79","11","C:/Users/Owner/KJPsubject-1.csv","legacy","9 8 2 7 4","Lentiform Loewenfeld","3.3.3","0","n","yes","0","right","right","left","right","NA","780","6690","4404","780","NA","2","legacy","5","1024","2","48000","-16","experiment","1","odd","5","573879","508649","10243","570562","571670","3546","89790","571671","3552","85385","575883","576664","572675","575883","NA","Sternberg Task ","88","72260","92","yes","1024"
"95.6989247311828","95.6989247311828","784.4408602150538","784.4408602150538","black","experiment","legacy","legacy","legacy","0","uniform","1","undefined","1","right","92","92","0","92","92","0","0","92","0","0","92","92","92","92","0","Mon Oct 12 09:15:04 2020","The main experiment item","yes","SternbergTask.osexp","C:\Users\Owner","no","mono","no","18","no","white","no","yes","768","legacy","80","11","C:/Users/Owner/KJPsubject-1.csv","legacy","2 5 1 4","Lentiform Loewenfeld","3.3.3","0","n","yes","0","right","right","left","right","NA","693","6690","4404","693","NA","2","legacy","4","1024","2","48000","-16","experiment","1","odd","6","579987","508649","10243","576668","577778","3546","89790","577779","3552","85385","581991","582685","578783","581991","NA","Sternberg Task ","89","72953","93","yes","1024"
"95.74468085106383","95.74468085106383","785.4468085106383","785.4468085106383","black","experiment","legacy","legacy","legacy","0","uniform","1","undefined","1","right","93","93","0","93","93","0","0","93","0","0","93","93","93","93","0","Mon Oct 12 09:15:04 2020","The main experiment item","yes","SternbergTask.osexp","C:\Users\Owner","no","mono","no","18","no","white","no","yes","768","legacy","81","11","C:/Users/Owner/KJPsubject-1.csv","legacy","8 4 3 5","Lentiform Loewenfeld","3.3.3","0","n","yes","0","right","right","left","right","NA","879","6690","4404","879","NA","2","legacy","4","1024","2","48000","-16","experiment","1","odd","6","586009","508649","10243","582688","583800","3546","89790","583801","3552","85385","588013","588893","584805","588013","NA","Sternberg Task ","90","73832","94","yes","1024"
"95.78947368421052","95.78947368421052","785.1894736842105","785.1894736842105","black","experiment","legacy","legacy","legacy","0","uniform","1","undefined","1","right","94","94","0","94","94","0","0","94","0","0","94","94","94","94","0","Mon Oct 12 09:15:04 2020","The main experiment item","yes","SternbergTask.osexp","C:\Users\Owner","no","mono","no","18","no","white","no","yes","768","legacy","82","11","C:/Users/Owner/KJPsubject-1.csv","legacy","8 4 3 9","Lentiform Loewenfeld","3.3.3","0","n","yes","0","right","right","left","right","NA","761","6690","4404","761","NA","2","legacy","4","1024","2","48000","-16","experiment","1","odd","5","592211","508649","10243","588897","590005","3546","89790","590006","3552","85385","594215","594978","591010","594215","NA","Sternberg Task ","91","74593","95","yes","1024"
"95.83333333333333","95.83333333333333","785.8958333333334","785.8958333333334","black","experiment","legacy","legacy","legacy","0","uniform","1","undefined","1","left","95","95","0","95","95","0","0","95","0","0","95","95","95","95","0","Mon Oct 12 09:15:04 2020","The main experiment item","yes","SternbergTask.osexp","C:\Users\Owner","no","mono","no","18","no","white","no","yes","768","legacy","83","11","C:/Users/Owner/KJPsubject-1.csv","legacy","6 8 9 3 4 9","Lentiform Loewenfeld","3.3.3","5","y","yes","0","left","right","left","left","NA","853","6690","4404","853","NA","2","legacy","6","1024","2","48000","-16","experiment","1","odd","4","598298","508649","10243","594981","596089","3546","89790","596090","3552","85385","600304","601158","597094","600303","NA","Sternberg Task ","92","75446","96","yes","1024"
"95.87628865979381","95.87628865979381","784.680412371134","784.680412371134","black","experiment","legacy","legacy","legacy","0","uniform","1","undefined","1","right","96","96","0","96","96","0","0","96","0","0","96","96","96","96","0","Mon Oct 12 09:15:04 2020","The main experiment item","yes","SternbergTask.osexp","C:\Users\Owner","no","mono","no","18","no","white","no","yes","768","legacy","84","11","C:/Users/Owner/KJPsubject-1.csv","legacy","4 8 1 2","Lentiform Loewenfeld","3.3.3","0","n","yes","0","right","right","left","right","NA","668","6690","4404","668","NA","2","legacy","4","1024","2","48000","-16","experiment","1","odd","7","604482","508649","10243","601162","602271","3546","89790","602273","3552","85385","606486","607155","603277","606486","NA","Sternberg Task ","93","76114","97","yes","1024"
"95.91836734693878","95.91836734693878","784.4897959183673","784.4897959183673","black","experiment","legacy","legacy","legacy","0","uniform","1","undefined","1","right","97","97","0","97","97","0","0","97","0","0","97","97","97","97","0","Mon Oct 12 09:15:04 2020","The main experiment item","yes","SternbergTask.osexp","C:\Users\Owner","no","mono","no","18","no","white","no","yes","768","legacy","85","11","C:/Users/Owner/KJPsubject-1.csv","legacy","4 2 7 6 1 3","Lentiform Loewenfeld","3.3.3","0","n","yes","0","right","right","left","right","NA","766","6690","4404","766","NA","2","legacy","6","1024","2","48000","-16","experiment","1","odd","8","610464","508649","10243","607159","608255","3546","89790","608257","3552","85385","612468","613236","609261","612468","NA","Sternberg Task ","94","76880","98","yes","1024"
"95.95959595959596","95.95959595959596","784.2222222222222","784.2222222222222","black","experiment","legacy","legacy","legacy","0","uniform","1","undefined","1","left","98","98","0","98","98","0","0","98","0","0","98","98","98","98","0","Mon Oct 12 09:15:04 2020","The main experiment item","yes","SternbergTask.osexp","C:\Users\Owner","no","mono","no","18","no","white","no","yes","768","legacy","86","11","C:/Users/Owner/KJPsubject-1.csv","legacy","4 3 2 5 8","Lentiform Loewenfeld","3.3.3","2","y","yes","0","left","right","left","left","NA","758","6690","4404","758","NA","2","legacy","5","1024","2","48000","-16","experiment","1","odd","3","616552","508649","10243","613239","614342","3546","89790","614343","3552","85385","618556","619315","615347","618556","NA","Sternberg Task ","95","77638","99","yes","1024"
"96","96","787.81","787.81","black","experiment","legacy","legacy","legacy","0","uniform","1","undefined","1","right","99","99","0","99","99","0","0","99","0","0","99","99","99","99","0","Mon Oct 12 09:15:04 2020","The main experiment item","yes","SternbergTask.osexp","C:\Users\Owner","no","mono","no","18","no","white","no","yes","768","legacy","87","11","C:/Users/Owner/KJPsubject-1.csv","legacy","6 9 7 3 8 2","Lentiform Loewenfeld","3.3.3","0","n","yes","0","right","right","left","right","NA","1143","6690","4404","1143","NA","2","legacy","6","1024","2","48000","-16","experiment","1","odd","5","622637","508649","10243","619318","620427","3546","89790","620428","3552","85385","624642","625786","621432","624641","NA","Sternberg Task ","96","78781","100","yes","1024"
"96.03960396039604","96.03960396039604","787.1089108910891","787.1089108910891","black","experiment","legacy","legacy","legacy","0","uniform","1","undefined","1","left","100","100","0","100","100","0","0","100","0","0","100","100","100","100","0","Mon Oct 12 09:15:04 2020","The main experiment item","yes","SternbergTask.osexp","C:\Users\Owner","no","mono","no","18","no","white","no","yes","768","legacy","88","11","C:/Users/Owner/KJPsubject-1.csv","legacy","4 1 5","Lentiform Loewenfeld","3.3.3","2","y","yes","0","left","right","left","left","NA","717","6690","4404","717","NA","2","legacy","3","1024","2","48000","-16","experiment","1","odd","1","629101","508649","10243","625789","626891","3546","89790","626893","3552","85385","631105","631823","627897","631105","NA","Sternberg Task ","97","79498","101","yes","1024"
"96.07843137254902","96.07843137254902","784.4607843137255","784.4607843137255","black","experiment","legacy","legacy","legacy","0","uniform","1","undefined","1","right","101","101","0","101","101","0","0","101","0","0","101","101","101","101","0","Mon Oct 12 09:15:04 2020","The main experiment item","yes","SternbergTask.osexp","C:\Users\Owner","no","mono","no","18","no","white","no","yes","768","legacy","89","11","C:/Users/Owner/KJPsubject-1.csv","legacy","5","Lentiform Loewenfeld","3.3.3","0","n","yes","0","right","right","left","right","NA","517","6690","4404","517","NA","2","legacy","1","1024","2","48000","-16","experiment","1","odd","8","635147","508649","10243","631828","632936","3546","89790","632938","3552","85385","637151","637670","633942","637151","NA","Sternberg Task ","98","80015","102","yes","1024"
"96.11650485436893","96.11650485436893","784.0679611650486","784.0679611650486","black","experiment","legacy","legacy","legacy","0","uniform","1","undefined","1","left","102","102","0","102","102","0","0","102","0","0","102","102","102","102","0","Mon Oct 12 09:15:04 2020","The main experiment item","yes","SternbergTask.osexp","C:\Users\Owner","no","mono","no","18","no","white","no","yes","768","legacy","90","11","C:/Users/Owner/KJPsubject-1.csv","legacy","3 4 9 6 2 9","Lentiform Loewenfeld","3.3.3","5","y","yes","0","left","right","left","left","NA","744","6690","4404","744","NA","2","legacy","6","1024","2","48000","-16","experiment","1","odd","2","640987","508649","10243","637672","638778","3546","89790","638779","3552","85385","642991","643736","639783","642991","NA","Sternberg Task ","99","80759","103","yes","1024"
"96.15384615384616","96.15384615384616","782.5961538461538","782.5961538461538","black","experiment","legacy","legacy","legacy","0","uniform","1","undefined","1","left","103","103","0","103","103","0","0","103","0","0","103","103","103","103","0","Mon Oct 12 09:15:04 2020","The main experiment item","yes","SternbergTask.osexp","C:\Users\Owner","no","mono","no","18","no","white","no","yes","768","legacy","91","11","C:/Users/Owner/KJPsubject-1.csv","legacy","9 1 7 2","Lentiform Loewenfeld","3.3.3","2","y","yes","0","left","right","left","left","NA","631","6690","4404","631","NA","2","legacy","4","1024","2","48000","-16","experiment","1","odd","1","647061","508649","10243","643739","644852","3546","89790","644854","3552","85385","649065","649698","645857","649065","NA","Sternberg Task ","100","81390","104","yes","1024"
"96.19047619047619","96.19047619047619","780.7047619047619","780.7047619047619","black","experiment","legacy","legacy","legacy","0","uniform","1","undefined","1","right","104","104","0","104","104","0","0","104","0","0","104","104","104","104","0","Mon Oct 12 09:15:04 2020","The main experiment item","yes","SternbergTask.osexp","C:\Users\Owner","no","mono","no","18","no","white","no","yes","768","legacy","92","11","C:/Users/Owner/KJPsubject-1.csv","legacy","1 6 4","Lentiform Loewenfeld","3.3.3","0","n","yes","0","right","right","left","right","NA","584","6690","4404","584","NA","2","legacy","3","1024","2","48000","-16","experiment","1","odd","7","653005","508649","10243","649701","650795","3546","89790","650797","3552","85385","655006","655592","651801","655006","NA","Sternberg Task ","101","81974","105","yes","1024"
"96.22641509433963","96.22641509433963","781.9433962264151","781.9433962264151","black","experiment","legacy","legacy","legacy","0","uniform","1","undefined","1","left","105","105","0","105","105","0","0","105","0","0","105","105","105","105","0","Mon Oct 12 09:15:04 2020","The main experiment item","yes","SternbergTask.osexp","C:\Users\Owner","no","mono","no","18","no","white","no","yes","768","legacy","93","11","C:/Users/Owner/KJPsubject-1.csv","legacy","4 9 7 8 5 3","Lentiform Loewenfeld","3.3.3","4","y","yes","0","left","right","left","left","NA","912","6690","4404","912","NA","2","legacy","6","1024","2","48000","-16","experiment","1","odd","8","658910","508649","10243","655595","656700","3546","89790","656702","3552","85385","660912","661825","657706","660912","NA","Sternberg Task ","102","82886","106","yes","1024"
"96.26168224299066","96.26168224299066","780.6728971962617","780.6728971962617","black","experiment","legacy","legacy","legacy","0","uniform","1","undefined","1","left","106","106","0","106","106","0","0","106","0","0","106","106","106","106","0","Mon Oct 12 09:15:04 2020","The main experiment item","yes","SternbergTask.osexp","C:\Users\Owner","no","mono","no","18","no","white","no","yes","768","legacy","94","11","C:/Users/Owner/KJPsubject-1.csv","legacy","9 8 4","Lentiform Loewenfeld","3.3.3","1","y","yes","0","left","right","left","left","NA","646","6690","4404","646","NA","2","legacy","3","1024","2","48000","-16","experiment","1","odd","9","665148","508649","10243","661828","662939","3546","89790","662940","3552","85385","667151","667798","663944","667151","NA","Sternberg Task ","103","83532","107","yes","1024"
"96.29629629629629","96.29629629629629","779.1851851851852","779.1851851851852","black","experiment","legacy","legacy","legacy","0","uniform","1","undefined","1","left","107","107","0","107","107","0","0","107","0","0","107","107","107","107","0","Mon Oct 12 09:15:04 2020","The main experiment item","yes","SternbergTask.osexp","C:\Users\Owner","no","mono","no","18","no","white","no","yes","768","legacy","95","11","C:/Users/Owner/KJPsubject-1.csv","legacy","8 3","Lentiform Loewenfeld","3.3.3","2","y","yes","0","left","right","left","left","NA","620","6690","4404","620","NA","2","legacy","2","1024","2","48000","-16","experiment","1","odd","3","671115","508649","10243","667802","668906","3546","89790","668907","3552","85385","673119","673740","669911","673119","NA","Sternberg Task ","104","84152","108","yes","1024"
"96.3302752293578","96.3302752293578","779.6238532110092","779.6238532110092","black","experiment","legacy","legacy","legacy","0","uniform","1","undefined","1","right","108","108","0","108","108","0","0","108","0","0","108","108","108","108","0","Mon Oct 12 09:15:04 2020","The main experiment item","yes","SternbergTask.osexp","C:\Users\Owner","no","mono","no","18","no","white","no","yes","768","legacy","96","11","C:/Users/Owner/KJPsubject-1.csv","legacy","7 9 1 6","Lentiform Loewenfeld","3.3.3","0","n","yes","0","right","right","left","right","NA","827","6690","4404","827","NA","2","legacy","4","1024","2","48000","-16","experiment","1","odd","4","677064","508649","10243","673744","674856","3546","89790","674857","3552","85385","679070","679899","675861","679069","NA","Sternberg Task ","105","84979","109","yes","1024"
"96.36363636363636","96.36363636363636","779.9818181818182","779.9818181818182","black","experiment","legacy","legacy","legacy","0","uniform","1","undefined","1","left","109","109","0","109","109","0","0","109","0","0","109","109","109","109","0","Mon Oct 12 09:15:04 2020","The main experiment item","yes","SternbergTask.osexp","C:\Users\Owner","no","mono","no","18","no","white","no","yes","768","legacy","97","11","C:/Users/Owner/KJPsubject-1.csv","legacy","7 8 6 3 1","Lentiform Loewenfeld","3.3.3","5","y","yes","0","left","right","left","left","NA","819","6690","4404","819","NA","2","legacy","5","1024","2","48000","-16","experiment","1","odd","1","683223","508649","10243","679903","681014","3546","89790","681015","3552","85385","685227","686047","682019","685227","NA","Sternberg Task ","106","85798","110","yes","1024"
"96.3963963963964","96.3963963963964","780.3963963963964","780.3963963963964","black","experiment","legacy","legacy","legacy","0","uniform","1","undefined","1","right","110","110","0","110","110","0","0","110","0","0","110","110","110","110","0","Mon Oct 12 09:15:04 2020","The main experiment item","yes","SternbergTask.osexp","C:\Users\Owner","no","mono","no","18","no","white","no","yes","768","legacy","98","11","C:/Users/Owner/KJPsubject-1.csv","legacy","5 3 8 7 2 4","Lentiform Loewenfeld","3.3.3","0","n","yes","0","right","right","left","right","NA","826","6690","4404","826","NA","2","legacy","6","1024","2","48000","-16","experiment","1","odd","9","689364","508649","10243","686050","687153","3546","89790","687155","3552","85385","691368","692195","688159","691367","NA","Sternberg Task ","107","86624","111","yes","1024"
"96.42857142857143","96.42857142857143","779.8482142857143","779.8482142857143","black","experiment","legacy","legacy","legacy","0","uniform","1","undefined","1","right","111","111","0","111","111","0","0","111","0","0","111","111","111","111","0","Mon Oct 12 09:15:04 2020","The main experiment item","yes","SternbergTask.osexp","C:\Users\Owner","no","mono","no","18","no","white","no","yes","768","legacy","99","11","C:/Users/Owner/KJPsubject-1.csv","legacy","7 3 2 8","Lentiform Loewenfeld","3.3.3","0","n","yes","0","right","right","left","right","NA","719","6690","4404","719","NA","2","legacy","4","1024","2","48000","-16","experiment","1","odd","4","695521","508649","10243","692198","693312","3546","89790","693313","3552","85385","697526","698246","694317","697526","NA","Sternberg Task ","108","87343","112","yes","1024"
"96.46017699115045","96.46017699115045","779.5221238938053","779.5221238938053","black","experiment","legacy","legacy","legacy","0","uniform","1","undefined","1","left","112","112","0","112","112","0","0","112","0","0","112","112","112","112","0","Mon Oct 12 09:15:04 2020","The main experiment item","yes","SternbergTask.osexp","C:\Users\Owner","no","mono","no","18","no","white","no","yes","768","legacy","100","11","C:/Users/Owner/KJPsubject-1.csv","legacy","6 9 3 1","Lentiform Loewenfeld","3.3.3","4","y","yes","0","left","right","left","left","NA","743","6690","4404","743","NA","2","legacy","4","1024","2","48000","-16","experiment","1","odd","1","701565","508649","10243","698250","699359","3546","89790","699360","3552","85385","703569","704313","700364","703569","NA","Sternberg Task ","109","88086","113","yes","1024"
"96.49122807017544","96.49122807017544","778.4298245614035","778.4298245614035","black","experiment","legacy","legacy","legacy","0","uniform","1","undefined","1","left","113","113","0","113","113","0","0","113","0","0","113","113","113","113","0","Mon Oct 12 09:15:04 2020","The main experiment item","yes","SternbergTask.osexp","C:\Users\Owner","no","mono","no","18","no","white","no","yes","768","legacy","101","11","C:/Users/Owner/KJPsubject-1.csv","legacy","9 4 2","Lentiform Loewenfeld","3.3.3","1","y","yes","0","left","right","left","left","NA","655","6690","4404","655","NA","2","legacy","3","1024","2","48000","-16","experiment","1","odd","9","707612","508649","10243","704319","705405","3546","89790","705407","3552","85385","709613","710270","706411","709613","NA","Sternberg Task ","110","88741","114","yes","1024"
"96.52173913043478","96.52173913043478","779.3913043478261","779.3913043478261","black","experiment","legacy","legacy","legacy","0","uniform","1","undefined","1","left","114","114","0","114","114","0","0","114","0","0","114","114","114","114","0","Mon Oct 12 09:15:04 2020","The main experiment item","yes","SternbergTask.osexp","C:\Users\Owner","no","mono","no","18","no","white","no","yes","768","legacy","102","11","C:/Users/Owner/KJPsubject-1.csv","legacy","6 9 7 4 5 1","Lentiform Loewenfeld","3.3.3","2","y","yes","0","left","right","left","left","NA","889","6690","4404","889","NA","2","legacy","6","1024","2","48000","-16","experiment","1","odd","9","713540","508649","10243","710273","711336","3546","89790","711337","3552","85385","715541","716431","712338","715541","NA","Sternberg Task ","111","89630","115","yes","1024"
"96.55172413793103","96.55172413793103","779.3793103448276","779.3793103448276","black","experiment","legacy","legacy","legacy","0","uniform","1","undefined","1","right","115","115","0","115","115","0","0","115","0","0","115","115","115","115","0","Mon Oct 12 09:15:04 2020","The main experiment item","yes","SternbergTask.osexp","C:\Users\Owner","no","mono","no","18","no","white","no","yes","768","legacy","103","11","C:/Users/Owner/KJPsubject-1.csv","legacy","6 8 4","Lentiform Loewenfeld","3.3.3","0","n","yes","0","right","right","left","right","NA","778","6690","4404","778","NA","2","legacy","3","1024","2","48000","-16","experiment","1","odd","1","719712","508649","10243","716435","717508","3546","89790","717510","3552","85385","721713","722493","718511","721713","NA","Sternberg Task ","112","90408","116","yes","1024"
"96.58119658119658","96.58119658119658","777.7435897435897","777.7435897435897","black","experiment","legacy","legacy","legacy","0","uniform","1","undefined","1","left","116","116","0","116","116","0","0","116","0","0","116","116","116","116","0","Mon Oct 12 09:15:04 2020","The main experiment item","yes","SternbergTask.osexp","C:\Users\Owner","no","mono","no","18","no","white","no","yes","768","legacy","104","11","C:/Users/Owner/KJPsubject-1.csv","legacy","2 5 4 8 7","Lentiform Loewenfeld","3.3.3","3","y","yes","0","left","right","left","left","NA","588","6690","4404","588","NA","2","legacy","5","1024","2","48000","-16","experiment","1","odd","4","725766","508649","10243","722495","723563","3546","89790","723564","3552","85385","727770","728360","724565","727769","NA","Sternberg Task ","113","90996","117","yes","1024"
"96.61016949152543","96.61016949152543","776.5338983050848","776.5338983050848","black","experiment","legacy","legacy","legacy","0","uniform","1","undefined","1","right","117","117","0","117","117","0","0","117","0","0","117","117","117","117","0","Mon Oct 12 09:15:04 2020","The main experiment item","yes","SternbergTask.osexp","C:\Users\Owner","no","mono","no","18","no","white","no","yes","768","legacy","105","11","C:/Users/Owner/KJPsubject-1.csv","legacy","8 9","Lentiform Loewenfeld","3.3.3","0","n","yes","0","right","right","left","right","NA","635","6690","4404","635","NA","2","legacy","2","1024","2","48000","-16","experiment","1","odd","5","731680","508649","10243","728363","729472","3546","89790","729473","3552","85385","733685","734321","730477","733685","NA","Sternberg Task ","114","91631","118","yes","1024"
"96.63865546218487","96.63865546218487","774.7142857142857","774.7142857142857","black","experiment","legacy","legacy","legacy","0","uniform","1","undefined","1","left","118","118","0","118","118","0","0","118","0","0","118","118","118","118","0","Mon Oct 12 09:15:04 2020","The main experiment item","yes","SternbergTask.osexp","C:\Users\Owner","no","mono","no","18","no","white","no","yes","768","legacy","106","11","C:/Users/Owner/KJPsubject-1.csv","legacy","7","Lentiform Loewenfeld","3.3.3","1","y","yes","0","left","right","left","left","NA","560","6690","4404","560","NA","2","legacy","1","1024","2","48000","-16","experiment","1","odd","7","737650","508649","10243","734325","735441","3546","89790","735442","3552","85385","739654","740216","736446","739654","NA","Sternberg Task ","115","92191","119","yes","1024"
"96.66666666666667","96.66666666666667","773.9416666666667","773.9416666666667","black","experiment","legacy","legacy","legacy","0","uniform","1","undefined","1","left","119","119","0","119","119","0","0","119","0","0","119","119","119","119","0","Mon Oct 12 09:15:04 2020","The main experiment item","yes","SternbergTask.osexp","C:\Users\Owner","no","mono","no","18","no","white","no","yes","768","legacy","107","11","C:/Users/Owner/KJPsubject-1.csv","legacy","8 5 1 3 9","Lentiform Loewenfeld","3.3.3","4","y","yes","0","left","right","left","left","NA","682","6690","4404","682","NA","2","legacy","5","1024","2","48000","-16","experiment","1","odd","3","743537","508649","10243","740219","741328","3546","89790","741329","3552","85385","745541","746224","742333","745541","NA","Sternberg Task ","116","92873","120","yes","1024"
"96.69421487603306","96.69421487603306","774.6446280991736","774.6446280991736","black","experiment","legacy","legacy","legacy","0","uniform","1","undefined","1","left","120","120","0","120","120","0","0","120","0","0","120","120","120","120","0","Mon Oct 12 09:15:04 2020","The main experiment item","yes","SternbergTask.osexp","C:\Users\Owner","no","mono","no","18","no","white","no","yes","768","legacy","108","11","C:/Users/Owner/KJPsubject-1.csv","legacy","7 1 3","Lentiform Loewenfeld","3.3.3","2","y","yes","0","left","right","left","left","NA","859","6690","4404","859","NA","2","legacy","3","1024","2","48000","-16","experiment","1","odd","1","749545","508649","10243","746228","747336","3546","89790","747337","3552","85385","751550","752410","748341","751550","NA","Sternberg Task ","117","93732","121","yes","1024"
