"acc","accuracy","average_response_time","avg_rt","background","block","canvas_backend","clock_backend","color_backend","compensation","coordinates","correct","correct_instruction1","correct_keyboard_response","correct_response","count_ISI","count_correctFeedback","count_expSequence","count_experiment","count_experimentLoop","count_fixation","count_incorrectFeedback","count_instruction1","count_instruction2","count_keyboard_response","count_logger","count_memorySet","count_practiceLoop","count_probe","count_thankYou","datetime","description","disable_garbage_collection","experiment_file","experiment_path","font_bold","font_family","font_italic","font_size","font_underline","foreground","form_clicks","fullscreen","height","keyboard_backend","live_row","live_row_practiceLoop","logfile","mouse_backend","numberSet","opensesame_codename","opensesame_version","posInSet","present","repeat_cycle","response","response_instruction1","response_instruction2","response_keyboard_response","response_thankYou","response_time","response_time_instruction1","response_time_instruction2","response_time_keyboard_response","response_time_thankYou","round_decimals","sampler_backend","setSize","sound_buf_size","sound_channels","sound_freq","sound_sample_size","start","subject_nr","subject_parity","target","time_ISI","time_correctFeedback","time_expSequence","time_experiment","time_experimentLoop","time_fixation","time_incorrectFeedback","time_instruction1","time_instruction2","time_keyboard_response","time_logger","time_memorySet","time_practiceLoop","time_probe","time_thankYou","title","total_correct","total_response_time","total_responses","uniform_coordinates","width"
"100","100","702","702","black","practice","legacy","legacy","legacy","0","uniform","1","undefined","1","left","0","0","0","0","0","0","0","0","0","0","0","0","0","0","0","Wed Oct 21 11:21:48 2020","The main experiment item","yes","Sterbergtask.osexp","C:\Users\Colton\OneDrive\Desktop","no","mono","no","18","no","white","no","yes","768","legacy","0","0","C:/Users/Colton/OneDrive/Desktop/CS-subject-2-LAB 3.1.csv","legacy","1 5 2 9","Lentiform Loewenfeld","3.3.3","2","y","0","left","left","NA","left","NA","702","21838","NA","702","NA","2","legacy","4","1024","2","48000","-16","experiment","2","even","5","36022","NA","33808","9155","NA","33814","NA","9161","NA","38027","38730","34818","31002","38026","NA","Sterberg task","1","702","1","yes","1024"
"100","100","762.5","762.5","black","practice","legacy","legacy","legacy","0","uniform","1","undefined","1","right","1","1","1","0","0","1","1","0","0","1","1","1","0","1","0","Wed Oct 21 11:21:48 2020","The main experiment item","yes","Sterbergtask.osexp","C:\Users\Colton\OneDrive\Desktop","no","mono","no","18","no","white","no","yes","768","legacy","1","1","C:/Users/Colton/OneDrive/Desktop/CS-subject-2-LAB 3.1.csv","legacy","5 7 8 4 1 2","Lentiform Loewenfeld","3.3.3","0","n","0","right","left","NA","right","NA","823","21838","NA","823","NA","2","legacy","6","1024","2","48000","-16","experiment","2","even","6","42431","38950","40218","9155","NA","40223","NA","9161","NA","44436","45261","41227","31002","44436","NA","Sterberg task","2","1525","2","yes","1024"
"100","100","753","753","black","practice","legacy","legacy","legacy","0","uniform","1","undefined","1","left","2","2","2","0","0","2","2","0","0","2","2","2","0","2","0","Wed Oct 21 11:21:48 2020","The main experiment item","yes","Sterbergtask.osexp","C:\Users\Colton\OneDrive\Desktop","no","mono","no","18","no","white","no","yes","768","legacy","2","2","C:/Users/Colton/OneDrive/Desktop/CS-subject-2-LAB 3.1.csv","legacy","1 7 9 8 5","Lentiform Loewenfeld","3.3.3","4","y","0","left","left","NA","left","NA","734","21838","NA","734","NA","2","legacy","5","1024","2","48000","-16","experiment","2","even","8","48896","45434","46682","9155","NA","46687","NA","9161","NA","50900","51636","47692","31002","50900","NA","Sterberg task","3","2259","3","yes","1024"
"100","100","735.5","735.5","black","practice","legacy","legacy","legacy","0","uniform","1","undefined","1","right","3","3","3","0","0","3","3","0","0","3","3","3","0","3","0","Wed Oct 21 11:21:48 2020","The main experiment item","yes","Sterbergtask.osexp","C:\Users\Colton\OneDrive\Desktop","no","mono","no","18","no","white","no","yes","768","legacy","3","3","C:/Users/Colton/OneDrive/Desktop/CS-subject-2-LAB 3.1.csv","legacy","3 1 9 4","Lentiform Loewenfeld","3.3.3","0","n","0","right","left","NA","right","NA","683","21838","NA","683","NA","2","legacy","4","1024","2","48000","-16","experiment","2","even","6","55184","51729","52971","9155","NA","52976","NA","9161","NA","57189","57874","53980","31002","57189","NA","Sterberg task","4","2942","4","yes","1024"
"100","100","689","689","black","practice","legacy","legacy","legacy","0","uniform","1","undefined","1","right","4","4","4","0","0","4","4","0","0","4","4","4","0","4","0","Wed Oct 21 11:21:48 2020","The main experiment item","yes","Sterbergtask.osexp","C:\Users\Colton\OneDrive\Desktop","no","mono","no","18","no","white","no","yes","768","legacy","4","4","C:/Users/Colton/OneDrive/Desktop/CS-subject-2-LAB 3.1.csv","legacy","5","Lentiform Loewenfeld","3.3.3","0","n","0","right","left","NA","right","NA","503","21838","NA","503","NA","2","legacy","1","1024","2","48000","-16","experiment","2","even","3","61497","58013","59283","9155","NA","59289","NA","9161","NA","63502","64007","60293","31002","63501","NA","Sterberg task","5","3445","5","yes","1024"
"100","100","672.6666666666666","672.6666666666666","black","practice","legacy","legacy","legacy","0","uniform","1","undefined","1","right","5","5","5","0","0","5","5","0","0","5","5","5","0","5","0","Wed Oct 21 11:21:48 2020","The main experiment item","yes","Sterbergtask.osexp","C:\Users\Colton\OneDrive\Desktop","no","mono","no","18","no","white","no","yes","768","legacy","5","5","C:/Users/Colton/OneDrive/Desktop/CS-subject-2-LAB 3.1.csv","legacy","4 1 5","Lentiform Loewenfeld","3.3.3","0","n","0","right","left","NA","right","NA","591","21838","NA","591","NA","2","legacy","3","1024","2","48000","-16","experiment","2","even","2","67577","64081","65363","9155","NA","65368","NA","9161","NA","69582","70175","66373","31002","69582","NA","Sterberg task","6","4036","6","yes","1024"
"100","100","651.2857142857143","651.2857142857143","black","practice","legacy","legacy","legacy","0","uniform","1","undefined","1","left","6","6","6","0","0","6","6","0","0","6","6","6","0","6","0","Wed Oct 21 11:21:48 2020","The main experiment item","yes","Sterbergtask.osexp","C:\Users\Colton\OneDrive\Desktop","no","mono","no","18","no","white","no","yes","768","legacy","6","6","C:/Users/Colton/OneDrive/Desktop/CS-subject-2-LAB 3.1.csv","legacy","4 3 1 7 9 8","Lentiform Loewenfeld","3.3.3","1","y","0","left","left","NA","left","NA","523","21838","NA","523","NA","2","legacy","6","1024","2","48000","-16","experiment","2","even","4","73890","70399","71676","9155","NA","71681","NA","9161","NA","75895","76420","72685","31002","75895","NA","Sterberg task","7","4559","7","yes","1024"
"100","100","644","644","black","practice","legacy","legacy","legacy","0","uniform","1","undefined","1","right","7","7","7","0","0","7","7","0","0","7","7","7","0","7","0","Wed Oct 21 11:21:48 2020","The main experiment item","yes","Sterbergtask.osexp","C:\Users\Colton\OneDrive\Desktop","no","mono","no","18","no","white","no","yes","768","legacy","7","7","C:/Users/Colton/OneDrive/Desktop/CS-subject-2-LAB 3.1.csv","legacy","9 6 7 4 5","Lentiform Loewenfeld","3.3.3","0","n","0","right","left","NA","right","NA","593","21838","NA","593","NA","2","legacy","5","1024","2","48000","-16","experiment","2","even","3","79986","76487","77769","9155","NA","77776","NA","9161","NA","81990","82585","78780","31002","81990","NA","Sterberg task","8","5152","8","yes","1024"
"100","100","662.7777777777778","662.7777777777778","black","practice","legacy","legacy","legacy","0","uniform","1","undefined","1","right","8","8","8","0","0","8","8","0","0","8","8","8","0","8","0","Wed Oct 21 11:21:48 2020","The main experiment item","yes","Sterbergtask.osexp","C:\Users\Colton\OneDrive\Desktop","no","mono","no","18","no","white","no","yes","768","legacy","8","8","C:/Users/Colton/OneDrive/Desktop/CS-subject-2-LAB 3.1.csv","legacy","2 1","Lentiform Loewenfeld","3.3.3","0","n","0","right","left","NA","right","NA","813","21838","NA","813","NA","2","legacy","2","1024","2","48000","-16","experiment","2","even","5","86168","82709","83953","9155","NA","83958","NA","9161","NA","88172","88987","84964","31002","88172","NA","Sterberg task","9","5965","9","yes","1024"
"100","100","676.2","676.2","black","practice","legacy","legacy","legacy","0","uniform","1","undefined","1","left","9","9","9","0","0","9","9","0","0","9","9","9","0","9","0","Wed Oct 21 11:21:48 2020","The main experiment item","yes","Sterbergtask.osexp","C:\Users\Colton\OneDrive\Desktop","no","mono","no","18","no","white","no","yes","768","legacy","9","9","C:/Users/Colton/OneDrive/Desktop/CS-subject-2-LAB 3.1.csv","legacy","6","Lentiform Loewenfeld","3.3.3","1","y","0","left","left","NA","left","NA","797","21838","NA","797","NA","2","legacy","1","1024","2","48000","-16","experiment","2","even","6","92598","89138","90379","9155","NA","90384","NA","9161","NA","94602","95401","91391","31002","94602","NA","Sterberg task","10","6762","10","yes","1024"
"100","100","669.0909090909091","669.0909090909091","black","practice","legacy","legacy","legacy","0","uniform","1","undefined","1","left","10","10","10","0","0","10","10","0","0","10","10","10","0","10","0","Wed Oct 21 11:21:48 2020","The main experiment item","yes","Sterbergtask.osexp","C:\Users\Colton\OneDrive\Desktop","no","mono","no","18","no","white","no","yes","768","legacy","10","10","C:/Users/Colton/OneDrive/Desktop/CS-subject-2-LAB 3.1.csv","legacy","4 8","Lentiform Loewenfeld","3.3.3","1","y","0","left","left","NA","left","NA","598","21838","NA","598","NA","2","legacy","2","1024","2","48000","-16","experiment","2","even","4","99046","95589","96831","9155","NA","96836","NA","9161","NA","101052","101652","97840","31002","101051","NA","Sterberg task","11","7360","11","yes","1024"
"100","100","664.1666666666666","664.1666666666666","black","practice","legacy","legacy","legacy","0","uniform","1","undefined","1","left","11","11","11","0","0","11","11","0","0","11","11","11","0","11","0","Wed Oct 21 11:21:48 2020","The main experiment item","yes","Sterbergtask.osexp","C:\Users\Colton\OneDrive\Desktop","no","mono","no","18","no","white","no","yes","768","legacy","11","11","C:/Users/Colton/OneDrive/Desktop/CS-subject-2-LAB 3.1.csv","legacy","2 9 4","Lentiform Loewenfeld","3.3.3","3","y","0","left","left","NA","left","NA","610","21838","NA","610","NA","2","legacy","3","1024","2","48000","-16","experiment","2","even","4","105508","102032","103291","9155","NA","103297","NA","9161","NA","107513","108124","104303","31002","107513","NA","Sterberg task","12","7970","12","yes","1024"
"100","100","665.1538461538462","665.1538461538462","black","experiment","legacy","legacy","legacy","0","uniform","1","undefined","1","right","12","12","12","0","0","12","12","0","0","12","12","12","0","12","0","Wed Oct 21 11:21:48 2020","The main experiment item","yes","Sterbergtask.osexp","C:\Users\Colton\OneDrive\Desktop","no","mono","no","18","no","white","no","yes","768","legacy","0","11","C:/Users/Colton/OneDrive/Desktop/CS-subject-2-LAB 3.1.csv","legacy","7 9 1 6","Lentiform Loewenfeld","3.3.3","0","n","0","right","left","left","right","NA","677","21838","18372","677","NA","2","legacy","4","1024","2","48000","-16","experiment","2","even","4","130255","108283","128042","9155","127753","128047","NA","9161","109379","132260","132939","129051","31002","132259","NA","Sterberg task","13","8647","13","yes","1024"
"100","100","666.6428571428571","666.6428571428571","black","experiment","legacy","legacy","legacy","0","uniform","1","undefined","1","left","13","13","13","0","0","13","13","0","0","13","13","13","0","13","0","Wed Oct 21 11:21:48 2020","The main experiment item","yes","Sterbergtask.osexp","C:\Users\Colton\OneDrive\Desktop","no","mono","no","18","no","white","no","yes","768","legacy","1","11","C:/Users/Colton/OneDrive/Desktop/CS-subject-2-LAB 3.1.csv","legacy","8 5 3 7 4 6","Lentiform Loewenfeld","3.3.3","6","y","0","left","left","left","left","NA","686","21838","18372","686","NA","2","legacy","6","1024","2","48000","-16","experiment","2","even","6","136459","133000","134246","9155","127753","134251","NA","9161","109379","138463","139151","135255","31002","138463","NA","Sterberg task","14","9333","14","yes","1024"
"100","100","663.6","663.6","black","experiment","legacy","legacy","legacy","0","uniform","1","undefined","1","right","14","14","14","0","0","14","14","0","0","14","14","14","0","14","0","Wed Oct 21 11:21:48 2020","The main experiment item","yes","Sterbergtask.osexp","C:\Users\Colton\OneDrive\Desktop","no","mono","no","18","no","white","no","yes","768","legacy","2","11","C:/Users/Colton/OneDrive/Desktop/CS-subject-2-LAB 3.1.csv","legacy","8 5 7 3 6","Lentiform Loewenfeld","3.3.3","0","n","0","right","left","left","right","NA","621","21838","18372","621","NA","2","legacy","5","1024","2","48000","-16","experiment","2","even","9","142729","139262","140515","9155","127753","140520","NA","9161","109379","144733","145355","141525","31002","144733","NA","Sterberg task","15","9954","15","yes","1024"
"100","100","656.125","656.125","black","experiment","legacy","legacy","legacy","0","uniform","1","undefined","1","right","15","15","15","0","0","15","15","0","0","15","15","15","0","15","0","Wed Oct 21 11:21:48 2020","The main experiment item","yes","Sterbergtask.osexp","C:\Users\Colton\OneDrive\Desktop","no","mono","no","18","no","white","no","yes","768","legacy","3","11","C:/Users/Colton/OneDrive/Desktop/CS-subject-2-LAB 3.1.csv","legacy","9","Lentiform Loewenfeld","3.3.3","0","n","0","right","left","left","right","NA","544","21838","18372","544","NA","2","legacy","1","1024","2","48000","-16","experiment","2","even","6","148893","145429","146680","9155","127753","146685","NA","9161","109379","150897","151443","147689","31002","150897","NA","Sterberg task","16","10498","16","yes","1024"
"100","100","651.7058823529412","651.7058823529412","black","experiment","legacy","legacy","legacy","0","uniform","1","undefined","1","right","16","16","16","0","0","16","16","0","0","16","16","16","0","16","0","Wed Oct 21 11:21:48 2020","The main experiment item","yes","Sterbergtask.osexp","C:\Users\Colton\OneDrive\Desktop","no","mono","no","18","no","white","no","yes","768","legacy","4","11","C:/Users/Colton/OneDrive/Desktop/CS-subject-2-LAB 3.1.csv","legacy","7 8 6 1","Lentiform Loewenfeld","3.3.3","0","n","0","right","left","left","right","NA","581","21838","18372","581","NA","2","legacy","4","1024","2","48000","-16","experiment","2","even","3","154963","151479","152748","9155","127753","152753","NA","9161","109379","156967","157549","153758","31002","156967","NA","Sterberg task","17","11079","17","yes","1024"
"100","100","652.7222222222222","652.7222222222222","black","experiment","legacy","legacy","legacy","0","uniform","1","undefined","1","left","17","17","17","0","0","17","17","0","0","17","17","17","0","17","0","Wed Oct 21 11:21:48 2020","The main experiment item","yes","Sterbergtask.osexp","C:\Users\Colton\OneDrive\Desktop","no","mono","no","18","no","white","no","yes","768","legacy","5","11","C:/Users/Colton/OneDrive/Desktop/CS-subject-2-LAB 3.1.csv","legacy","1 4 9 3 2 5","Lentiform Loewenfeld","3.3.3","3","y","0","left","left","left","left","NA","670","21838","18372","670","NA","2","legacy","6","1024","2","48000","-16","experiment","2","even","9","161056","157578","158842","9155","127753","158848","NA","9161","109379","163062","163735","159852","31002","163062","NA","Sterberg task","18","11749","18","yes","1024"
"100","100","649.7894736842105","649.7894736842105","black","experiment","legacy","legacy","legacy","0","uniform","1","undefined","1","right","18","18","18","0","0","18","18","0","0","18","18","18","0","18","0","Wed Oct 21 11:21:48 2020","The main experiment item","yes","Sterbergtask.osexp","C:\Users\Colton\OneDrive\Desktop","no","mono","no","18","no","white","no","yes","768","legacy","6","11","C:/Users/Colton/OneDrive/Desktop/CS-subject-2-LAB 3.1.csv","legacy","2 6 4 3 9","Lentiform Loewenfeld","3.3.3","0","n","0","right","left","left","right","NA","597","21838","18372","597","NA","2","legacy","5","1024","2","48000","-16","experiment","2","even","1","167299","163839","165086","9155","127753","165091","NA","9161","109379","169303","169902","166095","31002","169303","NA","Sterberg task","19","12346","19","yes","1024"
"100","100","652.9","652.9","black","experiment","legacy","legacy","legacy","0","uniform","1","undefined","1","right","19","19","19","0","0","19","19","0","0","19","19","19","0","19","0","Wed Oct 21 11:21:48 2020","The main experiment item","yes","Sterbergtask.osexp","C:\Users\Colton\OneDrive\Desktop","no","mono","no","18","no","white","no","yes","768","legacy","7","11","C:/Users/Colton/OneDrive/Desktop/CS-subject-2-LAB 3.1.csv","legacy","3 4 9 6 7 8","Lentiform Loewenfeld","3.3.3","0","n","0","right","left","left","right","NA","712","21838","18372","712","NA","2","legacy","6","1024","2","48000","-16","experiment","2","even","2","173530","170071","171313","9155","127753","171319","NA","9161","109379","175535","176249","172324","31002","175535","NA","Sterberg task","20","13058","20","yes","1024"
"100","100","649.5238095238095","649.5238095238095","black","experiment","legacy","legacy","legacy","0","uniform","1","undefined","1","right","20","20","20","0","0","20","20","0","0","20","20","20","0","20","0","Wed Oct 21 11:21:48 2020","The main experiment item","yes","Sterbergtask.osexp","C:\Users\Colton\OneDrive\Desktop","no","mono","no","18","no","white","no","yes","768","legacy","8","11","C:/Users/Colton/OneDrive/Desktop/CS-subject-2-LAB 3.1.csv","legacy","9 8 2 7 4","Lentiform Loewenfeld","3.3.3","0","n","0","right","left","left","right","NA","582","21838","18372","582","NA","2","legacy","5","1024","2","48000","-16","experiment","2","even","5","179763","176312","177549","9155","127753","177553","NA","9161","109379","181768","182352","178558","31002","181768","NA","Sterberg task","21","13640","21","yes","1024"
"100","100","638.2272727272727","638.2272727272727","black","experiment","legacy","legacy","legacy","0","uniform","1","undefined","1","left","21","21","21","0","0","21","21","0","0","21","21","21","0","21","0","Wed Oct 21 11:21:48 2020","The main experiment item","yes","Sterbergtask.osexp","C:\Users\Colton\OneDrive\Desktop","no","mono","no","18","no","white","no","yes","768","legacy","9","11","C:/Users/Colton/OneDrive/Desktop/CS-subject-2-LAB 3.1.csv","legacy","6 1 2","Lentiform Loewenfeld","3.3.3","3","y","0","left","left","left","left","NA","401","21838","18372","401","NA","2","legacy","3","1024","2","48000","-16","experiment","2","even","2","185860","182401","183642","9155","127753","183647","NA","9161","109379","187865","188268","184651","31002","187864","NA","Sterberg task","22","14041","22","yes","1024"
"100","100","639.3478260869565","639.3478260869565","black","experiment","legacy","legacy","legacy","0","uniform","1","undefined","1","right","22","22","22","0","0","22","22","0","0","22","22","22","0","22","0","Wed Oct 21 11:21:48 2020","The main experiment item","yes","Sterbergtask.osexp","C:\Users\Colton\OneDrive\Desktop","no","mono","no","18","no","white","no","yes","768","legacy","10","11","C:/Users/Colton/OneDrive/Desktop/CS-subject-2-LAB 3.1.csv","legacy","8 6 3 4 7","Lentiform Loewenfeld","3.3.3","0","n","0","right","left","left","right","NA","664","21838","18372","664","NA","2","legacy","5","1024","2","48000","-16","experiment","2","even","1","193060","189606","190845","9155","127753","190850","NA","9161","109379","195066","195732","191855","31002","195066","NA","Sterberg task","23","14705","23","yes","1024"
"100","100","639.4583333333334","639.4583333333334","black","experiment","legacy","legacy","legacy","0","uniform","1","undefined","1","right","23","23","23","0","0","23","23","0","0","23","23","23","0","23","0","Wed Oct 21 11:21:48 2020","The main experiment item","yes","Sterbergtask.osexp","C:\Users\Colton\OneDrive\Desktop","no","mono","no","18","no","white","no","yes","768","legacy","11","11","C:/Users/Colton/OneDrive/Desktop/CS-subject-2-LAB 3.1.csv","legacy","8 4 3 9","Lentiform Loewenfeld","3.3.3","0","n","0","right","left","left","right","NA","642","21838","18372","642","NA","2","legacy","4","1024","2","48000","-16","experiment","2","even","5","199233","195780","197019","9155","127753","197024","NA","9161","109379","201237","201881","198028","31002","201237","NA","Sterberg task","24","15347","24","yes","1024"
"100","100","635.16","635.16","black","experiment","legacy","legacy","legacy","0","uniform","1","undefined","1","left","24","24","24","0","0","24","24","0","0","24","24","24","0","24","0","Wed Oct 21 11:21:48 2020","The main experiment item","yes","Sterbergtask.osexp","C:\Users\Colton\OneDrive\Desktop","no","mono","no","18","no","white","no","yes","768","legacy","12","11","C:/Users/Colton/OneDrive/Desktop/CS-subject-2-LAB 3.1.csv","legacy","4 1 8 7 5","Lentiform Loewenfeld","3.3.3","3","y","0","left","left","left","left","NA","532","21838","18372","532","NA","2","legacy","5","1024","2","48000","-16","experiment","2","even","8","205398","201924","203184","9155","127753","203189","NA","9161","109379","207402","207936","204193","31002","207402","NA","Sterberg task","25","15879","25","yes","1024"
"100","100","637.5769230769231","637.5769230769231","black","experiment","legacy","legacy","legacy","0","uniform","1","undefined","1","right","25","25","25","0","0","25","25","0","0","25","25","25","0","25","0","Wed Oct 21 11:21:48 2020","The main experiment item","yes","Sterbergtask.osexp","C:\Users\Colton\OneDrive\Desktop","no","mono","no","18","no","white","no","yes","768","legacy","13","11","C:/Users/Colton/OneDrive/Desktop/CS-subject-2-LAB 3.1.csv","legacy","6 3 1 7 9 8","Lentiform Loewenfeld","3.3.3","0","n","0","right","left","left","right","NA","698","21838","18372","698","NA","2","legacy","6","1024","2","48000","-16","experiment","2","even","4","211479","208013","209261","9155","127753","209266","NA","9161","109379","213483","214183","210274","31002","213483","NA","Sterberg task","26","16577","26","yes","1024"
"100","100","632.6296296296297","632.6296296296297","black","experiment","legacy","legacy","legacy","0","uniform","1","undefined","1","right","26","26","26","0","0","26","26","0","0","26","26","26","0","26","0","Wed Oct 21 11:21:48 2020","The main experiment item","yes","Sterbergtask.osexp","C:\Users\Colton\OneDrive\Desktop","no","mono","no","18","no","white","no","yes","768","legacy","14","11","C:/Users/Colton/OneDrive/Desktop/CS-subject-2-LAB 3.1.csv","legacy","6 9 4 5 2","Lentiform Loewenfeld","3.3.3","0","n","0","right","left","left","right","NA","504","21838","18372","504","NA","2","legacy","5","1024","2","48000","-16","experiment","2","even","1","217766","214294","215552","9155","127753","215557","NA","9161","109379","219770","220276","216561","31002","219770","NA","Sterberg task","27","17081","27","yes","1024"
"100","100","625.75","625.75","black","experiment","legacy","legacy","legacy","0","uniform","1","undefined","1","left","27","27","27","0","0","27","27","0","0","27","27","27","0","27","0","Wed Oct 21 11:21:48 2020","The main experiment item","yes","Sterbergtask.osexp","C:\Users\Colton\OneDrive\Desktop","no","mono","no","18","no","white","no","yes","768","legacy","15","11","C:/Users/Colton/OneDrive/Desktop/CS-subject-2-LAB 3.1.csv","legacy","4","Lentiform Loewenfeld","3.3.3","1","y","0","left","left","left","left","NA","440","21838","18372","440","NA","2","legacy","1","1024","2","48000","-16","experiment","2","even","4","223768","220314","221555","9155","127753","221560","NA","9161","109379","225772","226214","222564","31002","225772","NA","Sterberg task","28","17521","28","yes","1024"
"100","100","627.448275862069","627.448275862069","black","experiment","legacy","legacy","legacy","0","uniform","1","undefined","1","right","28","28","28","0","0","28","28","0","0","28","28","28","0","28","0","Wed Oct 21 11:21:48 2020","The main experiment item","yes","Sterbergtask.osexp","C:\Users\Colton\OneDrive\Desktop","no","mono","no","18","no","white","no","yes","768","legacy","16","11","C:/Users/Colton/OneDrive/Desktop/CS-subject-2-LAB 3.1.csv","legacy","8 4 3 5","Lentiform Loewenfeld","3.3.3","0","n","0","right","left","left","right","NA","675","21838","18372","675","NA","2","legacy","4","1024","2","48000","-16","experiment","2","even","6","229761","226303","227547","9155","127753","227552","NA","9161","109379","231768","232445","228556","31002","231767","NA","Sterberg task","29","18196","29","yes","1024"
"100","100","628.0333333333333","628.0333333333333","black","experiment","legacy","legacy","legacy","0","uniform","1","undefined","1","right","29","29","29","0","0","29","29","0","0","29","29","29","0","29","0","Wed Oct 21 11:21:48 2020","The main experiment item","yes","Sterbergtask.osexp","C:\Users\Colton\OneDrive\Desktop","no","mono","no","18","no","white","no","yes","768","legacy","17","11","C:/Users/Colton/OneDrive/Desktop/CS-subject-2-LAB 3.1.csv","legacy","6 8","Lentiform Loewenfeld","3.3.3","0","n","0","right","left","left","right","NA","645","21838","18372","645","NA","2","legacy","2","1024","2","48000","-16","experiment","2","even","9","235956","232493","233735","9155","127753","233740","NA","9161","109379","237963","238610","234745","31002","237963","NA","Sterberg task","30","18841","30","yes","1024"
"100","100","635.741935483871","635.741935483871","black","experiment","legacy","legacy","legacy","0","uniform","1","undefined","1","right","30","30","30","0","0","30","30","0","0","30","30","30","0","30","0","Wed Oct 21 11:21:48 2020","The main experiment item","yes","Sterbergtask.osexp","C:\Users\Colton\OneDrive\Desktop","no","mono","no","18","no","white","no","yes","768","legacy","18","11","C:/Users/Colton/OneDrive/Desktop/CS-subject-2-LAB 3.1.csv","legacy","1 4 3 6 5","Lentiform Loewenfeld","3.3.3","0","n","0","right","left","left","right","NA","867","21838","18372","867","NA","2","legacy","5","1024","2","48000","-16","experiment","2","even","8","242165","238714","239948","9155","127753","239953","NA","9161","109379","244172","245042","240957","31002","244172","NA","Sterberg task","31","19708","31","yes","1024"
"96.875","96.875","633","633","black","experiment","legacy","legacy","legacy","0","uniform","0","undefined","0","right","31","31","31","0","0","31","31","0","0","31","31","31","0","31","0","Wed Oct 21 11:21:48 2020","The main experiment item","yes","Sterbergtask.osexp","C:\Users\Colton\OneDrive\Desktop","no","mono","no","18","no","white","no","yes","768","legacy","19","11","C:/Users/Colton/OneDrive/Desktop/CS-subject-2-LAB 3.1.csv","legacy","6 2 9 3 8 4","Lentiform Loewenfeld","3.3.3","0","n","0","left","left","left","left","NA","548","21838","18372","548","NA","2","legacy","6","1024","2","48000","-16","experiment","2","even","1","248593","245143","246380","9155","127753","246385","NA","9161","109379","250597","251147","247389","31002","250597","NA","Sterberg task","31","20256","32","yes","1024"
"96.96969696969697","96.96969696969697","632.4242424242424","632.4242424242424","black","experiment","legacy","legacy","legacy","0","uniform","1","undefined","1","right","32","32","32","0","0","32","32","0","0","32","32","32","0","32","0","Wed Oct 21 11:21:48 2020","The main experiment item","yes","Sterbergtask.osexp","C:\Users\Colton\OneDrive\Desktop","no","mono","no","18","no","white","no","yes","768","legacy","20","11","C:/Users/Colton/OneDrive/Desktop/CS-subject-2-LAB 3.1.csv","legacy","3 9 8 1 6 4","Lentiform Loewenfeld","3.3.3","0","n","0","right","left","left","right","NA","614","21838","18372","614","NA","2","legacy","6","1024","2","48000","-16","experiment","2","even","7","254700","245143","252485","9155","127753","252489","251231","9161","109379","256705","257322","253495","31002","256705","NA","Sterberg task","32","20870","33","yes","1024"
"97.05882352941177","97.05882352941177","632.9117647058823","632.9117647058823","black","experiment","legacy","legacy","legacy","0","uniform","1","undefined","1","left","33","33","33","0","0","33","33","0","0","33","33","33","0","33","0","Wed Oct 21 11:21:48 2020","The main experiment item","yes","Sterbergtask.osexp","C:\Users\Colton\OneDrive\Desktop","no","mono","no","18","no","white","no","yes","768","legacy","21","11","C:/Users/Colton/OneDrive/Desktop/CS-subject-2-LAB 3.1.csv","legacy","7 6","Lentiform Loewenfeld","3.3.3","2","y","0","left","left","left","left","NA","649","21838","18372","649","NA","2","legacy","2","1024","2","48000","-16","experiment","2","even","6","260820","257370","258607","9155","127753","258611","251231","9161","109379","262824","263475","259616","31002","262824","NA","Sterberg task","33","21519","34","yes","1024"
"97.14285714285714","97.14285714285714","635.3714285714286","635.3714285714286","black","experiment","legacy","legacy","legacy","0","uniform","1","undefined","1","right","34","34","34","0","0","34","34","0","0","34","34","34","0","34","0","Wed Oct 21 11:21:48 2020","The main experiment item","yes","Sterbergtask.osexp","C:\Users\Colton\OneDrive\Desktop","no","mono","no","18","no","white","no","yes","768","legacy","22","11","C:/Users/Colton/OneDrive/Desktop/CS-subject-2-LAB 3.1.csv","legacy","4 2 7 6 1 3","Lentiform Loewenfeld","3.3.3","0","n","0","right","left","left","right","NA","719","21838","18372","719","NA","2","legacy","6","1024","2","48000","-16","experiment","2","even","8","267041","263589","264823","9155","127753","264826","251231","9161","109379","269045","269766","265831","31002","269045","NA","Sterberg task","34","22238","35","yes","1024"
"97.22222222222223","97.22222222222223","631.5277777777778","631.5277777777778","black","experiment","legacy","legacy","legacy","0","uniform","1","undefined","1","left","35","35","35","0","0","35","35","0","0","35","35","35","0","35","0","Wed Oct 21 11:21:48 2020","The main experiment item","yes","Sterbergtask.osexp","C:\Users\Colton\OneDrive\Desktop","no","mono","no","18","no","white","no","yes","768","legacy","23","11","C:/Users/Colton/OneDrive/Desktop/CS-subject-2-LAB 3.1.csv","legacy","6 7 9 3 1 2","Lentiform Loewenfeld","3.3.3","1","y","0","left","left","left","left","NA","497","21838","18372","497","NA","2","legacy","6","1024","2","48000","-16","experiment","2","even","6","273267","269814","271053","9155","127753","271058","251231","9161","109379","275271","275771","272063","31002","275271","NA","Sterberg task","35","22735","36","yes","1024"
"94.5945945945946","94.5945945945946","632.972972972973","632.972972972973","black","experiment","legacy","legacy","legacy","0","uniform","0","undefined","0","left","36","36","36","0","0","36","36","0","0","36","36","36","0","36","0","Wed Oct 21 11:21:48 2020","The main experiment item","yes","Sterbergtask.osexp","C:\Users\Colton\OneDrive\Desktop","no","mono","no","18","no","white","no","yes","768","legacy","24","11","C:/Users/Colton/OneDrive/Desktop/CS-subject-2-LAB 3.1.csv","legacy","3 2 1 4 7","Lentiform Loewenfeld","3.3.3","2","y","0","right","left","left","right","NA","685","21838","18372","685","NA","2","legacy","5","1024","2","48000","-16","experiment","2","even","2","279281","275806","277068","9155","127753","277073","251231","9161","109379","281286","281973","278077","31002","281285","NA","Sterberg task","35","23420","37","yes","1024"
"94.73684210526316","94.73684210526316","635.1315789473684","635.1315789473684","black","experiment","legacy","legacy","legacy","0","uniform","1","undefined","1","left","37","37","37","0","0","37","37","0","0","37","37","37","0","37","0","Wed Oct 21 11:21:48 2020","The main experiment item","yes","Sterbergtask.osexp","C:\Users\Colton\OneDrive\Desktop","no","mono","no","18","no","white","no","yes","768","legacy","25","11","C:/Users/Colton/OneDrive/Desktop/CS-subject-2-LAB 3.1.csv","legacy","5 2 9 6 1 7","Lentiform Loewenfeld","3.3.3","3","y","0","left","left","left","left","NA","715","21838","18372","715","NA","2","legacy","6","1024","2","48000","-16","experiment","2","even","9","285506","275806","283293","9155","127753","283297","282039","9161","109379","287510","288227","284302","31002","287510","NA","Sterberg task","36","24135","38","yes","1024"
"94.87179487179488","94.87179487179488","637.2564102564103","637.2564102564103","black","experiment","legacy","legacy","legacy","0","uniform","1","undefined","1","right","38","38","38","0","0","38","38","0","0","38","38","38","0","38","0","Wed Oct 21 11:21:48 2020","The main experiment item","yes","Sterbergtask.osexp","C:\Users\Colton\OneDrive\Desktop","no","mono","no","18","no","white","no","yes","768","legacy","26","11","C:/Users/Colton/OneDrive/Desktop/CS-subject-2-LAB 3.1.csv","legacy","5 7 3","Lentiform Loewenfeld","3.3.3","0","n","0","right","left","left","right","NA","718","21838","18372","718","NA","2","legacy","3","1024","2","48000","-16","experiment","2","even","9","291767","288295","289550","9155","127753","289555","282039","9161","109379","293773","294493","290559","31002","293772","NA","Sterberg task","37","24853","39","yes","1024"
"95","95","635.675","635.675","black","experiment","legacy","legacy","legacy","0","uniform","1","undefined","1","left","39","39","39","0","0","39","39","0","0","39","39","39","0","39","0","Wed Oct 21 11:21:48 2020","The main experiment item","yes","Sterbergtask.osexp","C:\Users\Colton\OneDrive\Desktop","no","mono","no","18","no","white","no","yes","768","legacy","27","11","C:/Users/Colton/OneDrive/Desktop/CS-subject-2-LAB 3.1.csv","legacy","3 5 7 1","Lentiform Loewenfeld","3.3.3","3","y","0","left","left","left","left","NA","574","21838","18372","574","NA","2","legacy","4","1024","2","48000","-16","experiment","2","even","7","297986","294526","295774","9155","127753","295778","282039","9161","109379","299990","300566","296782","31002","299990","NA","Sterberg task","38","25427","40","yes","1024"
"95.1219512195122","95.1219512195122","631.780487804878","631.780487804878","black","experiment","legacy","legacy","legacy","0","uniform","1","undefined","1","left","40","40","40","0","0","40","40","0","0","40","40","40","0","40","0","Wed Oct 21 11:21:48 2020","The main experiment item","yes","Sterbergtask.osexp","C:\Users\Colton\OneDrive\Desktop","no","mono","no","18","no","white","no","yes","768","legacy","28","11","C:/Users/Colton/OneDrive/Desktop/CS-subject-2-LAB 3.1.csv","legacy","6 2","Lentiform Loewenfeld","3.3.3","1","y","0","left","left","left","left","NA","476","21838","18372","476","NA","2","legacy","2","1024","2","48000","-16","experiment","2","even","6","304068","300592","301855","9155","127753","301860","282039","9161","109379","306072","306551","302864","31002","306072","NA","Sterberg task","39","25903","41","yes","1024"
"95.23809523809524","95.23809523809524","626.7380952380952","626.7380952380952","black","experiment","legacy","legacy","legacy","0","uniform","1","undefined","1","left","41","41","41","0","0","41","41","0","0","41","41","41","0","41","0","Wed Oct 21 11:21:48 2020","The main experiment item","yes","Sterbergtask.osexp","C:\Users\Colton\OneDrive\Desktop","no","mono","no","18","no","white","no","yes","768","legacy","29","11","C:/Users/Colton/OneDrive/Desktop/CS-subject-2-LAB 3.1.csv","legacy","8","Lentiform Loewenfeld","3.3.3","1","y","0","left","left","left","left","NA","420","21838","18372","420","NA","2","legacy","1","1024","2","48000","-16","experiment","2","even","8","310063","306607","307851","9155","127753","307855","282039","9161","109379","312067","312489","308859","31002","312067","NA","Sterberg task","40","26323","42","yes","1024"
"95.34883720930233","95.34883720930233","622.6511627906976","622.6511627906976","black","experiment","legacy","legacy","legacy","0","uniform","1","undefined","1","left","42","42","42","0","0","42","42","0","0","42","42","42","0","42","0","Wed Oct 21 11:21:48 2020","The main experiment item","yes","Sterbergtask.osexp","C:\Users\Colton\OneDrive\Desktop","no","mono","no","18","no","white","no","yes","768","legacy","30","11","C:/Users/Colton/OneDrive/Desktop/CS-subject-2-LAB 3.1.csv","legacy","9 1 7 2","Lentiform Loewenfeld","3.3.3","2","y","0","left","left","left","left","NA","451","21838","18372","451","NA","2","legacy","4","1024","2","48000","-16","experiment","2","even","1","316069","312604","313855","9155","127753","313860","282039","9161","109379","318073","318526","314865","31002","318073","NA","Sterberg task","41","26774","43","yes","1024"
"95.45454545454545","95.45454545454545","621.25","621.25","black","experiment","legacy","legacy","legacy","0","uniform","1","undefined","1","left","43","43","43","0","0","43","43","0","0","43","43","43","0","43","0","Wed Oct 21 11:21:48 2020","The main experiment item","yes","Sterbergtask.osexp","C:\Users\Colton\OneDrive\Desktop","no","mono","no","18","no","white","no","yes","768","legacy","31","11","C:/Users/Colton/OneDrive/Desktop/CS-subject-2-LAB 3.1.csv","legacy","6 7 8 5","Lentiform Loewenfeld","3.3.3","3","y","0","left","left","left","left","NA","561","21838","18372","561","NA","2","legacy","4","1024","2","48000","-16","experiment","2","even","8","322004","318549","319792","9155","127753","319796","282039","9161","109379","324008","324571","320800","31002","324008","NA","Sterberg task","42","27335","44","yes","1024"
"95.55555555555556","95.55555555555556","617.0444444444445","617.0444444444445","black","experiment","legacy","legacy","legacy","0","uniform","1","undefined","1","left","44","44","44","0","0","44","44","0","0","44","44","44","0","44","0","Wed Oct 21 11:21:48 2020","The main experiment item","yes","Sterbergtask.osexp","C:\Users\Colton\OneDrive\Desktop","no","mono","no","18","no","white","no","yes","768","legacy","32","11","C:/Users/Colton/OneDrive/Desktop/CS-subject-2-LAB 3.1.csv","legacy","7","Lentiform Loewenfeld","3.3.3","1","y","0","left","left","left","left","NA","432","21838","18372","432","NA","2","legacy","1","1024","2","48000","-16","experiment","2","even","7","328107","324652","325894","9155","127753","325899","282039","9161","109379","330111","330545","326903","31002","330111","NA","Sterberg task","43","27767","45","yes","1024"
"95.65217391304348","95.65217391304348","614.1521739130435","614.1521739130435","black","experiment","legacy","legacy","legacy","0","uniform","1","undefined","1","left","45","45","45","0","0","45","45","0","0","45","45","45","0","45","0","Wed Oct 21 11:21:48 2020","The main experiment item","yes","Sterbergtask.osexp","C:\Users\Colton\OneDrive\Desktop","no","mono","no","18","no","white","no","yes","768","legacy","33","11","C:/Users/Colton/OneDrive/Desktop/CS-subject-2-LAB 3.1.csv","legacy","6 8 9 3 4 9","Lentiform Loewenfeld","3.3.3","5","y","0","left","left","left","left","NA","484","21838","18372","484","NA","2","legacy","6","1024","2","48000","-16","experiment","2","even","4","334072","330607","331859","9155","127753","331864","282039","9161","109379","336076","336563","332868","31002","336076","NA","Sterberg task","44","28251","46","yes","1024"
"95.74468085106383","95.74468085106383","614.063829787234","614.063829787234","black","experiment","legacy","legacy","legacy","0","uniform","1","undefined","1","right","46","46","46","0","0","46","46","0","0","46","46","46","0","46","0","Wed Oct 21 11:21:48 2020","The main experiment item","yes","Sterbergtask.osexp","C:\Users\Colton\OneDrive\Desktop","no","mono","no","18","no","white","no","yes","768","legacy","34","11","C:/Users/Colton/OneDrive/Desktop/CS-subject-2-LAB 3.1.csv","legacy","7 4 2 8 1 9","Lentiform Loewenfeld","3.3.3","0","n","0","right","left","left","right","NA","610","21838","18372","610","NA","2","legacy","6","1024","2","48000","-16","experiment","2","even","5","340095","336631","337882","9155","127753","337887","282039","9161","109379","342099","342712","338891","31002","342099","NA","Sterberg task","45","28861","47","yes","1024"
"95.83333333333333","95.83333333333333","610.1875","610.1875","black","experiment","legacy","legacy","legacy","0","uniform","1","undefined","1","left","47","47","47","0","0","47","47","0","0","47","47","47","0","47","0","Wed Oct 21 11:21:48 2020","The main experiment item","yes","Sterbergtask.osexp","C:\Users\Colton\OneDrive\Desktop","no","mono","no","18","no","white","no","yes","768","legacy","35","11","C:/Users/Colton/OneDrive/Desktop/CS-subject-2-LAB 3.1.csv","legacy","2 3 7 4","Lentiform Loewenfeld","3.3.3","1","y","0","left","left","left","left","NA","428","21838","18372","428","NA","2","legacy","4","1024","2","48000","-16","experiment","2","even","2","346227","342752","344014","9155","127753","344019","282039","9161","109379","348231","348661","345023","31002","348231","NA","Sterberg task","46","29289","48","yes","1024"
"95.91836734693878","95.91836734693878","607.6530612244898","607.6530612244898","black","experiment","legacy","legacy","legacy","0","uniform","1","undefined","1","right","48","48","48","0","0","48","48","0","0","48","48","48","0","48","0","Wed Oct 21 11:21:48 2020","The main experiment item","yes","Sterbergtask.osexp","C:\Users\Colton\OneDrive\Desktop","no","mono","no","18","no","white","no","yes","768","legacy","36","11","C:/Users/Colton/OneDrive/Desktop/CS-subject-2-LAB 3.1.csv","legacy","1 3 2 6 9","Lentiform Loewenfeld","3.3.3","0","n","0","right","left","left","right","NA","486","21838","18372","486","NA","2","legacy","5","1024","2","48000","-16","experiment","2","even","5","352175","348719","349962","9155","127753","349967","282039","9161","109379","354179","354668","350971","31002","354179","NA","Sterberg task","47","29775","49","yes","1024"
"96","96","609.86","609.86","black","experiment","legacy","legacy","legacy","0","uniform","1","undefined","1","left","49","49","49","0","0","49","49","0","0","49","49","49","0","49","0","Wed Oct 21 11:21:48 2020","The main experiment item","yes","Sterbergtask.osexp","C:\Users\Colton\OneDrive\Desktop","no","mono","no","18","no","white","no","yes","768","legacy","37","11","C:/Users/Colton/OneDrive/Desktop/CS-subject-2-LAB 3.1.csv","legacy","3 4 9 6 2 9","Lentiform Loewenfeld","3.3.3","5","y","0","left","left","left","left","NA","718","21838","18372","718","NA","2","legacy","6","1024","2","48000","-16","experiment","2","even","2","358180","354706","355967","9155","127753","355972","282039","9161","109379","360186","360907","356976","31002","360185","NA","Sterberg task","48","30493","50","yes","1024"
"96.07843137254902","96.07843137254902","619.2941176470588","619.2941176470588","black","experiment","legacy","legacy","legacy","0","uniform","1","undefined","1","right","50","50","50","0","0","50","50","0","0","50","50","50","0","50","0","Wed Oct 21 11:21:48 2020","The main experiment item","yes","Sterbergtask.osexp","C:\Users\Colton\OneDrive\Desktop","no","mono","no","18","no","white","no","yes","768","legacy","38","11","C:/Users/Colton/OneDrive/Desktop/CS-subject-2-LAB 3.1.csv","legacy","1 8 7","Lentiform Loewenfeld","3.3.3","0","n","0","right","left","left","right","NA","1091","21838","18372","1091","NA","2","legacy","3","1024","2","48000","-16","experiment","2","even","4","364409","360943","362191","9155","127753","362196","282039","9161","109379","366415","367509","363201","31002","366414","NA","Sterberg task","49","31584","51","yes","1024"
"96.15384615384616","96.15384615384616","621.1538461538462","621.1538461538462","black","experiment","legacy","legacy","legacy","0","uniform","1","undefined","1","left","51","51","51","0","0","51","51","0","0","51","51","51","0","51","0","Wed Oct 21 11:21:48 2020","The main experiment item","yes","Sterbergtask.osexp","C:\Users\Colton\OneDrive\Desktop","no","mono","no","18","no","white","no","yes","768","legacy","39","11","C:/Users/Colton/OneDrive/Desktop/CS-subject-2-LAB 3.1.csv","legacy","4 9 7 8 5 3","Lentiform Loewenfeld","3.3.3","4","y","0","left","left","left","left","NA","716","21838","18372","716","NA","2","legacy","6","1024","2","48000","-16","experiment","2","even","8","370995","367539","368780","9155","127753","368785","282039","9161","109379","372999","373717","369790","31002","372999","NA","Sterberg task","50","32300","52","yes","1024"
"96.22641509433963","96.22641509433963","618.9056603773585","618.9056603773585","black","experiment","legacy","legacy","legacy","0","uniform","1","undefined","1","right","52","52","52","0","0","52","52","0","0","52","52","52","0","52","0","Wed Oct 21 11:21:48 2020","The main experiment item","yes","Sterbergtask.osexp","C:\Users\Colton\OneDrive\Desktop","no","mono","no","18","no","white","no","yes","768","legacy","40","11","C:/Users/Colton/OneDrive/Desktop/CS-subject-2-LAB 3.1.csv","legacy","5 2","Lentiform Loewenfeld","3.3.3","0","n","0","right","left","left","right","NA","502","21838","18372","502","NA","2","legacy","2","1024","2","48000","-16","experiment","2","even","7","377204","373750","374990","9155","127753","374994","282039","9161","109379","379210","379716","375999","31002","379209","NA","Sterberg task","51","32802","53","yes","1024"
"96.29629629629629","96.29629629629629","616.5555555555555","616.5555555555555","black","experiment","legacy","legacy","legacy","0","uniform","1","undefined","1","right","53","53","53","0","0","53","53","0","0","53","53","53","0","53","0","Wed Oct 21 11:21:48 2020","The main experiment item","yes","Sterbergtask.osexp","C:\Users\Colton\OneDrive\Desktop","no","mono","no","18","no","white","no","yes","768","legacy","41","11","C:/Users/Colton/OneDrive/Desktop/CS-subject-2-LAB 3.1.csv","legacy","7 9","Lentiform Loewenfeld","3.3.3","0","n","0","right","left","left","right","NA","492","21838","18372","492","NA","2","legacy","2","1024","2","48000","-16","experiment","2","even","1","383211","379750","380996","9155","127753","381000","282039","9161","109379","385216","385711","382007","31002","385216","NA","Sterberg task","52","33294","54","yes","1024"
"96.36363636363636","96.36363636363636","613.2545454545455","613.2545454545455","black","experiment","legacy","legacy","legacy","0","uniform","1","undefined","1","left","54","54","54","0","0","54","54","0","0","54","54","54","0","54","0","Wed Oct 21 11:21:48 2020","The main experiment item","yes","Sterbergtask.osexp","C:\Users\Colton\OneDrive\Desktop","no","mono","no","18","no","white","no","yes","768","legacy","42","11","C:/Users/Colton/OneDrive/Desktop/CS-subject-2-LAB 3.1.csv","legacy","9 8 4","Lentiform Loewenfeld","3.3.3","1","y","0","left","left","left","left","NA","435","21838","18372","435","NA","2","legacy","3","1024","2","48000","-16","experiment","2","even","9","389206","385740","386986","9155","127753","386991","282039","9161","109379","391211","391649","387998","31002","391211","NA","Sterberg task","53","33729","55","yes","1024"
"96.42857142857143","96.42857142857143","610.2678571428571","610.2678571428571","black","experiment","legacy","legacy","legacy","0","uniform","1","undefined","1","right","55","55","55","0","0","55","55","0","0","55","55","55","0","55","0","Wed Oct 21 11:21:48 2020","The main experiment item","yes","Sterbergtask.osexp","C:\Users\Colton\OneDrive\Desktop","no","mono","no","18","no","white","no","yes","768","legacy","43","11","C:/Users/Colton/OneDrive/Desktop/CS-subject-2-LAB 3.1.csv","legacy","2 7 5","Lentiform Loewenfeld","3.3.3","0","n","0","right","left","left","right","NA","446","21838","18372","446","NA","2","legacy","3","1024","2","48000","-16","experiment","2","even","8","395126","391674","392914","9155","127753","392918","282039","9161","109379","397131","397580","393922","31002","397130","NA","Sterberg task","54","34175","56","yes","1024"
"94.73684210526316","94.73684210526316","607.4561403508771","607.4561403508771","black","experiment","legacy","legacy","legacy","0","uniform","0","undefined","0","left","56","56","56","0","0","56","56","0","0","56","56","56","0","56","0","Wed Oct 21 11:21:48 2020","The main experiment item","yes","Sterbergtask.osexp","C:\Users\Colton\OneDrive\Desktop","no","mono","no","18","no","white","no","yes","768","legacy","44","11","C:/Users/Colton/OneDrive/Desktop/CS-subject-2-LAB 3.1.csv","legacy","8 3","Lentiform Loewenfeld","3.3.3","2","y","0","right","left","left","right","NA","450","21838","18372","450","NA","2","legacy","2","1024","2","48000","-16","experiment","2","even","3","401063","397607","398848","9155","127753","398853","282039","9161","109379","403067","403519","399858","31002","403067","NA","Sterberg task","54","34625","57","yes","1024"
"94.82758620689656","94.82758620689656","612.9310344827586","612.9310344827586","black","experiment","legacy","legacy","legacy","0","uniform","1","undefined","1","right","57","57","57","0","0","57","57","0","0","57","57","57","0","57","0","Wed Oct 21 11:21:48 2020","The main experiment item","yes","Sterbergtask.osexp","C:\Users\Colton\OneDrive\Desktop","no","mono","no","18","no","white","no","yes","768","legacy","45","11","C:/Users/Colton/OneDrive/Desktop/CS-subject-2-LAB 3.1.csv","legacy","2 8 7 9 5 3","Lentiform Loewenfeld","3.3.3","0","n","0","right","left","left","right","NA","925","21838","18372","925","NA","2","legacy","6","1024","2","48000","-16","experiment","2","even","6","407004","397607","404789","9155","127753","404794","403552","9161","109379","409013","409942","405799","31002","409012","NA","Sterberg task","55","35550","58","yes","1024"
"94.91525423728814","94.91525423728814","612.5254237288135","612.5254237288135","black","experiment","legacy","legacy","legacy","0","uniform","1","undefined","1","right","58","58","58","0","0","58","58","0","0","58","58","58","0","58","0","Wed Oct 21 11:21:48 2020","The main experiment item","yes","Sterbergtask.osexp","C:\Users\Colton\OneDrive\Desktop","no","mono","no","18","no","white","no","yes","768","legacy","46","11","C:/Users/Colton/OneDrive/Desktop/CS-subject-2-LAB 3.1.csv","legacy","7 1 5 6 3","Lentiform Loewenfeld","3.3.3","0","n","0","right","left","left","right","NA","589","21838","18372","589","NA","2","legacy","5","1024","2","48000","-16","experiment","2","even","8","413427","409974","411214","9155","127753","411219","403552","9161","109379","415432","416024","412223","31002","415431","NA","Sterberg task","56","36139","59","yes","1024"
"95","95","621.1666666666666","621.1666666666666","black","experiment","legacy","legacy","legacy","0","uniform","1","undefined","1","right","59","59","59","0","0","59","59","0","0","59","59","59","0","59","0","Wed Oct 21 11:21:48 2020","The main experiment item","yes","Sterbergtask.osexp","C:\Users\Colton\OneDrive\Desktop","no","mono","no","18","no","white","no","yes","768","legacy","47","11","C:/Users/Colton/OneDrive/Desktop/CS-subject-2-LAB 3.1.csv","legacy","1 4 9 3","Lentiform Loewenfeld","3.3.3","0","n","0","right","left","left","right","NA","1131","21838","18372","1131","NA","2","legacy","4","1024","2","48000","-16","experiment","2","even","5","419512","416052","417299","9155","127753","417303","403552","9161","109379","421516","422650","418308","31002","421516","NA","Sterberg task","57","37270","60","yes","1024"
"95.08196721311475","95.08196721311475","621.0327868852459","621.0327868852459","black","experiment","legacy","legacy","legacy","0","uniform","1","undefined","1","right","60","60","60","0","0","60","60","0","0","60","60","60","0","60","0","Wed Oct 21 11:21:48 2020","The main experiment item","yes","Sterbergtask.osexp","C:\Users\Colton\OneDrive\Desktop","no","mono","no","18","no","white","no","yes","768","legacy","48","11","C:/Users/Colton/OneDrive/Desktop/CS-subject-2-LAB 3.1.csv","legacy","1 6 4 3 9 7","Lentiform Loewenfeld","3.3.3","0","n","0","right","left","left","right","NA","613","21838","18372","613","NA","2","legacy","6","1024","2","48000","-16","experiment","2","even","8","426159","422699","423942","9155","127753","423947","403552","9161","109379","428165","428781","424954","31002","428165","NA","Sterberg task","58","37883","61","yes","1024"
"95.16129032258064","95.16129032258064","621.6129032258065","621.6129032258065","black","experiment","legacy","legacy","legacy","0","uniform","1","undefined","1","left","61","61","61","0","0","61","61","0","0","61","61","61","0","61","0","Wed Oct 21 11:21:48 2020","The main experiment item","yes","Sterbergtask.osexp","C:\Users\Colton\OneDrive\Desktop","no","mono","no","18","no","white","no","yes","768","legacy","49","11","C:/Users/Colton/OneDrive/Desktop/CS-subject-2-LAB 3.1.csv","legacy","5 7 8 2 3 8","Lentiform Loewenfeld","3.3.3","5","y","0","left","left","left","left","NA","657","21838","18372","657","NA","2","legacy","6","1024","2","48000","-16","experiment","2","even","3","432270","428807","430047","9155","127753","430051","403552","9161","109379","434276","434936","431057","31002","434275","NA","Sterberg task","59","38540","62","yes","1024"
"95.23809523809524","95.23809523809524","619.2698412698413","619.2698412698413","black","experiment","legacy","legacy","legacy","0","uniform","1","undefined","1","left","62","62","62","0","0","62","62","0","0","62","62","62","0","62","0","Wed Oct 21 11:21:48 2020","The main experiment item","yes","Sterbergtask.osexp","C:\Users\Colton\OneDrive\Desktop","no","mono","no","18","no","white","no","yes","768","legacy","50","11","C:/Users/Colton/OneDrive/Desktop/CS-subject-2-LAB 3.1.csv","legacy","8 5 1 3 9","Lentiform Loewenfeld","3.3.3","4","y","0","left","left","left","left","NA","474","21838","18372","474","NA","2","legacy","5","1024","2","48000","-16","experiment","2","even","3","438417","434963","436204","9155","127753","436209","403552","9161","109379","440422","440899","437213","31002","440421","NA","Sterberg task","60","39014","63","yes","1024"
"95.3125","95.3125","619.109375","619.109375","black","experiment","legacy","legacy","legacy","0","uniform","1","undefined","1","right","63","63","63","0","0","63","63","0","0","63","63","63","0","63","0","Wed Oct 21 11:21:48 2020","The main experiment item","yes","Sterbergtask.osexp","C:\Users\Colton\OneDrive\Desktop","no","mono","no","18","no","white","no","yes","768","legacy","51","11","C:/Users/Colton/OneDrive/Desktop/CS-subject-2-LAB 3.1.csv","legacy","2 8 9","Lentiform Loewenfeld","3.3.3","0","n","0","right","left","left","right","NA","609","21838","18372","609","NA","2","legacy","3","1024","2","48000","-16","experiment","2","even","6","444385","440930","442169","9155","127753","442174","403552","9161","109379","446392","447004","443178","31002","446392","NA","Sterberg task","61","39623","64","yes","1024"
"95.38461538461539","95.38461538461539","617.723076923077","617.723076923077","black","experiment","legacy","legacy","legacy","0","uniform","1","undefined","1","left","64","64","64","0","0","64","64","0","0","64","64","64","0","64","0","Wed Oct 21 11:21:48 2020","The main experiment item","yes","Sterbergtask.osexp","C:\Users\Colton\OneDrive\Desktop","no","mono","no","18","no","white","no","yes","768","legacy","52","11","C:/Users/Colton/OneDrive/Desktop/CS-subject-2-LAB 3.1.csv","legacy","4 6 2 5 1","Lentiform Loewenfeld","3.3.3","5","y","0","left","left","left","left","NA","529","21838","18372","529","NA","2","legacy","5","1024","2","48000","-16","experiment","2","even","1","450488","447030","448274","9155","127753","448279","403552","9161","109379","452495","453027","449283","31002","452495","NA","Sterberg task","62","40152","65","yes","1024"
"95.45454545454545","95.45454545454545","618.0909090909091","618.0909090909091","black","experiment","legacy","legacy","legacy","0","uniform","1","undefined","1","left","65","65","65","0","0","65","65","0","0","65","65","65","0","65","0","Wed Oct 21 11:21:48 2020","The main experiment item","yes","Sterbergtask.osexp","C:\Users\Colton\OneDrive\Desktop","no","mono","no","18","no","white","no","yes","768","legacy","53","11","C:/Users/Colton/OneDrive/Desktop/CS-subject-2-LAB 3.1.csv","legacy","3 5 9 6 2 4","Lentiform Loewenfeld","3.3.3","1","y","0","left","left","left","left","NA","642","21838","18372","642","NA","2","legacy","6","1024","2","48000","-16","experiment","2","even","3","456520","453066","454304","9155","127753","454309","403552","9161","109379","458525","459170","455315","31002","458525","NA","Sterberg task","63","40794","66","yes","1024"
"95.5223880597015","95.5223880597015","621.5373134328358","621.5373134328358","black","experiment","legacy","legacy","legacy","0","uniform","1","undefined","1","right","66","66","66","0","0","66","66","0","0","66","66","66","0","66","0","Wed Oct 21 11:21:48 2020","The main experiment item","yes","Sterbergtask.osexp","C:\Users\Colton\OneDrive\Desktop","no","mono","no","18","no","white","no","yes","768","legacy","54","11","C:/Users/Colton/OneDrive/Desktop/CS-subject-2-LAB 3.1.csv","legacy","2 8 9 4 1","Lentiform Loewenfeld","3.3.3","0","n","0","right","left","left","right","NA","849","21838","18372","849","NA","2","legacy","5","1024","2","48000","-16","experiment","2","even","5","462689","459222","460471","9155","127753","460476","403552","9161","109379","464694","465547","461484","31002","464694","NA","Sterberg task","64","41643","67","yes","1024"
"95.58823529411765","95.58823529411765","619.8970588235294","619.8970588235294","black","experiment","legacy","legacy","legacy","0","uniform","1","undefined","1","right","67","67","67","0","0","67","67","0","0","67","67","67","0","67","0","Wed Oct 21 11:21:48 2020","The main experiment item","yes","Sterbergtask.osexp","C:\Users\Colton\OneDrive\Desktop","no","mono","no","18","no","white","no","yes","768","legacy","55","11","C:/Users/Colton/OneDrive/Desktop/CS-subject-2-LAB 3.1.csv","legacy","4 1","Lentiform Loewenfeld","3.3.3","0","n","0","right","left","left","right","NA","510","21838","18372","510","NA","2","legacy","2","1024","2","48000","-16","experiment","2","even","6","469034","465575","466814","9155","127753","466819","403552","9161","109379","471040","471553","467824","31002","471039","NA","Sterberg task","65","42153","68","yes","1024"
"95.65217391304348","95.65217391304348","620.3623188405797","620.3623188405797","black","experiment","legacy","legacy","legacy","0","uniform","1","undefined","1","left","68","68","68","0","0","68","68","0","0","68","68","68","0","68","0","Wed Oct 21 11:21:48 2020","The main experiment item","yes","Sterbergtask.osexp","C:\Users\Colton\OneDrive\Desktop","no","mono","no","18","no","white","no","yes","768","legacy","56","11","C:/Users/Colton/OneDrive/Desktop/CS-subject-2-LAB 3.1.csv","legacy","9 6 2 4 1","Lentiform Loewenfeld","3.3.3","4","y","0","left","left","left","left","NA","652","21838","18372","652","NA","2","legacy","5","1024","2","48000","-16","experiment","2","even","4","475084","471621","472864","9155","127753","472870","403552","9161","109379","477089","477744","473875","31002","477088","NA","Sterberg task","66","42805","69","yes","1024"
"94.28571428571429","94.28571428571429","623.5857142857143","623.5857142857143","black","experiment","legacy","legacy","legacy","0","uniform","0","undefined","0","left","69","69","69","0","0","69","69","0","0","69","69","69","0","69","0","Wed Oct 21 11:21:48 2020","The main experiment item","yes","Sterbergtask.osexp","C:\Users\Colton\OneDrive\Desktop","no","mono","no","18","no","white","no","yes","768","legacy","57","11","C:/Users/Colton/OneDrive/Desktop/CS-subject-2-LAB 3.1.csv","legacy","7 1 3","Lentiform Loewenfeld","3.3.3","2","y","0","right","left","left","right","NA","846","21838","18372","846","NA","2","legacy","3","1024","2","48000","-16","experiment","2","even","1","481248","477798","479032","9155","127753","479037","403552","9161","109379","483253","484103","480043","31002","483253","NA","Sterberg task","66","43651","70","yes","1024"
"94.36619718309859","94.36619718309859","623.5492957746479","623.5492957746479","black","experiment","legacy","legacy","legacy","0","uniform","1","undefined","1","left","70","70","70","0","0","70","70","0","0","70","70","70","0","70","0","Wed Oct 21 11:21:48 2020","The main experiment item","yes","Sterbergtask.osexp","C:\Users\Colton\OneDrive\Desktop","no","mono","no","18","no","white","no","yes","768","legacy","58","11","C:/Users/Colton/OneDrive/Desktop/CS-subject-2-LAB 3.1.csv","legacy","3 9 7 6 4","Lentiform Loewenfeld","3.3.3","3","y","0","left","left","left","left","NA","621","21838","18372","621","NA","2","legacy","5","1024","2","48000","-16","experiment","2","even","7","487595","477798","485374","9155","127753","485379","484132","9161","109379","489600","490225","486384","31002","489600","NA","Sterberg task","67","44272","71","yes","1024"
"94.44444444444444","94.44444444444444","624.2916666666666","624.2916666666666","black","experiment","legacy","legacy","legacy","0","uniform","1","undefined","1","left","71","71","71","0","0","71","71","0","0","71","71","71","0","71","0","Wed Oct 21 11:21:48 2020","The main experiment item","yes","Sterbergtask.osexp","C:\Users\Colton\OneDrive\Desktop","no","mono","no","18","no","white","no","yes","768","legacy","59","11","C:/Users/Colton/OneDrive/Desktop/CS-subject-2-LAB 3.1.csv","legacy","2 6 1 7 4","Lentiform Loewenfeld","3.3.3","2","y","0","left","left","left","left","NA","677","21838","18372","677","NA","2","legacy","5","1024","2","48000","-16","experiment","2","even","6","493748","490299","491532","9155","127753","491537","484132","9161","109379","495754","496434","492543","31002","495754","NA","Sterberg task","68","44949","72","yes","1024"
"94.52054794520548","94.52054794520548","624.8904109589041","624.8904109589041","black","experiment","legacy","legacy","legacy","0","uniform","1","undefined","1","right","72","72","72","0","0","72","72","0","0","72","72","72","0","72","0","Wed Oct 21 11:21:48 2020","The main experiment item","yes","Sterbergtask.osexp","C:\Users\Colton\OneDrive\Desktop","no","mono","no","18","no","white","no","yes","768","legacy","60","11","C:/Users/Colton/OneDrive/Desktop/CS-subject-2-LAB 3.1.csv","legacy","9 7 4 5 8","Lentiform Loewenfeld","3.3.3","0","n","0","right","left","left","right","NA","668","21838","18372","668","NA","2","legacy","5","1024","2","48000","-16","experiment","2","even","6","499919","496466","497704","9155","127753","497709","484132","9161","109379","501926","502598","498714","31002","501926","NA","Sterberg task","69","45617","73","yes","1024"
"94.5945945945946","94.5945945945946","625.7567567567568","625.7567567567568","black","experiment","legacy","legacy","legacy","0","uniform","1","undefined","1","left","73","73","73","0","0","73","73","0","0","73","73","73","0","73","0","Wed Oct 21 11:21:48 2020","The main experiment item","yes","Sterbergtask.osexp","C:\Users\Colton\OneDrive\Desktop","no","mono","no","18","no","white","no","yes","768","legacy","61","11","C:/Users/Colton/OneDrive/Desktop/CS-subject-2-LAB 3.1.csv","legacy","7 8 6 3 1","Lentiform Loewenfeld","3.3.3","5","y","0","left","left","left","left","NA","689","21838","18372","689","NA","2","legacy","5","1024","2","48000","-16","experiment","2","even","1","506103","502643","503884","9155","127753","503889","484132","9161","109379","508110","508802","504897","31002","508109","NA","Sterberg task","70","46306","74","yes","1024"
"94.66666666666667","94.66666666666667","622.48","622.48","black","experiment","legacy","legacy","legacy","0","uniform","1","undefined","1","left","74","74","74","0","0","74","74","0","0","74","74","74","0","74","0","Wed Oct 21 11:21:48 2020","The main experiment item","yes","Sterbergtask.osexp","C:\Users\Colton\OneDrive\Desktop","no","mono","no","18","no","white","no","yes","768","legacy","62","11","C:/Users/Colton/OneDrive/Desktop/CS-subject-2-LAB 3.1.csv","legacy","3 9 6 2","Lentiform Loewenfeld","3.3.3","4","y","0","left","left","left","left","NA","380","21838","18372","380","NA","2","legacy","4","1024","2","48000","-16","experiment","2","even","2","512284","508831","510067","9155","127753","510072","484132","9161","109379","514291","514675","511078","31002","514290","NA","Sterberg task","71","46686","75","yes","1024"
"94.73684210526316","94.73684210526316","620.6578947368421","620.6578947368421","black","experiment","legacy","legacy","legacy","0","uniform","1","undefined","1","left","75","75","75","0","0","75","75","0","0","75","75","75","0","75","0","Wed Oct 21 11:21:48 2020","The main experiment item","yes","Sterbergtask.osexp","C:\Users\Colton\OneDrive\Desktop","no","mono","no","18","no","white","no","yes","768","legacy","63","11","C:/Users/Colton/OneDrive/Desktop/CS-subject-2-LAB 3.1.csv","legacy","5 7 3 6 2","Lentiform Loewenfeld","3.3.3","5","y","0","left","left","left","left","NA","484","21838","18372","484","NA","2","legacy","5","1024","2","48000","-16","experiment","2","even","2","518166","514710","515950","9155","127753","515955","484132","9161","109379","520173","520661","516961","31002","520172","NA","Sterberg task","72","47170","76","yes","1024"
"94.8051948051948","94.8051948051948","618.4675324675325","618.4675324675325","black","experiment","legacy","legacy","legacy","0","uniform","1","undefined","1","left","76","76","76","0","0","76","76","0","0","76","76","76","0","76","0","Wed Oct 21 11:21:48 2020","The main experiment item","yes","Sterbergtask.osexp","C:\Users\Colton\OneDrive\Desktop","no","mono","no","18","no","white","no","yes","768","legacy","64","11","C:/Users/Colton/OneDrive/Desktop/CS-subject-2-LAB 3.1.csv","legacy","9 3 1 2 5","Lentiform Loewenfeld","3.3.3","4","y","0","left","left","left","left","NA","452","21838","18372","452","NA","2","legacy","5","1024","2","48000","-16","experiment","2","even","2","524163","520699","521946","9155","127753","521951","484132","9161","109379","526169","526624","522958","31002","526168","NA","Sterberg task","73","47622","77","yes","1024"
"94.87179487179488","94.87179487179488","616.8076923076923","616.8076923076923","black","experiment","legacy","legacy","legacy","0","uniform","1","undefined","1","left","77","77","77","0","0","77","77","0","0","77","77","77","0","77","0","Wed Oct 21 11:21:48 2020","The main experiment item","yes","Sterbergtask.osexp","C:\Users\Colton\OneDrive\Desktop","no","mono","no","18","no","white","no","yes","768","legacy","65","11","C:/Users/Colton/OneDrive/Desktop/CS-subject-2-LAB 3.1.csv","legacy","8 9 5 6 7","Lentiform Loewenfeld","3.3.3","1","y","0","left","left","left","left","NA","489","21838","18372","489","NA","2","legacy","5","1024","2","48000","-16","experiment","2","even","8","530110","526654","527893","9155","127753","527898","484132","9161","109379","532116","532609","528903","31002","532115","NA","Sterberg task","74","48111","78","yes","1024"
"94.9367088607595","94.9367088607595","618.7721518987341","618.7721518987341","black","experiment","legacy","legacy","legacy","0","uniform","1","undefined","1","right","78","78","78","0","0","78","78","0","0","78","78","78","0","78","0","Wed Oct 21 11:21:48 2020","The main experiment item","yes","Sterbergtask.osexp","C:\Users\Colton\OneDrive\Desktop","no","mono","no","18","no","white","no","yes","768","legacy","66","11","C:/Users/Colton/OneDrive/Desktop/CS-subject-2-LAB 3.1.csv","legacy","1 7 5 2 9","Lentiform Loewenfeld","3.3.3","0","n","0","right","left","left","right","NA","772","21838","18372","772","NA","2","legacy","5","1024","2","48000","-16","experiment","2","even","3","536102","532655","533886","9155","127753","533891","484132","9161","109379","538108","538884","534897","31002","538108","NA","Sterberg task","75","48883","79","yes","1024"
"95","95","619.7","619.7","black","experiment","legacy","legacy","legacy","0","uniform","1","undefined","1","right","79","79","79","0","0","79","79","0","0","79","79","79","0","79","0","Wed Oct 21 11:21:48 2020","The main experiment item","yes","Sterbergtask.osexp","C:\Users\Colton\OneDrive\Desktop","no","mono","no","18","no","white","no","yes","768","legacy","67","11","C:/Users/Colton/OneDrive/Desktop/CS-subject-2-LAB 3.1.csv","legacy","1 5 3 2 8","Lentiform Loewenfeld","3.3.3","0","n","0","right","left","left","right","NA","693","21838","18372","693","NA","2","legacy","5","1024","2","48000","-16","experiment","2","even","4","542378","538922","540163","9155","127753","540167","484132","9161","109379","544383","545080","541173","31002","544383","NA","Sterberg task","76","49576","80","yes","1024"
"95.06172839506173","95.06172839506173","619.358024691358","619.358024691358","black","experiment","legacy","legacy","legacy","0","uniform","1","undefined","1","right","80","80","80","0","0","80","80","0","0","80","80","80","0","80","0","Wed Oct 21 11:21:48 2020","The main experiment item","yes","Sterbergtask.osexp","C:\Users\Colton\OneDrive\Desktop","no","mono","no","18","no","white","no","yes","768","legacy","68","11","C:/Users/Colton/OneDrive/Desktop/CS-subject-2-LAB 3.1.csv","legacy","7 1","Lentiform Loewenfeld","3.3.3","0","n","0","right","left","left","right","NA","592","21838","18372","592","NA","2","legacy","2","1024","2","48000","-16","experiment","2","even","8","548603","545147","546380","9155","127753","546385","484132","9161","109379","550607","551203","547391","31002","550607","NA","Sterberg task","77","50168","81","yes","1024"
"95.1219512195122","95.1219512195122","618.4512195121952","618.4512195121952","black","experiment","legacy","legacy","legacy","0","uniform","1","undefined","1","right","81","81","81","0","0","81","81","0","0","81","81","81","0","81","0","Wed Oct 21 11:21:48 2020","The main experiment item","yes","Sterbergtask.osexp","C:\Users\Colton\OneDrive\Desktop","no","mono","no","18","no","white","no","yes","768","legacy","69","11","C:/Users/Colton/OneDrive/Desktop/CS-subject-2-LAB 3.1.csv","legacy","1","Lentiform Loewenfeld","3.3.3","0","n","0","right","left","left","right","NA","545","21838","18372","545","NA","2","legacy","1","1024","2","48000","-16","experiment","2","even","7","554735","551279","552515","9155","127753","552519","484132","9161","109379","556742","557292","553523","31002","556741","NA","Sterberg task","78","50713","82","yes","1024"
"95.18072289156626","95.18072289156626","620.6506024096385","620.6506024096385","black","experiment","legacy","legacy","legacy","0","uniform","1","undefined","1","left","82","82","82","0","0","82","82","0","0","82","82","82","0","82","0","Wed Oct 21 11:21:48 2020","The main experiment item","yes","Sterbergtask.osexp","C:\Users\Colton\OneDrive\Desktop","no","mono","no","18","no","white","no","yes","768","legacy","70","11","C:/Users/Colton/OneDrive/Desktop/CS-subject-2-LAB 3.1.csv","legacy","4 6 5 8","Lentiform Loewenfeld","3.3.3","1","y","0","left","left","left","left","NA","801","21838","18372","801","NA","2","legacy","4","1024","2","48000","-16","experiment","2","even","4","560786","557334","558570","9155","127753","558575","484132","9161","109379","562792","563597","559581","31002","562791","NA","Sterberg task","79","51514","83","yes","1024"
"95.23809523809524","95.23809523809524","622.297619047619","622.297619047619","black","experiment","legacy","legacy","legacy","0","uniform","1","undefined","1","right","83","83","83","0","0","83","83","0","0","83","83","83","0","83","0","Wed Oct 21 11:21:48 2020","The main experiment item","yes","Sterbergtask.osexp","C:\Users\Colton\OneDrive\Desktop","no","mono","no","18","no","white","no","yes","768","legacy","71","11","C:/Users/Colton/OneDrive/Desktop/CS-subject-2-LAB 3.1.csv","legacy","2 8 6 3 1","Lentiform Loewenfeld","3.3.3","0","n","0","right","left","left","right","NA","759","21838","18372","759","NA","2","legacy","5","1024","2","48000","-16","experiment","2","even","7","567148","563701","564932","9155","127753","564936","484132","9161","109379","569154","569917","565941","31002","569153","NA","Sterberg task","80","52273","84","yes","1024"
"95.29411764705883","95.29411764705883","621.9882352941177","621.9882352941177","black","experiment","legacy","legacy","legacy","0","uniform","1","undefined","1","left","84","84","84","0","0","84","84","0","0","84","84","84","0","84","0","Wed Oct 21 11:21:48 2020","The main experiment item","yes","Sterbergtask.osexp","C:\Users\Colton\OneDrive\Desktop","no","mono","no","18","no","white","no","yes","768","legacy","72","11","C:/Users/Colton/OneDrive/Desktop/CS-subject-2-LAB 3.1.csv","legacy","4 7 6 8 2 3","Lentiform Loewenfeld","3.3.3","6","y","0","left","left","left","left","NA","596","21838","18372","596","NA","2","legacy","6","1024","2","48000","-16","experiment","2","even","3","573398","569944","571182","9155","127753","571187","484132","9161","109379","575404","576004","572192","31002","575403","NA","Sterberg task","81","52869","85","yes","1024"
"94.18604651162791","94.18604651162791","620.1395348837209","620.1395348837209","black","experiment","legacy","legacy","legacy","0","uniform","0","undefined","0","right","85","85","85","0","0","85","85","0","0","85","85","85","0","85","0","Wed Oct 21 11:21:48 2020","The main experiment item","yes","Sterbergtask.osexp","C:\Users\Colton\OneDrive\Desktop","no","mono","no","18","no","white","no","yes","768","legacy","73","11","C:/Users/Colton/OneDrive/Desktop/CS-subject-2-LAB 3.1.csv","legacy","8 5 4 2 9 6","Lentiform Loewenfeld","3.3.3","0","n","0","left","left","left","left","NA","463","21838","18372","463","NA","2","legacy","6","1024","2","48000","-16","experiment","2","even","3","579529","576082","577315","9155","127753","577320","484132","9161","109379","581534","582001","578325","31002","581533","NA","Sterberg task","81","53332","86","yes","1024"
"94.25287356321839","94.25287356321839","619.528735632184","619.528735632184","black","experiment","legacy","legacy","legacy","0","uniform","1","undefined","1","left","86","86","86","0","0","86","86","0","0","86","86","86","0","86","0","Wed Oct 21 11:21:48 2020","The main experiment item","yes","Sterbergtask.osexp","C:\Users\Colton\OneDrive\Desktop","no","mono","no","18","no","white","no","yes","768","legacy","74","11","C:/Users/Colton/OneDrive/Desktop/CS-subject-2-LAB 3.1.csv","legacy","2 4 6 9","Lentiform Loewenfeld","3.3.3","3","y","0","left","left","left","left","NA","567","21838","18372","567","NA","2","legacy","4","1024","2","48000","-16","experiment","2","even","6","585505","576082","583283","9155","127753","583288","582045","9161","109379","587510","588080","584293","31002","587510","NA","Sterberg task","82","53899","87","yes","1024"
"94.31818181818181","94.31818181818181","618.0454545454545","618.0454545454545","black","experiment","legacy","legacy","legacy","0","uniform","1","undefined","1","right","87","87","87","0","0","87","87","0","0","87","87","87","0","87","0","Wed Oct 21 11:21:48 2020","The main experiment item","yes","Sterbergtask.osexp","C:\Users\Colton\OneDrive\Desktop","no","mono","no","18","no","white","no","yes","768","legacy","75","11","C:/Users/Colton/OneDrive/Desktop/CS-subject-2-LAB 3.1.csv","legacy","4 8 1 2","Lentiform Loewenfeld","3.3.3","0","n","0","right","left","left","right","NA","489","21838","18372","489","NA","2","legacy","4","1024","2","48000","-16","experiment","2","even","7","591572","588123","589359","9155","127753","589364","582045","9161","109379","593578","594071","590368","31002","593577","NA","Sterberg task","83","54388","88","yes","1024"
"94.38202247191012","94.38202247191012","617.2808988764045","617.2808988764045","black","experiment","legacy","legacy","legacy","0","uniform","1","undefined","1","left","88","88","88","0","0","88","88","0","0","88","88","88","0","88","0","Wed Oct 21 11:21:48 2020","The main experiment item","yes","Sterbergtask.osexp","C:\Users\Colton\OneDrive\Desktop","no","mono","no","18","no","white","no","yes","768","legacy","76","11","C:/Users/Colton/OneDrive/Desktop/CS-subject-2-LAB 3.1.csv","legacy","9 4 2","Lentiform Loewenfeld","3.3.3","1","y","0","left","left","left","left","NA","550","21838","18372","550","NA","2","legacy","3","1024","2","48000","-16","experiment","2","even","9","597557","594101","595343","9155","127753","595348","582045","9161","109379","599562","600116","596353","31002","599562","NA","Sterberg task","84","54938","89","yes","1024"
"94.44444444444444","94.44444444444444","617.1222222222223","617.1222222222223","black","experiment","legacy","legacy","legacy","0","uniform","1","undefined","1","right","89","89","89","0","0","89","89","0","0","89","89","89","0","89","0","Wed Oct 21 11:21:48 2020","The main experiment item","yes","Sterbergtask.osexp","C:\Users\Colton\OneDrive\Desktop","no","mono","no","18","no","white","no","yes","768","legacy","77","11","C:/Users/Colton/OneDrive/Desktop/CS-subject-2-LAB 3.1.csv","legacy","7 3 2 8","Lentiform Loewenfeld","3.3.3","0","n","0","right","left","left","right","NA","603","21838","18372","603","NA","2","legacy","4","1024","2","48000","-16","experiment","2","even","4","603606","600145","601391","9155","127753","601395","582045","9161","109379","605610","606216","602400","31002","605610","NA","Sterberg task","85","55541","90","yes","1024"
"94.50549450549451","94.50549450549451","618.5384615384615","618.5384615384615","black","experiment","legacy","legacy","legacy","0","uniform","1","undefined","1","left","90","90","90","0","0","90","90","0","0","90","90","90","0","90","0","Wed Oct 21 11:21:48 2020","The main experiment item","yes","Sterbergtask.osexp","C:\Users\Colton\OneDrive\Desktop","no","mono","no","18","no","white","no","yes","768","legacy","78","11","C:/Users/Colton/OneDrive/Desktop/CS-subject-2-LAB 3.1.csv","legacy","8 5 4 7 3 1","Lentiform Loewenfeld","3.3.3","2","y","0","left","left","left","left","NA","746","21838","18372","746","NA","2","legacy","6","1024","2","48000","-16","experiment","2","even","5","609707","606245","607489","9155","127753","607494","582045","9161","109379","611714","612464","608500","31002","611713","NA","Sterberg task","86","56287","91","yes","1024"
"94.56521739130434","94.56521739130434","616.695652173913","616.695652173913","black","experiment","legacy","legacy","legacy","0","uniform","1","undefined","1","left","91","91","91","0","0","91","91","0","0","91","91","91","0","91","0","Wed Oct 21 11:21:48 2020","The main experiment item","yes","Sterbergtask.osexp","C:\Users\Colton\OneDrive\Desktop","no","mono","no","18","no","white","no","yes","768","legacy","79","11","C:/Users/Colton/OneDrive/Desktop/CS-subject-2-LAB 3.1.csv","legacy","9 5 3 8 4","Lentiform Loewenfeld","3.3.3","1","y","0","left","left","left","left","NA","449","21838","18372","449","NA","2","legacy","5","1024","2","48000","-16","experiment","2","even","9","615996","612535","613772","9155","127753","613777","582045","9161","109379","618002","618456","614782","31002","618001","NA","Sterberg task","87","56736","92","yes","1024"
"94.6236559139785","94.6236559139785","618.2795698924731","618.2795698924731","black","experiment","legacy","legacy","legacy","0","uniform","1","undefined","1","right","92","92","92","0","0","92","92","0","0","92","92","92","0","92","0","Wed Oct 21 11:21:48 2020","The main experiment item","yes","Sterbergtask.osexp","C:\Users\Colton\OneDrive\Desktop","no","mono","no","18","no","white","no","yes","768","legacy","80","11","C:/Users/Colton/OneDrive/Desktop/CS-subject-2-LAB 3.1.csv","legacy","2 5 1 4","Lentiform Loewenfeld","3.3.3","0","n","0","right","left","left","right","NA","764","21838","18372","764","NA","2","legacy","4","1024","2","48000","-16","experiment","2","even","6","621943","618491","619728","9155","127753","619732","582045","9161","109379","623950","624718","620738","31002","623949","NA","Sterberg task","88","57500","93","yes","1024"
"94.68085106382979","94.68085106382979","619.4148936170212","619.4148936170212","black","experiment","legacy","legacy","legacy","0","uniform","1","undefined","1","right","93","93","93","0","0","93","93","0","0","93","93","93","0","93","0","Wed Oct 21 11:21:48 2020","The main experiment item","yes","Sterbergtask.osexp","C:\Users\Colton\OneDrive\Desktop","no","mono","no","18","no","white","no","yes","768","legacy","81","11","C:/Users/Colton/OneDrive/Desktop/CS-subject-2-LAB 3.1.csv","legacy","6 7 5 9","Lentiform Loewenfeld","3.3.3","0","n","0","right","left","left","right","NA","725","21838","18372","725","NA","2","legacy","4","1024","2","48000","-16","experiment","2","even","2","628204","624746","625987","9155","127753","625992","582045","9161","109379","630209","630938","626999","31002","630209","NA","Sterberg task","89","58225","94","yes","1024"
"94.73684210526316","94.73684210526316","619.6421052631579","619.6421052631579","black","experiment","legacy","legacy","legacy","0","uniform","1","undefined","1","left","94","94","94","0","0","94","94","0","0","94","94","94","0","94","0","Wed Oct 21 11:21:48 2020","The main experiment item","yes","Sterbergtask.osexp","C:\Users\Colton\OneDrive\Desktop","no","mono","no","18","no","white","no","yes","768","legacy","82","11","C:/Users/Colton/OneDrive/Desktop/CS-subject-2-LAB 3.1.csv","legacy","4 1 5","Lentiform Loewenfeld","3.3.3","2","y","0","left","left","left","left","NA","641","21838","18372","641","NA","2","legacy","3","1024","2","48000","-16","experiment","2","even","1","634425","630981","632210","9155","127753","632215","582045","9161","109379","636433","637078","633220","31002","636432","NA","Sterberg task","90","58866","95","yes","1024"
"94.79166666666667","94.79166666666667","618.6875","618.6875","black","experiment","legacy","legacy","legacy","0","uniform","1","undefined","1","right","95","95","95","0","0","95","95","0","0","95","95","95","0","95","0","Wed Oct 21 11:21:48 2020","The main experiment item","yes","Sterbergtask.osexp","C:\Users\Colton\OneDrive\Desktop","no","mono","no","18","no","white","no","yes","768","legacy","83","11","C:/Users/Colton/OneDrive/Desktop/CS-subject-2-LAB 3.1.csv","legacy","5 9 2 3","Lentiform Loewenfeld","3.3.3","0","n","0","right","left","left","right","NA","528","21838","18372","528","NA","2","legacy","4","1024","2","48000","-16","experiment","2","even","8","640616","637158","638401","9155","127753","638406","582045","9161","109379","642620","643152","639411","31002","642620","NA","Sterberg task","91","59394","96","yes","1024"
"93.81443298969072","93.81443298969072","617.4123711340206","617.4123711340206","black","experiment","legacy","legacy","legacy","0","uniform","0","undefined","0","right","96","96","96","0","0","96","96","0","0","96","96","96","0","96","0","Wed Oct 21 11:21:48 2020","The main experiment item","yes","Sterbergtask.osexp","C:\Users\Colton\OneDrive\Desktop","no","mono","no","18","no","white","no","yes","768","legacy","84","11","C:/Users/Colton/OneDrive/Desktop/CS-subject-2-LAB 3.1.csv","legacy","7 6 4 8 1 2","Lentiform Loewenfeld","3.3.3","0","n","0","left","left","left","left","NA","495","21838","18372","495","NA","2","legacy","6","1024","2","48000","-16","experiment","2","even","9","646648","643192","644428","9155","127753","644433","582045","9161","109379","648653","649152","645438","31002","648653","NA","Sterberg task","91","59889","97","yes","1024"
"93.87755102040816","93.87755102040816","619.7857142857143","619.7857142857143","black","experiment","legacy","legacy","legacy","0","uniform","1","undefined","1","right","97","97","97","0","0","97","97","0","0","97","97","97","0","97","0","Wed Oct 21 11:21:48 2020","The main experiment item","yes","Sterbergtask.osexp","C:\Users\Colton\OneDrive\Desktop","no","mono","no","18","no","white","no","yes","768","legacy","85","11","C:/Users/Colton/OneDrive/Desktop/CS-subject-2-LAB 3.1.csv","legacy","7 1 8 4 9 3","Lentiform Loewenfeld","3.3.3","0","n","0","right","left","left","right","NA","850","21838","18372","850","NA","2","legacy","6","1024","2","48000","-16","experiment","2","even","6","652636","643192","650417","9155","127753","650422","649181","9161","109379","654644","655498","651427","31002","654643","NA","Sterberg task","92","60739","98","yes","1024"
"93.93939393939394","93.93939393939394","618.7171717171717","618.7171717171717","black","experiment","legacy","legacy","legacy","0","uniform","1","undefined","1","left","98","98","98","0","0","98","98","0","0","98","98","98","0","98","0","Wed Oct 21 11:21:48 2020","The main experiment item","yes","Sterbergtask.osexp","C:\Users\Colton\OneDrive\Desktop","no","mono","no","18","no","white","no","yes","768","legacy","86","11","C:/Users/Colton/OneDrive/Desktop/CS-subject-2-LAB 3.1.csv","legacy","8 7 3","Lentiform Loewenfeld","3.3.3","1","y","0","left","left","left","left","NA","514","21838","18372","514","NA","2","legacy","3","1024","2","48000","-16","experiment","2","even","8","659000","655550","656785","9155","127753","656790","649181","9161","109379","661007","661525","657795","31002","661006","NA","Sterberg task","93","61253","99","yes","1024"
"94","94","616.8","616.8","black","experiment","legacy","legacy","legacy","0","uniform","1","undefined","1","left","99","99","99","0","0","99","99","0","0","99","99","99","0","99","0","Wed Oct 21 11:21:48 2020","The main experiment item","yes","Sterbergtask.osexp","C:\Users\Colton\OneDrive\Desktop","no","mono","no","18","no","white","no","yes","768","legacy","87","11","C:/Users/Colton/OneDrive/Desktop/CS-subject-2-LAB 3.1.csv","legacy","5 2 6","Lentiform Loewenfeld","3.3.3","2","y","0","left","left","left","left","NA","427","21838","18372","427","NA","2","legacy","3","1024","2","48000","-16","experiment","2","even","2","665039","661570","662815","9155","127753","662819","649181","9161","109379","667044","667475","663825","31002","667043","NA","Sterberg task","94","61680","100","yes","1024"
"94.05940594059406","94.05940594059406","618.2574257425742","618.2574257425742","black","experiment","legacy","legacy","legacy","0","uniform","1","undefined","1","left","100","100","100","0","0","100","100","0","0","100","100","100","0","100","0","Wed Oct 21 11:21:48 2020","The main experiment item","yes","Sterbergtask.osexp","C:\Users\Colton\OneDrive\Desktop","no","mono","no","18","no","white","no","yes","768","legacy","88","11","C:/Users/Colton/OneDrive/Desktop/CS-subject-2-LAB 3.1.csv","legacy","4 3 2 5 8","Lentiform Loewenfeld","3.3.3","2","y","0","left","left","left","left","NA","764","21838","18372","764","NA","2","legacy","5","1024","2","48000","-16","experiment","2","even","3","670965","667504","668744","9155","127753","668748","649181","9161","109379","672972","673741","669760","31002","672971","NA","Sterberg task","95","62444","101","yes","1024"
"94.11764705882354","94.11764705882354","617.5294117647059","617.5294117647059","black","experiment","legacy","legacy","legacy","0","uniform","1","undefined","1","right","101","101","101","0","0","101","101","0","0","101","101","101","0","101","0","Wed Oct 21 11:21:48 2020","The main experiment item","yes","Sterbergtask.osexp","C:\Users\Colton\OneDrive\Desktop","no","mono","no","18","no","white","no","yes","768","legacy","89","11","C:/Users/Colton/OneDrive/Desktop/CS-subject-2-LAB 3.1.csv","legacy","6 8 4","Lentiform Loewenfeld","3.3.3","0","n","0","right","left","left","right","NA","544","21838","18372","544","NA","2","legacy","3","1024","2","48000","-16","experiment","2","even","1","677230","673769","675008","9155","127753","675013","649181","9161","109379","679236","679784","676018","31002","679236","NA","Sterberg task","96","62988","102","yes","1024"
"94.1747572815534","94.1747572815534","618.0776699029126","618.0776699029126","black","experiment","legacy","legacy","legacy","0","uniform","1","undefined","1","right","102","102","102","0","0","102","102","0","0","102","102","102","0","102","0","Wed Oct 21 11:21:48 2020","The main experiment item","yes","Sterbergtask.osexp","C:\Users\Colton\OneDrive\Desktop","no","mono","no","18","no","white","no","yes","768","legacy","90","11","C:/Users/Colton/OneDrive/Desktop/CS-subject-2-LAB 3.1.csv","legacy","5 3 2 6 9 8","Lentiform Loewenfeld","3.3.3","0","n","0","right","left","left","right","NA","674","21838","18372","674","NA","2","legacy","6","1024","2","48000","-16","experiment","2","even","4","683329","679880","681112","9155","127753","681117","649181","9161","109379","685333","686011","682124","31002","685333","NA","Sterberg task","97","63662","103","yes","1024"
"94.23076923076923","94.23076923076923","617.4134615384615","617.4134615384615","black","experiment","legacy","legacy","legacy","0","uniform","1","undefined","1","left","103","103","103","0","0","103","103","0","0","103","103","103","0","103","0","Wed Oct 21 11:21:48 2020","The main experiment item","yes","Sterbergtask.osexp","C:\Users\Colton\OneDrive\Desktop","no","mono","no","18","no","white","no","yes","768","legacy","91","11","C:/Users/Colton/OneDrive/Desktop/CS-subject-2-LAB 3.1.csv","legacy","2 3","Lentiform Loewenfeld","3.3.3","1","y","0","left","left","left","left","NA","549","21838","18372","549","NA","2","legacy","2","1024","2","48000","-16","experiment","2","even","2","689506","686059","687291","9155","127753","687296","649181","9161","109379","691511","692064","688301","31002","691510","NA","Sterberg task","98","64211","104","yes","1024"
"94.28571428571429","94.28571428571429","617.3142857142857","617.3142857142857","black","experiment","legacy","legacy","legacy","0","uniform","1","undefined","1","right","104","104","104","0","0","104","104","0","0","104","104","104","0","104","0","Wed Oct 21 11:21:48 2020","The main experiment item","yes","Sterbergtask.osexp","C:\Users\Colton\OneDrive\Desktop","no","mono","no","18","no","white","no","yes","768","legacy","92","11","C:/Users/Colton/OneDrive/Desktop/CS-subject-2-LAB 3.1.csv","legacy","2 3 8 5 6 7","Lentiform Loewenfeld","3.3.3","0","n","0","right","left","left","right","NA","607","21838","18372","607","NA","2","legacy","6","1024","2","48000","-16","experiment","2","even","1","695555","692104","693339","9155","127753","693344","649181","9161","109379","697560","698172","694350","31002","697560","NA","Sterberg task","99","64818","105","yes","1024"
"94.33962264150944","94.33962264150944","617.3018867924528","617.3018867924528","black","experiment","legacy","legacy","legacy","0","uniform","1","undefined","1","left","105","105","105","0","0","105","105","0","0","105","105","105","0","105","0","Wed Oct 21 11:21:48 2020","The main experiment item","yes","Sterbergtask.osexp","C:\Users\Colton\OneDrive\Desktop","no","mono","no","18","no","white","no","yes","768","legacy","93","11","C:/Users/Colton/OneDrive/Desktop/CS-subject-2-LAB 3.1.csv","legacy","7 8 4 6 9 5","Lentiform Loewenfeld","3.3.3","4","y","0","left","left","left","left","NA","616","21838","18372","616","NA","2","legacy","6","1024","2","48000","-16","experiment","2","even","6","701662","698215","699448","9155","127753","699453","649181","9161","109379","703667","704289","700458","31002","703666","NA","Sterberg task","100","65434","106","yes","1024"
"94.39252336448598","94.39252336448598","616.3271028037383","616.3271028037383","black","experiment","legacy","legacy","legacy","0","uniform","1","undefined","1","right","106","106","106","0","0","106","106","0","0","106","106","106","0","106","0","Wed Oct 21 11:21:48 2020","The main experiment item","yes","Sterbergtask.osexp","C:\Users\Colton\OneDrive\Desktop","no","mono","no","18","no","white","no","yes","768","legacy","94","11","C:/Users/Colton/OneDrive/Desktop/CS-subject-2-LAB 3.1.csv","legacy","5","Lentiform Loewenfeld","3.3.3","0","n","0","right","left","left","right","NA","513","21838","18372","513","NA","2","legacy","1","1024","2","48000","-16","experiment","2","even","8","707840","704386","705620","9155","127753","705625","649181","9161","109379","709846","710363","706635","31002","709845","NA","Sterberg task","101","65947","107","yes","1024"
"94.44444444444444","94.44444444444444","618.6296296296297","618.6296296296297","black","experiment","legacy","legacy","legacy","0","uniform","1","undefined","1","right","107","107","107","0","0","107","107","0","0","107","107","107","0","107","0","Wed Oct 21 11:21:48 2020","The main experiment item","yes","Sterbergtask.osexp","C:\Users\Colton\OneDrive\Desktop","no","mono","no","18","no","white","no","yes","768","legacy","95","11","C:/Users/Colton/OneDrive/Desktop/CS-subject-2-LAB 3.1.csv","legacy","5 3 8 7 2 4","Lentiform Loewenfeld","3.3.3","0","n","0","right","left","left","right","NA","865","21838","18372","865","NA","2","legacy","6","1024","2","48000","-16","experiment","2","even","9","713907","710453","711692","9155","127753","711696","649181","9161","109379","715911","716780","712701","31002","715911","NA","Sterberg task","102","66812","108","yes","1024"
"94.4954128440367","94.4954128440367","618.3211009174312","618.3211009174312","black","experiment","legacy","legacy","legacy","0","uniform","1","undefined","1","right","108","108","108","0","0","108","108","0","0","108","108","108","0","108","0","Wed Oct 21 11:21:48 2020","The main experiment item","yes","Sterbergtask.osexp","C:\Users\Colton\OneDrive\Desktop","no","mono","no","18","no","white","no","yes","768","legacy","96","11","C:/Users/Colton/OneDrive/Desktop/CS-subject-2-LAB 3.1.csv","legacy","8 2 1 4 5 9","Lentiform Loewenfeld","3.3.3","0","n","0","right","left","left","right","NA","585","21838","18372","585","NA","2","legacy","6","1024","2","48000","-16","experiment","2","even","7","720326","716871","718111","9155","127753","718116","649181","9161","109379","722333","722924","719121","31002","722332","NA","Sterberg task","103","67397","109","yes","1024"
"94.54545454545455","94.54545454545455","619.4818181818182","619.4818181818182","black","experiment","legacy","legacy","legacy","0","uniform","1","undefined","1","right","109","109","109","0","0","109","109","0","0","109","109","109","0","109","0","Wed Oct 21 11:21:48 2020","The main experiment item","yes","Sterbergtask.osexp","C:\Users\Colton\OneDrive\Desktop","no","mono","no","18","no","white","no","yes","768","legacy","97","11","C:/Users/Colton/OneDrive/Desktop/CS-subject-2-LAB 3.1.csv","legacy","4 2 6 9","Lentiform Loewenfeld","3.3.3","0","n","0","right","left","left","right","NA","746","21838","18372","746","NA","2","legacy","4","1024","2","48000","-16","experiment","2","even","7","726413","722960","724197","9155","127753","724202","649181","9161","109379","728418","729168","725207","31002","728418","NA","Sterberg task","104","68143","110","yes","1024"
"94.5945945945946","94.5945945945946","619.6126126126126","619.6126126126126","black","experiment","legacy","legacy","legacy","0","uniform","1","undefined","1","right","110","110","110","0","0","110","110","0","0","110","110","110","0","110","0","Wed Oct 21 11:21:48 2020","The main experiment item","yes","Sterbergtask.osexp","C:\Users\Colton\OneDrive\Desktop","no","mono","no","18","no","white","no","yes","768","legacy","98","11","C:/Users/Colton/OneDrive/Desktop/CS-subject-2-LAB 3.1.csv","legacy","6 9 4 5 3 2","Lentiform Loewenfeld","3.3.3","0","n","0","right","left","left","right","NA","634","21838","18372","634","NA","2","legacy","6","1024","2","48000","-16","experiment","2","even","8","732657","729205","730442","9155","127753","730447","649181","9161","109379","734661","735299","731452","31002","734661","NA","Sterberg task","105","68777","111","yes","1024"
"94.64285714285714","94.64285714285714","620.3571428571429","620.3571428571429","black","experiment","legacy","legacy","legacy","0","uniform","1","undefined","1","left","111","111","111","0","0","111","111","0","0","111","111","111","0","111","0","Wed Oct 21 11:21:48 2020","The main experiment item","yes","Sterbergtask.osexp","C:\Users\Colton\OneDrive\Desktop","no","mono","no","18","no","white","no","yes","768","legacy","99","11","C:/Users/Colton/OneDrive/Desktop/CS-subject-2-LAB 3.1.csv","legacy","7 2 3","Lentiform Loewenfeld","3.3.3","3","y","0","left","left","left","left","NA","703","21838","18372","703","NA","2","legacy","3","1024","2","48000","-16","experiment","2","even","3","738823","735372","736607","9155","127753","736612","649181","9161","109379","740829","741537","737617","31002","740829","NA","Sterberg task","106","69480","112","yes","1024"
"94.69026548672566","94.69026548672566","619.6902654867257","619.6902654867257","black","experiment","legacy","legacy","legacy","0","uniform","1","undefined","1","right","112","112","112","0","0","112","112","0","0","112","112","112","0","112","0","Wed Oct 21 11:21:48 2020","The main experiment item","yes","Sterbergtask.osexp","C:\Users\Colton\OneDrive\Desktop","no","mono","no","18","no","white","no","yes","768","legacy","100","11","C:/Users/Colton/OneDrive/Desktop/CS-subject-2-LAB 3.1.csv","legacy","1 6 4","Lentiform Loewenfeld","3.3.3","0","n","0","right","left","left","right","NA","545","21838","18372","545","NA","2","legacy","3","1024","2","48000","-16","experiment","2","even","7","745042","741582","742824","9155","127753","742829","649181","9161","109379","747049","747599","743837","31002","747048","NA","Sterberg task","107","70025","113","yes","1024"
"94.73684210526316","94.73684210526316","619.3070175438596","619.3070175438596","black","experiment","legacy","legacy","legacy","0","uniform","1","undefined","1","left","113","113","113","0","0","113","113","0","0","113","113","113","0","113","0","Wed Oct 21 11:21:48 2020","The main experiment item","yes","Sterbergtask.osexp","C:\Users\Colton\OneDrive\Desktop","no","mono","no","18","no","white","no","yes","768","legacy","101","11","C:/Users/Colton/OneDrive/Desktop/CS-subject-2-LAB 3.1.csv","legacy","6 9 3 1","Lentiform Loewenfeld","3.3.3","4","y","0","left","left","left","left","NA","576","21838","18372","576","NA","2","legacy","4","1024","2","48000","-16","experiment","2","even","1","751099","747650","748884","9155","127753","748889","649181","9161","109379","753103","753683","749894","31002","753103","NA","Sterberg task","108","70601","114","yes","1024"
"94.78260869565217","94.78260869565217","618.2","618.2","black","experiment","legacy","legacy","legacy","0","uniform","1","undefined","1","left","114","114","114","0","0","114","114","0","0","114","114","114","0","114","0","Wed Oct 21 11:21:48 2020","The main experiment item","yes","Sterbergtask.osexp","C:\Users\Colton\OneDrive\Desktop","no","mono","no","18","no","white","no","yes","768","legacy","102","11","C:/Users/Colton/OneDrive/Desktop/CS-subject-2-LAB 3.1.csv","legacy","8 1 6","Lentiform Loewenfeld","3.3.3","3","y","0","left","left","left","left","NA","492","21838","18372","492","NA","2","legacy","3","1024","2","48000","-16","experiment","2","even","6","757181","753728","754965","9155","127753","754970","649181","9161","109379","759191","759688","755975","31002","759191","NA","Sterberg task","109","71093","115","yes","1024"
"94.82758620689656","94.82758620689656","621.3793103448276","621.3793103448276","black","experiment","legacy","legacy","legacy","0","uniform","1","undefined","1","right","115","115","115","0","0","115","115","0","0","115","115","115","0","115","0","Wed Oct 21 11:21:48 2020","The main experiment item","yes","Sterbergtask.osexp","C:\Users\Colton\OneDrive\Desktop","no","mono","no","18","no","white","no","yes","768","legacy","103","11","C:/Users/Colton/OneDrive/Desktop/CS-subject-2-LAB 3.1.csv","legacy","6 9 7 3 8 2","Lentiform Loewenfeld","3.3.3","0","n","0","right","left","left","right","NA","987","21838","18372","987","NA","2","legacy","6","1024","2","48000","-16","experiment","2","even","5","763182","759728","760965","9155","127753","760970","649181","9161","109379","765188","766180","761976","31002","765188","NA","Sterberg task","110","72080","116","yes","1024"
