"acc","accuracy","average_response_time","avg_rt","background","block","canvas_backend","clock_backend","color_backend","compensation","coordinates","correct","correct_Instructions1","correct_keyboard_response","correct_response","count_ISI","count_Instructions1","count_Practiceloop","count_closing","count_correctFeedback","count_experiment","count_experimentalLoop","count_expsequence","count_fixation","count_incorrectFeedback","count_instructions2","count_keyboard_response","count_logger","count_memoryset","count_probe","datetime","description","disable_garbage_collection","experiment_file","experiment_path","font_bold","font_family","font_italic","font_size","font_underline","foreground","form_clicks","fullscreen","height","keyboard_backend","live_row","live_row_Practiceloop","logfile","mouse_backend","numberSet","opensesame_codename","opensesame_version","posInSet","present","psychopy_suppress_warnings","repeat_cycle","response","response_Instructions1","response_closing","response_instructions2","response_keyboard_response","response_time","response_time_Instructions1","response_time_closing","response_time_instructions2","response_time_keyboard_response","round_decimals","sampler_backend","setSize","sound_buf_size","sound_channels","sound_freq","sound_sample_size","start","subject_nr","subject_parity","target","time_ISI","time_Instructions1","time_Practiceloop","time_closing","time_correctFeedback","time_experiment","time_experimentalLoop","time_expsequence","time_fixation","time_incorrectFeedback","time_instructions2","time_keyboard_response","time_logger","time_memoryset","time_probe","title","total_correct","total_response_time","total_responses","uniform_coordinates","width"
"100","100","490","490","black","practice","legacy","legacy","legacy","0","uniform","1","undefined","1","right","0","0","0","0","0","0","0","0","0","0","0","0","0","0","0","10/25/20 18:50:28","The main experiment item","yes","SternbergTask.osexp","C:\Users\User\Desktop\Quant 2020\Sternberg Task 3","no","mono","no","18","no","white","no","yes","768","legacy","0","0","C:/Users/User/Desktop/Quant 2020/Sternberg Task 3/VT-subject-4.csv","legacy","2 1","Lentiform Loewenfeld","3.3.3","0","n","yes","0","right","left","NA","NA","right","490","80541","NA","NA","490","2","legacy","2","1024","2","48000","-16","experiment","4","even","5","85949","2068","82610","NA","NA","2061","NA","83733","83735","NA","NA","87955","88446","84742","87955","Sternberg Task","1","490","1","yes","1024"
"100","100","517.5","517.5","black","practice","legacy","legacy","legacy","0","uniform","1","undefined","1","right","1","0","0","0","1","0","0","1","1","1","0","1","1","1","1","10/25/20 18:50:28","The main experiment item","yes","SternbergTask.osexp","C:\Users\User\Desktop\Quant 2020\Sternberg Task 3","no","mono","no","18","no","white","no","yes","768","legacy","1","1","C:/Users/User/Desktop/Quant 2020/Sternberg Task 3/VT-subject-4.csv","legacy","4 1 5","Lentiform Loewenfeld","3.3.3","0","n","yes","0","right","left","NA","NA","right","545","80541","NA","NA","545","2","legacy","3","1024","2","48000","-16","experiment","4","even","2","91875","2068","82610","NA","88523","2061","NA","89661","89663","NA","NA","93881","94426","90669","93881","Sternberg Task","2","1035","2","yes","1024"
"100","100","602.666666667","602.666666667","black","practice","legacy","legacy","legacy","0","uniform","1","undefined","1","left","2","0","0","0","2","0","0","2","2","2","0","2","2","2","2","10/25/20 18:50:28","The main experiment item","yes","SternbergTask.osexp","C:\Users\User\Desktop\Quant 2020\Sternberg Task 3","no","mono","no","18","no","white","no","yes","768","legacy","2","2","C:/Users/User/Desktop/Quant 2020/Sternberg Task 3/VT-subject-4.csv","legacy","1 7 9 8 5","Lentiform Loewenfeld","3.3.3","4","y","yes","0","left","left","NA","NA","left","773","80541","NA","NA","773","2","legacy","5","1024","2","48000","-16","experiment","4","even","8","97787","2068","82610","NA","94432","2061","NA","95573","95575","NA","NA","99793","100567","96581","99793","Sternberg Task","3","1808","3","yes","1024"
"100","100","633.5","633.5","black","practice","legacy","legacy","legacy","0","uniform","1","undefined","1","left","3","0","0","0","3","0","0","3","3","3","0","3","3","3","3","10/25/20 18:50:28","The main experiment item","yes","SternbergTask.osexp","C:\Users\User\Desktop\Quant 2020\Sternberg Task 3","no","mono","no","18","no","white","no","yes","768","legacy","3","3","C:/Users/User/Desktop/Quant 2020/Sternberg Task 3/VT-subject-4.csv","legacy","4 8","Lentiform Loewenfeld","3.3.3","1","y","yes","0","left","left","NA","NA","left","726","80541","NA","NA","726","2","legacy","2","1024","2","48000","-16","experiment","4","even","4","103925","2068","82610","NA","100572","2061","NA","101710","101712","NA","NA","105932","106659","102719","105931","Sternberg Task","4","2534","4","yes","1024"
"100","100","636","636","black","practice","legacy","legacy","legacy","0","uniform","1","undefined","1","left","4","0","0","0","4","0","0","4","4","4","0","4","4","4","4","10/25/20 18:50:28","The main experiment item","yes","SternbergTask.osexp","C:\Users\User\Desktop\Quant 2020\Sternberg Task 3","no","mono","no","18","no","white","no","yes","768","legacy","4","4","C:/Users/User/Desktop/Quant 2020/Sternberg Task 3/VT-subject-4.csv","legacy","4 3 1 7 9 8","Lentiform Loewenfeld","3.3.3","1","y","yes","0","left","left","NA","NA","left","646","80541","NA","NA","646","2","legacy","6","1024","2","48000","-16","experiment","4","even","4","110014","2068","82610","NA","106664","2061","NA","107799","107801","NA","NA","112020","112666","108808","112019","Sternberg Task","5","3180","5","yes","1024"
"100","100","632.5","632.5","black","practice","legacy","legacy","legacy","0","uniform","1","undefined","1","left","5","0","0","0","5","0","0","5","5","5","0","5","5","5","5","10/25/20 18:50:28","The main experiment item","yes","SternbergTask.osexp","C:\Users\User\Desktop\Quant 2020\Sternberg Task 3","no","mono","no","18","no","white","no","yes","768","legacy","5","5","C:/Users/User/Desktop/Quant 2020/Sternberg Task 3/VT-subject-4.csv","legacy","1 5 2 9","Lentiform Loewenfeld","3.3.3","2","y","yes","0","left","left","NA","NA","left","615","80541","NA","NA","615","2","legacy","4","1024","2","48000","-16","experiment","4","even","5","116024","2068","82610","NA","112671","2061","NA","113811","113813","NA","NA","118031","118646","114818","118030","Sternberg Task","6","3795","6","yes","1024"
"100","100","645","645","black","practice","legacy","legacy","legacy","0","uniform","1","undefined","1","right","6","0","0","0","6","0","0","6","6","6","0","6","6","6","6","10/25/20 18:50:28","The main experiment item","yes","SternbergTask.osexp","C:\Users\User\Desktop\Quant 2020\Sternberg Task 3","no","mono","no","18","no","white","no","yes","768","legacy","6","6","C:/Users/User/Desktop/Quant 2020/Sternberg Task 3/VT-subject-4.csv","legacy","3 1 9 4","Lentiform Loewenfeld","3.3.3","0","n","yes","0","right","left","NA","NA","right","720","80541","NA","NA","720","2","legacy","4","1024","2","48000","-16","experiment","4","even","6","122011","2068","82610","NA","118652","2061","NA","119795","119797","NA","NA","124018","124739","120804","124017","Sternberg Task","7","4515","7","yes","1024"
"100","100","656.375","656.375","black","practice","legacy","legacy","legacy","0","uniform","1","undefined","1","right","7","0","0","0","7","0","0","7","7","7","0","7","7","7","7","10/25/20 18:50:28","The main experiment item","yes","SternbergTask.osexp","C:\Users\User\Desktop\Quant 2020\Sternberg Task 3","no","mono","no","18","no","white","no","yes","768","legacy","7","7","C:/Users/User/Desktop/Quant 2020/Sternberg Task 3/VT-subject-4.csv","legacy","9 6 7 4 5","Lentiform Loewenfeld","3.3.3","0","n","yes","0","right","left","NA","NA","right","736","80541","NA","NA","736","2","legacy","5","1024","2","48000","-16","experiment","4","even","3","128099","2068","82610","NA","124744","2061","NA","125884","125887","NA","NA","130106","130843","126893","130106","Sternberg Task","8","5251","8","yes","1024"
"100","100","656.222222222","656.222222222","black","practice","legacy","legacy","legacy","0","uniform","1","undefined","1","right","8","0","0","0","8","0","0","8","8","8","0","8","8","8","8","10/25/20 18:50:28","The main experiment item","yes","SternbergTask.osexp","C:\Users\User\Desktop\Quant 2020\Sternberg Task 3","no","mono","no","18","no","white","no","yes","768","legacy","8","8","C:/Users/User/Desktop/Quant 2020/Sternberg Task 3/VT-subject-4.csv","legacy","5","Lentiform Loewenfeld","3.3.3","0","n","yes","0","right","left","NA","NA","right","655","80541","NA","NA","655","2","legacy","1","1024","2","48000","-16","experiment","4","even","3","134193","2068","82610","NA","130848","2061","NA","131979","131982","NA","NA","136200","136856","132988","136200","Sternberg Task","9","5906","9","yes","1024"
"100","100","695.9","695.9","black","practice","legacy","legacy","legacy","0","uniform","1","undefined","1","left","9","0","0","0","9","0","0","9","9","9","0","9","9","9","9","10/25/20 18:50:28","The main experiment item","yes","SternbergTask.osexp","C:\Users\User\Desktop\Quant 2020\Sternberg Task 3","no","mono","no","18","no","white","no","yes","768","legacy","9","9","C:/Users/User/Desktop/Quant 2020/Sternberg Task 3/VT-subject-4.csv","legacy","2 9 4","Lentiform Loewenfeld","3.3.3","3","y","yes","0","left","left","NA","NA","left","1053","80541","NA","NA","1053","2","legacy","3","1024","2","48000","-16","experiment","4","even","4","140216","2068","82610","NA","136861","2061","NA","138001","138004","NA","NA","142223","143277","139010","142222","Sternberg Task","10","6959","10","yes","1024"
"100","100","703.727272727","703.727272727","black","practice","legacy","legacy","legacy","0","uniform","1","undefined","1","right","10","0","0","0","10","0","0","10","10","10","0","10","10","10","10","10/25/20 18:50:28","The main experiment item","yes","SternbergTask.osexp","C:\Users\User\Desktop\Quant 2020\Sternberg Task 3","no","mono","no","18","no","white","no","yes","768","legacy","10","10","C:/Users/User/Desktop/Quant 2020/Sternberg Task 3/VT-subject-4.csv","legacy","5 7 8 4 1 2","Lentiform Loewenfeld","3.3.3","0","n","yes","0","right","left","NA","NA","right","782","80541","NA","NA","782","2","legacy","6","1024","2","48000","-16","experiment","4","even","6","146639","2068","82610","NA","143282","2061","NA","144425","144428","NA","NA","148646","149429","145434","148646","Sternberg Task","11","7741","11","yes","1024"
"100","100","693","693","black","practice","legacy","legacy","legacy","0","uniform","1","undefined","1","left","11","0","0","0","11","0","0","11","11","11","0","11","11","11","11","10/25/20 18:50:28","The main experiment item","yes","SternbergTask.osexp","C:\Users\User\Desktop\Quant 2020\Sternberg Task 3","no","mono","no","18","no","white","no","yes","768","legacy","11","11","C:/Users/User/Desktop/Quant 2020/Sternberg Task 3/VT-subject-4.csv","legacy","6","Lentiform Loewenfeld","3.3.3","1","y","yes","0","left","left","NA","NA","left","575","80541","NA","NA","575","2","legacy","1","1024","2","48000","-16","experiment","4","even","6","152794","2068","82610","NA","149434","2061","NA","150579","150582","NA","NA","154800","155376","151588","154799","Sternberg Task","12","8316","12","yes","1024"
"100","100","693","693","black","experiment","legacy","legacy","legacy","0","uniform","1","undefined","1","left","12","0","0","0","12","0","0","12","12","12","0","12","12","12","12","10/25/20 18:50:28","The main experiment item","yes","SternbergTask.osexp","C:\Users\User\Desktop\Quant 2020\Sternberg Task 3","no","mono","no","18","no","white","no","yes","768","legacy","0","11","C:/Users/User/Desktop/Quant 2020/Sternberg Task 3/VT-subject-4.csv","legacy","6 1 2","Lentiform Loewenfeld","3.3.3","3","y","yes","0","left","left","NA","left","left","693","80541","NA","16854","693","2","legacy","3","1024","2","48000","-16","experiment","4","even","2","175650","2068","82610","NA","155381","2061","173277","173434","173437","NA","156422","177656","178350","174443","177656","Sternberg Task","13","9009","13","yes","1024"
"100","100","714.428571429","714.428571429","black","experiment","legacy","legacy","legacy","0","uniform","1","undefined","1","left","13","0","0","0","13","0","0","13","13","13","0","13","13","13","13","10/25/20 18:50:28","The main experiment item","yes","SternbergTask.osexp","C:\Users\User\Desktop\Quant 2020\Sternberg Task 3","no","mono","no","18","no","white","no","yes","768","legacy","1","11","C:/Users/User/Desktop/Quant 2020/Sternberg Task 3/VT-subject-4.csv","legacy","9 5 3 8 4","Lentiform Loewenfeld","3.3.3","1","y","yes","0","left","left","NA","left","left","993","80541","NA","16854","993","2","legacy","5","1024","2","48000","-16","experiment","4","even","9","181712","2068","82610","NA","178355","2061","173277","179497","179499","NA","156422","183719","184712","180505","183719","Sternberg Task","14","10002","14","yes","1024"
"100","100","709.4","709.4","black","experiment","legacy","legacy","legacy","0","uniform","1","undefined","1","left","14","0","0","0","14","0","0","14","14","14","0","14","14","14","14","10/25/20 18:50:28","The main experiment item","yes","SternbergTask.osexp","C:\Users\User\Desktop\Quant 2020\Sternberg Task 3","no","mono","no","18","no","white","no","yes","768","legacy","2","11","C:/Users/User/Desktop/Quant 2020/Sternberg Task 3/VT-subject-4.csv","legacy","9 6 2 4 1","Lentiform Loewenfeld","3.3.3","4","y","yes","0","left","left","NA","left","left","639","80541","NA","16854","639","2","legacy","5","1024","2","48000","-16","experiment","4","even","4","188071","2068","82610","NA","184718","2061","173277","185858","185860","NA","156422","190078","190718","186866","190077","Sternberg Task","15","10641","15","yes","1024"
"100","100","702.4375","702.4375","black","experiment","legacy","legacy","legacy","0","uniform","1","undefined","1","right","15","0","0","0","15","0","0","15","15","15","0","15","15","15","15","10/25/20 18:50:28","The main experiment item","yes","SternbergTask.osexp","C:\Users\User\Desktop\Quant 2020\Sternberg Task 3","no","mono","no","18","no","white","no","yes","768","legacy","3","11","C:/Users/User/Desktop/Quant 2020/Sternberg Task 3/VT-subject-4.csv","legacy","1 3 2 6 9","Lentiform Loewenfeld","3.3.3","0","n","yes","0","right","left","NA","left","right","598","80541","NA","16854","598","2","legacy","5","1024","2","48000","-16","experiment","4","even","5","194075","2068","82610","NA","190723","2061","173277","191859","191861","NA","156422","196081","196680","192868","196081","Sternberg Task","16","11239","16","yes","1024"
"100","100","699.117647059","699.117647059","black","experiment","legacy","legacy","legacy","0","uniform","1","undefined","1","right","16","0","0","0","16","0","0","16","16","16","0","16","16","16","16","10/25/20 18:50:28","The main experiment item","yes","SternbergTask.osexp","C:\Users\User\Desktop\Quant 2020\Sternberg Task 3","no","mono","no","18","no","white","no","yes","768","legacy","4","11","C:/Users/User/Desktop/Quant 2020/Sternberg Task 3/VT-subject-4.csv","legacy","2 5 1 4","Lentiform Loewenfeld","3.3.3","0","n","yes","0","right","left","NA","left","right","646","80541","NA","16854","646","2","legacy","4","1024","2","48000","-16","experiment","4","even","6","200041","2068","82610","NA","196685","2061","173277","197826","197828","NA","156422","202047","202694","198834","202047","Sternberg Task","17","11885","17","yes","1024"
"100","100","695.666666667","695.666666667","black","experiment","legacy","legacy","legacy","0","uniform","1","undefined","1","right","17","0","0","0","17","0","0","17","17","17","0","17","17","17","17","10/25/20 18:50:28","The main experiment item","yes","SternbergTask.osexp","C:\Users\User\Desktop\Quant 2020\Sternberg Task 3","no","mono","no","18","no","white","no","yes","768","legacy","5","11","C:/Users/User/Desktop/Quant 2020/Sternberg Task 3/VT-subject-4.csv","legacy","2 7 5","Lentiform Loewenfeld","3.3.3","0","n","yes","0","right","left","NA","left","right","637","80541","NA","16854","637","2","legacy","3","1024","2","48000","-16","experiment","4","even","8","206048","2068","82610","NA","202699","2061","173277","203833","203836","NA","156422","208054","208692","204842","208054","Sternberg Task","18","12522","18","yes","1024"
"100","100","694.842105263","694.842105263","black","experiment","legacy","legacy","legacy","0","uniform","1","undefined","1","left","18","0","0","0","18","0","0","18","18","18","0","18","18","18","18","10/25/20 18:50:28","The main experiment item","yes","SternbergTask.osexp","C:\Users\User\Desktop\Quant 2020\Sternberg Task 3","no","mono","no","18","no","white","no","yes","768","legacy","6","11","C:/Users/User/Desktop/Quant 2020/Sternberg Task 3/VT-subject-4.csv","legacy","4 3 2 5 8","Lentiform Loewenfeld","3.3.3","2","y","yes","0","left","left","NA","left","left","680","80541","NA","16854","680","2","legacy","5","1024","2","48000","-16","experiment","4","even","3","212048","2068","82610","NA","208697","2061","173277","209834","209836","NA","156422","214055","214737","210843","214055","Sternberg Task","19","13202","19","yes","1024"
"100","100","704.5","704.5","black","experiment","legacy","legacy","legacy","0","uniform","1","undefined","1","left","19","0","0","0","19","0","0","19","19","19","0","19","19","19","19","10/25/20 18:50:28","The main experiment item","yes","SternbergTask.osexp","C:\Users\User\Desktop\Quant 2020\Sternberg Task 3","no","mono","no","18","no","white","no","yes","768","legacy","7","11","C:/Users/User/Desktop/Quant 2020/Sternberg Task 3/VT-subject-4.csv","legacy","9 3 8 2 1 4","Lentiform Loewenfeld","3.3.3","3","y","yes","0","left","left","NA","left","left","888","80541","NA","16854","888","2","legacy","6","1024","2","48000","-16","experiment","4","even","8","218103","2068","82610","NA","214741","2061","173277","215888","215891","NA","156422","220110","220999","216897","220109","Sternberg Task","20","14090","20","yes","1024"
"100","100","722.047619048","722.047619048","black","experiment","legacy","legacy","legacy","0","uniform","1","undefined","1","right","20","0","0","0","20","0","0","20","20","20","0","20","20","20","20","10/25/20 18:50:28","The main experiment item","yes","SternbergTask.osexp","C:\Users\User\Desktop\Quant 2020\Sternberg Task 3","no","mono","no","18","no","white","no","yes","768","legacy","8","11","C:/Users/User/Desktop/Quant 2020/Sternberg Task 3/VT-subject-4.csv","legacy","6 9 5","Lentiform Loewenfeld","3.3.3","0","n","yes","0","right","left","NA","left","right","1073","80541","NA","16854","1073","2","legacy","3","1024","2","48000","-16","experiment","4","even","8","224353","2068","82610","NA","221004","2061","173277","222138","222141","NA","156422","226359","227432","223147","226358","Sternberg Task","21","15163","21","yes","1024"
"100","100","731.727272727","731.727272727","black","experiment","legacy","legacy","legacy","0","uniform","1","undefined","1","right","21","0","0","0","21","0","0","21","21","21","0","21","21","21","21","10/25/20 18:50:28","The main experiment item","yes","SternbergTask.osexp","C:\Users\User\Desktop\Quant 2020\Sternberg Task 3","no","mono","no","18","no","white","no","yes","768","legacy","9","11","C:/Users/User/Desktop/Quant 2020/Sternberg Task 3/VT-subject-4.csv","legacy","1 4 9 3","Lentiform Loewenfeld","3.3.3","0","n","yes","0","right","left","NA","left","right","935","80541","NA","16854","935","2","legacy","4","1024","2","48000","-16","experiment","4","even","5","230793","2068","82610","NA","227437","2061","173277","228577","228579","NA","156422","232800","233736","229586","232800","Sternberg Task","22","16098","22","yes","1024"
"100","100","728.173913043","728.173913043","black","experiment","legacy","legacy","legacy","0","uniform","1","undefined","1","left","22","0","0","0","22","0","0","22","22","22","0","22","22","22","22","10/25/20 18:50:28","The main experiment item","yes","SternbergTask.osexp","C:\Users\User\Desktop\Quant 2020\Sternberg Task 3","no","mono","no","18","no","white","no","yes","768","legacy","10","11","C:/Users/User/Desktop/Quant 2020/Sternberg Task 3/VT-subject-4.csv","legacy","4 1 5","Lentiform Loewenfeld","3.3.3","2","y","yes","0","left","left","NA","left","left","650","80541","NA","16854","650","2","legacy","3","1024","2","48000","-16","experiment","4","even","1","237093","2068","82610","NA","233741","2061","173277","234878","234880","NA","156422","239099","239750","235887","239098","Sternberg Task","23","16748","23","yes","1024"
"100","100","726.166666667","726.166666667","black","experiment","legacy","legacy","legacy","0","uniform","1","undefined","1","right","23","0","0","0","23","0","0","23","23","23","0","23","23","23","23","10/25/20 18:50:28","The main experiment item","yes","SternbergTask.osexp","C:\Users\User\Desktop\Quant 2020\Sternberg Task 3","no","mono","no","18","no","white","no","yes","768","legacy","11","11","C:/Users/User/Desktop/Quant 2020/Sternberg Task 3/VT-subject-4.csv","legacy","2 8 9 4 1","Lentiform Loewenfeld","3.3.3","0","n","yes","0","right","left","NA","left","right","680","80541","NA","16854","680","2","legacy","5","1024","2","48000","-16","experiment","4","even","5","243107","2068","82610","NA","239756","2061","173277","240892","240894","NA","156422","245113","245794","241901","245113","Sternberg Task","24","17428","24","yes","1024"
"100","100","725.08","725.08","black","experiment","legacy","legacy","legacy","0","uniform","1","undefined","1","left","24","0","0","0","24","0","0","24","24","24","0","24","24","24","24","10/25/20 18:50:28","The main experiment item","yes","SternbergTask.osexp","C:\Users\User\Desktop\Quant 2020\Sternberg Task 3","no","mono","no","18","no","white","no","yes","768","legacy","12","11","C:/Users/User/Desktop/Quant 2020/Sternberg Task 3/VT-subject-4.csv","legacy","2 3 7 4","Lentiform Loewenfeld","3.3.3","1","y","yes","0","left","left","NA","left","left","699","80541","NA","16854","699","2","legacy","4","1024","2","48000","-16","experiment","4","even","2","249152","2068","82610","NA","245799","2061","173277","246937","246940","NA","156422","251158","251858","247946","251158","Sternberg Task","25","18127","25","yes","1024"
"100","100","725.423076923","725.423076923","black","experiment","legacy","legacy","legacy","0","uniform","1","undefined","1","right","25","0","0","0","25","0","0","25","25","25","0","25","25","25","25","10/25/20 18:50:28","The main experiment item","yes","SternbergTask.osexp","C:\Users\User\Desktop\Quant 2020\Sternberg Task 3","no","mono","no","18","no","white","no","yes","768","legacy","13","11","C:/Users/User/Desktop/Quant 2020/Sternberg Task 3/VT-subject-4.csv","legacy","1 4 9 2 5","Lentiform Loewenfeld","3.3.3","0","n","yes","0","right","left","NA","left","right","734","80541","NA","16854","734","2","legacy","5","1024","2","48000","-16","experiment","4","even","7","255217","2068","82610","NA","251863","2061","173277","253002","253005","NA","156422","257224","257958","254011","257223","Sternberg Task","26","18861","26","yes","1024"
"100","100","741.62962963","741.62962963","black","experiment","legacy","legacy","legacy","0","uniform","1","undefined","1","left","26","0","0","0","26","0","0","26","26","26","0","26","26","26","26","10/25/20 18:50:28","The main experiment item","yes","SternbergTask.osexp","C:\Users\User\Desktop\Quant 2020\Sternberg Task 3","no","mono","no","18","no","white","no","yes","768","legacy","14","11","C:/Users/User/Desktop/Quant 2020/Sternberg Task 3/VT-subject-4.csv","legacy","5 7 8 2 3 8","Lentiform Loewenfeld","3.3.3","5","y","yes","0","left","left","NA","left","left","1163","80541","NA","16854","1163","2","legacy","6","1024","2","48000","-16","experiment","4","even","3","261314","2068","82610","NA","257964","2061","173277","259100","259102","NA","156422","263320","264484","260108","263320","Sternberg Task","27","20024","27","yes","1024"
"100","100","740.035714286","740.035714286","black","experiment","legacy","legacy","legacy","0","uniform","1","undefined","1","right","27","0","0","0","27","0","0","27","27","27","0","27","27","27","27","10/25/20 18:50:28","The main experiment item","yes","SternbergTask.osexp","C:\Users\User\Desktop\Quant 2020\Sternberg Task 3","no","mono","no","18","no","white","no","yes","768","legacy","15","11","C:/Users/User/Desktop/Quant 2020/Sternberg Task 3/VT-subject-4.csv","legacy","2 3 8 5 6 7","Lentiform Loewenfeld","3.3.3","0","n","yes","0","right","left","NA","left","right","697","80541","NA","16854","697","2","legacy","6","1024","2","48000","-16","experiment","4","even","1","267842","2068","82610","NA","264490","2061","173277","265628","265630","NA","156422","269848","270546","266636","269848","Sternberg Task","28","20721","28","yes","1024"
"100","100","736.586206897","736.586206897","black","experiment","legacy","legacy","legacy","0","uniform","1","undefined","1","right","28","0","0","0","28","0","0","28","28","28","0","28","28","28","28","10/25/20 18:50:28","The main experiment item","yes","SternbergTask.osexp","C:\Users\User\Desktop\Quant 2020\Sternberg Task 3","no","mono","no","18","no","white","no","yes","768","legacy","16","11","C:/Users/User/Desktop/Quant 2020/Sternberg Task 3/VT-subject-4.csv","legacy","1","Lentiform Loewenfeld","3.3.3","0","n","yes","0","right","left","NA","left","right","640","80541","NA","16854","640","2","legacy","1","1024","2","48000","-16","experiment","4","even","7","273907","2068","82610","NA","270552","2061","173277","271693","271695","NA","156422","275913","276553","272701","275912","Sternberg Task","29","21361","29","yes","1024"
"100","100","745.833333333","745.833333333","black","experiment","legacy","legacy","legacy","0","uniform","1","undefined","1","left","29","0","0","0","29","0","0","29","29","29","0","29","29","29","29","10/25/20 18:50:28","The main experiment item","yes","SternbergTask.osexp","C:\Users\User\Desktop\Quant 2020\Sternberg Task 3","no","mono","no","18","no","white","no","yes","768","legacy","17","11","C:/Users/User/Desktop/Quant 2020/Sternberg Task 3/VT-subject-4.csv","legacy","6 5","Lentiform Loewenfeld","3.3.3","2","y","yes","0","left","left","NA","left","left","1014","80541","NA","16854","1014","2","legacy","2","1024","2","48000","-16","experiment","4","even","5","279909","2068","82610","NA","276559","2061","173277","277694","277696","NA","156422","281916","282931","278702","281915","Sternberg Task","30","22375","30","yes","1024"
"100","100","739.677419355","739.677419355","black","experiment","legacy","legacy","legacy","0","uniform","1","undefined","1","right","30","0","0","0","30","0","0","30","30","30","0","30","30","30","30","10/25/20 18:50:28","The main experiment item","yes","SternbergTask.osexp","C:\Users\User\Desktop\Quant 2020\Sternberg Task 3","no","mono","no","18","no","white","no","yes","768","legacy","18","11","C:/Users/User/Desktop/Quant 2020/Sternberg Task 3/VT-subject-4.csv","legacy","5 2","Lentiform Loewenfeld","3.3.3","0","n","yes","0","right","left","NA","left","right","555","80541","NA","16854","555","2","legacy","2","1024","2","48000","-16","experiment","4","even","7","286291","2068","82610","NA","282936","2061","173277","284077","284080","NA","156422","288298","288854","285086","288298","Sternberg Task","31","22930","31","yes","1024"
"100","100","738.4375","738.4375","black","experiment","legacy","legacy","legacy","0","uniform","1","undefined","1","left","31","0","0","0","31","0","0","31","31","31","0","31","31","31","31","10/25/20 18:50:28","The main experiment item","yes","SternbergTask.osexp","C:\Users\User\Desktop\Quant 2020\Sternberg Task 3","no","mono","no","18","no","white","no","yes","768","legacy","19","11","C:/Users/User/Desktop/Quant 2020/Sternberg Task 3/VT-subject-4.csv","legacy","3 4 9 6 2 9","Lentiform Loewenfeld","3.3.3","5","y","yes","0","left","left","NA","left","left","700","80541","NA","16854","700","2","legacy","6","1024","2","48000","-16","experiment","4","even","2","292208","2068","82610","NA","288859","2061","173277","289993","289996","NA","156422","294215","294916","291002","294215","Sternberg Task","32","23630","32","yes","1024"
"100","100","735.696969697","735.696969697","black","experiment","legacy","legacy","legacy","0","uniform","1","undefined","1","right","32","0","0","0","32","0","0","32","32","32","0","32","32","32","32","10/25/20 18:50:28","The main experiment item","yes","SternbergTask.osexp","C:\Users\User\Desktop\Quant 2020\Sternberg Task 3","no","mono","no","18","no","white","no","yes","768","legacy","20","11","C:/Users/User/Desktop/Quant 2020/Sternberg Task 3/VT-subject-4.csv","legacy","3 9 1","Lentiform Loewenfeld","3.3.3","0","n","yes","0","right","left","NA","left","right","648","80541","NA","16854","648","2","legacy","3","1024","2","48000","-16","experiment","4","even","7","298275","2068","82610","NA","294921","2061","173277","296061","296063","NA","156422","300281","300930","297069","300280","Sternberg Task","33","24278","33","yes","1024"
"100","100","732.911764706","732.911764706","black","experiment","legacy","legacy","legacy","0","uniform","1","undefined","1","right","33","0","0","0","33","0","0","33","33","33","0","33","33","33","33","10/25/20 18:50:28","The main experiment item","yes","SternbergTask.osexp","C:\Users\User\Desktop\Quant 2020\Sternberg Task 3","no","mono","no","18","no","white","no","yes","768","legacy","21","11","C:/Users/User/Desktop/Quant 2020/Sternberg Task 3/VT-subject-4.csv","legacy","4 2 6 9","Lentiform Loewenfeld","3.3.3","0","n","yes","0","right","left","NA","left","right","641","80541","NA","16854","641","2","legacy","4","1024","2","48000","-16","experiment","4","even","7","304292","2068","82610","NA","300935","2061","173277","302078","302080","NA","156422","306299","306941","303086","306298","Sternberg Task","34","24919","34","yes","1024"
"100","100","732.6","732.6","black","experiment","legacy","legacy","legacy","0","uniform","1","undefined","1","left","34","0","0","0","34","0","0","34","34","34","0","34","34","34","34","10/25/20 18:50:28","The main experiment item","yes","SternbergTask.osexp","C:\Users\User\Desktop\Quant 2020\Sternberg Task 3","no","mono","no","18","no","white","no","yes","768","legacy","22","11","C:/Users/User/Desktop/Quant 2020/Sternberg Task 3/VT-subject-4.csv","legacy","8 1 6","Lentiform Loewenfeld","3.3.3","3","y","yes","0","left","left","NA","left","left","722","80541","NA","16854","722","2","legacy","3","1024","2","48000","-16","experiment","4","even","6","310299","2068","82610","NA","306946","2061","173277","308084","308087","NA","156422","312306","313029","309093","312305","Sternberg Task","35","25641","35","yes","1024"
"100","100","734.722222222","734.722222222","black","experiment","legacy","legacy","legacy","0","uniform","1","undefined","1","left","35","0","0","0","35","0","0","35","35","35","0","35","35","35","35","10/25/20 18:50:28","The main experiment item","yes","SternbergTask.osexp","C:\Users\User\Desktop\Quant 2020\Sternberg Task 3","no","mono","no","18","no","white","no","yes","768","legacy","23","11","C:/Users/User/Desktop/Quant 2020/Sternberg Task 3/VT-subject-4.csv","legacy","7 8 4 6 9 5","Lentiform Loewenfeld","3.3.3","4","y","yes","0","left","left","NA","left","left","809","80541","NA","16854","809","2","legacy","6","1024","2","48000","-16","experiment","4","even","6","316385","2068","82610","NA","313035","2061","173277","314170","314173","NA","156422","318392","319202","315179","318391","Sternberg Task","36","26450","36","yes","1024"
"100","100","731.297297297","731.297297297","black","experiment","legacy","legacy","legacy","0","uniform","1","undefined","1","right","36","0","0","0","36","0","0","36","36","36","0","36","36","36","36","10/25/20 18:50:28","The main experiment item","yes","SternbergTask.osexp","C:\Users\User\Desktop\Quant 2020\Sternberg Task 3","no","mono","no","18","no","white","no","yes","768","legacy","24","11","C:/Users/User/Desktop/Quant 2020/Sternberg Task 3/VT-subject-4.csv","legacy","6 8","Lentiform Loewenfeld","3.3.3","0","n","yes","0","right","left","NA","left","right","608","80541","NA","16854","608","2","legacy","2","1024","2","48000","-16","experiment","4","even","9","322562","2068","82610","NA","319207","2061","173277","320347","320349","NA","156422","324568","325177","321356","324567","Sternberg Task","37","27058","37","yes","1024"
"100","100","727.815789474","727.815789474","black","experiment","legacy","legacy","legacy","0","uniform","1","undefined","1","right","37","0","0","0","37","0","0","37","37","37","0","37","37","37","37","10/25/20 18:50:28","The main experiment item","yes","SternbergTask.osexp","C:\Users\User\Desktop\Quant 2020\Sternberg Task 3","no","mono","no","18","no","white","no","yes","768","legacy","25","11","C:/Users/User/Desktop/Quant 2020/Sternberg Task 3/VT-subject-4.csv","legacy","9 8 2 7 4","Lentiform Loewenfeld","3.3.3","0","n","yes","0","right","left","NA","left","right","599","80541","NA","16854","599","2","legacy","5","1024","2","48000","-16","experiment","4","even","5","328539","2068","82610","NA","325182","2061","173277","326325","326327","NA","156422","330545","331145","327333","330544","Sternberg Task","38","27657","38","yes","1024"
"100","100","734.051282051","734.051282051","black","experiment","legacy","legacy","legacy","0","uniform","1","undefined","1","right","38","0","0","0","38","0","0","38","38","38","0","38","38","38","38","10/25/20 18:50:28","The main experiment item","yes","SternbergTask.osexp","C:\Users\User\Desktop\Quant 2020\Sternberg Task 3","no","mono","no","18","no","white","no","yes","768","legacy","26","11","C:/Users/User/Desktop/Quant 2020/Sternberg Task 3/VT-subject-4.csv","legacy","6 9 4 5 2","Lentiform Loewenfeld","3.3.3","0","n","yes","0","right","left","NA","left","right","971","80541","NA","16854","971","2","legacy","5","1024","2","48000","-16","experiment","4","even","1","334503","2068","82610","NA","331150","2061","173277","332288","332291","NA","156422","336509","337481","333296","336509","Sternberg Task","39","28628","39","yes","1024"
"100","100","737.225","737.225","black","experiment","legacy","legacy","legacy","0","uniform","1","undefined","1","left","39","0","0","0","39","0","0","39","39","39","0","39","39","39","39","10/25/20 18:50:28","The main experiment item","yes","SternbergTask.osexp","C:\Users\User\Desktop\Quant 2020\Sternberg Task 3","no","mono","no","18","no","white","no","yes","768","legacy","27","11","C:/Users/User/Desktop/Quant 2020/Sternberg Task 3/VT-subject-4.csv","legacy","3 5 7 1","Lentiform Loewenfeld","3.3.3","3","y","yes","0","left","left","NA","left","left","861","80541","NA","16854","861","2","legacy","4","1024","2","48000","-16","experiment","4","even","7","340837","2068","82610","NA","337487","2061","173277","338623","338625","NA","156422","342844","343706","339631","342843","Sternberg Task","40","29489","40","yes","1024"
"100","100","740.731707317","740.731707317","black","experiment","legacy","legacy","legacy","0","uniform","1","undefined","1","right","40","0","0","0","40","0","0","40","40","40","0","40","40","40","40","10/25/20 18:50:28","The main experiment item","yes","SternbergTask.osexp","C:\Users\User\Desktop\Quant 2020\Sternberg Task 3","no","mono","no","18","no","white","no","yes","768","legacy","28","11","C:/Users/User/Desktop/Quant 2020/Sternberg Task 3/VT-subject-4.csv","legacy","8 6 3 4 7","Lentiform Loewenfeld","3.3.3","0","n","yes","0","right","left","NA","left","right","881","80541","NA","16854","881","2","legacy","5","1024","2","48000","-16","experiment","4","even","1","347070","2068","82610","NA","343711","2061","173277","344856","344858","NA","156422","349077","349959","345864","349076","Sternberg Task","41","30370","41","yes","1024"
"100","100","739.833333333","739.833333333","black","experiment","legacy","legacy","legacy","0","uniform","1","undefined","1","right","41","0","0","0","41","0","0","41","41","41","0","41","41","41","41","10/25/20 18:50:28","The main experiment item","yes","SternbergTask.osexp","C:\Users\User\Desktop\Quant 2020\Sternberg Task 3","no","mono","no","18","no","white","no","yes","768","legacy","29","11","C:/Users/User/Desktop/Quant 2020/Sternberg Task 3/VT-subject-4.csv","legacy","1 6 4","Lentiform Loewenfeld","3.3.3","0","n","yes","0","right","left","NA","left","right","703","80541","NA","16854","703","2","legacy","3","1024","2","48000","-16","experiment","4","even","7","353315","2068","82610","NA","349964","2061","173277","351100","351102","NA","156422","355321","356025","352108","355321","Sternberg Task","42","31073","42","yes","1024"
"100","100","750.279069767","750.279069767","black","experiment","legacy","legacy","legacy","0","uniform","1","undefined","1","left","42","0","0","0","42","0","0","42","42","42","0","42","42","42","42","10/25/20 18:50:28","The main experiment item","yes","SternbergTask.osexp","C:\Users\User\Desktop\Quant 2020\Sternberg Task 3","no","mono","no","18","no","white","no","yes","768","legacy","30","11","C:/Users/User/Desktop/Quant 2020/Sternberg Task 3/VT-subject-4.csv","legacy","2 6 1 7 4","Lentiform Loewenfeld","3.3.3","2","y","yes","0","left","left","NA","left","left","1189","80541","NA","16854","1189","2","legacy","5","1024","2","48000","-16","experiment","4","even","6","359380","2068","82610","NA","356030","2061","173277","357166","357168","NA","156422","361387","362577","358174","361386","Sternberg Task","43","32262","43","yes","1024"
"100","100","750.272727273","750.272727273","black","experiment","legacy","legacy","legacy","0","uniform","1","undefined","1","right","43","0","0","0","43","0","0","43","43","43","0","43","43","43","43","10/25/20 18:50:28","The main experiment item","yes","SternbergTask.osexp","C:\Users\User\Desktop\Quant 2020\Sternberg Task 3","no","mono","no","18","no","white","no","yes","768","legacy","31","11","C:/Users/User/Desktop/Quant 2020/Sternberg Task 3/VT-subject-4.csv","legacy","2 8 9","Lentiform Loewenfeld","3.3.3","0","n","yes","0","right","left","NA","left","right","750","80541","NA","16854","750","2","legacy","3","1024","2","48000","-16","experiment","4","even","6","365941","2068","82610","NA","362582","2061","173277","363725","363728","NA","156422","367947","368698","364734","367947","Sternberg Task","44","33012","44","yes","1024"
"100","100","769.044444444","769.044444444","black","experiment","legacy","legacy","legacy","0","uniform","1","undefined","1","left","44","0","0","0","44","0","0","44","44","44","0","44","44","44","44","10/25/20 18:50:28","The main experiment item","yes","SternbergTask.osexp","C:\Users\User\Desktop\Quant 2020\Sternberg Task 3","no","mono","no","18","no","white","no","yes","768","legacy","32","11","C:/Users/User/Desktop/Quant 2020/Sternberg Task 3/VT-subject-4.csv","legacy","4 6 5 8","Lentiform Loewenfeld","3.3.3","1","y","yes","0","left","left","NA","left","left","1595","80541","NA","16854","1595","2","legacy","4","1024","2","48000","-16","experiment","4","even","4","372062","2068","82610","NA","368703","2061","173277","369847","369850","NA","156422","374068","375664","370856","374068","Sternberg Task","45","34607","45","yes","1024"
"100","100","766.413043478","766.413043478","black","experiment","legacy","legacy","legacy","0","uniform","1","undefined","1","right","45","0","0","0","45","0","0","45","45","45","0","45","45","45","45","10/25/20 18:50:28","The main experiment item","yes","SternbergTask.osexp","C:\Users\User\Desktop\Quant 2020\Sternberg Task 3","no","mono","no","18","no","white","no","yes","768","legacy","33","11","C:/Users/User/Desktop/Quant 2020/Sternberg Task 3/VT-subject-4.csv","legacy","7 9 1 6","Lentiform Loewenfeld","3.3.3","0","n","yes","0","right","left","NA","left","right","648","80541","NA","16854","648","2","legacy","4","1024","2","48000","-16","experiment","4","even","4","379031","2068","82610","NA","375669","2061","173277","376816","376819","NA","156422","381038","381687","377824","381037","Sternberg Task","46","35255","46","yes","1024"
"100","100","765.808510638","765.808510638","black","experiment","legacy","legacy","legacy","0","uniform","1","undefined","1","left","46","0","0","0","46","0","0","46","46","46","0","46","46","46","46","10/25/20 18:50:28","The main experiment item","yes","SternbergTask.osexp","C:\Users\User\Desktop\Quant 2020\Sternberg Task 3","no","mono","no","18","no","white","no","yes","768","legacy","34","11","C:/Users/User/Desktop/Quant 2020/Sternberg Task 3/VT-subject-4.csv","legacy","3 5 9 6 2 4","Lentiform Loewenfeld","3.3.3","1","y","yes","0","left","left","NA","left","left","738","80541","NA","16854","738","2","legacy","6","1024","2","48000","-16","experiment","4","even","3","385051","2068","82610","NA","381692","2061","173277","382834","382837","NA","156422","387057","387796","383843","387057","Sternberg Task","47","35993","47","yes","1024"
"100","100","760.5","760.5","black","experiment","legacy","legacy","legacy","0","uniform","1","undefined","1","left","47","0","0","0","47","0","0","47","47","47","0","47","47","47","47","10/25/20 18:50:28","The main experiment item","yes","SternbergTask.osexp","C:\Users\User\Desktop\Quant 2020\Sternberg Task 3","no","mono","no","18","no","white","no","yes","768","legacy","35","11","C:/Users/User/Desktop/Quant 2020/Sternberg Task 3/VT-subject-4.csv","legacy","6 7 9 3 1 2","Lentiform Loewenfeld","3.3.3","1","y","yes","0","left","left","NA","left","left","511","80541","NA","16854","511","2","legacy","6","1024","2","48000","-16","experiment","4","even","6","391150","2068","82610","NA","387801","2061","173277","388936","388938","NA","156422","393156","393668","389944","393156","Sternberg Task","48","36504","48","yes","1024"
"100","100","757.693877551","757.693877551","black","experiment","legacy","legacy","legacy","0","uniform","1","undefined","1","right","48","0","0","0","48","0","0","48","48","48","0","48","48","48","48","10/25/20 18:50:28","The main experiment item","yes","SternbergTask.osexp","C:\Users\User\Desktop\Quant 2020\Sternberg Task 3","no","mono","no","18","no","white","no","yes","768","legacy","36","11","C:/Users/User/Desktop/Quant 2020/Sternberg Task 3/VT-subject-4.csv","legacy","4 8 1 2","Lentiform Loewenfeld","3.3.3","0","n","yes","0","right","left","NA","left","right","623","80541","NA","16854","623","2","legacy","4","1024","2","48000","-16","experiment","4","even","7","397022","2068","82610","NA","393673","2061","173277","394807","394810","NA","156422","399028","399652","395816","399028","Sternberg Task","49","37127","49","yes","1024"
"100","100","756.12","756.12","black","experiment","legacy","legacy","legacy","0","uniform","1","undefined","1","left","49","0","0","0","49","0","0","49","49","49","0","49","49","49","49","10/25/20 18:50:28","The main experiment item","yes","SternbergTask.osexp","C:\Users\User\Desktop\Quant 2020\Sternberg Task 3","no","mono","no","18","no","white","no","yes","768","legacy","37","11","C:/Users/User/Desktop/Quant 2020/Sternberg Task 3/VT-subject-4.csv","legacy","9 1 6 7 8","Lentiform Loewenfeld","3.3.3","1","y","yes","0","left","left","NA","left","left","679","80541","NA","16854","679","2","legacy","5","1024","2","48000","-16","experiment","4","even","9","403009","2068","82610","NA","399657","2061","173277","400796","400798","NA","156422","405016","405696","401804","405015","Sternberg Task","50","37806","50","yes","1024"
"100","100","752","752","black","experiment","legacy","legacy","legacy","0","uniform","1","undefined","1","left","50","0","0","0","50","0","0","50","50","50","0","50","50","50","50","10/25/20 18:50:28","The main experiment item","yes","SternbergTask.osexp","C:\Users\User\Desktop\Quant 2020\Sternberg Task 3","no","mono","no","18","no","white","no","yes","768","legacy","38","11","C:/Users/User/Desktop/Quant 2020/Sternberg Task 3/VT-subject-4.csv","legacy","3 5 4 7","Lentiform Loewenfeld","3.3.3","1","y","yes","0","left","left","NA","left","left","546","80541","NA","16854","546","2","legacy","4","1024","2","48000","-16","experiment","4","even","3","409051","2068","82610","NA","405701","2061","173277","406837","406839","NA","156422","411057","411604","407845","411057","Sternberg Task","51","38352","51","yes","1024"
"100","100","749.192307692","749.192307692","black","experiment","legacy","legacy","legacy","0","uniform","1","undefined","1","right","51","0","0","0","51","0","0","51","51","51","0","51","51","51","51","10/25/20 18:50:28","The main experiment item","yes","SternbergTask.osexp","C:\Users\User\Desktop\Quant 2020\Sternberg Task 3","no","mono","no","18","no","white","no","yes","768","legacy","39","11","C:/Users/User/Desktop/Quant 2020/Sternberg Task 3/VT-subject-4.csv","legacy","7 1","Lentiform Loewenfeld","3.3.3","0","n","yes","0","right","left","NA","left","right","606","80541","NA","16854","606","2","legacy","2","1024","2","48000","-16","experiment","4","even","8","414963","2068","82610","NA","411611","2061","173277","412748","412751","NA","156422","416969","417576","413757","416969","Sternberg Task","52","38958","52","yes","1024"
"100","100","748.358490566","748.358490566","black","experiment","legacy","legacy","legacy","0","uniform","1","undefined","1","right","52","0","0","0","52","0","0","52","52","52","0","52","52","52","52","10/25/20 18:50:28","The main experiment item","yes","SternbergTask.osexp","C:\Users\User\Desktop\Quant 2020\Sternberg Task 3","no","mono","no","18","no","white","no","yes","768","legacy","40","11","C:/Users/User/Desktop/Quant 2020/Sternberg Task 3/VT-subject-4.csv","legacy","6 2 9 3 8 4","Lentiform Loewenfeld","3.3.3","0","n","yes","0","right","left","NA","left","right","705","80541","NA","16854","705","2","legacy","6","1024","2","48000","-16","experiment","4","even","1","420937","2068","82610","NA","417581","2061","173277","418722","418725","NA","156422","422943","423649","419731","422942","Sternberg Task","53","39663","53","yes","1024"
"100","100","749.703703704","749.703703704","black","experiment","legacy","legacy","legacy","0","uniform","1","undefined","1","left","53","0","0","0","53","0","0","53","53","53","0","53","53","53","53","10/25/20 18:50:28","The main experiment item","yes","SternbergTask.osexp","C:\Users\User\Desktop\Quant 2020\Sternberg Task 3","no","mono","no","18","no","white","no","yes","768","legacy","41","11","C:/Users/User/Desktop/Quant 2020/Sternberg Task 3/VT-subject-4.csv","legacy","6 7 8 5","Lentiform Loewenfeld","3.3.3","3","y","yes","0","left","left","NA","left","left","821","80541","NA","16854","821","2","legacy","4","1024","2","48000","-16","experiment","4","even","8","427009","2068","82610","NA","423654","2061","173277","424795","424797","NA","156422","429015","429838","425802","429015","Sternberg Task","54","40484","54","yes","1024"
"100","100","745.145454545","745.145454545","black","experiment","legacy","legacy","legacy","0","uniform","1","undefined","1","left","54","0","0","0","54","0","0","54","54","54","0","54","54","54","54","10/25/20 18:50:28","The main experiment item","yes","SternbergTask.osexp","C:\Users\User\Desktop\Quant 2020\Sternberg Task 3","no","mono","no","18","no","white","no","yes","768","legacy","42","11","C:/Users/User/Desktop/Quant 2020/Sternberg Task 3/VT-subject-4.csv","legacy","7","Lentiform Loewenfeld","3.3.3","1","y","yes","0","left","left","NA","left","left","499","80541","NA","16854","499","2","legacy","1","1024","2","48000","-16","experiment","4","even","7","433199","2068","82610","NA","429843","2061","173277","430984","430986","NA","156422","435207","435707","431993","435206","Sternberg Task","55","40983","55","yes","1024"
"100","100","741.357142857","741.357142857","black","experiment","legacy","legacy","legacy","0","uniform","1","undefined","1","right","55","0","0","0","55","0","0","55","55","55","0","55","55","55","55","10/25/20 18:50:28","The main experiment item","yes","SternbergTask.osexp","C:\Users\User\Desktop\Quant 2020\Sternberg Task 3","no","mono","no","18","no","white","no","yes","768","legacy","43","11","C:/Users/User/Desktop/Quant 2020/Sternberg Task 3/VT-subject-4.csv","legacy","1 7 5 2 9","Lentiform Loewenfeld","3.3.3","0","n","yes","0","right","left","NA","left","right","533","80541","NA","16854","533","2","legacy","5","1024","2","48000","-16","experiment","4","even","3","439067","2068","82610","NA","435712","2061","173277","436852","436854","NA","156422","441074","441608","437861","441073","Sternberg Task","56","41516","56","yes","1024"
"98.2456140351","98.2456140351","747.403508772","747.403508772","black","experiment","legacy","legacy","legacy","0","uniform","0","undefined","0","left","56","0","0","0","56","0","0","56","56","56","0","56","56","56","56","10/25/20 18:50:28","The main experiment item","yes","SternbergTask.osexp","C:\Users\User\Desktop\Quant 2020\Sternberg Task 3","no","mono","no","18","no","white","no","yes","768","legacy","44","11","C:/Users/User/Desktop/Quant 2020/Sternberg Task 3/VT-subject-4.csv","legacy","6 9 7 4 5 1","Lentiform Loewenfeld","3.3.3","2","y","yes","0","right","left","NA","left","right","1086","80541","NA","16854","1086","2","legacy","6","1024","2","48000","-16","experiment","4","even","9","444962","2068","82610","NA","441613","2061","173277","442748","442751","NA","156422","446969","448057","443756","446969","Sternberg Task","56","42602","57","yes","1024"
"98.275862069","98.275862069","745.534482759","745.534482759","black","experiment","legacy","legacy","legacy","0","uniform","1","undefined","1","left","57","0","0","0","57","0","0","57","57","57","0","57","57","57","57","10/25/20 18:50:28","The main experiment item","yes","SternbergTask.osexp","C:\Users\User\Desktop\Quant 2020\Sternberg Task 3","no","mono","no","18","no","white","no","yes","768","legacy","45","11","C:/Users/User/Desktop/Quant 2020/Sternberg Task 3/VT-subject-4.csv","legacy","6 8 9 3 4 9","Lentiform Loewenfeld","3.3.3","5","y","yes","0","left","left","NA","left","left","639","80541","NA","16854","639","2","legacy","6","1024","2","48000","-16","experiment","4","even","4","451412","2068","82610","NA","441613","2061","173277","449198","449201","448062","156422","453419","454060","450207","453419","Sternberg Task","57","43241","58","yes","1024"
"98.3050847458","98.3050847458","743.338983051","743.338983051","black","experiment","legacy","legacy","legacy","0","uniform","1","undefined","1","left","58","0","0","0","58","0","0","58","58","58","0","58","58","58","58","10/25/20 18:50:28","The main experiment item","yes","SternbergTask.osexp","C:\Users\User\Desktop\Quant 2020\Sternberg Task 3","no","mono","no","18","no","white","no","yes","768","legacy","46","11","C:/Users/User/Desktop/Quant 2020/Sternberg Task 3/VT-subject-4.csv","legacy","2 8 5 1","Lentiform Loewenfeld","3.3.3","4","y","yes","0","left","left","NA","left","left","616","80541","NA","16854","616","2","legacy","4","1024","2","48000","-16","experiment","4","even","1","457423","2068","82610","NA","454065","2061","173277","455208","455211","448062","156422","459429","460047","456217","459429","Sternberg Task","58","43857","59","yes","1024"
"98.3333333333","98.3333333333","743.383333333","743.383333333","black","experiment","legacy","legacy","legacy","0","uniform","1","undefined","1","left","59","0","0","0","59","0","0","59","59","59","0","59","59","59","59","10/25/20 18:50:28","The main experiment item","yes","SternbergTask.osexp","C:\Users\User\Desktop\Quant 2020\Sternberg Task 3","no","mono","no","18","no","white","no","yes","768","legacy","47","11","C:/Users/User/Desktop/Quant 2020/Sternberg Task 3/VT-subject-4.csv","legacy","9 3 1 2 5","Lentiform Loewenfeld","3.3.3","4","y","yes","0","left","left","NA","left","left","746","80541","NA","16854","746","2","legacy","5","1024","2","48000","-16","experiment","4","even","2","463413","2068","82610","NA","460052","2061","173277","461198","461201","448062","156422","465420","466168","462207","465420","Sternberg Task","59","44603","60","yes","1024"
"98.3606557377","98.3606557377","745.344262295","745.344262295","black","experiment","legacy","legacy","legacy","0","uniform","1","undefined","1","right","60","0","0","0","60","0","0","60","60","60","0","60","60","60","60","10/25/20 18:50:28","The main experiment item","yes","SternbergTask.osexp","C:\Users\User\Desktop\Quant 2020\Sternberg Task 3","no","mono","no","18","no","white","no","yes","768","legacy","48","11","C:/Users/User/Desktop/Quant 2020/Sternberg Task 3/VT-subject-4.csv","legacy","6 7 5 9","Lentiform Loewenfeld","3.3.3","0","n","yes","0","right","left","NA","left","right","863","80541","NA","16854","863","2","legacy","4","1024","2","48000","-16","experiment","4","even","2","469519","2068","82610","NA","466173","2061","173277","467303","467305","448062","156422","471526","472390","468312","471525","Sternberg Task","60","45466","61","yes","1024"
"98.3870967742","98.3870967742","741.516129032","741.516129032","black","experiment","legacy","legacy","legacy","0","uniform","1","undefined","1","left","61","0","0","0","61","0","0","61","61","61","0","61","61","61","61","10/25/20 18:50:28","The main experiment item","yes","SternbergTask.osexp","C:\Users\User\Desktop\Quant 2020\Sternberg Task 3","no","mono","no","18","no","white","no","yes","768","legacy","49","11","C:/Users/User/Desktop/Quant 2020/Sternberg Task 3/VT-subject-4.csv","legacy","4","Lentiform Loewenfeld","3.3.3","1","y","yes","0","left","left","NA","left","left","508","80541","NA","16854","508","2","legacy","1","1024","2","48000","-16","experiment","4","even","4","475744","2068","82610","NA","472395","2061","173277","473529","473532","448062","156422","477750","478259","474538","477749","Sternberg Task","61","45974","62","yes","1024"
"96.8253968254","96.8253968254","738.603174603","738.603174603","black","experiment","legacy","legacy","legacy","0","uniform","0","undefined","0","left","62","0","0","0","62","0","0","62","62","62","0","62","62","62","62","10/25/20 18:50:28","The main experiment item","yes","SternbergTask.osexp","C:\Users\User\Desktop\Quant 2020\Sternberg Task 3","no","mono","no","18","no","white","no","yes","768","legacy","50","11","C:/Users/User/Desktop/Quant 2020/Sternberg Task 3/VT-subject-4.csv","legacy","4 6 2 5 1","Lentiform Loewenfeld","3.3.3","5","y","yes","0","right","left","NA","left","right","558","80541","NA","16854","558","2","legacy","5","1024","2","48000","-16","experiment","4","even","1","481619","2068","82610","NA","478264","2061","173277","479404","479406","448062","156422","483625","484185","480412","483625","Sternberg Task","61","46532","63","yes","1024"
"96.875","96.875","736.359375","736.359375","black","experiment","legacy","legacy","legacy","0","uniform","1","undefined","1","left","63","0","0","0","63","0","0","63","63","63","0","63","63","63","63","10/25/20 18:50:28","The main experiment item","yes","SternbergTask.osexp","C:\Users\User\Desktop\Quant 2020\Sternberg Task 3","no","mono","no","18","no","white","no","yes","768","legacy","51","11","C:/Users/User/Desktop/Quant 2020/Sternberg Task 3/VT-subject-4.csv","legacy","3 2 1 4 7","Lentiform Loewenfeld","3.3.3","2","y","yes","0","left","left","NA","left","left","595","80541","NA","16854","595","2","legacy","5","1024","2","48000","-16","experiment","4","even","2","487539","2068","82610","NA","478264","2061","173277","485324","485327","484190","156422","489546","490142","486332","489546","Sternberg Task","62","47127","64","yes","1024"
"96.9230769231","96.9230769231","734.784615385","734.784615385","black","experiment","legacy","legacy","legacy","0","uniform","1","undefined","1","left","64","0","0","0","64","0","0","64","64","64","0","64","64","64","64","10/25/20 18:50:28","The main experiment item","yes","SternbergTask.osexp","C:\Users\User\Desktop\Quant 2020\Sternberg Task 3","no","mono","no","18","no","white","no","yes","768","legacy","52","11","C:/Users/User/Desktop/Quant 2020/Sternberg Task 3/VT-subject-4.csv","legacy","8 7 3","Lentiform Loewenfeld","3.3.3","1","y","yes","0","left","left","NA","left","left","634","80541","NA","16854","634","2","legacy","3","1024","2","48000","-16","experiment","4","even","8","493488","2068","82610","NA","490148","2061","173277","491273","491275","484190","156422","495494","496130","492282","495494","Sternberg Task","63","47761","65","yes","1024"
"96.9696969697","96.9696969697","732.560606061","732.560606061","black","experiment","legacy","legacy","legacy","0","uniform","1","undefined","1","left","65","0","0","0","65","0","0","65","65","65","0","65","65","65","65","10/25/20 18:50:28","The main experiment item","yes","SternbergTask.osexp","C:\Users\User\Desktop\Quant 2020\Sternberg Task 3","no","mono","no","18","no","white","no","yes","768","legacy","53","11","C:/Users/User/Desktop/Quant 2020/Sternberg Task 3/VT-subject-4.csv","legacy","2 5 4 8 7","Lentiform Loewenfeld","3.3.3","3","y","yes","0","left","left","NA","left","left","588","80541","NA","16854","588","2","legacy","5","1024","2","48000","-16","experiment","4","even","4","499485","2068","82610","NA","496135","2061","173277","497271","497274","484190","156422","501493","502082","498280","501492","Sternberg Task","64","48349","66","yes","1024"
"97.0149253731","97.0149253731","729.28358209","729.28358209","black","experiment","legacy","legacy","legacy","0","uniform","1","undefined","1","left","66","0","0","0","66","0","0","66","66","66","0","66","66","66","66","10/25/20 18:50:28","The main experiment item","yes","SternbergTask.osexp","C:\Users\User\Desktop\Quant 2020\Sternberg Task 3","no","mono","no","18","no","white","no","yes","768","legacy","54","11","C:/Users/User/Desktop/Quant 2020/Sternberg Task 3/VT-subject-4.csv","legacy","3 4","Lentiform Loewenfeld","3.3.3","1","y","yes","0","left","left","NA","left","left","513","80541","NA","16854","513","2","legacy","2","1024","2","48000","-16","experiment","4","even","3","505443","2068","82610","NA","502088","2061","173277","503229","503231","484190","156422","507451","507966","504237","507450","Sternberg Task","65","48862","67","yes","1024"
"97.0588235294","97.0588235294","732.823529412","732.823529412","black","experiment","legacy","legacy","legacy","0","uniform","1","undefined","1","right","67","0","0","0","67","0","0","67","67","67","0","67","67","67","67","10/25/20 18:50:28","The main experiment item","yes","SternbergTask.osexp","C:\Users\User\Desktop\Quant 2020\Sternberg Task 3","no","mono","no","18","no","white","no","yes","768","legacy","55","11","C:/Users/User/Desktop/Quant 2020/Sternberg Task 3/VT-subject-4.csv","legacy","9 7 4 5 8","Lentiform Loewenfeld","3.3.3","0","n","yes","0","right","left","NA","left","right","970","80541","NA","16854","970","2","legacy","5","1024","2","48000","-16","experiment","4","even","6","511322","2068","82610","NA","507971","2061","173277","509106","509109","484190","156422","513329","514300","510115","513328","Sternberg Task","66","49832","68","yes","1024"
"97.1014492754","97.1014492754","731.826086957","731.826086957","black","experiment","legacy","legacy","legacy","0","uniform","1","undefined","1","right","68","0","0","0","68","0","0","68","68","68","0","68","68","68","68","10/25/20 18:50:28","The main experiment item","yes","SternbergTask.osexp","C:\Users\User\Desktop\Quant 2020\Sternberg Task 3","no","mono","no","18","no","white","no","yes","768","legacy","56","11","C:/Users/User/Desktop/Quant 2020/Sternberg Task 3/VT-subject-4.csv","legacy","7 3 2 8","Lentiform Loewenfeld","3.3.3","0","n","yes","0","right","left","NA","left","right","664","80541","NA","16854","664","2","legacy","4","1024","2","48000","-16","experiment","4","even","4","517656","2068","82610","NA","514306","2061","173277","515442","515444","484190","156422","519662","520328","516450","519661","Sternberg Task","67","50496","69","yes","1024"
"97.1428571429","97.1428571429","729.642857143","729.642857143","black","experiment","legacy","legacy","legacy","0","uniform","1","undefined","1","left","69","0","0","0","69","0","0","69","69","69","0","69","69","69","69","10/25/20 18:50:28","The main experiment item","yes","SternbergTask.osexp","C:\Users\User\Desktop\Quant 2020\Sternberg Task 3","no","mono","no","18","no","white","no","yes","768","legacy","57","11","C:/Users/User/Desktop/Quant 2020/Sternberg Task 3/VT-subject-4.csv","legacy","9 4 2","Lentiform Loewenfeld","3.3.3","1","y","yes","0","left","left","NA","left","left","579","80541","NA","16854","579","2","legacy","3","1024","2","48000","-16","experiment","4","even","9","523686","2068","82610","NA","520333","2061","173277","521471","521473","484190","156422","525692","526273","522480","525692","Sternberg Task","68","51075","70","yes","1024"
"97.1830985915","97.1830985915","728.521126761","728.521126761","black","experiment","legacy","legacy","legacy","0","uniform","1","undefined","1","left","70","0","0","0","70","0","0","70","70","70","0","70","70","70","70","10/25/20 18:50:28","The main experiment item","yes","SternbergTask.osexp","C:\Users\User\Desktop\Quant 2020\Sternberg Task 3","no","mono","no","18","no","white","no","yes","768","legacy","58","11","C:/Users/User/Desktop/Quant 2020/Sternberg Task 3/VT-subject-4.csv","legacy","3 9 6 2","Lentiform Loewenfeld","3.3.3","4","y","yes","0","left","left","NA","left","left","650","80541","NA","16854","650","2","legacy","4","1024","2","48000","-16","experiment","4","even","2","529631","2068","82610","NA","526278","2061","173277","527416","527419","484190","156422","531637","532289","528424","531636","Sternberg Task","69","51725","71","yes","1024"
"97.2222222222","97.2222222222","724.736111111","724.736111111","black","experiment","legacy","legacy","legacy","0","uniform","1","undefined","1","left","71","0","0","0","71","0","0","71","71","71","0","71","71","71","71","10/25/20 18:50:28","The main experiment item","yes","SternbergTask.osexp","C:\Users\User\Desktop\Quant 2020\Sternberg Task 3","no","mono","no","18","no","white","no","yes","768","legacy","59","11","C:/Users/User/Desktop/Quant 2020/Sternberg Task 3/VT-subject-4.csv","legacy","6 9 3 1","Lentiform Loewenfeld","3.3.3","4","y","yes","0","left","left","NA","left","left","456","80541","NA","16854","456","2","legacy","4","1024","2","48000","-16","experiment","4","even","1","535649","2068","82610","NA","532294","2061","173277","533434","533437","484190","156422","537655","538113","534443","537655","Sternberg Task","70","52181","72","yes","1024"
"97.2602739726","97.2602739726","721.876712329","721.876712329","black","experiment","legacy","legacy","legacy","0","uniform","1","undefined","1","left","72","0","0","0","72","0","0","72","72","72","0","72","72","72","72","10/25/20 18:50:28","The main experiment item","yes","SternbergTask.osexp","C:\Users\User\Desktop\Quant 2020\Sternberg Task 3","no","mono","no","18","no","white","no","yes","768","legacy","60","11","C:/Users/User/Desktop/Quant 2020/Sternberg Task 3/VT-subject-4.csv","legacy","2 3","Lentiform Loewenfeld","3.3.3","1","y","yes","0","left","left","NA","left","left","516","80541","NA","16854","516","2","legacy","2","1024","2","48000","-16","experiment","4","even","2","541470","2068","82610","NA","538118","2061","173277","539257","539259","484190","156422","543477","543994","540265","543476","Sternberg Task","71","52697","73","yes","1024"
"97.2972972973","97.2972972973","720.459459459","720.459459459","black","experiment","legacy","legacy","legacy","0","uniform","1","undefined","1","left","73","0","0","0","73","0","0","73","73","73","0","73","73","73","73","10/25/20 18:50:28","The main experiment item","yes","SternbergTask.osexp","C:\Users\User\Desktop\Quant 2020\Sternberg Task 3","no","mono","no","18","no","white","no","yes","768","legacy","61","11","C:/Users/User/Desktop/Quant 2020/Sternberg Task 3/VT-subject-4.csv","legacy","5 7 3 6 2","Lentiform Loewenfeld","3.3.3","5","y","yes","0","left","left","NA","left","left","617","80541","NA","16854","617","2","legacy","5","1024","2","48000","-16","experiment","4","even","2","547351","2068","82610","NA","543999","2061","173277","545136","545139","484190","156422","549357","549975","546145","549357","Sternberg Task","72","53314","74","yes","1024"
"97.3333333333","97.3333333333","720.853333333","720.853333333","black","experiment","legacy","legacy","legacy","0","uniform","1","undefined","1","right","74","0","0","0","74","0","0","74","74","74","0","74","74","74","74","10/25/20 18:50:28","The main experiment item","yes","SternbergTask.osexp","C:\Users\User\Desktop\Quant 2020\Sternberg Task 3","no","mono","no","18","no","white","no","yes","768","legacy","62","11","C:/Users/User/Desktop/Quant 2020/Sternberg Task 3/VT-subject-4.csv","legacy","7 8 6 1","Lentiform Loewenfeld","3.3.3","0","n","yes","0","right","left","NA","left","right","750","80541","NA","16854","750","2","legacy","4","1024","2","48000","-16","experiment","4","even","3","553318","2068","82610","NA","549980","2061","173277","551105","551107","484190","156422","555325","556077","552112","555324","Sternberg Task","73","54064","75","yes","1024"
"97.3684210526","97.3684210526","719.171052632","719.171052632","black","experiment","legacy","legacy","legacy","0","uniform","1","undefined","1","right","75","0","0","0","75","0","0","75","75","75","0","75","75","75","75","10/25/20 18:50:28","The main experiment item","yes","SternbergTask.osexp","C:\Users\User\Desktop\Quant 2020\Sternberg Task 3","no","mono","no","18","no","white","no","yes","768","legacy","63","11","C:/Users/User/Desktop/Quant 2020/Sternberg Task 3/VT-subject-4.csv","legacy","8 5 7 3 6","Lentiform Loewenfeld","3.3.3","0","n","yes","0","right","left","NA","left","right","593","80541","NA","16854","593","2","legacy","5","1024","2","48000","-16","experiment","4","even","9","559438","2068","82610","NA","556082","2061","173277","557224","557226","484190","156422","561445","562040","558232","561445","Sternberg Task","74","54657","76","yes","1024"
"97.4025974026","97.4025974026","719.974025974","719.974025974","black","experiment","legacy","legacy","legacy","0","uniform","1","undefined","1","left","76","0","0","0","76","0","0","76","76","76","0","76","76","76","76","10/25/20 18:50:28","The main experiment item","yes","SternbergTask.osexp","C:\Users\User\Desktop\Quant 2020\Sternberg Task 3","no","mono","no","18","no","white","no","yes","768","legacy","64","11","C:/Users/User/Desktop/Quant 2020/Sternberg Task 3/VT-subject-4.csv","legacy","3 9 7 6 4","Lentiform Loewenfeld","3.3.3","3","y","yes","0","left","left","NA","left","left","781","80541","NA","16854","781","2","legacy","5","1024","2","48000","-16","experiment","4","even","7","565395","2068","82610","NA","562045","2061","173277","563180","563183","484190","156422","567402","568184","564188","567402","Sternberg Task","75","55438","77","yes","1024"
"96.1538461538","96.1538461538","722.461538462","722.461538462","black","experiment","legacy","legacy","legacy","0","uniform","0","undefined","0","left","77","0","0","0","77","0","0","77","77","77","0","77","77","77","77","10/25/20 18:50:28","The main experiment item","yes","SternbergTask.osexp","C:\Users\User\Desktop\Quant 2020\Sternberg Task 3","no","mono","no","18","no","white","no","yes","768","legacy","65","11","C:/Users/User/Desktop/Quant 2020/Sternberg Task 3/VT-subject-4.csv","legacy","8 5 4 7 3 1","Lentiform Loewenfeld","3.3.3","2","y","yes","0","right","left","NA","left","right","914","80541","NA","16854","914","2","legacy","6","1024","2","48000","-16","experiment","4","even","5","571538","2068","82610","NA","568190","2061","173277","569323","569326","484190","156422","573544","574460","570332","573544","Sternberg Task","75","56352","78","yes","1024"
"96.2025316456","96.2025316456","725.405063291","725.405063291","black","experiment","legacy","legacy","legacy","0","uniform","1","undefined","1","left","78","0","0","0","78","0","0","78","78","78","0","78","78","78","78","10/25/20 18:50:28","The main experiment item","yes","SternbergTask.osexp","C:\Users\User\Desktop\Quant 2020\Sternberg Task 3","no","mono","no","18","no","white","no","yes","768","legacy","66","11","C:/Users/User/Desktop/Quant 2020/Sternberg Task 3/VT-subject-4.csv","legacy","9 5 8 1","Lentiform Loewenfeld","3.3.3","2","y","yes","0","left","left","NA","left","left","955","80541","NA","16854","955","2","legacy","4","1024","2","48000","-16","experiment","4","even","5","577812","2068","82610","NA","568190","2061","173277","575597","575600","574465","156422","579818","580775","576606","579818","Sternberg Task","76","57307","79","yes","1024"
"96.25","96.25","727.2","727.2","black","experiment","legacy","legacy","legacy","0","uniform","1","undefined","1","left","79","0","0","0","79","0","0","79","79","79","0","79","79","79","79","10/25/20 18:50:28","The main experiment item","yes","SternbergTask.osexp","C:\Users\User\Desktop\Quant 2020\Sternberg Task 3","no","mono","no","18","no","white","no","yes","768","legacy","67","11","C:/Users/User/Desktop/Quant 2020/Sternberg Task 3/VT-subject-4.csv","legacy","8 9 5 6 7","Lentiform Loewenfeld","3.3.3","1","y","yes","0","left","left","NA","left","left","869","80541","NA","16854","869","2","legacy","5","1024","2","48000","-16","experiment","4","even","8","584133","2068","82610","NA","580780","2061","173277","581917","581920","574465","156422","586139","587010","582926","586139","Sternberg Task","77","58176","80","yes","1024"
"96.2962962963","96.2962962963","726.691358025","726.691358025","black","experiment","legacy","legacy","legacy","0","uniform","1","undefined","1","right","80","0","0","0","80","0","0","80","80","80","0","80","80","80","80","10/25/20 18:50:28","The main experiment item","yes","SternbergTask.osexp","C:\Users\User\Desktop\Quant 2020\Sternberg Task 3","no","mono","no","18","no","white","no","yes","768","legacy","68","11","C:/Users/User/Desktop/Quant 2020/Sternberg Task 3/VT-subject-4.csv","legacy","8 4 3 5","Lentiform Loewenfeld","3.3.3","0","n","yes","0","right","left","NA","left","right","686","80541","NA","16854","686","2","legacy","4","1024","2","48000","-16","experiment","4","even","6","590376","2068","82610","NA","587015","2061","173277","588161","588164","574465","156422","592383","593071","589170","592382","Sternberg Task","78","58862","81","yes","1024"
"96.3414634146","96.3414634146","728.402439024","728.402439024","black","experiment","legacy","legacy","legacy","0","uniform","1","undefined","1","left","81","0","0","0","81","0","0","81","81","81","0","81","81","81","81","10/25/20 18:50:28","The main experiment item","yes","SternbergTask.osexp","C:\Users\User\Desktop\Quant 2020\Sternberg Task 3","no","mono","no","18","no","white","no","yes","768","legacy","69","11","C:/Users/User/Desktop/Quant 2020/Sternberg Task 3/VT-subject-4.csv","legacy","7 6","Lentiform Loewenfeld","3.3.3","2","y","yes","0","left","left","NA","left","left","867","80541","NA","16854","867","2","legacy","2","1024","2","48000","-16","experiment","4","even","6","596429","2068","82610","NA","593076","2061","173277","594214","594217","574465","156422","598435","599303","595223","598435","Sternberg Task","79","59729","82","yes","1024"
"96.3855421687","96.3855421687","725.927710843","725.927710843","black","experiment","legacy","legacy","legacy","0","uniform","1","undefined","1","left","82","0","0","0","82","0","0","82","82","82","0","82","82","82","82","10/25/20 18:50:28","The main experiment item","yes","SternbergTask.osexp","C:\Users\User\Desktop\Quant 2020\Sternberg Task 3","no","mono","no","18","no","white","no","yes","768","legacy","70","11","C:/Users/User/Desktop/Quant 2020/Sternberg Task 3/VT-subject-4.csv","legacy","8 3","Lentiform Loewenfeld","3.3.3","2","y","yes","0","left","left","NA","left","left","523","80541","NA","16854","523","2","legacy","2","1024","2","48000","-16","experiment","4","even","3","602658","2068","82610","NA","599308","2061","173277","600443","600446","574465","156422","604664","605188","601452","604664","Sternberg Task","80","60252","83","yes","1024"
"95.2380952381","95.2380952381","731.797619048","731.797619048","black","experiment","legacy","legacy","legacy","0","uniform","0","undefined","0","right","83","0","0","0","83","0","0","83","83","83","0","83","83","83","83","10/25/20 18:50:28","The main experiment item","yes","SternbergTask.osexp","C:\Users\User\Desktop\Quant 2020\Sternberg Task 3","no","mono","no","18","no","white","no","yes","768","legacy","71","11","C:/Users/User/Desktop/Quant 2020/Sternberg Task 3/VT-subject-4.csv","legacy","7 1 5 6 3","Lentiform Loewenfeld","3.3.3","0","n","yes","0","left","left","NA","left","left","1219","80541","NA","16854","1219","2","legacy","5","1024","2","48000","-16","experiment","4","even","8","608538","2068","82610","NA","605194","2061","173277","606323","606325","574465","156422","610544","611764","607331","610544","Sternberg Task","80","61471","84","yes","1024"
"95.2941176471","95.2941176471","730.282352941","730.282352941","black","experiment","legacy","legacy","legacy","0","uniform","1","undefined","1","left","84","0","0","0","84","0","0","84","84","84","0","84","84","84","84","10/25/20 18:50:28","The main experiment item","yes","SternbergTask.osexp","C:\Users\User\Desktop\Quant 2020\Sternberg Task 3","no","mono","no","18","no","white","no","yes","768","legacy","72","11","C:/Users/User/Desktop/Quant 2020/Sternberg Task 3/VT-subject-4.csv","legacy","4 9 7 8 5 3","Lentiform Loewenfeld","3.3.3","4","y","yes","0","left","left","NA","left","left","603","80541","NA","16854","603","2","legacy","6","1024","2","48000","-16","experiment","4","even","8","615122","2068","82610","NA","605194","2061","173277","612907","612910","611770","156422","617130","617734","613916","617129","Sternberg Task","81","62074","85","yes","1024"
"95.3488372093","95.3488372093","730.162790698","730.162790698","black","experiment","legacy","legacy","legacy","0","uniform","1","undefined","1","right","85","0","0","0","85","0","0","85","85","85","0","85","85","85","85","10/25/20 18:50:28","The main experiment item","yes","SternbergTask.osexp","C:\Users\User\Desktop\Quant 2020\Sternberg Task 3","no","mono","no","18","no","white","no","yes","768","legacy","73","11","C:/Users/User/Desktop/Quant 2020/Sternberg Task 3/VT-subject-4.csv","legacy","2 8 7 9 5 3","Lentiform Loewenfeld","3.3.3","0","n","yes","0","right","left","NA","left","right","720","80541","NA","16854","720","2","legacy","6","1024","2","48000","-16","experiment","4","even","6","621090","2068","82610","NA","617740","2061","173277","618878","618881","611770","156422","623096","623818","619887","623096","Sternberg Task","82","62794","86","yes","1024"
"95.4022988506","95.4022988506","728.666666667","728.666666667","black","experiment","legacy","legacy","legacy","0","uniform","1","undefined","1","left","86","0","0","0","86","0","0","86","86","86","0","86","86","86","86","10/25/20 18:50:28","The main experiment item","yes","SternbergTask.osexp","C:\Users\User\Desktop\Quant 2020\Sternberg Task 3","no","mono","no","18","no","white","no","yes","768","legacy","74","11","C:/Users/User/Desktop/Quant 2020/Sternberg Task 3/VT-subject-4.csv","legacy","7 1 8 5 6 2","Lentiform Loewenfeld","3.3.3","2","y","yes","0","left","left","NA","left","left","600","80541","NA","16854","600","2","legacy","6","1024","2","48000","-16","experiment","4","even","1","627180","2068","82610","NA","623823","2061","173277","624966","624968","611770","156422","629187","629789","625974","629186","Sternberg Task","83","63394","87","yes","1024"
"95.4545454545","95.4545454545","730.147727273","730.147727273","black","experiment","legacy","legacy","legacy","0","uniform","1","undefined","1","right","87","0","0","0","87","0","0","87","87","87","0","87","87","87","87","10/25/20 18:50:28","The main experiment item","yes","SternbergTask.osexp","C:\Users\User\Desktop\Quant 2020\Sternberg Task 3","no","mono","no","18","no","white","no","yes","768","legacy","75","11","C:/Users/User/Desktop/Quant 2020/Sternberg Task 3/VT-subject-4.csv","legacy","1 4 3 6 5","Lentiform Loewenfeld","3.3.3","0","n","yes","0","right","left","NA","left","right","859","80541","NA","16854","859","2","legacy","5","1024","2","48000","-16","experiment","4","even","8","633157","2068","82610","NA","629795","2061","173277","630942","630944","611770","156422","635164","636025","631951","635164","Sternberg Task","84","64253","88","yes","1024"
"95.5056179775","95.5056179775","733.584269663","733.584269663","black","experiment","legacy","legacy","legacy","0","uniform","1","undefined","1","left","88","0","0","0","88","0","0","88","88","88","0","88","88","88","88","10/25/20 18:50:28","The main experiment item","yes","SternbergTask.osexp","C:\Users\User\Desktop\Quant 2020\Sternberg Task 3","no","mono","no","18","no","white","no","yes","768","legacy","76","11","C:/Users/User/Desktop/Quant 2020/Sternberg Task 3/VT-subject-4.csv","legacy","8 9 6 1","Lentiform Loewenfeld","3.3.3","2","y","yes","0","left","left","NA","left","left","1036","80541","NA","16854","1036","2","legacy","4","1024","2","48000","-16","experiment","4","even","9","639390","2068","82610","NA","636030","2061","173277","637174","637177","611770","156422","641397","642434","638183","641396","Sternberg Task","85","65289","89","yes","1024"
"95.5555555556","95.5555555556","731.477777778","731.477777778","black","experiment","legacy","legacy","legacy","0","uniform","1","undefined","1","right","89","0","0","0","89","0","0","89","89","89","0","89","89","89","89","10/25/20 18:50:28","The main experiment item","yes","SternbergTask.osexp","C:\Users\User\Desktop\Quant 2020\Sternberg Task 3","no","mono","no","18","no","white","no","yes","768","legacy","77","11","C:/Users/User/Desktop/Quant 2020/Sternberg Task 3/VT-subject-4.csv","legacy","6 9 7 3 8 2","Lentiform Loewenfeld","3.3.3","0","n","yes","0","right","left","NA","left","right","544","80541","NA","16854","544","2","legacy","6","1024","2","48000","-16","experiment","4","even","5","645791","2068","82610","NA","642440","2061","173277","643576","643578","611770","156422","647798","648344","644585","647798","Sternberg Task","86","65833","90","yes","1024"
"95.6043956044","95.6043956044","729.912087912","729.912087912","black","experiment","legacy","legacy","legacy","0","uniform","1","undefined","1","left","90","0","0","0","90","0","0","90","90","90","0","90","90","90","90","10/25/20 18:50:28","The main experiment item","yes","SternbergTask.osexp","C:\Users\User\Desktop\Quant 2020\Sternberg Task 3","no","mono","no","18","no","white","no","yes","768","legacy","78","11","C:/Users/User/Desktop/Quant 2020/Sternberg Task 3/VT-subject-4.csv","legacy","4 1 8 7 5","Lentiform Loewenfeld","3.3.3","3","y","yes","0","left","left","NA","left","left","589","80541","NA","16854","589","2","legacy","5","1024","2","48000","-16","experiment","4","even","8","651694","2068","82610","NA","648351","2061","173277","649481","649483","611770","156422","653701","654292","650489","653701","Sternberg Task","87","66422","91","yes","1024"
"95.652173913","95.652173913","727.695652174","727.695652174","black","experiment","legacy","legacy","legacy","0","uniform","1","undefined","1","left","91","0","0","0","91","0","0","91","91","91","0","91","91","91","91","10/25/20 18:50:28","The main experiment item","yes","SternbergTask.osexp","C:\Users\User\Desktop\Quant 2020\Sternberg Task 3","no","mono","no","18","no","white","no","yes","768","legacy","79","11","C:/Users/User/Desktop/Quant 2020/Sternberg Task 3/VT-subject-4.csv","legacy","9 8 4","Lentiform Loewenfeld","3.3.3","1","y","yes","0","left","left","NA","left","left","526","80541","NA","16854","526","2","legacy","3","1024","2","48000","-16","experiment","4","even","9","657660","2068","82610","NA","654297","2061","173277","655445","655447","611770","156422","659667","660195","656454","659666","Sternberg Task","88","66948","92","yes","1024"
"95.6989247312","95.6989247312","726.688172043","726.688172043","black","experiment","legacy","legacy","legacy","0","uniform","1","undefined","1","right","92","0","0","0","92","0","0","92","92","92","0","92","92","92","92","10/25/20 18:50:28","The main experiment item","yes","SternbergTask.osexp","C:\Users\User\Desktop\Quant 2020\Sternberg Task 3","no","mono","no","18","no","white","no","yes","768","legacy","80","11","C:/Users/User/Desktop/Quant 2020/Sternberg Task 3/VT-subject-4.csv","legacy","9","Lentiform Loewenfeld","3.3.3","0","n","yes","0","right","left","NA","left","right","634","80541","NA","16854","634","2","legacy","1","1024","2","48000","-16","experiment","4","even","6","663553","2068","82610","NA","660200","2061","173277","661338","661340","611770","156422","665559","666195","662346","665559","Sternberg Task","89","67582","93","yes","1024"
"95.7446808511","95.7446808511","727.106382979","727.106382979","black","experiment","legacy","legacy","legacy","0","uniform","1","undefined","1","right","93","0","0","0","93","0","0","93","93","93","0","93","93","93","93","10/25/20 18:50:28","The main experiment item","yes","SternbergTask.osexp","C:\Users\User\Desktop\Quant 2020\Sternberg Task 3","no","mono","no","18","no","white","no","yes","768","legacy","81","11","C:/Users/User/Desktop/Quant 2020/Sternberg Task 3/VT-subject-4.csv","legacy","1 7 8 3 9","Lentiform Loewenfeld","3.3.3","0","n","yes","0","right","left","NA","left","right","766","80541","NA","16854","766","2","legacy","5","1024","2","48000","-16","experiment","4","even","2","669547","2068","82610","NA","666200","2061","173277","667333","667336","611770","156422","671554","672322","668342","671554","Sternberg Task","90","68348","94","yes","1024"
"95.7894736842","95.7894736842","733.284210526","733.284210526","black","experiment","legacy","legacy","legacy","0","uniform","1","undefined","1","right","94","0","0","0","94","0","0","94","94","94","0","94","94","94","94","10/25/20 18:50:28","The main experiment item","yes","SternbergTask.osexp","C:\Users\User\Desktop\Quant 2020\Sternberg Task 3","no","mono","no","18","no","white","no","yes","768","legacy","82","11","C:/Users/User/Desktop/Quant 2020/Sternberg Task 3/VT-subject-4.csv","legacy","5 3 2 6 9 8","Lentiform Loewenfeld","3.3.3","0","n","yes","0","right","left","NA","left","right","1314","80541","NA","16854","1314","2","legacy","6","1024","2","48000","-16","experiment","4","even","4","675678","2068","82610","NA","672327","2061","173277","673464","673466","611770","156422","677684","678999","674472","677683","Sternberg Task","91","69662","95","yes","1024"
"95.8333333333","95.8333333333","735.989583333","735.989583333","black","experiment","legacy","legacy","legacy","0","uniform","1","undefined","1","right","95","0","0","0","95","0","0","95","95","95","0","95","95","95","95","10/25/20 18:50:28","The main experiment item","yes","SternbergTask.osexp","C:\Users\User\Desktop\Quant 2020\Sternberg Task 3","no","mono","no","18","no","white","no","yes","768","legacy","83","11","C:/Users/User/Desktop/Quant 2020/Sternberg Task 3/VT-subject-4.csv","legacy","7 6 4 8 1 2","Lentiform Loewenfeld","3.3.3","0","n","yes","0","right","left","NA","left","right","993","80541","NA","16854","993","2","legacy","6","1024","2","48000","-16","experiment","4","even","9","682352","2068","82610","NA","679005","2061","173277","680140","680142","611770","156422","684358","685352","681149","684358","Sternberg Task","92","70655","96","yes","1024"
"95.8762886598","95.8762886598","734.680412371","734.680412371","black","experiment","legacy","legacy","legacy","0","uniform","1","undefined","1","left","96","0","0","0","96","0","0","96","96","96","0","96","96","96","96","10/25/20 18:50:28","The main experiment item","yes","SternbergTask.osexp","C:\Users\User\Desktop\Quant 2020\Sternberg Task 3","no","mono","no","18","no","white","no","yes","768","legacy","84","11","C:/Users/User/Desktop/Quant 2020/Sternberg Task 3/VT-subject-4.csv","legacy","8 9 5 7 1 6","Lentiform Loewenfeld","3.3.3","4","y","yes","0","left","left","NA","left","left","609","80541","NA","16854","609","2","legacy","6","1024","2","48000","-16","experiment","4","even","7","688711","2068","82610","NA","685358","2061","173277","686497","686500","611770","156422","690718","691329","687506","690718","Sternberg Task","93","71264","97","yes","1024"
"95.9183673469","95.9183673469","734.418367347","734.418367347","black","experiment","legacy","legacy","legacy","0","uniform","1","undefined","1","right","97","0","0","0","97","0","0","97","97","97","0","97","97","97","97","10/25/20 18:50:28","The main experiment item","yes","SternbergTask.osexp","C:\Users\User\Desktop\Quant 2020\Sternberg Task 3","no","mono","no","18","no","white","no","yes","768","legacy","85","11","C:/Users/User/Desktop/Quant 2020/Sternberg Task 3/VT-subject-4.csv","legacy","6 8 4","Lentiform Loewenfeld","3.3.3","0","n","yes","0","right","left","NA","left","right","709","80541","NA","16854","709","2","legacy","3","1024","2","48000","-16","experiment","4","even","1","694690","2068","82610","NA","691334","2061","173277","692476","692478","611770","156422","696696","697407","693483","696696","Sternberg Task","94","71973","98","yes","1024"
"95.9595959596","95.9595959596","733.323232323","733.323232323","black","experiment","legacy","legacy","legacy","0","uniform","1","undefined","1","right","98","0","0","0","98","0","0","98","98","98","0","98","98","98","98","10/25/20 18:50:28","The main experiment item","yes","SternbergTask.osexp","C:\Users\User\Desktop\Quant 2020\Sternberg Task 3","no","mono","no","18","no","white","no","yes","768","legacy","86","11","C:/Users/User/Desktop/Quant 2020/Sternberg Task 3/VT-subject-4.csv","legacy","6 9 4 5 3 2","Lentiform Loewenfeld","3.3.3","0","n","yes","0","right","left","NA","left","right","626","80541","NA","16854","626","2","legacy","6","1024","2","48000","-16","experiment","4","even","8","700767","2068","82610","NA","697412","2061","173277","698552","698555","611770","156422","702773","703401","699561","702773","Sternberg Task","95","72599","99","yes","1024"
"96","96","742.44","742.44","black","experiment","legacy","legacy","legacy","0","uniform","1","undefined","1","right","99","0","0","0","99","0","0","99","99","99","0","99","99","99","99","10/25/20 18:50:28","The main experiment item","yes","SternbergTask.osexp","C:\Users\User\Desktop\Quant 2020\Sternberg Task 3","no","mono","no","18","no","white","no","yes","768","legacy","87","11","C:/Users/User/Desktop/Quant 2020/Sternberg Task 3/VT-subject-4.csv","legacy","1 6 4 3 9 7","Lentiform Loewenfeld","3.3.3","0","n","yes","0","right","left","NA","left","right","1645","80541","NA","16854","1645","2","legacy","6","1024","2","48000","-16","experiment","4","even","8","706759","2068","82610","NA","703406","2061","173277","704544","704547","611770","156422","708765","710412","705553","708765","Sternberg Task","96","74244","100","yes","1024"
"96.0396039604","96.0396039604","740.544554455","740.544554455","black","experiment","legacy","legacy","legacy","0","uniform","1","undefined","1","left","100","0","0","0","100","0","0","100","100","100","0","100","100","100","100","10/25/20 18:50:28","The main experiment item","yes","SternbergTask.osexp","C:\Users\User\Desktop\Quant 2020\Sternberg Task 3","no","mono","no","18","no","white","no","yes","768","legacy","88","11","C:/Users/User/Desktop/Quant 2020/Sternberg Task 3/VT-subject-4.csv","legacy","6 2","Lentiform Loewenfeld","3.3.3","1","y","yes","0","left","left","NA","left","left","551","80541","NA","16854","551","2","legacy","2","1024","2","48000","-16","experiment","4","even","6","713766","2068","82610","NA","710417","2061","173277","711550","711552","611770","156422","715772","716325","712559","715772","Sternberg Task","97","74795","101","yes","1024"
"96.0784313725","96.0784313725","741.519607843","741.519607843","black","experiment","legacy","legacy","legacy","0","uniform","1","undefined","1","left","101","0","0","0","101","0","0","101","101","101","0","101","101","101","101","10/25/20 18:50:28","The main experiment item","yes","SternbergTask.osexp","C:\Users\User\Desktop\Quant 2020\Sternberg Task 3","no","mono","no","18","no","white","no","yes","768","legacy","89","11","C:/Users/User/Desktop/Quant 2020/Sternberg Task 3/VT-subject-4.csv","legacy","1 4 9 3 2 5","Lentiform Loewenfeld","3.3.3","3","y","yes","0","left","left","NA","left","left","840","80541","NA","16854","840","2","legacy","6","1024","2","48000","-16","experiment","4","even","9","719680","2068","82610","NA","716330","2061","173277","717466","717468","611770","156422","721686","722528","718473","721686","Sternberg Task","98","75635","102","yes","1024"
"96.1165048544","96.1165048544","741.048543689","741.048543689","black","experiment","legacy","legacy","legacy","0","uniform","1","undefined","1","right","102","0","0","0","102","0","0","102","102","102","0","102","102","102","102","10/25/20 18:50:28","The main experiment item","yes","SternbergTask.osexp","C:\Users\User\Desktop\Quant 2020\Sternberg Task 3","no","mono","no","18","no","white","no","yes","768","legacy","90","11","C:/Users/User/Desktop/Quant 2020/Sternberg Task 3/VT-subject-4.csv","legacy","1 7 5 2","Lentiform Loewenfeld","3.3.3","0","n","yes","0","right","left","NA","left","right","693","80541","NA","16854","693","2","legacy","4","1024","2","48000","-16","experiment","4","even","3","725885","2068","82610","NA","722533","2061","173277","723670","723673","611770","156422","727892","728587","724679","727892","Sternberg Task","99","76328","103","yes","1024"
"96.1538461538","96.1538461538","744.769230769","744.769230769","black","experiment","legacy","legacy","legacy","0","uniform","1","undefined","1","right","103","0","0","0","103","0","0","103","103","103","0","103","103","103","103","10/25/20 18:50:28","The main experiment item","yes","SternbergTask.osexp","C:\Users\User\Desktop\Quant 2020\Sternberg Task 3","no","mono","no","18","no","white","no","yes","768","legacy","91","11","C:/Users/User/Desktop/Quant 2020/Sternberg Task 3/VT-subject-4.csv","legacy","3 9 8 1 6 4","Lentiform Loewenfeld","3.3.3","0","n","yes","0","right","left","NA","left","right","1128","80541","NA","16854","1128","2","legacy","6","1024","2","48000","-16","experiment","4","even","7","731945","2068","82610","NA","728592","2061","173277","729730","729733","611770","156422","733951","735081","730738","733950","Sternberg Task","100","77456","104","yes","1024"
"96.1904761905","96.1904761905","744.914285714","744.914285714","black","experiment","legacy","legacy","legacy","0","uniform","1","undefined","1","right","104","0","0","0","104","0","0","104","104","104","0","104","104","104","104","10/25/20 18:50:28","The main experiment item","yes","SternbergTask.osexp","C:\Users\User\Desktop\Quant 2020\Sternberg Task 3","no","mono","no","18","no","white","no","yes","768","legacy","92","11","C:/Users/User/Desktop/Quant 2020/Sternberg Task 3/VT-subject-4.csv","legacy","7 1 8 4 9 3","Lentiform Loewenfeld","3.3.3","0","n","yes","0","right","left","NA","left","right","760","80541","NA","16854","760","2","legacy","6","1024","2","48000","-16","experiment","4","even","6","738438","2068","82610","NA","735086","2061","173277","736224","736226","611770","156422","740444","741205","737232","740444","Sternberg Task","101","78216","105","yes","1024"
"96.2264150943","96.2264150943","744.150943396","744.150943396","black","experiment","legacy","legacy","legacy","0","uniform","1","undefined","1","left","105","0","0","0","105","0","0","105","105","105","0","105","105","105","105","10/25/20 18:50:28","The main experiment item","yes","SternbergTask.osexp","C:\Users\User\Desktop\Quant 2020\Sternberg Task 3","no","mono","no","18","no","white","no","yes","768","legacy","93","11","C:/Users/User/Desktop/Quant 2020/Sternberg Task 3/VT-subject-4.csv","legacy","9 1 7 2","Lentiform Loewenfeld","3.3.3","2","y","yes","0","left","left","NA","left","left","664","80541","NA","16854","664","2","legacy","4","1024","2","48000","-16","experiment","4","even","1","744574","2068","82610","NA","741210","2061","173277","742360","742362","611770","156422","746580","747246","743368","746580","Sternberg Task","102","78880","106","yes","1024"
"96.261682243","96.261682243","742.38317757","742.38317757","black","experiment","legacy","legacy","legacy","0","uniform","1","undefined","1","left","106","0","0","0","106","0","0","106","106","106","0","106","106","106","106","10/25/20 18:50:28","The main experiment item","yes","SternbergTask.osexp","C:\Users\User\Desktop\Quant 2020\Sternberg Task 3","no","mono","no","18","no","white","no","yes","768","legacy","94","11","C:/Users/User/Desktop/Quant 2020/Sternberg Task 3/VT-subject-4.csv","legacy","8","Lentiform Loewenfeld","3.3.3","1","y","yes","0","left","left","NA","left","left","555","80541","NA","16854","555","2","legacy","1","1024","2","48000","-16","experiment","4","even","8","750603","2068","82610","NA","747251","2061","173277","748388","748391","611770","156422","752607","753164","749397","752606","Sternberg Task","103","79435","107","yes","1024"
"96.2962962963","96.2962962963","742.194444444","742.194444444","black","experiment","legacy","legacy","legacy","0","uniform","1","undefined","1","right","107","0","0","0","107","0","0","107","107","107","0","107","107","107","107","10/25/20 18:50:28","The main experiment item","yes","SternbergTask.osexp","C:\Users\User\Desktop\Quant 2020\Sternberg Task 3","no","mono","no","18","no","white","no","yes","768","legacy","95","11","C:/Users/User/Desktop/Quant 2020/Sternberg Task 3/VT-subject-4.csv","legacy","8 4 3 9","Lentiform Loewenfeld","3.3.3","0","n","yes","0","right","left","NA","left","right","722","80541","NA","16854","722","2","legacy","4","1024","2","48000","-16","experiment","4","even","5","756518","2068","82610","NA","753169","2061","173277","754304","754306","611770","156422","758524","759248","755312","758524","Sternberg Task","104","80157","108","yes","1024"
"96.3302752294","96.3302752294","741.76146789","741.76146789","black","experiment","legacy","legacy","legacy","0","uniform","1","undefined","1","left","108","0","0","0","108","0","0","108","108","108","0","108","108","108","108","10/25/20 18:50:28","The main experiment item","yes","SternbergTask.osexp","C:\Users\User\Desktop\Quant 2020\Sternberg Task 3","no","mono","no","18","no","white","no","yes","768","legacy","96","11","C:/Users/User/Desktop/Quant 2020/Sternberg Task 3/VT-subject-4.csv","legacy","5 2 6","Lentiform Loewenfeld","3.3.3","2","y","yes","0","left","left","NA","left","left","695","80541","NA","16854","695","2","legacy","3","1024","2","48000","-16","experiment","4","even","2","762600","2068","82610","NA","759253","2061","173277","760387","760389","611770","156422","764608","765305","761395","764607","Sternberg Task","105","80852","109","yes","1024"
"96.3636363636","96.3636363636","740.672727273","740.672727273","black","experiment","legacy","legacy","legacy","0","uniform","1","undefined","1","right","109","0","0","0","109","0","0","109","109","109","0","109","109","109","109","10/25/20 18:50:28","The main experiment item","yes","SternbergTask.osexp","C:\Users\User\Desktop\Quant 2020\Sternberg Task 3","no","mono","no","18","no","white","no","yes","768","legacy","97","11","C:/Users/User/Desktop/Quant 2020/Sternberg Task 3/VT-subject-4.csv","legacy","5 9 2 3","Lentiform Loewenfeld","3.3.3","0","n","yes","0","right","left","NA","left","right","622","80541","NA","16854","622","2","legacy","4","1024","2","48000","-16","experiment","4","even","8","768666","2068","82610","NA","765310","2061","173277","766452","766454","611770","156422","770673","771296","767460","770672","Sternberg Task","106","81474","110","yes","1024"
"96.3963963964","96.3963963964","739.324324324","739.324324324","black","experiment","legacy","legacy","legacy","0","uniform","1","undefined","1","left","110","0","0","0","110","0","0","110","110","110","0","110","110","110","110","10/25/20 18:50:28","The main experiment item","yes","SternbergTask.osexp","C:\Users\User\Desktop\Quant 2020\Sternberg Task 3","no","mono","no","18","no","white","no","yes","768","legacy","98","11","C:/Users/User/Desktop/Quant 2020/Sternberg Task 3/VT-subject-4.csv","legacy","2 4 8 5 1 3","Lentiform Loewenfeld","3.3.3","1","y","yes","0","left","left","NA","left","left","591","80541","NA","16854","591","2","legacy","6","1024","2","48000","-16","experiment","4","even","2","774645","2068","82610","NA","771302","2061","173277","772431","772433","611770","156422","776651","777244","773438","776651","Sternberg Task","107","82065","111","yes","1024"
"96.4285714286","96.4285714286","738.883928571","738.883928571","black","experiment","legacy","legacy","legacy","0","uniform","1","undefined","1","right","111","0","0","0","111","0","0","111","111","111","0","111","111","111","111","10/25/20 18:50:28","The main experiment item","yes","SternbergTask.osexp","C:\Users\User\Desktop\Quant 2020\Sternberg Task 3","no","mono","no","18","no","white","no","yes","768","legacy","99","11","C:/Users/User/Desktop/Quant 2020/Sternberg Task 3/VT-subject-4.csv","legacy","9 5 3 2 8 6","Lentiform Loewenfeld","3.3.3","0","n","yes","0","right","left","NA","left","right","690","80541","NA","16854","690","2","legacy","6","1024","2","48000","-16","experiment","4","even","7","780603","2068","82610","NA","777249","2061","173277","778387","778390","611770","156422","782606","783298","779396","782605","Sternberg Task","108","82755","112","yes","1024"
"96.4601769912","96.4601769912","737.362831858","737.362831858","black","experiment","legacy","legacy","legacy","0","uniform","1","undefined","1","right","112","0","0","0","112","0","0","112","112","112","0","112","112","112","112","10/25/20 18:50:28","The main experiment item","yes","SternbergTask.osexp","C:\Users\User\Desktop\Quant 2020\Sternberg Task 3","no","mono","no","18","no","white","no","yes","768","legacy","100","11","C:/Users/User/Desktop/Quant 2020/Sternberg Task 3/VT-subject-4.csv","legacy","4 1","Lentiform Loewenfeld","3.3.3","0","n","yes","0","right","left","NA","left","right","567","80541","NA","16854","567","2","legacy","2","1024","2","48000","-16","experiment","4","even","6","786647","2068","82610","NA","783304","2061","173277","784431","784434","611770","156422","788653","789222","785440","788653","Sternberg Task","109","83322","113","yes","1024"
"96.4912280702","96.4912280702","736.184210526","736.184210526","black","experiment","legacy","legacy","legacy","0","uniform","1","undefined","1","left","113","0","0","0","113","0","0","113","113","113","0","113","113","113","113","10/25/20 18:50:28","The main experiment item","yes","SternbergTask.osexp","C:\Users\User\Desktop\Quant 2020\Sternberg Task 3","no","mono","no","18","no","white","no","yes","768","legacy","101","11","C:/Users/User/Desktop/Quant 2020/Sternberg Task 3/VT-subject-4.csv","legacy","8 5 1 3 9","Lentiform Loewenfeld","3.3.3","4","y","yes","0","left","left","NA","left","left","603","80541","NA","16854","603","2","legacy","5","1024","2","48000","-16","experiment","4","even","3","792576","2068","82610","NA","789227","2061","173277","790361","790363","611770","156422","794582","795187","791370","794582","Sternberg Task","110","83925","114","yes","1024"
"96.5217391304","96.5217391304","734.286956522","734.286956522","black","experiment","legacy","legacy","legacy","0","uniform","1","undefined","1","right","114","0","0","0","114","0","0","114","114","114","0","114","114","114","114","10/25/20 18:50:28","The main experiment item","yes","SternbergTask.osexp","C:\Users\User\Desktop\Quant 2020\Sternberg Task 3","no","mono","no","18","no","white","no","yes","768","legacy","102","11","C:/Users/User/Desktop/Quant 2020/Sternberg Task 3/VT-subject-4.csv","legacy","5","Lentiform Loewenfeld","3.3.3","0","n","yes","0","right","left","NA","left","right","518","80541","NA","16854","518","2","legacy","1","1024","2","48000","-16","experiment","4","even","8","798541","2068","82610","NA","795193","2061","173277","796328","796330","611770","156422","800548","801068","797336","800548","Sternberg Task","111","84443","115","yes","1024"
