"acc","accuracy","average_response_time","avg_rt","background","block","canvas_backend","clock_backend","color_backend","compensation","coordinates","correct","correct_instruction1","correct_keyboard_response","correct_response","count_correctFeedback","count_expSequence","count_experiment","count_experimentLoop","count_fixation","count_incorrectFeedback","count_instruction1","count_instructions2","count_isi","count_keyboard_response","count_logger","count_memorySet","count_practiceloop","count_prob","count_thankYou","datetime","description","disable_garbage_collection","experiment_file","experiment_path","font_bold","font_family","font_italic","font_size","font_underline","foreground","form_clicks","fullscreen","height","keyboard_backend","live_row","live_row_practiceloop","logfile","mouse_backend","numberSet","opensesame_codename","opensesame_version","posInSet","present","repeat_cycle","response","response_instruction1","response_instructions2","response_keyboard_response","response_thankYou","response_time","response_time_instruction1","response_time_instructions2","response_time_keyboard_response","response_time_thankYou","round_decimals","sampler_backend","setSize","sound_buf_size","sound_channels","sound_freq","sound_sample_size","start","subject_nr","subject_parity","target","time_correctFeedback","time_expSequence","time_experiment","time_experimentLoop","time_fixation","time_incorrectFeedback","time_instruction1","time_instructions2","time_isi","time_keyboard_response","time_logger","time_memorySet","time_practiceloop","time_prob","time_thankYou","title","total_correct","total_response_time","total_responses","uniform_coordinates","width"
"100","100","1027","1027","black","practice","legacy","legacy","legacy","0","uniform","1","undefined","1","left","0","0","0","0","0","0","0","0","0","0","0","0","0","0","0","10/22/20 21:02:29","The main experiment item","yes","SternbergTask.osexp","C:\Users\18177\OneDrive\Documents\School\Grad School\Fall 2020\Lab 3 Sternberg Memory","no","mono","no","18","no","white","no","yes","768","legacy","0","0","C:/Users/18177/OneDrive/Documents/School/Grad School/Fall 2020/Lab 3 Sternberg Memory/subject-2.csv","legacy","6","Lentiform Loewenfeld","3.3.3","1","y","0","left","right","NA","left","NA","1027","8288","NA","1027","NA","2","legacy","1","1024","2","48000","-16","experiment","2","even","6","NA","12055","3189","NA","12057","NA","3197","NA","14261","16263","17290","13058","11486","16263","NA","Sternberg Task","1","1027","1","yes","1024"
"100","100","1048.5","1048.5","black","practice","legacy","legacy","legacy","0","uniform","1","undefined","1","left","1","1","0","0","1","1","0","0","1","1","1","1","0","1","0","10/22/20 21:02:29","The main experiment item","yes","SternbergTask.osexp","C:\Users\18177\OneDrive\Documents\School\Grad School\Fall 2020\Lab 3 Sternberg Memory","no","mono","no","18","no","white","no","yes","768","legacy","1","1","C:/Users/18177/OneDrive/Documents/School/Grad School/Fall 2020/Lab 3 Sternberg Memory/subject-2.csv","legacy","4 3 1 7 9 8","Lentiform Loewenfeld","3.3.3","1","y","0","left","right","NA","left","NA","1070","8288","NA","1070","NA","2","legacy","6","1024","2","48000","-16","experiment","2","even","4","17323","18388","3189","NA","18390","NA","3197","NA","20599","22600","23670","19394","11486","22600","NA","Sternberg Task","2","2097","2","yes","1024"
"100","100","935.666666667","935.666666667","black","practice","legacy","legacy","legacy","0","uniform","1","undefined","1","left","2","2","0","0","2","2","0","0","2","2","2","2","0","2","0","10/22/20 21:02:29","The main experiment item","yes","SternbergTask.osexp","C:\Users\18177\OneDrive\Documents\School\Grad School\Fall 2020\Lab 3 Sternberg Memory","no","mono","no","18","no","white","no","yes","768","legacy","2","2","C:/Users/18177/OneDrive/Documents/School/Grad School/Fall 2020/Lab 3 Sternberg Memory/subject-2.csv","legacy","4 8","Lentiform Loewenfeld","3.3.3","1","y","0","left","right","NA","left","NA","710","8288","NA","710","NA","2","legacy","2","1024","2","48000","-16","experiment","2","even","4","23683","24741","3189","NA","24742","NA","3197","NA","26948","28949","29660","25744","11486","28949","NA","Sternberg Task","3","2807","3","yes","1024"
"100","100","841.5","841.5","black","practice","legacy","legacy","legacy","0","uniform","1","undefined","1","left","3","3","0","0","3","3","0","0","3","3","3","3","0","3","0","10/22/20 21:02:29","The main experiment item","yes","SternbergTask.osexp","C:\Users\18177\OneDrive\Documents\School\Grad School\Fall 2020\Lab 3 Sternberg Memory","no","mono","no","18","no","white","no","yes","768","legacy","3","3","C:/Users/18177/OneDrive/Documents/School/Grad School/Fall 2020/Lab 3 Sternberg Memory/subject-2.csv","legacy","1 5 2 9","Lentiform Loewenfeld","3.3.3","2","y","0","left","right","NA","left","NA","559","8288","NA","559","NA","2","legacy","4","1024","2","48000","-16","experiment","2","even","5","29674","30733","3189","NA","30734","NA","3197","NA","32938","34941","35500","31735","11486","34941","NA","Sternberg Task","4","3366","4","yes","1024"
"100","100","814.8","814.8","black","practice","legacy","legacy","legacy","0","uniform","1","undefined","1","right","4","4","0","0","4","4","0","0","4","4","4","4","0","4","0","10/22/20 21:02:29","The main experiment item","yes","SternbergTask.osexp","C:\Users\18177\OneDrive\Documents\School\Grad School\Fall 2020\Lab 3 Sternberg Memory","no","mono","no","18","no","white","no","yes","768","legacy","4","4","C:/Users/18177/OneDrive/Documents/School/Grad School/Fall 2020/Lab 3 Sternberg Memory/subject-2.csv","legacy","5 7 8 4 1 2","Lentiform Loewenfeld","3.3.3","0","n","0","right","right","NA","right","NA","708","8288","NA","708","NA","2","legacy","6","1024","2","48000","-16","experiment","2","even","6","35512","36576","3189","NA","36577","NA","3197","NA","38782","40783","41492","37579","11486","40783","NA","Sternberg Task","5","4074","5","yes","1024"
"100","100","813.166666667","813.166666667","black","practice","legacy","legacy","legacy","0","uniform","1","undefined","1","right","5","5","0","0","5","5","0","0","5","5","5","5","0","5","0","10/22/20 21:02:29","The main experiment item","yes","SternbergTask.osexp","C:\Users\18177\OneDrive\Documents\School\Grad School\Fall 2020\Lab 3 Sternberg Memory","no","mono","no","18","no","white","no","yes","768","legacy","5","5","C:/Users/18177/OneDrive/Documents/School/Grad School/Fall 2020/Lab 3 Sternberg Memory/subject-2.csv","legacy","9 6 7 4 5","Lentiform Loewenfeld","3.3.3","0","n","0","right","right","NA","right","NA","805","8288","NA","805","NA","2","legacy","5","1024","2","48000","-16","experiment","2","even","3","41504","42572","3189","NA","42573","NA","3197","NA","44782","46787","47592","43577","11486","46787","NA","Sternberg Task","6","4879","6","yes","1024"
"100","100","792.285714286","792.285714286","black","practice","legacy","legacy","legacy","0","uniform","1","undefined","1","right","6","6","0","0","6","6","0","0","6","6","6","6","0","6","0","10/22/20 21:02:29","The main experiment item","yes","SternbergTask.osexp","C:\Users\18177\OneDrive\Documents\School\Grad School\Fall 2020\Lab 3 Sternberg Memory","no","mono","no","18","no","white","no","yes","768","legacy","6","6","C:/Users/18177/OneDrive/Documents/School/Grad School/Fall 2020/Lab 3 Sternberg Memory/subject-2.csv","legacy","4 1 5","Lentiform Loewenfeld","3.3.3","0","n","0","right","right","NA","right","NA","667","8288","NA","667","NA","2","legacy","3","1024","2","48000","-16","experiment","2","even","2","47604","48661","3189","NA","48663","NA","3197","NA","50868","52870","53537","49664","11486","52870","NA","Sternberg Task","7","5546","7","yes","1024"
"100","100","752.125","752.125","black","practice","legacy","legacy","legacy","0","uniform","1","undefined","1","right","7","7","0","0","7","7","0","0","7","7","7","7","0","7","0","10/22/20 21:02:29","The main experiment item","yes","SternbergTask.osexp","C:\Users\18177\OneDrive\Documents\School\Grad School\Fall 2020\Lab 3 Sternberg Memory","no","mono","no","18","no","white","no","yes","768","legacy","7","7","C:/Users/18177/OneDrive/Documents/School/Grad School/Fall 2020/Lab 3 Sternberg Memory/subject-2.csv","legacy","5","Lentiform Loewenfeld","3.3.3","0","n","0","right","right","NA","right","NA","471","8288","NA","471","NA","2","legacy","1","1024","2","48000","-16","experiment","2","even","3","53552","54610","3189","NA","54612","NA","3197","NA","56817","58819","59291","55613","11486","58819","NA","Sternberg Task","8","6017","8","yes","1024"
"88.8888888889","88.8888888889","720.888888889","720.888888889","black","practice","legacy","legacy","legacy","0","uniform","0","undefined","0","left","8","8","0","0","8","8","0","0","8","8","8","8","0","8","0","10/22/20 21:02:29","The main experiment item","yes","SternbergTask.osexp","C:\Users\18177\OneDrive\Documents\School\Grad School\Fall 2020\Lab 3 Sternberg Memory","no","mono","no","18","no","white","no","yes","768","legacy","8","8","C:/Users/18177/OneDrive/Documents/School/Grad School/Fall 2020/Lab 3 Sternberg Memory/subject-2.csv","legacy","2 9 4","Lentiform Loewenfeld","3.3.3","3","y","0","right","right","NA","right","NA","471","8288","NA","471","NA","2","legacy","3","1024","2","48000","-16","experiment","2","even","4","59302","60359","3189","NA","60361","NA","3197","NA","62567","64568","65040","61362","11486","64568","NA","Sternberg Task","8","6488","9","yes","1024"
"90","90","741.2","741.2","black","practice","legacy","legacy","legacy","0","uniform","1","undefined","1","right","9","9","0","0","9","9","0","0","9","9","9","9","0","9","0","10/22/20 21:02:29","The main experiment item","yes","SternbergTask.osexp","C:\Users\18177\OneDrive\Documents\School\Grad School\Fall 2020\Lab 3 Sternberg Memory","no","mono","no","18","no","white","no","yes","768","legacy","9","9","C:/Users/18177/OneDrive/Documents/School/Grad School/Fall 2020/Lab 3 Sternberg Memory/subject-2.csv","legacy","2 1","Lentiform Loewenfeld","3.3.3","0","n","0","right","right","NA","right","NA","924","8288","NA","924","NA","2","legacy","2","1024","2","48000","-16","experiment","2","even","5","59302","66101","3189","NA","66102","65044","3197","NA","68309","70313","71238","67104","11486","70313","NA","Sternberg Task","9","7412","10","yes","1024"
"90.9090909091","90.9090909091","851.272727273","851.272727273","black","practice","legacy","legacy","legacy","0","uniform","1","undefined","1","left","10","10","0","0","10","10","0","0","10","10","10","10","0","10","0","10/22/20 21:02:29","The main experiment item","yes","SternbergTask.osexp","C:\Users\18177\OneDrive\Documents\School\Grad School\Fall 2020\Lab 3 Sternberg Memory","no","mono","no","18","no","white","no","yes","768","legacy","10","10","C:/Users/18177/OneDrive/Documents/School/Grad School/Fall 2020/Lab 3 Sternberg Memory/subject-2.csv","legacy","1 7 9 8 5","Lentiform Loewenfeld","3.3.3","4","y","0","left","right","NA","left","NA","1952","8288","NA","1952","NA","2","legacy","5","1024","2","48000","-16","experiment","2","even","8","71251","72309","3189","NA","72310","65044","3197","NA","74514","76515","78468","73313","11486","76515","NA","Sternberg Task","10","9364","11","yes","1024"
"91.6666666667","91.6666666667","839.75","839.75","black","practice","legacy","legacy","legacy","0","uniform","1","undefined","1","right","11","11","0","0","11","11","0","0","11","11","11","11","0","11","0","10/22/20 21:02:29","The main experiment item","yes","SternbergTask.osexp","C:\Users\18177\OneDrive\Documents\School\Grad School\Fall 2020\Lab 3 Sternberg Memory","no","mono","no","18","no","white","no","yes","768","legacy","11","11","C:/Users/18177/OneDrive/Documents/School/Grad School/Fall 2020/Lab 3 Sternberg Memory/subject-2.csv","legacy","3 1 9 4","Lentiform Loewenfeld","3.3.3","0","n","0","right","right","NA","right","NA","713","8288","NA","713","NA","2","legacy","4","1024","2","48000","-16","experiment","2","even","6","78479","79537","3189","NA","79538","65044","3197","NA","81744","83745","84460","80540","11486","83745","NA","Sternberg Task","11","10077","12","yes","1024"
"92.3076923077","92.3076923077","832.923076923","832.923076923","black","experiment","legacy","legacy","legacy","0","uniform","1","undefined","1","right","12","12","0","0","12","12","0","0","12","12","12","12","0","12","0","10/22/20 21:02:29","The main experiment item","yes","SternbergTask.osexp","C:\Users\18177\OneDrive\Documents\School\Grad School\Fall 2020\Lab 3 Sternberg Memory","no","mono","no","18","no","white","no","yes","768","legacy","0","11","C:/Users/18177/OneDrive/Documents/School/Grad School/Fall 2020/Lab 3 Sternberg Memory/subject-2.csv","legacy","6 7 5 9","Lentiform Loewenfeld","3.3.3","0","n","0","right","right","right","right","NA","751","8288","10034","751","NA","2","legacy","4","1024","2","48000","-16","experiment","2","even","2","84472","95583","3189","95521","95584","65044","3197","85485","97789","99790","100542","96585","11486","99790","NA","Sternberg Task","12","10828","13","yes","1024"
"92.8571428571","92.8571428571","845.142857143","845.142857143","black","experiment","legacy","legacy","legacy","0","uniform","1","undefined","1","right","13","13","0","0","13","13","0","0","13","13","13","13","0","13","0","10/22/20 21:02:29","The main experiment item","yes","SternbergTask.osexp","C:\Users\18177\OneDrive\Documents\School\Grad School\Fall 2020\Lab 3 Sternberg Memory","no","mono","no","18","no","white","no","yes","768","legacy","1","11","C:/Users/18177/OneDrive/Documents/School/Grad School/Fall 2020/Lab 3 Sternberg Memory/subject-2.csv","legacy","1 4 9 2 5","Lentiform Loewenfeld","3.3.3","0","n","0","right","right","right","right","NA","1004","8288","10034","1004","NA","2","legacy","5","1024","2","48000","-16","experiment","2","even","7","100555","101616","3189","95521","101617","65044","3197","85485","103821","105822","106827","102618","11486","105822","NA","Sternberg Task","13","11832","14","yes","1024"
"93.3333333333","93.3333333333","831.733333333","831.733333333","black","experiment","legacy","legacy","legacy","0","uniform","1","undefined","1","right","14","14","0","0","14","14","0","0","14","14","14","14","0","14","0","10/22/20 21:02:29","The main experiment item","yes","SternbergTask.osexp","C:\Users\18177\OneDrive\Documents\School\Grad School\Fall 2020\Lab 3 Sternberg Memory","no","mono","no","18","no","white","no","yes","768","legacy","2","11","C:/Users/18177/OneDrive/Documents/School/Grad School/Fall 2020/Lab 3 Sternberg Memory/subject-2.csv","legacy","1","Lentiform Loewenfeld","3.3.3","0","n","0","right","right","right","right","NA","644","8288","10034","644","NA","2","legacy","1","1024","2","48000","-16","experiment","2","even","7","106840","107899","3189","95521","107900","65044","3197","85485","110106","112107","112752","108902","11486","112107","NA","Sternberg Task","14","12476","15","yes","1024"
"93.75","93.75","838.0625","838.0625","black","experiment","legacy","legacy","legacy","0","uniform","1","undefined","1","left","15","15","0","0","15","15","0","0","15","15","15","15","0","15","0","10/22/20 21:02:29","The main experiment item","yes","SternbergTask.osexp","C:\Users\18177\OneDrive\Documents\School\Grad School\Fall 2020\Lab 3 Sternberg Memory","no","mono","no","18","no","white","no","yes","768","legacy","3","11","C:/Users/18177/OneDrive/Documents/School/Grad School/Fall 2020/Lab 3 Sternberg Memory/subject-2.csv","legacy","9 1 7 2","Lentiform Loewenfeld","3.3.3","2","y","0","left","right","right","left","NA","933","8288","10034","933","NA","2","legacy","4","1024","2","48000","-16","experiment","2","even","1","112755","113813","3189","95521","113814","65044","3197","85485","116020","118021","118955","114815","11486","118021","NA","Sternberg Task","15","13409","16","yes","1024"
"94.1176470588","94.1176470588","853.529411765","853.529411765","black","experiment","legacy","legacy","legacy","0","uniform","1","undefined","1","left","16","16","0","0","16","16","0","0","16","16","16","16","0","16","0","10/22/20 21:02:29","The main experiment item","yes","SternbergTask.osexp","C:\Users\18177\OneDrive\Documents\School\Grad School\Fall 2020\Lab 3 Sternberg Memory","no","mono","no","18","no","white","no","yes","768","legacy","4","11","C:/Users/18177/OneDrive/Documents/School/Grad School/Fall 2020/Lab 3 Sternberg Memory/subject-2.csv","legacy","8 9 6 1","Lentiform Loewenfeld","3.3.3","2","y","0","left","right","right","left","NA","1101","8288","10034","1101","NA","2","legacy","4","1024","2","48000","-16","experiment","2","even","9","118971","120028","3189","95521","120030","65044","3197","85485","122236","124237","125338","121034","11486","124237","NA","Sternberg Task","16","14510","17","yes","1024"
"94.4444444444","94.4444444444","835.611111111","835.611111111","black","experiment","legacy","legacy","legacy","0","uniform","1","undefined","1","left","17","17","0","0","17","17","0","0","17","17","17","17","0","17","0","10/22/20 21:02:29","The main experiment item","yes","SternbergTask.osexp","C:\Users\18177\OneDrive\Documents\School\Grad School\Fall 2020\Lab 3 Sternberg Memory","no","mono","no","18","no","white","no","yes","768","legacy","5","11","C:/Users/18177/OneDrive/Documents/School/Grad School/Fall 2020/Lab 3 Sternberg Memory/subject-2.csv","legacy","9 5 3 8 4","Lentiform Loewenfeld","3.3.3","1","y","0","left","right","right","left","NA","531","8288","10034","531","NA","2","legacy","5","1024","2","48000","-16","experiment","2","even","9","125350","126406","3189","95521","126407","65044","3197","85485","128612","130613","131146","127409","11486","130613","NA","Sternberg Task","17","15041","18","yes","1024"
"94.7368421053","94.7368421053","828.368421053","828.368421053","black","experiment","legacy","legacy","legacy","0","uniform","1","undefined","1","left","18","18","0","0","18","18","0","0","18","18","18","18","0","18","0","10/22/20 21:02:29","The main experiment item","yes","SternbergTask.osexp","C:\Users\18177\OneDrive\Documents\School\Grad School\Fall 2020\Lab 3 Sternberg Memory","no","mono","no","18","no","white","no","yes","768","legacy","6","11","C:/Users/18177/OneDrive/Documents/School/Grad School/Fall 2020/Lab 3 Sternberg Memory/subject-2.csv","legacy","2 3","Lentiform Loewenfeld","3.3.3","1","y","0","left","right","right","left","NA","698","8288","10034","698","NA","2","legacy","2","1024","2","48000","-16","experiment","2","even","2","131157","132215","3189","95521","132216","65044","3197","85485","134421","136422","137121","133217","11486","136422","NA","Sternberg Task","18","15739","19","yes","1024"
"95","95","821.1","821.1","black","experiment","legacy","legacy","legacy","0","uniform","1","undefined","1","left","19","19","0","0","19","19","0","0","19","19","19","19","0","19","0","10/22/20 21:02:29","The main experiment item","yes","SternbergTask.osexp","C:\Users\18177\OneDrive\Documents\School\Grad School\Fall 2020\Lab 3 Sternberg Memory","no","mono","no","18","no","white","no","yes","768","legacy","7","11","C:/Users/18177/OneDrive/Documents/School/Grad School/Fall 2020/Lab 3 Sternberg Memory/subject-2.csv","legacy","4 9 7 8 5 3","Lentiform Loewenfeld","3.3.3","4","y","0","left","right","right","left","NA","683","8288","10034","683","NA","2","legacy","6","1024","2","48000","-16","experiment","2","even","8","137133","138191","3189","95521","138192","65044","3197","85485","140398","142400","143084","139194","11486","142400","NA","Sternberg Task","19","16422","20","yes","1024"
"95.2380952381","95.2380952381","819.952380952","819.952380952","black","experiment","legacy","legacy","legacy","0","uniform","1","undefined","1","right","20","20","0","0","20","20","0","0","20","20","20","20","0","20","0","10/22/20 21:02:29","The main experiment item","yes","SternbergTask.osexp","C:\Users\18177\OneDrive\Documents\School\Grad School\Fall 2020\Lab 3 Sternberg Memory","no","mono","no","18","no","white","no","yes","768","legacy","8","11","C:/Users/18177/OneDrive/Documents/School/Grad School/Fall 2020/Lab 3 Sternberg Memory/subject-2.csv","legacy","9 5 3 2 8 6","Lentiform Loewenfeld","3.3.3","0","n","0","right","right","right","right","NA","797","8288","10034","797","NA","2","legacy","6","1024","2","48000","-16","experiment","2","even","7","143097","144155","3189","95521","144157","65044","3197","85485","146361","148362","149160","145158","11486","148362","NA","Sternberg Task","20","17219","21","yes","1024"
"95.4545454545","95.4545454545","836.818181818","836.818181818","black","experiment","legacy","legacy","legacy","0","uniform","1","undefined","1","left","21","21","0","0","21","21","0","0","21","21","21","21","0","21","0","10/22/20 21:02:29","The main experiment item","yes","SternbergTask.osexp","C:\Users\18177\OneDrive\Documents\School\Grad School\Fall 2020\Lab 3 Sternberg Memory","no","mono","no","18","no","white","no","yes","768","legacy","9","11","C:/Users/18177/OneDrive/Documents/School/Grad School/Fall 2020/Lab 3 Sternberg Memory/subject-2.csv","legacy","9 6 2 4 1","Lentiform Loewenfeld","3.3.3","4","y","0","left","right","right","left","NA","1191","8288","10034","1191","NA","2","legacy","5","1024","2","48000","-16","experiment","2","even","4","149172","150229","3189","95521","150231","65044","3197","85485","152439","154440","155632","151234","11486","154440","NA","Sternberg Task","21","18410","22","yes","1024"
"95.652173913","95.652173913","820.869565217","820.869565217","black","experiment","legacy","legacy","legacy","0","uniform","1","undefined","1","left","22","22","0","0","22","22","0","0","22","22","22","22","0","22","0","10/22/20 21:02:29","The main experiment item","yes","SternbergTask.osexp","C:\Users\18177\OneDrive\Documents\School\Grad School\Fall 2020\Lab 3 Sternberg Memory","no","mono","no","18","no","white","no","yes","768","legacy","10","11","C:/Users/18177/OneDrive/Documents/School/Grad School/Fall 2020/Lab 3 Sternberg Memory/subject-2.csv","legacy","2 3 7 4","Lentiform Loewenfeld","3.3.3","1","y","0","left","right","right","left","NA","470","8288","10034","470","NA","2","legacy","4","1024","2","48000","-16","experiment","2","even","2","155645","156703","3189","95521","156704","65044","3197","85485","158909","160910","161380","157705","11486","160910","NA","Sternberg Task","22","18880","23","yes","1024"
"95.8333333333","95.8333333333","812.708333333","812.708333333","black","experiment","legacy","legacy","legacy","0","uniform","1","undefined","1","right","23","23","0","0","23","23","0","0","23","23","23","23","0","23","0","10/22/20 21:02:29","The main experiment item","yes","SternbergTask.osexp","C:\Users\18177\OneDrive\Documents\School\Grad School\Fall 2020\Lab 3 Sternberg Memory","no","mono","no","18","no","white","no","yes","768","legacy","11","11","C:/Users/18177/OneDrive/Documents/School/Grad School/Fall 2020/Lab 3 Sternberg Memory/subject-2.csv","legacy","9","Lentiform Loewenfeld","3.3.3","0","n","0","right","right","right","right","NA","625","8288","10034","625","NA","2","legacy","1","1024","2","48000","-16","experiment","2","even","6","161392","162453","3189","95521","162454","65044","3197","85485","164658","166659","167285","163455","11486","166659","NA","Sternberg Task","23","19505","24","yes","1024"
"96","96","807.68","807.68","black","experiment","legacy","legacy","legacy","0","uniform","1","undefined","1","right","24","24","0","0","24","24","0","0","24","24","24","24","0","24","0","10/22/20 21:02:29","The main experiment item","yes","SternbergTask.osexp","C:\Users\18177\OneDrive\Documents\School\Grad School\Fall 2020\Lab 3 Sternberg Memory","no","mono","no","18","no","white","no","yes","768","legacy","12","11","C:/Users/18177/OneDrive/Documents/School/Grad School/Fall 2020/Lab 3 Sternberg Memory/subject-2.csv","legacy","2 5 1 4","Lentiform Loewenfeld","3.3.3","0","n","0","right","right","right","right","NA","687","8288","10034","687","NA","2","legacy","4","1024","2","48000","-16","experiment","2","even","6","167288","168345","3189","95521","168347","65044","3197","85485","170549","172550","173238","169348","11486","172550","NA","Sternberg Task","24","20192","25","yes","1024"
"96.1538461538","96.1538461538","817.307692308","817.307692308","black","experiment","legacy","legacy","legacy","0","uniform","1","undefined","1","left","25","25","0","0","25","25","0","0","25","25","25","25","0","25","0","10/22/20 21:02:29","The main experiment item","yes","SternbergTask.osexp","C:\Users\18177\OneDrive\Documents\School\Grad School\Fall 2020\Lab 3 Sternberg Memory","no","mono","no","18","no","white","no","yes","768","legacy","13","11","C:/Users/18177/OneDrive/Documents/School/Grad School/Fall 2020/Lab 3 Sternberg Memory/subject-2.csv","legacy","9 1 6 7 8","Lentiform Loewenfeld","3.3.3","1","y","0","left","right","right","left","NA","1058","8288","10034","1058","NA","2","legacy","5","1024","2","48000","-16","experiment","2","even","9","173242","174298","3189","95521","174299","65044","3197","85485","176504","178505","179564","175300","11486","178505","NA","Sternberg Task","25","21250","26","yes","1024"
"96.2962962963","96.2962962963","820.518518519","820.518518519","black","experiment","legacy","legacy","legacy","0","uniform","1","undefined","1","left","26","26","0","0","26","26","0","0","26","26","26","26","0","26","0","10/22/20 21:02:29","The main experiment item","yes","SternbergTask.osexp","C:\Users\18177\OneDrive\Documents\School\Grad School\Fall 2020\Lab 3 Sternberg Memory","no","mono","no","18","no","white","no","yes","768","legacy","14","11","C:/Users/18177/OneDrive/Documents/School/Grad School/Fall 2020/Lab 3 Sternberg Memory/subject-2.csv","legacy","9 3 8 2 1 4","Lentiform Loewenfeld","3.3.3","3","y","0","left","right","right","left","NA","904","8288","10034","904","NA","2","legacy","6","1024","2","48000","-16","experiment","2","even","8","179568","180624","3189","95521","180625","65044","3197","85485","182832","184833","185738","181627","11486","184833","NA","Sternberg Task","26","22154","27","yes","1024"
"92.8571428571","92.8571428571","827","827","black","experiment","legacy","legacy","legacy","0","uniform","0","undefined","0","left","27","27","0","0","27","27","0","0","27","27","27","27","0","27","0","10/22/20 21:02:29","The main experiment item","yes","SternbergTask.osexp","C:\Users\18177\OneDrive\Documents\School\Grad School\Fall 2020\Lab 3 Sternberg Memory","no","mono","no","18","no","white","no","yes","768","legacy","15","11","C:/Users/18177/OneDrive/Documents/School/Grad School/Fall 2020/Lab 3 Sternberg Memory/subject-2.csv","legacy","4 7 6 8 2 3","Lentiform Loewenfeld","3.3.3","6","y","0","right","right","right","right","NA","1002","8288","10034","1002","NA","2","legacy","6","1024","2","48000","-16","experiment","2","even","3","185750","186809","3189","95521","186810","65044","3197","85485","189015","191019","192022","187811","11486","191019","NA","Sternberg Task","26","23156","28","yes","1024"
"93.1034482759","93.1034482759","837.344827586","837.344827586","black","experiment","legacy","legacy","legacy","0","uniform","1","undefined","1","left","28","28","0","0","28","28","0","0","28","28","28","28","0","28","0","10/22/20 21:02:29","The main experiment item","yes","SternbergTask.osexp","C:\Users\18177\OneDrive\Documents\School\Grad School\Fall 2020\Lab 3 Sternberg Memory","no","mono","no","18","no","white","no","yes","768","legacy","16","11","C:/Users/18177/OneDrive/Documents/School/Grad School/Fall 2020/Lab 3 Sternberg Memory/subject-2.csv","legacy","6 7 8 5","Lentiform Loewenfeld","3.3.3","3","y","0","left","right","right","left","NA","1127","8288","10034","1127","NA","2","legacy","4","1024","2","48000","-16","experiment","2","even","8","185750","193092","3189","95521","193093","192034","3197","85485","195299","197300","198427","194095","11486","197300","NA","Sternberg Task","27","24283","29","yes","1024"
"93.3333333333","93.3333333333","836.966666667","836.966666667","black","experiment","legacy","legacy","legacy","0","uniform","1","undefined","1","right","29","29","0","0","29","29","0","0","29","29","29","29","0","29","0","10/22/20 21:02:29","The main experiment item","yes","SternbergTask.osexp","C:\Users\18177\OneDrive\Documents\School\Grad School\Fall 2020\Lab 3 Sternberg Memory","no","mono","no","18","no","white","no","yes","768","legacy","17","11","C:/Users/18177/OneDrive/Documents/School/Grad School/Fall 2020/Lab 3 Sternberg Memory/subject-2.csv","legacy","9 8 2 7 4","Lentiform Loewenfeld","3.3.3","0","n","0","right","right","right","right","NA","826","8288","10034","826","NA","2","legacy","5","1024","2","48000","-16","experiment","2","even","5","198440","199497","3189","95521","199498","192034","3197","85485","201704","203705","204532","200502","11486","203705","NA","Sternberg Task","28","25109","30","yes","1024"
"93.5483870968","93.5483870968","841.774193548","841.774193548","black","experiment","legacy","legacy","legacy","0","uniform","1","undefined","1","right","30","30","0","0","30","30","0","0","30","30","30","30","0","30","0","10/22/20 21:02:29","The main experiment item","yes","SternbergTask.osexp","C:\Users\18177\OneDrive\Documents\School\Grad School\Fall 2020\Lab 3 Sternberg Memory","no","mono","no","18","no","white","no","yes","768","legacy","18","11","C:/Users/18177/OneDrive/Documents/School/Grad School/Fall 2020/Lab 3 Sternberg Memory/subject-2.csv","legacy","7 9 1 6","Lentiform Loewenfeld","3.3.3","0","n","0","right","right","right","right","NA","986","8288","10034","986","NA","2","legacy","4","1024","2","48000","-16","experiment","2","even","4","204543","205602","3189","95521","205604","192034","3197","85485","207809","209811","210798","206605","11486","209811","NA","Sternberg Task","29","26095","31","yes","1024"
"93.75","93.75","851.59375","851.59375","black","experiment","legacy","legacy","legacy","0","uniform","1","undefined","1","right","31","31","0","0","31","31","0","0","31","31","31","31","0","31","0","10/22/20 21:02:29","The main experiment item","yes","SternbergTask.osexp","C:\Users\18177\OneDrive\Documents\School\Grad School\Fall 2020\Lab 3 Sternberg Memory","no","mono","no","18","no","white","no","yes","768","legacy","19","11","C:/Users/18177/OneDrive/Documents/School/Grad School/Fall 2020/Lab 3 Sternberg Memory/subject-2.csv","legacy","1 8 7","Lentiform Loewenfeld","3.3.3","0","n","0","right","right","right","right","NA","1156","8288","10034","1156","NA","2","legacy","3","1024","2","48000","-16","experiment","2","even","4","210810","211870","3189","95521","211872","192034","3197","85485","214077","216082","217238","212873","11486","216082","NA","Sternberg Task","30","27251","32","yes","1024"
"93.9393939394","93.9393939394","852.606060606","852.606060606","black","experiment","legacy","legacy","legacy","0","uniform","1","undefined","1","right","32","32","0","0","32","32","0","0","32","32","32","32","0","32","0","10/22/20 21:02:29","The main experiment item","yes","SternbergTask.osexp","C:\Users\18177\OneDrive\Documents\School\Grad School\Fall 2020\Lab 3 Sternberg Memory","no","mono","no","18","no","white","no","yes","768","legacy","20","11","C:/Users/18177/OneDrive/Documents/School/Grad School/Fall 2020/Lab 3 Sternberg Memory/subject-2.csv","legacy","1 7 5 2 9","Lentiform Loewenfeld","3.3.3","0","n","0","right","right","right","right","NA","885","8288","10034","885","NA","2","legacy","5","1024","2","48000","-16","experiment","2","even","3","217250","218308","3189","95521","218310","192034","3197","85485","220514","222515","223401","219311","11486","222515","NA","Sternberg Task","31","28136","33","yes","1024"
"94.1176470588","94.1176470588","850.294117647","850.294117647","black","experiment","legacy","legacy","legacy","0","uniform","1","undefined","1","right","33","33","0","0","33","33","0","0","33","33","33","33","0","33","0","10/22/20 21:02:29","The main experiment item","yes","SternbergTask.osexp","C:\Users\18177\OneDrive\Documents\School\Grad School\Fall 2020\Lab 3 Sternberg Memory","no","mono","no","18","no","white","no","yes","768","legacy","21","11","C:/Users/18177/OneDrive/Documents/School/Grad School/Fall 2020/Lab 3 Sternberg Memory/subject-2.csv","legacy","1 6 4 3 9 7","Lentiform Loewenfeld","3.3.3","0","n","0","right","right","right","right","NA","774","8288","10034","774","NA","2","legacy","6","1024","2","48000","-16","experiment","2","even","8","223412","224470","3189","95521","224471","192034","3197","85485","226677","228681","229456","225474","11486","228681","NA","Sternberg Task","32","28910","34","yes","1024"
"94.2857142857","94.2857142857","852.285714286","852.285714286","black","experiment","legacy","legacy","legacy","0","uniform","1","undefined","1","right","34","34","0","0","34","34","0","0","34","34","34","34","0","34","0","10/22/20 21:02:29","The main experiment item","yes","SternbergTask.osexp","C:\Users\18177\OneDrive\Documents\School\Grad School\Fall 2020\Lab 3 Sternberg Memory","no","mono","no","18","no","white","no","yes","768","legacy","22","11","C:/Users/18177/OneDrive/Documents/School/Grad School/Fall 2020/Lab 3 Sternberg Memory/subject-2.csv","legacy","3 4 9 6 7 8","Lentiform Loewenfeld","3.3.3","0","n","0","right","right","right","right","NA","920","8288","10034","920","NA","2","legacy","6","1024","2","48000","-16","experiment","2","even","2","229468","230526","3189","95521","230527","192034","3197","85485","232731","234732","235653","231528","11486","234732","NA","Sternberg Task","33","29830","35","yes","1024"
"94.4444444444","94.4444444444","856.916666667","856.916666667","black","experiment","legacy","legacy","legacy","0","uniform","1","undefined","1","right","35","35","0","0","35","35","0","0","35","35","35","35","0","35","0","10/22/20 21:02:29","The main experiment item","yes","SternbergTask.osexp","C:\Users\18177\OneDrive\Documents\School\Grad School\Fall 2020\Lab 3 Sternberg Memory","no","mono","no","18","no","white","no","yes","768","legacy","23","11","C:/Users/18177/OneDrive/Documents/School/Grad School/Fall 2020/Lab 3 Sternberg Memory/subject-2.csv","legacy","2 6 4 3 9","Lentiform Loewenfeld","3.3.3","0","n","0","right","right","right","right","NA","1019","8288","10034","1019","NA","2","legacy","5","1024","2","48000","-16","experiment","2","even","1","235666","236725","3189","95521","236726","192034","3197","85485","238931","240932","241952","237727","11486","240932","NA","Sternberg Task","34","30849","36","yes","1024"
"94.5945945946","94.5945945946","855.324324324","855.324324324","black","experiment","legacy","legacy","legacy","0","uniform","1","undefined","1","right","36","36","0","0","36","36","0","0","36","36","36","36","0","36","0","10/22/20 21:02:29","The main experiment item","yes","SternbergTask.osexp","C:\Users\18177\OneDrive\Documents\School\Grad School\Fall 2020\Lab 3 Sternberg Memory","no","mono","no","18","no","white","no","yes","768","legacy","24","11","C:/Users/18177/OneDrive/Documents/School/Grad School/Fall 2020/Lab 3 Sternberg Memory/subject-2.csv","legacy","2 8 9","Lentiform Loewenfeld","3.3.3","0","n","0","right","right","right","right","NA","798","8288","10034","798","NA","2","legacy","3","1024","2","48000","-16","experiment","2","even","6","241965","243022","3189","95521","243023","192034","3197","85485","245227","247228","248027","244024","11486","247228","NA","Sternberg Task","35","31647","37","yes","1024"
"94.7368421053","94.7368421053","851.157894737","851.157894737","black","experiment","legacy","legacy","legacy","0","uniform","1","undefined","1","left","37","37","0","0","37","37","0","0","37","37","37","37","0","37","0","10/22/20 21:02:29","The main experiment item","yes","SternbergTask.osexp","C:\Users\18177\OneDrive\Documents\School\Grad School\Fall 2020\Lab 3 Sternberg Memory","no","mono","no","18","no","white","no","yes","768","legacy","25","11","C:/Users/18177/OneDrive/Documents/School/Grad School/Fall 2020/Lab 3 Sternberg Memory/subject-2.csv","legacy","7","Lentiform Loewenfeld","3.3.3","1","y","0","left","right","right","left","NA","697","8288","10034","697","NA","2","legacy","1","1024","2","48000","-16","experiment","2","even","7","248038","249094","3189","95521","249096","192034","3197","85485","251300","253301","253999","250097","11486","253301","NA","Sternberg Task","36","32344","38","yes","1024"
"94.8717948718","94.8717948718","855.666666667","855.666666667","black","experiment","legacy","legacy","legacy","0","uniform","1","undefined","1","left","38","38","0","0","38","38","0","0","38","38","38","38","0","38","0","10/22/20 21:02:29","The main experiment item","yes","SternbergTask.osexp","C:\Users\18177\OneDrive\Documents\School\Grad School\Fall 2020\Lab 3 Sternberg Memory","no","mono","no","18","no","white","no","yes","768","legacy","26","11","C:/Users/18177/OneDrive/Documents/School/Grad School/Fall 2020/Lab 3 Sternberg Memory/subject-2.csv","legacy","5 2 6","Lentiform Loewenfeld","3.3.3","2","y","0","left","right","right","left","NA","1027","8288","10034","1027","NA","2","legacy","3","1024","2","48000","-16","experiment","2","even","2","254004","255063","3189","95521","255064","192034","3197","85485","257268","259269","260297","256065","11486","259269","NA","Sternberg Task","37","33371","39","yes","1024"
"95","95","854.1","854.1","black","experiment","legacy","legacy","legacy","0","uniform","1","undefined","1","right","39","39","0","0","39","39","0","0","39","39","39","39","0","39","0","10/22/20 21:02:29","The main experiment item","yes","SternbergTask.osexp","C:\Users\18177\OneDrive\Documents\School\Grad School\Fall 2020\Lab 3 Sternberg Memory","no","mono","no","18","no","white","no","yes","768","legacy","27","11","C:/Users/18177/OneDrive/Documents/School/Grad School/Fall 2020/Lab 3 Sternberg Memory/subject-2.csv","legacy","5","Lentiform Loewenfeld","3.3.3","0","n","0","right","right","right","right","NA","793","8288","10034","793","NA","2","legacy","1","1024","2","48000","-16","experiment","2","even","8","260309","261367","3189","95521","261368","192034","3197","85485","263570","265571","266365","262369","11486","265571","NA","Sternberg Task","38","34164","40","yes","1024"
"92.6829268293","92.6829268293","854.585365854","854.585365854","black","experiment","legacy","legacy","legacy","0","uniform","0","undefined","0","left","40","40","0","0","40","40","0","0","40","40","40","40","0","40","0","10/22/20 21:02:29","The main experiment item","yes","SternbergTask.osexp","C:\Users\18177\OneDrive\Documents\School\Grad School\Fall 2020\Lab 3 Sternberg Memory","no","mono","no","18","no","white","no","yes","768","legacy","28","11","C:/Users/18177/OneDrive/Documents/School/Grad School/Fall 2020/Lab 3 Sternberg Memory/subject-2.csv","legacy","6 9 3 1","Lentiform Loewenfeld","3.3.3","4","y","0","right","right","right","right","NA","874","8288","10034","874","NA","2","legacy","4","1024","2","48000","-16","experiment","2","even","1","266377","267435","3189","95521","267436","192034","3197","85485","269640","271642","272516","268437","11486","271642","NA","Sternberg Task","38","35038","41","yes","1024"
"92.8571428571","92.8571428571","857.047619048","857.047619048","black","experiment","legacy","legacy","legacy","0","uniform","1","undefined","1","left","41","41","0","0","41","41","0","0","41","41","41","41","0","41","0","10/22/20 21:02:29","The main experiment item","yes","SternbergTask.osexp","C:\Users\18177\OneDrive\Documents\School\Grad School\Fall 2020\Lab 3 Sternberg Memory","no","mono","no","18","no","white","no","yes","768","legacy","29","11","C:/Users/18177/OneDrive/Documents/School/Grad School/Fall 2020/Lab 3 Sternberg Memory/subject-2.csv","legacy","4 1 8 7 5","Lentiform Loewenfeld","3.3.3","3","y","0","left","right","right","left","NA","958","8288","10034","958","NA","2","legacy","5","1024","2","48000","-16","experiment","2","even","8","266377","273589","3189","95521","273590","272527","3197","85485","275795","277797","278756","274591","11486","277797","NA","Sternberg Task","39","35996","42","yes","1024"
"93.023255814","93.023255814","858.511627907","858.511627907","black","experiment","legacy","legacy","legacy","0","uniform","1","undefined","1","left","42","42","0","0","42","42","0","0","42","42","42","42","0","42","0","10/22/20 21:02:29","The main experiment item","yes","SternbergTask.osexp","C:\Users\18177\OneDrive\Documents\School\Grad School\Fall 2020\Lab 3 Sternberg Memory","no","mono","no","18","no","white","no","yes","768","legacy","30","11","C:/Users/18177/OneDrive/Documents/School/Grad School/Fall 2020/Lab 3 Sternberg Memory/subject-2.csv","legacy","2 4 6 9","Lentiform Loewenfeld","3.3.3","3","y","0","left","right","right","left","NA","920","8288","10034","920","NA","2","legacy","4","1024","2","48000","-16","experiment","2","even","6","278769","279828","3189","95521","279829","272527","3197","85485","282034","284035","284956","280830","11486","284035","NA","Sternberg Task","40","36916","43","yes","1024"
"93.1818181818","93.1818181818","867.272727273","867.272727273","black","experiment","legacy","legacy","legacy","0","uniform","1","undefined","1","left","43","43","0","0","43","43","0","0","43","43","43","43","0","43","0","10/22/20 21:02:29","The main experiment item","yes","SternbergTask.osexp","C:\Users\18177\OneDrive\Documents\School\Grad School\Fall 2020\Lab 3 Sternberg Memory","no","mono","no","18","no","white","no","yes","768","legacy","31","11","C:/Users/18177/OneDrive/Documents/School/Grad School/Fall 2020/Lab 3 Sternberg Memory/subject-2.csv","legacy","5 7 8 2 3 8","Lentiform Loewenfeld","3.3.3","5","y","0","left","right","right","left","NA","1244","8288","10034","1244","NA","2","legacy","6","1024","2","48000","-16","experiment","2","even","3","284968","286027","3189","95521","286028","272527","3197","85485","288232","290233","291478","287029","11486","290233","NA","Sternberg Task","41","38160","44","yes","1024"
"93.3333333333","93.3333333333","877.377777778","877.377777778","black","experiment","legacy","legacy","legacy","0","uniform","1","undefined","1","right","44","44","0","0","44","44","0","0","44","44","44","44","0","44","0","10/22/20 21:02:29","The main experiment item","yes","SternbergTask.osexp","C:\Users\18177\OneDrive\Documents\School\Grad School\Fall 2020\Lab 3 Sternberg Memory","no","mono","no","18","no","white","no","yes","768","legacy","32","11","C:/Users/18177/OneDrive/Documents/School/Grad School/Fall 2020/Lab 3 Sternberg Memory/subject-2.csv","legacy","7 8 6 1","Lentiform Loewenfeld","3.3.3","0","n","0","right","right","right","right","NA","1322","8288","10034","1322","NA","2","legacy","4","1024","2","48000","-16","experiment","2","even","3","291491","292549","3189","95521","292551","272527","3197","85485","294759","296761","298084","293555","11486","296761","NA","Sternberg Task","42","39482","45","yes","1024"
"93.4782608696","93.4782608696","877.543478261","877.543478261","black","experiment","legacy","legacy","legacy","0","uniform","1","undefined","1","right","45","45","0","0","45","45","0","0","45","45","45","45","0","45","0","10/22/20 21:02:29","The main experiment item","yes","SternbergTask.osexp","C:\Users\18177\OneDrive\Documents\School\Grad School\Fall 2020\Lab 3 Sternberg Memory","no","mono","no","18","no","white","no","yes","768","legacy","33","11","C:/Users/18177/OneDrive/Documents/School/Grad School/Fall 2020/Lab 3 Sternberg Memory/subject-2.csv","legacy","6 9 7 3 8 2","Lentiform Loewenfeld","3.3.3","0","n","0","right","right","right","right","NA","885","8288","10034","885","NA","2","legacy","6","1024","2","48000","-16","experiment","2","even","5","298092","299151","3189","95521","299152","272527","3197","85485","301358","303359","304245","300154","11486","303359","NA","Sternberg Task","43","40367","46","yes","1024"
"93.6170212766","93.6170212766","885.319148936","885.319148936","black","experiment","legacy","legacy","legacy","0","uniform","1","undefined","1","right","46","46","0","0","46","46","0","0","46","46","46","46","0","46","0","10/22/20 21:02:29","The main experiment item","yes","SternbergTask.osexp","C:\Users\18177\OneDrive\Documents\School\Grad School\Fall 2020\Lab 3 Sternberg Memory","no","mono","no","18","no","white","no","yes","768","legacy","34","11","C:/Users/18177/OneDrive/Documents/School/Grad School/Fall 2020/Lab 3 Sternberg Memory/subject-2.csv","legacy","6 9 4 5 2","Lentiform Loewenfeld","3.3.3","0","n","0","right","right","right","right","NA","1243","8288","10034","1243","NA","2","legacy","5","1024","2","48000","-16","experiment","2","even","1","304257","305315","3189","95521","305316","272527","3197","85485","307521","309522","310766","306317","11486","309522","NA","Sternberg Task","44","41610","47","yes","1024"
"93.75","93.75","883.416666667","883.416666667","black","experiment","legacy","legacy","legacy","0","uniform","1","undefined","1","right","47","47","0","0","47","47","0","0","47","47","47","47","0","47","0","10/22/20 21:02:29","The main experiment item","yes","SternbergTask.osexp","C:\Users\18177\OneDrive\Documents\School\Grad School\Fall 2020\Lab 3 Sternberg Memory","no","mono","no","18","no","white","no","yes","768","legacy","35","11","C:/Users/18177/OneDrive/Documents/School/Grad School/Fall 2020/Lab 3 Sternberg Memory/subject-2.csv","legacy","2 8 6 3 1","Lentiform Loewenfeld","3.3.3","0","n","0","right","right","right","right","NA","794","8288","10034","794","NA","2","legacy","5","1024","2","48000","-16","experiment","2","even","7","310780","311838","3189","95521","311840","272527","3197","85485","314049","316051","316846","312844","11486","316050","NA","Sternberg Task","45","42404","48","yes","1024"
"93.8775510204","93.8775510204","881.428571429","881.428571429","black","experiment","legacy","legacy","legacy","0","uniform","1","undefined","1","left","48","48","0","0","48","48","0","0","48","48","48","48","0","48","0","10/22/20 21:02:29","The main experiment item","yes","SternbergTask.osexp","C:\Users\18177\OneDrive\Documents\School\Grad School\Fall 2020\Lab 3 Sternberg Memory","no","mono","no","18","no","white","no","yes","768","legacy","36","11","C:/Users/18177/OneDrive/Documents/School/Grad School/Fall 2020/Lab 3 Sternberg Memory/subject-2.csv","legacy","2 6 1 7 4","Lentiform Loewenfeld","3.3.3","2","y","0","left","right","right","left","NA","786","8288","10034","786","NA","2","legacy","5","1024","2","48000","-16","experiment","2","even","6","316859","317918","3189","95521","317919","272527","3197","85485","320125","322126","322912","318920","11486","322126","NA","Sternberg Task","46","43190","49","yes","1024"
"94","94","882.7","882.7","black","experiment","legacy","legacy","legacy","0","uniform","1","undefined","1","left","49","49","0","0","49","49","0","0","49","49","49","49","0","49","0","10/22/20 21:02:29","The main experiment item","yes","SternbergTask.osexp","C:\Users\18177\OneDrive\Documents\School\Grad School\Fall 2020\Lab 3 Sternberg Memory","no","mono","no","18","no","white","no","yes","768","legacy","37","11","C:/Users/18177/OneDrive/Documents/School/Grad School/Fall 2020/Lab 3 Sternberg Memory/subject-2.csv","legacy","3 2 1 4 7","Lentiform Loewenfeld","3.3.3","2","y","0","left","right","right","left","NA","945","8288","10034","945","NA","2","legacy","5","1024","2","48000","-16","experiment","2","even","2","322920","323978","3189","95521","323979","272527","3197","85485","326183","328185","329131","324980","11486","328184","NA","Sternberg Task","47","44135","50","yes","1024"
"94.1176470588","94.1176470588","880.745098039","880.745098039","black","experiment","legacy","legacy","legacy","0","uniform","1","undefined","1","right","50","50","0","0","50","50","0","0","50","50","50","50","0","50","0","10/22/20 21:02:29","The main experiment item","yes","SternbergTask.osexp","C:\Users\18177\OneDrive\Documents\School\Grad School\Fall 2020\Lab 3 Sternberg Memory","no","mono","no","18","no","white","no","yes","768","legacy","38","11","C:/Users/18177/OneDrive/Documents/School/Grad School/Fall 2020/Lab 3 Sternberg Memory/subject-2.csv","legacy","4 2 7 6 1 3","Lentiform Loewenfeld","3.3.3","0","n","0","right","right","right","right","NA","783","8288","10034","783","NA","2","legacy","6","1024","2","48000","-16","experiment","2","even","8","329134","330191","3189","95521","330192","272527","3197","85485","332396","334397","335180","331193","11486","334397","NA","Sternberg Task","48","44918","51","yes","1024"
"94.2307692308","94.2307692308","877.442307692","877.442307692","black","experiment","legacy","legacy","legacy","0","uniform","1","undefined","1","left","51","51","0","0","51","51","0","0","51","51","51","51","0","51","0","10/22/20 21:02:29","The main experiment item","yes","SternbergTask.osexp","C:\Users\18177\OneDrive\Documents\School\Grad School\Fall 2020\Lab 3 Sternberg Memory","no","mono","no","18","no","white","no","yes","768","legacy","39","11","C:/Users/18177/OneDrive/Documents/School/Grad School/Fall 2020/Lab 3 Sternberg Memory/subject-2.csv","legacy","4","Lentiform Loewenfeld","3.3.3","1","y","0","left","right","right","left","NA","709","8288","10034","709","NA","2","legacy","1","1024","2","48000","-16","experiment","2","even","4","335194","336251","3189","95521","336253","272527","3197","85485","338458","340459","341169","337254","11486","340459","NA","Sternberg Task","49","45627","52","yes","1024"
"94.3396226415","94.3396226415","878.188679245","878.188679245","black","experiment","legacy","legacy","legacy","0","uniform","1","undefined","1","left","52","52","0","0","52","52","0","0","52","52","52","52","0","52","0","10/22/20 21:02:29","The main experiment item","yes","SternbergTask.osexp","C:\Users\18177\OneDrive\Documents\School\Grad School\Fall 2020\Lab 3 Sternberg Memory","no","mono","no","18","no","white","no","yes","768","legacy","40","11","C:/Users/18177/OneDrive/Documents/School/Grad School/Fall 2020/Lab 3 Sternberg Memory/subject-2.csv","legacy","7 1 8 5 6 2","Lentiform Loewenfeld","3.3.3","2","y","0","left","right","right","left","NA","917","8288","10034","917","NA","2","legacy","6","1024","2","48000","-16","experiment","2","even","1","341181","342239","3189","95521","342241","272527","3197","85485","344447","346448","347366","343243","11486","346448","NA","Sternberg Task","50","46544","53","yes","1024"
"94.4444444444","94.4444444444","886.87037037","886.87037037","black","experiment","legacy","legacy","legacy","0","uniform","1","undefined","1","left","53","53","0","0","53","53","0","0","53","53","53","53","0","53","0","10/22/20 21:02:29","The main experiment item","yes","SternbergTask.osexp","C:\Users\18177\OneDrive\Documents\School\Grad School\Fall 2020\Lab 3 Sternberg Memory","no","mono","no","18","no","white","no","yes","768","legacy","41","11","C:/Users/18177/OneDrive/Documents/School/Grad School/Fall 2020/Lab 3 Sternberg Memory/subject-2.csv","legacy","7 8 4 6 9 5","Lentiform Loewenfeld","3.3.3","4","y","0","left","right","right","left","NA","1347","8288","10034","1347","NA","2","legacy","6","1024","2","48000","-16","experiment","2","even","6","347379","348437","3189","95521","348438","272527","3197","85485","350642","352643","353991","349439","11486","352643","NA","Sternberg Task","51","47891","54","yes","1024"
"94.5454545455","94.5454545455","886.072727273","886.072727273","black","experiment","legacy","legacy","legacy","0","uniform","1","undefined","1","left","54","54","0","0","54","54","0","0","54","54","54","54","0","54","0","10/22/20 21:02:29","The main experiment item","yes","SternbergTask.osexp","C:\Users\18177\OneDrive\Documents\School\Grad School\Fall 2020\Lab 3 Sternberg Memory","no","mono","no","18","no","white","no","yes","768","legacy","42","11","C:/Users/18177/OneDrive/Documents/School/Grad School/Fall 2020/Lab 3 Sternberg Memory/subject-2.csv","legacy","8 1 6","Lentiform Loewenfeld","3.3.3","3","y","0","left","right","right","left","NA","843","8288","10034","843","NA","2","legacy","3","1024","2","48000","-16","experiment","2","even","6","353995","355052","3189","95521","355053","272527","3197","85485","357258","359259","360103","356054","11486","359259","NA","Sternberg Task","52","48734","55","yes","1024"
"94.6428571429","94.6428571429","883.053571429","883.053571429","black","experiment","legacy","legacy","legacy","0","uniform","1","undefined","1","left","55","55","0","0","55","55","0","0","55","55","55","55","0","55","0","10/22/20 21:02:29","The main experiment item","yes","SternbergTask.osexp","C:\Users\18177\OneDrive\Documents\School\Grad School\Fall 2020\Lab 3 Sternberg Memory","no","mono","no","18","no","white","no","yes","768","legacy","43","11","C:/Users/18177/OneDrive/Documents/School/Grad School/Fall 2020/Lab 3 Sternberg Memory/subject-2.csv","legacy","7 6","Lentiform Loewenfeld","3.3.3","2","y","0","left","right","right","left","NA","717","8288","10034","717","NA","2","legacy","2","1024","2","48000","-16","experiment","2","even","6","360114","361173","3189","95521","361174","272527","3197","85485","363379","365380","366098","362175","11486","365380","NA","Sternberg Task","53","49451","56","yes","1024"
"94.7368421053","94.7368421053","883.087719298","883.087719298","black","experiment","legacy","legacy","legacy","0","uniform","1","undefined","1","left","56","56","0","0","56","56","0","0","56","56","56","56","0","56","0","10/22/20 21:02:29","The main experiment item","yes","SternbergTask.osexp","C:\Users\18177\OneDrive\Documents\School\Grad School\Fall 2020\Lab 3 Sternberg Memory","no","mono","no","18","no","white","no","yes","768","legacy","44","11","C:/Users/18177/OneDrive/Documents/School/Grad School/Fall 2020/Lab 3 Sternberg Memory/subject-2.csv","legacy","8 5 1 3 9","Lentiform Loewenfeld","3.3.3","4","y","0","left","right","right","left","NA","885","8288","10034","885","NA","2","legacy","5","1024","2","48000","-16","experiment","2","even","3","366110","367168","3189","95521","367169","272527","3197","85485","369373","371374","372260","368170","11486","371374","NA","Sternberg Task","54","50336","57","yes","1024"
"94.8275862069","94.8275862069","880.465517241","880.465517241","black","experiment","legacy","legacy","legacy","0","uniform","1","undefined","1","right","57","57","0","0","57","57","0","0","57","57","57","57","0","57","0","10/22/20 21:02:29","The main experiment item","yes","SternbergTask.osexp","C:\Users\18177\OneDrive\Documents\School\Grad School\Fall 2020\Lab 3 Sternberg Memory","no","mono","no","18","no","white","no","yes","768","legacy","45","11","C:/Users/18177/OneDrive/Documents/School/Grad School/Fall 2020/Lab 3 Sternberg Memory/subject-2.csv","legacy","7 1","Lentiform Loewenfeld","3.3.3","0","n","0","right","right","right","right","NA","731","8288","10034","731","NA","2","legacy","2","1024","2","48000","-16","experiment","2","even","8","372263","373320","3189","95521","373322","272527","3197","85485","375526","377527","378260","374324","11486","377527","NA","Sternberg Task","55","51067","58","yes","1024"
"94.9152542373","94.9152542373","878.779661017","878.779661017","black","experiment","legacy","legacy","legacy","0","uniform","1","undefined","1","left","58","58","0","0","58","58","0","0","58","58","58","58","0","58","0","10/22/20 21:02:29","The main experiment item","yes","SternbergTask.osexp","C:\Users\18177\OneDrive\Documents\School\Grad School\Fall 2020\Lab 3 Sternberg Memory","no","mono","no","18","no","white","no","yes","768","legacy","46","11","C:/Users/18177/OneDrive/Documents/School/Grad School/Fall 2020/Lab 3 Sternberg Memory/subject-2.csv","legacy","6 9 7 4 5 1","Lentiform Loewenfeld","3.3.3","2","y","0","left","right","right","left","NA","781","8288","10034","781","NA","2","legacy","6","1024","2","48000","-16","experiment","2","even","9","378271","379329","3189","95521","379330","272527","3197","85485","381536","383537","384319","380332","11486","383537","NA","Sternberg Task","56","51848","59","yes","1024"
"95","95","876.816666667","876.816666667","black","experiment","legacy","legacy","legacy","0","uniform","1","undefined","1","right","59","59","0","0","59","59","0","0","59","59","59","59","0","59","0","10/22/20 21:02:29","The main experiment item","yes","SternbergTask.osexp","C:\Users\18177\OneDrive\Documents\School\Grad School\Fall 2020\Lab 3 Sternberg Memory","no","mono","no","18","no","white","no","yes","768","legacy","47","11","C:/Users/18177/OneDrive/Documents/School/Grad School/Fall 2020/Lab 3 Sternberg Memory/subject-2.csv","legacy","8 2 1 4 5 9","Lentiform Loewenfeld","3.3.3","0","n","0","right","right","right","right","NA","761","8288","10034","761","NA","2","legacy","6","1024","2","48000","-16","experiment","2","even","7","384330","385389","3189","95521","385391","272527","3197","85485","387596","389598","390360","386392","11486","389598","NA","Sternberg Task","57","52609","60","yes","1024"
"95.0819672131","95.0819672131","880.852459016","880.852459016","black","experiment","legacy","legacy","legacy","0","uniform","1","undefined","1","right","60","60","0","0","60","60","0","0","60","60","60","60","0","60","0","10/22/20 21:02:29","The main experiment item","yes","SternbergTask.osexp","C:\Users\18177\OneDrive\Documents\School\Grad School\Fall 2020\Lab 3 Sternberg Memory","no","mono","no","18","no","white","no","yes","768","legacy","48","11","C:/Users/18177/OneDrive/Documents/School/Grad School/Fall 2020/Lab 3 Sternberg Memory/subject-2.csv","legacy","6 2 9 3 8 4","Lentiform Loewenfeld","3.3.3","0","n","0","right","right","right","right","NA","1123","8288","10034","1123","NA","2","legacy","6","1024","2","48000","-16","experiment","2","even","1","390373","391432","3189","95521","391433","272527","3197","85485","393637","395638","396762","392434","11486","395638","NA","Sternberg Task","58","53732","61","yes","1024"
"95.1612903226","95.1612903226","884.112903226","884.112903226","black","experiment","legacy","legacy","legacy","0","uniform","1","undefined","1","left","61","61","0","0","61","61","0","0","61","61","61","61","0","61","0","10/22/20 21:02:29","The main experiment item","yes","SternbergTask.osexp","C:\Users\18177\OneDrive\Documents\School\Grad School\Fall 2020\Lab 3 Sternberg Memory","no","mono","no","18","no","white","no","yes","768","legacy","49","11","C:/Users/18177/OneDrive/Documents/School/Grad School/Fall 2020/Lab 3 Sternberg Memory/subject-2.csv","legacy","9 3 1 2 5","Lentiform Loewenfeld","3.3.3","4","y","0","left","right","right","left","NA","1083","8288","10034","1083","NA","2","legacy","5","1024","2","48000","-16","experiment","2","even","2","396775","397833","3189","95521","397834","272527","3197","85485","400040","402042","403126","398835","11486","402042","NA","Sternberg Task","59","54815","62","yes","1024"
"95.2380952381","95.2380952381","882.634920635","882.634920635","black","experiment","legacy","legacy","legacy","0","uniform","1","undefined","1","right","62","62","0","0","62","62","0","0","62","62","62","62","0","62","0","10/22/20 21:02:29","The main experiment item","yes","SternbergTask.osexp","C:\Users\18177\OneDrive\Documents\School\Grad School\Fall 2020\Lab 3 Sternberg Memory","no","mono","no","18","no","white","no","yes","768","legacy","50","11","C:/Users/18177/OneDrive/Documents/School/Grad School/Fall 2020/Lab 3 Sternberg Memory/subject-2.csv","legacy","7 1 8 4 9 3","Lentiform Loewenfeld","3.3.3","0","n","0","right","right","right","right","NA","791","8288","10034","791","NA","2","legacy","6","1024","2","48000","-16","experiment","2","even","6","403130","404186","3189","95521","404187","272527","3197","85485","406393","408395","409186","405189","11486","408395","NA","Sternberg Task","60","55606","63","yes","1024"
"95.3125","95.3125","879.453125","879.453125","black","experiment","legacy","legacy","legacy","0","uniform","1","undefined","1","right","63","63","0","0","63","63","0","0","63","63","63","63","0","63","0","10/22/20 21:02:29","The main experiment item","yes","SternbergTask.osexp","C:\Users\18177\OneDrive\Documents\School\Grad School\Fall 2020\Lab 3 Sternberg Memory","no","mono","no","18","no","white","no","yes","768","legacy","51","11","C:/Users/18177/OneDrive/Documents/School/Grad School/Fall 2020/Lab 3 Sternberg Memory/subject-2.csv","legacy","7 1 5 6 3","Lentiform Loewenfeld","3.3.3","0","n","0","right","right","right","right","NA","679","8288","10034","679","NA","2","legacy","5","1024","2","48000","-16","experiment","2","even","8","409198","410258","3189","95521","410260","272527","3197","85485","412465","414466","415146","411261","11486","414466","NA","Sternberg Task","61","56285","64","yes","1024"
"95.3846153846","95.3846153846","875.569230769","875.569230769","black","experiment","legacy","legacy","legacy","0","uniform","1","undefined","1","right","64","64","0","0","64","64","0","0","64","64","64","64","0","64","0","10/22/20 21:02:29","The main experiment item","yes","SternbergTask.osexp","C:\Users\18177\OneDrive\Documents\School\Grad School\Fall 2020\Lab 3 Sternberg Memory","no","mono","no","18","no","white","no","yes","768","legacy","52","11","C:/Users/18177/OneDrive/Documents/School/Grad School/Fall 2020/Lab 3 Sternberg Memory/subject-2.csv","legacy","6 9 5","Lentiform Loewenfeld","3.3.3","0","n","0","right","right","right","right","NA","627","8288","10034","627","NA","2","legacy","3","1024","2","48000","-16","experiment","2","even","8","415159","416217","3189","95521","416218","272527","3197","85485","418423","420424","421051","417219","11486","420424","NA","Sternberg Task","62","56912","65","yes","1024"
"95.4545454545","95.4545454545","882.333333333","882.333333333","black","experiment","legacy","legacy","legacy","0","uniform","1","undefined","1","right","65","65","0","0","65","65","0","0","65","65","65","65","0","65","0","10/22/20 21:02:29","The main experiment item","yes","SternbergTask.osexp","C:\Users\18177\OneDrive\Documents\School\Grad School\Fall 2020\Lab 3 Sternberg Memory","no","mono","no","18","no","white","no","yes","768","legacy","53","11","C:/Users/18177/OneDrive/Documents/School/Grad School/Fall 2020/Lab 3 Sternberg Memory/subject-2.csv","legacy","8 5 4 2 9 6","Lentiform Loewenfeld","3.3.3","0","n","0","right","right","right","right","NA","1322","8288","10034","1322","NA","2","legacy","6","1024","2","48000","-16","experiment","2","even","3","421065","422122","3189","95521","422124","272527","3197","85485","424328","426329","427652","423125","11486","426329","NA","Sternberg Task","63","58234","66","yes","1024"
"95.5223880597","95.5223880597","884.835820896","884.835820896","black","experiment","legacy","legacy","legacy","0","uniform","1","undefined","1","right","66","66","0","0","66","66","0","0","66","66","66","66","0","66","0","10/22/20 21:02:29","The main experiment item","yes","SternbergTask.osexp","C:\Users\18177\OneDrive\Documents\School\Grad School\Fall 2020\Lab 3 Sternberg Memory","no","mono","no","18","no","white","no","yes","768","legacy","54","11","C:/Users/18177/OneDrive/Documents/School/Grad School/Fall 2020/Lab 3 Sternberg Memory/subject-2.csv","legacy","7 9","Lentiform Loewenfeld","3.3.3","0","n","0","right","right","right","right","NA","1050","8288","10034","1050","NA","2","legacy","2","1024","2","48000","-16","experiment","2","even","1","427656","428714","3189","95521","428715","272527","3197","85485","430918","432919","433970","429716","11486","432919","NA","Sternberg Task","64","59284","67","yes","1024"
"95.5882352941","95.5882352941","882.632352941","882.632352941","black","experiment","legacy","legacy","legacy","0","uniform","1","undefined","1","left","67","67","0","0","67","67","0","0","67","67","67","67","0","67","0","10/22/20 21:02:29","The main experiment item","yes","SternbergTask.osexp","C:\Users\18177\OneDrive\Documents\School\Grad School\Fall 2020\Lab 3 Sternberg Memory","no","mono","no","18","no","white","no","yes","768","legacy","55","11","C:/Users/18177/OneDrive/Documents/School/Grad School/Fall 2020/Lab 3 Sternberg Memory/subject-2.csv","legacy","3 4","Lentiform Loewenfeld","3.3.3","1","y","0","left","right","right","left","NA","735","8288","10034","735","NA","2","legacy","2","1024","2","48000","-16","experiment","2","even","3","433983","435041","3189","95521","435042","272527","3197","85485","437251","439256","439992","436046","11486","439255","NA","Sternberg Task","65","60019","68","yes","1024"
"95.652173913","95.652173913","883.782608696","883.782608696","black","experiment","legacy","legacy","legacy","0","uniform","1","undefined","1","right","68","68","0","0","68","68","0","0","68","68","68","68","0","68","0","10/22/20 21:02:29","The main experiment item","yes","SternbergTask.osexp","C:\Users\18177\OneDrive\Documents\School\Grad School\Fall 2020\Lab 3 Sternberg Memory","no","mono","no","18","no","white","no","yes","768","legacy","56","11","C:/Users/18177/OneDrive/Documents/School/Grad School/Fall 2020/Lab 3 Sternberg Memory/subject-2.csv","legacy","4 2 6 9","Lentiform Loewenfeld","3.3.3","0","n","0","right","right","right","right","NA","962","8288","10034","962","NA","2","legacy","4","1024","2","48000","-16","experiment","2","even","7","440005","441062","3189","95521","441063","272527","3197","85485","443266","445271","446234","442064","11486","445270","NA","Sternberg Task","66","60981","69","yes","1024"
"95.7142857143","95.7142857143","879.828571429","879.828571429","black","experiment","legacy","legacy","legacy","0","uniform","1","undefined","1","left","69","69","0","0","69","69","0","0","69","69","69","69","0","69","0","10/22/20 21:02:29","The main experiment item","yes","SternbergTask.osexp","C:\Users\18177\OneDrive\Documents\School\Grad School\Fall 2020\Lab 3 Sternberg Memory","no","mono","no","18","no","white","no","yes","768","legacy","57","11","C:/Users/18177/OneDrive/Documents/School/Grad School/Fall 2020/Lab 3 Sternberg Memory/subject-2.csv","legacy","6 5","Lentiform Loewenfeld","3.3.3","2","y","0","left","right","right","left","NA","607","8288","10034","607","NA","2","legacy","2","1024","2","48000","-16","experiment","2","even","5","446246","447306","3189","95521","447307","272527","3197","85485","449512","451514","452121","448308","11486","451514","NA","Sternberg Task","67","61588","70","yes","1024"
"95.7746478873","95.7746478873","884.14084507","884.14084507","black","experiment","legacy","legacy","legacy","0","uniform","1","undefined","1","left","70","70","0","0","70","70","0","0","70","70","70","70","0","70","0","10/22/20 21:02:29","The main experiment item","yes","SternbergTask.osexp","C:\Users\18177\OneDrive\Documents\School\Grad School\Fall 2020\Lab 3 Sternberg Memory","no","mono","no","18","no","white","no","yes","768","legacy","58","11","C:/Users/18177/OneDrive/Documents/School/Grad School/Fall 2020/Lab 3 Sternberg Memory/subject-2.csv","legacy","3 5 4 7","Lentiform Loewenfeld","3.3.3","1","y","0","left","right","right","left","NA","1186","8288","10034","1186","NA","2","legacy","4","1024","2","48000","-16","experiment","2","even","3","452126","453184","3189","95521","453185","272527","3197","85485","455392","457393","458580","454189","11486","457393","NA","Sternberg Task","68","62774","71","yes","1024"
"95.8333333333","95.8333333333","891.208333333","891.208333333","black","experiment","legacy","legacy","legacy","0","uniform","1","undefined","1","left","71","71","0","0","71","71","0","0","71","71","71","71","0","71","0","10/22/20 21:02:29","The main experiment item","yes","SternbergTask.osexp","C:\Users\18177\OneDrive\Documents\School\Grad School\Fall 2020\Lab 3 Sternberg Memory","no","mono","no","18","no","white","no","yes","768","legacy","59","11","C:/Users/18177/OneDrive/Documents/School/Grad School/Fall 2020/Lab 3 Sternberg Memory/subject-2.csv","legacy","5 7 3 6 2","Lentiform Loewenfeld","3.3.3","5","y","0","left","right","right","left","NA","1393","8288","10034","1393","NA","2","legacy","5","1024","2","48000","-16","experiment","2","even","2","458593","459651","3189","95521","459652","272527","3197","85485","461858","463863","465257","460654","11486","463862","NA","Sternberg Task","69","64167","72","yes","1024"
"95.8904109589","95.8904109589","897.767123288","897.767123288","black","experiment","legacy","legacy","legacy","0","uniform","1","undefined","1","left","72","72","0","0","72","72","0","0","72","72","72","72","0","72","0","10/22/20 21:02:29","The main experiment item","yes","SternbergTask.osexp","C:\Users\18177\OneDrive\Documents\School\Grad School\Fall 2020\Lab 3 Sternberg Memory","no","mono","no","18","no","white","no","yes","768","legacy","60","11","C:/Users/18177/OneDrive/Documents/School/Grad School/Fall 2020/Lab 3 Sternberg Memory/subject-2.csv","legacy","6 8 9 3 4 9","Lentiform Loewenfeld","3.3.3","5","y","0","left","right","right","left","NA","1370","8288","10034","1370","NA","2","legacy","6","1024","2","48000","-16","experiment","2","even","4","465270","466328","3189","95521","466330","272527","3197","85485","468535","470536","471907","467332","11486","470536","NA","Sternberg Task","70","65537","73","yes","1024"
"94.5945945946","94.5945945946","895.040540541","895.040540541","black","experiment","legacy","legacy","legacy","0","uniform","0","undefined","0","right","73","73","0","0","73","73","0","0","73","73","73","73","0","73","0","10/22/20 21:02:29","The main experiment item","yes","SternbergTask.osexp","C:\Users\18177\OneDrive\Documents\School\Grad School\Fall 2020\Lab 3 Sternberg Memory","no","mono","no","18","no","white","no","yes","768","legacy","61","11","C:/Users/18177/OneDrive/Documents/School/Grad School/Fall 2020/Lab 3 Sternberg Memory/subject-2.csv","legacy","6 3 1 7 9 8","Lentiform Loewenfeld","3.3.3","0","n","0","left","right","right","left","NA","696","8288","10034","696","NA","2","legacy","6","1024","2","48000","-16","experiment","2","even","4","471920","472997","3189","95521","472997","272527","3197","85485","475202","477204","477901","473998","11486","477204","NA","Sternberg Task","70","66233","74","yes","1024"
"94.6666666667","94.6666666667","901.6","901.6","black","experiment","legacy","legacy","legacy","0","uniform","1","undefined","1","right","74","74","0","0","74","74","0","0","74","74","74","74","0","74","0","10/22/20 21:02:29","The main experiment item","yes","SternbergTask.osexp","C:\Users\18177\OneDrive\Documents\School\Grad School\Fall 2020\Lab 3 Sternberg Memory","no","mono","no","18","no","white","no","yes","768","legacy","62","11","C:/Users/18177/OneDrive/Documents/School/Grad School/Fall 2020/Lab 3 Sternberg Memory/subject-2.csv","legacy","9 7 4 5 8","Lentiform Loewenfeld","3.3.3","0","n","0","right","right","right","right","NA","1387","8288","10034","1387","NA","2","legacy","5","1024","2","48000","-16","experiment","2","even","6","471920","478974","3189","95521","478975","477914","3197","85485","481182","483187","484575","479977","11486","483186","NA","Sternberg Task","71","67620","75","yes","1024"
"94.7368421053","94.7368421053","903.25","903.25","black","experiment","legacy","legacy","legacy","0","uniform","1","undefined","1","right","75","75","0","0","75","75","0","0","75","75","75","75","0","75","0","10/22/20 21:02:29","The main experiment item","yes","SternbergTask.osexp","C:\Users\18177\OneDrive\Documents\School\Grad School\Fall 2020\Lab 3 Sternberg Memory","no","mono","no","18","no","white","no","yes","768","legacy","63","11","C:/Users/18177/OneDrive/Documents/School/Grad School/Fall 2020/Lab 3 Sternberg Memory/subject-2.csv","legacy","6 8 4","Lentiform Loewenfeld","3.3.3","0","n","0","right","right","right","right","NA","1027","8288","10034","1027","NA","2","legacy","3","1024","2","48000","-16","experiment","2","even","1","484587","485645","3189","95521","485646","477914","3197","85485","487850","489851","490879","486647","11486","489851","NA","Sternberg Task","72","68647","76","yes","1024"
"94.8051948052","94.8051948052","898.896103896","898.896103896","black","experiment","legacy","legacy","legacy","0","uniform","1","undefined","1","right","76","76","0","0","76","76","0","0","76","76","76","76","0","76","0","10/22/20 21:02:29","The main experiment item","yes","SternbergTask.osexp","C:\Users\18177\OneDrive\Documents\School\Grad School\Fall 2020\Lab 3 Sternberg Memory","no","mono","no","18","no","white","no","yes","768","legacy","64","11","C:/Users/18177/OneDrive/Documents/School/Grad School/Fall 2020/Lab 3 Sternberg Memory/subject-2.csv","legacy","8 9","Lentiform Loewenfeld","3.3.3","0","n","0","right","right","right","right","NA","568","8288","10034","568","NA","2","legacy","2","1024","2","48000","-16","experiment","2","even","5","490890","491948","3189","95521","491949","477914","3197","85485","494154","496155","496724","492950","11486","496155","NA","Sternberg Task","73","69215","77","yes","1024"
"94.8717948718","94.8717948718","905.243589744","905.243589744","black","experiment","legacy","legacy","legacy","0","uniform","1","undefined","1","right","77","77","0","0","77","77","0","0","77","77","77","77","0","77","0","10/22/20 21:02:29","The main experiment item","yes","SternbergTask.osexp","C:\Users\18177\OneDrive\Documents\School\Grad School\Fall 2020\Lab 3 Sternberg Memory","no","mono","no","18","no","white","no","yes","768","legacy","65","11","C:/Users/18177/OneDrive/Documents/School/Grad School/Fall 2020/Lab 3 Sternberg Memory/subject-2.csv","legacy","5 7 3","Lentiform Loewenfeld","3.3.3","0","n","0","right","right","right","right","NA","1394","8288","10034","1394","NA","2","legacy","3","1024","2","48000","-16","experiment","2","even","9","496737","497795","3189","95521","497796","477914","3197","85485","500000","502002","503397","498796","11486","502002","NA","Sternberg Task","74","70609","78","yes","1024"
"94.9367088608","94.9367088608","908.683544304","908.683544304","black","experiment","legacy","legacy","legacy","0","uniform","1","undefined","1","left","78","78","0","0","78","78","0","0","78","78","78","78","0","78","0","10/22/20 21:02:29","The main experiment item","yes","SternbergTask.osexp","C:\Users\18177\OneDrive\Documents\School\Grad School\Fall 2020\Lab 3 Sternberg Memory","no","mono","no","18","no","white","no","yes","768","legacy","66","11","C:/Users/18177/OneDrive/Documents/School/Grad School/Fall 2020/Lab 3 Sternberg Memory/subject-2.csv","legacy","3 5 9 6 2 4","Lentiform Loewenfeld","3.3.3","1","y","0","left","right","right","left","NA","1177","8288","10034","1177","NA","2","legacy","6","1024","2","48000","-16","experiment","2","even","3","503408","504467","3189","95521","504469","477914","3197","85485","506671","508672","509850","505470","11486","508672","NA","Sternberg Task","75","71786","79","yes","1024"
"95","95","906.5125","906.5125","black","experiment","legacy","legacy","legacy","0","uniform","1","undefined","1","left","79","79","0","0","79","79","0","0","79","79","79","79","0","79","0","10/22/20 21:02:29","The main experiment item","yes","SternbergTask.osexp","C:\Users\18177\OneDrive\Documents\School\Grad School\Fall 2020\Lab 3 Sternberg Memory","no","mono","no","18","no","white","no","yes","768","legacy","67","11","C:/Users/18177/OneDrive/Documents/School/Grad School/Fall 2020/Lab 3 Sternberg Memory/subject-2.csv","legacy","2 5 4 8 7","Lentiform Loewenfeld","3.3.3","3","y","0","left","right","right","left","NA","735","8288","10034","735","NA","2","legacy","5","1024","2","48000","-16","experiment","2","even","4","509854","510912","3189","95521","510914","477914","3197","85485","513118","515119","515855","511915","11486","515119","NA","Sternberg Task","76","72521","80","yes","1024"
"95.0617283951","95.0617283951","905.296296296","905.296296296","black","experiment","legacy","legacy","legacy","0","uniform","1","undefined","1","right","80","80","0","0","80","80","0","0","80","80","80","80","0","80","0","10/22/20 21:02:29","The main experiment item","yes","SternbergTask.osexp","C:\Users\18177\OneDrive\Documents\School\Grad School\Fall 2020\Lab 3 Sternberg Memory","no","mono","no","18","no","white","no","yes","768","legacy","68","11","C:/Users/18177/OneDrive/Documents/School/Grad School/Fall 2020/Lab 3 Sternberg Memory/subject-2.csv","legacy","2 3 8 5 6 7","Lentiform Loewenfeld","3.3.3","0","n","0","right","right","right","right","NA","808","8288","10034","808","NA","2","legacy","6","1024","2","48000","-16","experiment","2","even","1","515867","516940","3189","95521","516942","477914","3197","85485","519152","521153","521962","517946","11486","521153","NA","Sternberg Task","77","73329","81","yes","1024"
"95.1219512195","95.1219512195","901.951219512","901.951219512","black","experiment","legacy","legacy","legacy","0","uniform","1","undefined","1","right","81","81","0","0","81","81","0","0","81","81","81","81","0","81","0","10/22/20 21:02:29","The main experiment item","yes","SternbergTask.osexp","C:\Users\18177\OneDrive\Documents\School\Grad School\Fall 2020\Lab 3 Sternberg Memory","no","mono","no","18","no","white","no","yes","768","legacy","69","11","C:/Users/18177/OneDrive/Documents/School/Grad School/Fall 2020/Lab 3 Sternberg Memory/subject-2.csv","legacy","1 3 2 6 9","Lentiform Loewenfeld","3.3.3","0","n","0","right","right","right","right","NA","631","8288","10034","631","NA","2","legacy","5","1024","2","48000","-16","experiment","2","even","5","521975","523034","3189","95521","523035","477914","3197","85485","525244","527245","527877","524039","11486","527245","NA","Sternberg Task","78","73960","82","yes","1024"
"95.1807228916","95.1807228916","902.626506024","902.626506024","black","experiment","legacy","legacy","legacy","0","uniform","1","undefined","1","left","82","82","0","0","82","82","0","0","82","82","82","82","0","82","0","10/22/20 21:02:29","The main experiment item","yes","SternbergTask.osexp","C:\Users\18177\OneDrive\Documents\School\Grad School\Fall 2020\Lab 3 Sternberg Memory","no","mono","no","18","no","white","no","yes","768","legacy","70","11","C:/Users/18177/OneDrive/Documents/School/Grad School/Fall 2020/Lab 3 Sternberg Memory/subject-2.csv","legacy","1 4 9 3 2 5","Lentiform Loewenfeld","3.3.3","3","y","0","left","right","right","left","NA","958","8288","10034","958","NA","2","legacy","6","1024","2","48000","-16","experiment","2","even","9","527889","528947","3189","95521","528949","477914","3197","85485","531154","533156","534115","529950","11486","533156","NA","Sternberg Task","79","74918","83","yes","1024"
"95.2380952381","95.2380952381","906.333333333","906.333333333","black","experiment","legacy","legacy","legacy","0","uniform","1","undefined","1","right","83","83","0","0","83","83","0","0","83","83","83","83","0","83","0","10/22/20 21:02:29","The main experiment item","yes","SternbergTask.osexp","C:\Users\18177\OneDrive\Documents\School\Grad School\Fall 2020\Lab 3 Sternberg Memory","no","mono","no","18","no","white","no","yes","768","legacy","71","11","C:/Users/18177/OneDrive/Documents/School/Grad School/Fall 2020/Lab 3 Sternberg Memory/subject-2.csv","legacy","5 3 8 7 2 4","Lentiform Loewenfeld","3.3.3","0","n","0","right","right","right","right","NA","1214","8288","10034","1214","NA","2","legacy","6","1024","2","48000","-16","experiment","2","even","9","534127","535185","3189","95521","535186","477914","3197","85485","537391","539392","540606","536187","11486","539392","NA","Sternberg Task","80","76132","84","yes","1024"
"95.2941176471","95.2941176471","909.694117647","909.694117647","black","experiment","legacy","legacy","legacy","0","uniform","1","undefined","1","left","84","84","0","0","84","84","0","0","84","84","84","84","0","84","0","10/22/20 21:02:29","The main experiment item","yes","SternbergTask.osexp","C:\Users\18177\OneDrive\Documents\School\Grad School\Fall 2020\Lab 3 Sternberg Memory","no","mono","no","18","no","white","no","yes","768","legacy","72","11","C:/Users/18177/OneDrive/Documents/School/Grad School/Fall 2020/Lab 3 Sternberg Memory/subject-2.csv","legacy","7 1 3","Lentiform Loewenfeld","3.3.3","2","y","0","left","right","right","left","NA","1192","8288","10034","1192","NA","2","legacy","3","1024","2","48000","-16","experiment","2","even","1","540611","541672","3189","95521","541673","477914","3197","85485","543878","545879","547072","542674","11486","545879","NA","Sternberg Task","81","77324","85","yes","1024"
"95.3488372093","95.3488372093","906.720930233","906.720930233","black","experiment","legacy","legacy","legacy","0","uniform","1","undefined","1","left","85","85","0","0","85","85","0","0","85","85","85","85","0","85","0","10/22/20 21:02:29","The main experiment item","yes","SternbergTask.osexp","C:\Users\18177\OneDrive\Documents\School\Grad School\Fall 2020\Lab 3 Sternberg Memory","no","mono","no","18","no","white","no","yes","768","legacy","73","11","C:/Users/18177/OneDrive/Documents/School/Grad School/Fall 2020/Lab 3 Sternberg Memory/subject-2.csv","legacy","3 9 6 2","Lentiform Loewenfeld","3.3.3","4","y","0","left","right","right","left","NA","654","8288","10034","654","NA","2","legacy","4","1024","2","48000","-16","experiment","2","even","2","547083","548142","3189","95521","548143","477914","3197","85485","550348","552353","553008","549144","11486","552352","NA","Sternberg Task","82","77978","86","yes","1024"
"95.4022988506","95.4022988506","904.436781609","904.436781609","black","experiment","legacy","legacy","legacy","0","uniform","1","undefined","1","right","86","86","0","0","86","86","0","0","86","86","86","86","0","86","0","10/22/20 21:02:29","The main experiment item","yes","SternbergTask.osexp","C:\Users\18177\OneDrive\Documents\School\Grad School\Fall 2020\Lab 3 Sternberg Memory","no","mono","no","18","no","white","no","yes","768","legacy","74","11","C:/Users/18177/OneDrive/Documents/School/Grad School/Fall 2020/Lab 3 Sternberg Memory/subject-2.csv","legacy","5 9 2 3","Lentiform Loewenfeld","3.3.3","0","n","0","right","right","right","right","NA","708","8288","10034","708","NA","2","legacy","4","1024","2","48000","-16","experiment","2","even","8","553012","554071","3189","95521","554073","477914","3197","85485","556278","558280","558988","555074","11486","558280","NA","Sternberg Task","83","78686","87","yes","1024"
"95.4545454545","95.4545454545","903.454545455","903.454545455","black","experiment","legacy","legacy","legacy","0","uniform","1","undefined","1","left","87","87","0","0","87","87","0","0","87","87","87","87","0","87","0","10/22/20 21:02:29","The main experiment item","yes","SternbergTask.osexp","C:\Users\18177\OneDrive\Documents\School\Grad School\Fall 2020\Lab 3 Sternberg Memory","no","mono","no","18","no","white","no","yes","768","legacy","75","11","C:/Users/18177/OneDrive/Documents/School/Grad School/Fall 2020/Lab 3 Sternberg Memory/subject-2.csv","legacy","4 6 2 5 1","Lentiform Loewenfeld","3.3.3","5","y","0","left","right","right","left","NA","818","8288","10034","818","NA","2","legacy","5","1024","2","48000","-16","experiment","2","even","1","559000","560058","3189","95521","560060","477914","3197","85485","562269","564271","565090","561064","11486","564271","NA","Sternberg Task","84","79504","88","yes","1024"
"95.5056179775","95.5056179775","901.573033708","901.573033708","black","experiment","legacy","legacy","legacy","0","uniform","1","undefined","1","left","88","88","0","0","88","88","0","0","88","88","88","88","0","88","0","10/22/20 21:02:29","The main experiment item","yes","SternbergTask.osexp","C:\Users\18177\OneDrive\Documents\School\Grad School\Fall 2020\Lab 3 Sternberg Memory","no","mono","no","18","no","white","no","yes","768","legacy","76","11","C:/Users/18177/OneDrive/Documents/School/Grad School/Fall 2020/Lab 3 Sternberg Memory/subject-2.csv","legacy","3 9 7 6 4","Lentiform Loewenfeld","3.3.3","3","y","0","left","right","right","left","NA","736","8288","10034","736","NA","2","legacy","5","1024","2","48000","-16","experiment","2","even","7","565103","566160","3189","95521","566162","477914","3197","85485","568370","570371","571108","567166","11486","570371","NA","Sternberg Task","85","80240","89","yes","1024"
"95.5555555556","95.5555555556","899.366666667","899.366666667","black","experiment","legacy","legacy","legacy","0","uniform","1","undefined","1","right","89","89","0","0","89","89","0","0","89","89","89","89","0","89","0","10/22/20 21:02:29","The main experiment item","yes","SternbergTask.osexp","C:\Users\18177\OneDrive\Documents\School\Grad School\Fall 2020\Lab 3 Sternberg Memory","no","mono","no","18","no","white","no","yes","768","legacy","77","11","C:/Users/18177/OneDrive/Documents/School/Grad School/Fall 2020/Lab 3 Sternberg Memory/subject-2.csv","legacy","3 4 2","Lentiform Loewenfeld","3.3.3","0","n","0","right","right","right","right","NA","703","8288","10034","703","NA","2","legacy","3","1024","2","48000","-16","experiment","2","even","5","571121","572178","3189","95521","572180","477914","3197","85485","574385","576386","577091","573181","11486","576386","NA","Sternberg Task","86","80943","90","yes","1024"
"95.6043956044","95.6043956044","898.32967033","898.32967033","black","experiment","legacy","legacy","legacy","0","uniform","1","undefined","1","right","90","90","0","0","90","90","0","0","90","90","90","90","0","90","0","10/22/20 21:02:29","The main experiment item","yes","SternbergTask.osexp","C:\Users\18177\OneDrive\Documents\School\Grad School\Fall 2020\Lab 3 Sternberg Memory","no","mono","no","18","no","white","no","yes","768","legacy","78","11","C:/Users/18177/OneDrive/Documents/School/Grad School/Fall 2020/Lab 3 Sternberg Memory/subject-2.csv","legacy","8 6 3 4 7","Lentiform Loewenfeld","3.3.3","0","n","0","right","right","right","right","NA","805","8288","10034","805","NA","2","legacy","5","1024","2","48000","-16","experiment","2","even","1","577103","578161","3189","95521","578163","477914","3197","85485","580367","582368","583174","579164","11486","582368","NA","Sternberg Task","87","81748","91","yes","1024"
"95.652173913","95.652173913","894.902173913","894.902173913","black","experiment","legacy","legacy","legacy","0","uniform","1","undefined","1","right","91","91","0","0","91","91","0","0","91","91","91","91","0","91","0","10/22/20 21:02:29","The main experiment item","yes","SternbergTask.osexp","C:\Users\18177\OneDrive\Documents\School\Grad School\Fall 2020\Lab 3 Sternberg Memory","no","mono","no","18","no","white","no","yes","768","legacy","79","11","C:/Users/18177/OneDrive/Documents/School/Grad School/Fall 2020/Lab 3 Sternberg Memory/subject-2.csv","legacy","3 9 1","Lentiform Loewenfeld","3.3.3","0","n","0","right","right","right","right","NA","583","8288","10034","583","NA","2","legacy","3","1024","2","48000","-16","experiment","2","even","7","583187","584244","3189","95521","584246","477914","3197","85485","586450","588451","589036","585247","11486","588451","NA","Sternberg Task","88","82331","92","yes","1024"
"95.6989247312","95.6989247312","897.827956989","897.827956989","black","experiment","legacy","legacy","legacy","0","uniform","1","undefined","1","left","92","92","0","0","92","92","0","0","92","92","92","92","0","92","0","10/22/20 21:02:29","The main experiment item","yes","SternbergTask.osexp","C:\Users\18177\OneDrive\Documents\School\Grad School\Fall 2020\Lab 3 Sternberg Memory","no","mono","no","18","no","white","no","yes","768","legacy","80","11","C:/Users/18177/OneDrive/Documents/School/Grad School/Fall 2020/Lab 3 Sternberg Memory/subject-2.csv","legacy","8 9 5 7 1 6","Lentiform Loewenfeld","3.3.3","4","y","0","left","right","right","left","NA","1167","8288","10034","1167","NA","2","legacy","6","1024","2","48000","-16","experiment","2","even","7","589047","590104","3189","95521","590105","477914","3197","85485","592310","594311","595479","591106","11486","594311","NA","Sternberg Task","89","83498","93","yes","1024"
"95.7446808511","95.7446808511","895.978723404","895.978723404","black","experiment","legacy","legacy","legacy","0","uniform","1","undefined","1","left","93","93","0","0","93","93","0","0","93","93","93","93","0","93","0","10/22/20 21:02:29","The main experiment item","yes","SternbergTask.osexp","C:\Users\18177\OneDrive\Documents\School\Grad School\Fall 2020\Lab 3 Sternberg Memory","no","mono","no","18","no","white","no","yes","768","legacy","81","11","C:/Users/18177/OneDrive/Documents/School/Grad School/Fall 2020/Lab 3 Sternberg Memory/subject-2.csv","legacy","9 5 8 1","Lentiform Loewenfeld","3.3.3","2","y","0","left","right","right","left","NA","724","8288","10034","724","NA","2","legacy","4","1024","2","48000","-16","experiment","2","even","5","595491","596549","3189","95521","596550","477914","3197","85485","598757","600758","601483","597553","11486","600758","NA","Sternberg Task","90","84222","94","yes","1024"
"95.7894736842","95.7894736842","894.642105263","894.642105263","black","experiment","legacy","legacy","legacy","0","uniform","1","undefined","1","right","94","94","0","0","94","94","0","0","94","94","94","94","0","94","0","10/22/20 21:02:29","The main experiment item","yes","SternbergTask.osexp","C:\Users\18177\OneDrive\Documents\School\Grad School\Fall 2020\Lab 3 Sternberg Memory","no","mono","no","18","no","white","no","yes","768","legacy","82","11","C:/Users/18177/OneDrive/Documents/School/Grad School/Fall 2020/Lab 3 Sternberg Memory/subject-2.csv","legacy","6 9 4 5 3 2","Lentiform Loewenfeld","3.3.3","0","n","0","right","right","right","right","NA","769","8288","10034","769","NA","2","legacy","6","1024","2","48000","-16","experiment","2","even","8","601495","602557","3189","95521","602558","477914","3197","85485","604763","606765","607535","603559","11486","606765","NA","Sternberg Task","91","84991","95","yes","1024"
"95.8333333333","95.8333333333","898.802083333","898.802083333","black","experiment","legacy","legacy","legacy","0","uniform","1","undefined","1","right","95","95","0","0","95","95","0","0","95","95","95","95","0","95","0","10/22/20 21:02:29","The main experiment item","yes","SternbergTask.osexp","C:\Users\18177\OneDrive\Documents\School\Grad School\Fall 2020\Lab 3 Sternberg Memory","no","mono","no","18","no","white","no","yes","768","legacy","83","11","C:/Users/18177/OneDrive/Documents/School/Grad School/Fall 2020/Lab 3 Sternberg Memory/subject-2.csv","legacy","1 5 3 2 8","Lentiform Loewenfeld","3.3.3","0","n","0","right","right","right","right","NA","1294","8288","10034","1294","NA","2","legacy","5","1024","2","48000","-16","experiment","2","even","4","607542","608599","3189","95521","608600","477914","3197","85485","610805","612806","614101","609602","11486","612806","NA","Sternberg Task","92","86285","96","yes","1024"
"95.8762886598","95.8762886598","897.082474227","897.082474227","black","experiment","legacy","legacy","legacy","0","uniform","1","undefined","1","left","96","96","0","0","96","96","0","0","96","96","96","96","0","96","0","10/22/20 21:02:29","The main experiment item","yes","SternbergTask.osexp","C:\Users\18177\OneDrive\Documents\School\Grad School\Fall 2020\Lab 3 Sternberg Memory","no","mono","no","18","no","white","no","yes","768","legacy","84","11","C:/Users/18177/OneDrive/Documents/School/Grad School/Fall 2020/Lab 3 Sternberg Memory/subject-2.csv","legacy","4 1 5","Lentiform Loewenfeld","3.3.3","2","y","0","left","right","right","left","NA","732","8288","10034","732","NA","2","legacy","3","1024","2","48000","-16","experiment","2","even","1","614113","615170","3189","95521","615171","477914","3197","85485","617376","619377","620110","616172","11486","619377","NA","Sternberg Task","93","87017","97","yes","1024"
"95.9183673469","95.9183673469","894.153061224","894.153061224","black","experiment","legacy","legacy","legacy","0","uniform","1","undefined","1","right","97","97","0","0","97","97","0","0","97","97","97","97","0","97","0","10/22/20 21:02:29","The main experiment item","yes","SternbergTask.osexp","C:\Users\18177\OneDrive\Documents\School\Grad School\Fall 2020\Lab 3 Sternberg Memory","no","mono","no","18","no","white","no","yes","768","legacy","85","11","C:/Users/18177/OneDrive/Documents/School/Grad School/Fall 2020/Lab 3 Sternberg Memory/subject-2.csv","legacy","1 7 5 2","Lentiform Loewenfeld","3.3.3","0","n","0","right","right","right","right","NA","610","8288","10034","610","NA","2","legacy","4","1024","2","48000","-16","experiment","2","even","3","620122","621180","3189","95521","621182","477914","3197","85485","623387","625388","625999","622183","11486","625388","NA","Sternberg Task","94","87627","98","yes","1024"
"95.9595959596","95.9595959596","895.464646465","895.464646465","black","experiment","legacy","legacy","legacy","0","uniform","1","undefined","1","left","98","98","0","0","98","98","0","0","98","98","98","98","0","98","0","10/22/20 21:02:29","The main experiment item","yes","SternbergTask.osexp","C:\Users\18177\OneDrive\Documents\School\Grad School\Fall 2020\Lab 3 Sternberg Memory","no","mono","no","18","no","white","no","yes","768","legacy","86","11","C:/Users/18177/OneDrive/Documents/School/Grad School/Fall 2020/Lab 3 Sternberg Memory/subject-2.csv","legacy","2 4 8 5 1 3","Lentiform Loewenfeld","3.3.3","1","y","0","left","right","right","left","NA","1024","8288","10034","1024","NA","2","legacy","6","1024","2","48000","-16","experiment","2","even","2","626012","627070","3189","95521","627072","477914","3197","85485","629277","631278","632304","628074","11486","631278","NA","Sternberg Task","95","88651","99","yes","1024"
"96","96","893.53","893.53","black","experiment","legacy","legacy","legacy","0","uniform","1","undefined","1","left","99","99","0","0","99","99","0","0","99","99","99","99","0","99","0","10/22/20 21:02:29","The main experiment item","yes","SternbergTask.osexp","C:\Users\18177\OneDrive\Documents\School\Grad School\Fall 2020\Lab 3 Sternberg Memory","no","mono","no","18","no","white","no","yes","768","legacy","87","11","C:/Users/18177/OneDrive/Documents/School/Grad School/Fall 2020/Lab 3 Sternberg Memory/subject-2.csv","legacy","4 6 5 8","Lentiform Loewenfeld","3.3.3","1","y","0","left","right","right","left","NA","702","8288","10034","702","NA","2","legacy","4","1024","2","48000","-16","experiment","2","even","4","632316","633393","3189","95521","633394","477914","3197","85485","635598","637599","638302","634396","11486","637599","NA","Sternberg Task","96","89353","100","yes","1024"
"96.0396039604","96.0396039604","891.742574257","891.742574257","black","experiment","legacy","legacy","legacy","0","uniform","1","undefined","1","left","100","100","0","0","100","100","0","0","100","100","100","100","0","100","0","10/22/20 21:02:29","The main experiment item","yes","SternbergTask.osexp","C:\Users\18177\OneDrive\Documents\School\Grad School\Fall 2020\Lab 3 Sternberg Memory","no","mono","no","18","no","white","no","yes","768","legacy","88","11","C:/Users/18177/OneDrive/Documents/School/Grad School/Fall 2020/Lab 3 Sternberg Memory/subject-2.csv","legacy","9 4 2","Lentiform Loewenfeld","3.3.3","1","y","0","left","right","right","left","NA","713","8288","10034","713","NA","2","legacy","3","1024","2","48000","-16","experiment","2","even","9","638314","639373","3189","95521","639375","477914","3197","85485","641577","643578","644292","640376","11486","643578","NA","Sternberg Task","97","90066","101","yes","1024"
"96.0784313725","96.0784313725","890.450980392","890.450980392","black","experiment","legacy","legacy","legacy","0","uniform","1","undefined","1","right","101","101","0","0","101","101","0","0","101","101","101","101","0","101","0","10/22/20 21:02:29","The main experiment item","yes","SternbergTask.osexp","C:\Users\18177\OneDrive\Documents\School\Grad School\Fall 2020\Lab 3 Sternberg Memory","no","mono","no","18","no","white","no","yes","768","legacy","89","11","C:/Users/18177/OneDrive/Documents/School/Grad School/Fall 2020/Lab 3 Sternberg Memory/subject-2.csv","legacy","7 4 2 8 1 9","Lentiform Loewenfeld","3.3.3","0","n","0","right","right","right","right","NA","760","8288","10034","760","NA","2","legacy","6","1024","2","48000","-16","experiment","2","even","5","644306","645364","3189","95521","645365","477914","3197","85485","647572","649573","650334","646367","11486","649573","NA","Sternberg Task","98","90826","102","yes","1024"
"96.1165048544","96.1165048544","888.388349515","888.388349515","black","experiment","legacy","legacy","legacy","0","uniform","1","undefined","1","left","102","102","0","0","102","102","0","0","102","102","102","102","0","102","0","10/22/20 21:02:29","The main experiment item","yes","SternbergTask.osexp","C:\Users\18177\OneDrive\Documents\School\Grad School\Fall 2020\Lab 3 Sternberg Memory","no","mono","no","18","no","white","no","yes","768","legacy","90","11","C:/Users/18177/OneDrive/Documents/School/Grad School/Fall 2020/Lab 3 Sternberg Memory/subject-2.csv","legacy","8 3","Lentiform Loewenfeld","3.3.3","2","y","0","left","right","right","left","NA","678","8288","10034","678","NA","2","legacy","2","1024","2","48000","-16","experiment","2","even","3","650346","651404","3189","95521","651405","477914","3197","85485","653613","655614","656294","652409","11486","655614","NA","Sternberg Task","99","91504","103","yes","1024"
"96.1538461538","96.1538461538","886.259615385","886.259615385","black","experiment","legacy","legacy","legacy","0","uniform","1","undefined","1","right","103","103","0","0","103","103","0","0","103","103","103","103","0","103","0","10/22/20 21:02:29","The main experiment item","yes","SternbergTask.osexp","C:\Users\18177\OneDrive\Documents\School\Grad School\Fall 2020\Lab 3 Sternberg Memory","no","mono","no","18","no","white","no","yes","768","legacy","91","11","C:/Users/18177/OneDrive/Documents/School/Grad School/Fall 2020/Lab 3 Sternberg Memory/subject-2.csv","legacy","1 7 8 3 9","Lentiform Loewenfeld","3.3.3","0","n","0","right","right","right","right","NA","667","8288","10034","667","NA","2","legacy","5","1024","2","48000","-16","experiment","2","even","2","656305","657368","3189","95521","657369","477914","3197","85485","659574","661575","662243","658370","11486","661575","NA","Sternberg Task","100","92171","104","yes","1024"
"96.1904761905","96.1904761905","884.047619048","884.047619048","black","experiment","legacy","legacy","legacy","0","uniform","1","undefined","1","left","104","104","0","0","104","104","0","0","104","104","104","104","0","104","0","10/22/20 21:02:29","The main experiment item","yes","SternbergTask.osexp","C:\Users\18177\OneDrive\Documents\School\Grad School\Fall 2020\Lab 3 Sternberg Memory","no","mono","no","18","no","white","no","yes","768","legacy","92","11","C:/Users/18177/OneDrive/Documents/School/Grad School/Fall 2020/Lab 3 Sternberg Memory/subject-2.csv","legacy","6 2","Lentiform Loewenfeld","3.3.3","1","y","0","left","right","right","left","NA","654","8288","10034","654","NA","2","legacy","2","1024","2","48000","-16","experiment","2","even","6","662256","663316","3189","95521","663317","477914","3197","85485","665523","667528","668183","664319","11486","667528","NA","Sternberg Task","101","92825","105","yes","1024"
"96.2264150943","96.2264150943","886.377358491","886.377358491","black","experiment","legacy","legacy","legacy","0","uniform","1","undefined","1","right","105","105","0","0","105","105","0","0","105","105","105","105","0","105","0","10/22/20 21:02:29","The main experiment item","yes","SternbergTask.osexp","C:\Users\18177\OneDrive\Documents\School\Grad School\Fall 2020\Lab 3 Sternberg Memory","no","mono","no","18","no","white","no","yes","768","legacy","93","11","C:/Users/18177/OneDrive/Documents/School/Grad School/Fall 2020/Lab 3 Sternberg Memory/subject-2.csv","legacy","2 7 5","Lentiform Loewenfeld","3.3.3","0","n","0","right","right","right","right","NA","1131","8288","10034","1131","NA","2","legacy","3","1024","2","48000","-16","experiment","2","even","8","668196","669253","3189","95521","669255","477914","3197","85485","671457","673458","674589","670256","11486","673458","NA","Sternberg Task","102","93956","106","yes","1024"
